"Time (s)","Gyroscope x (rad/s)","Gyroscope y (rad/s)","Gyroscope z (rad/s)"
9.308770900E-2,8.335687965E-2,2.054627240E-1,2.167811543E-1
9.561572900E-2,8.548741043E-2,2.086585164E-1,2.221074700E-1
9.813947900E-2,8.761793375E-2,2.097237855E-1,2.263685167E-1
1.006271360E-1,8.974846452E-2,2.118543088E-1,2.306295782E-1
1.031147920E-1,9.081372619E-2,2.139848322E-1,2.338253707E-1
1.056024480E-1,9.081372619E-2,2.139848322E-1,2.370211631E-1
1.080901040E-1,9.081372619E-2,2.161153555E-1,2.391516864E-1
1.105777610E-1,9.081372619E-2,2.171806246E-1,2.423474789E-1
1.130654170E-1,9.187898785E-2,2.193111479E-1,2.434127480E-1
1.155530730E-1,9.400951862E-2,2.182458937E-1,2.444780022E-1
1.180407290E-1,9.827057272E-2,2.171806246E-1,2.444780022E-1
1.205283860E-1,1.014663652E-1,2.129195631E-1,2.434127480E-1
1.230160420E-1,1.046621501E-1,2.054627240E-1,2.412822098E-1
1.255036980E-1,1.067926809E-1,1.937448233E-1,2.391516864E-1
1.279913540E-1,1.067926809E-1,1.777658761E-1,2.348906398E-1
1.304790110E-1,1.057274193E-1,1.553953290E-1,2.306295782E-1
1.329666670E-1,1.046621501E-1,1.308942735E-1,2.253032625E-1
1.354543230E-1,1.046621501E-1,1.042626798E-1,2.199769467E-1
1.379419790E-1,1.067926809E-1,7.869634777E-2,2.135853618E-1
1.404296360E-1,1.078579426E-1,5.419528857E-2,2.071937770E-1
1.429172920E-1,1.110537350E-1,3.289001435E-2,2.018674612E-1
1.454049480E-1,1.153147891E-1,1.584579609E-2,1.965411454E-1
1.478926040E-1,1.185105816E-1,9.321057005E-4,1.922800839E-1
1.503802610E-1,1.227716357E-1,-9.720530361E-3,1.890842915E-1
1.528679170E-1,1.259674281E-1,-1.717737690E-2,1.869537681E-1
1.553555730E-1,1.270326823E-1,-2.143843099E-2,1.837579757E-1
1.578432290E-1,1.270326823E-1,-2.356895804E-2,1.816274524E-1
1.603308860E-1,1.259674281E-1,-2.463422157E-2,1.805621833E-1
1.628185420E-1,1.249021590E-1,-2.250369452E-2,1.784316599E-1
1.653061980E-1,1.238368973E-1,-1.930790395E-2,1.773663908E-1
1.677938540E-1,1.259674281E-1,-1.291632187E-2,1.752358675E-1
1.702815110E-1,1.280979514E-1,-4.394212738E-3,1.763011366E-1
1.727691670E-1,1.312937438E-1,6.258423906E-3,1.763011366E-1
1.752568230E-1,1.344895363E-1,2.010685205E-2,1.773663908E-1
1.777444790E-1,1.355548054E-1,3.502054140E-2,1.784316599E-1
1.802321360E-1,1.366200596E-1,5.313002318E-2,1.805621833E-1
1.827197920E-1,1.376853287E-1,7.017423958E-2,1.826927215E-1
1.852074480E-1,1.387505829E-1,8.828372508E-2,1.848232448E-1
1.876951040E-1,1.376853287E-1,1.053279415E-1,1.880190372E-1
1.901827610E-1,1.366200596E-1,1.202416345E-1,1.901495606E-1
1.926704170E-1,1.323590130E-1,1.340900660E-1,1.912148297E-1
1.951580730E-1,1.270326823E-1,1.458079666E-1,1.944106072E-1
1.976457290E-1,1.217063740E-1,1.543300748E-1,1.965411454E-1
2.001333860E-1,1.163800508E-1,1.617869139E-1,1.997369379E-1
2.026210420E-1,1.131842583E-1,1.660479754E-1,2.018674612E-1
2.051086980E-1,1.110537350E-1,1.681784987E-1,2.039979845E-1
2.075963540E-1,1.089232042E-1,1.681784987E-1,2.050632536E-1
2.100840110E-1,1.089232042E-1,1.671132296E-1,2.061285079E-1
2.125716670E-1,1.078579426E-1,1.649827063E-1,2.061285079E-1
2.150593230E-1,1.067926809E-1,1.607216448E-1,2.039979845E-1
2.175469790E-1,1.057274193E-1,1.553953290E-1,2.008021921E-1
2.200346360E-1,1.035968885E-1,1.468732208E-1,1.965411454E-1
2.225222920E-1,1.014663652E-1,1.372858584E-1,1.901495606E-1
2.250099480E-1,9.827057272E-2,1.245026886E-1,1.826927215E-1
2.274976040E-1,9.614004195E-2,1.117195264E-1,1.741705984E-1
2.299852610E-1,9.400951862E-2,9.787109494E-2,1.667137593E-1
2.324729170E-1,9.081372619E-2,8.402267098E-2,1.571263820E-1
2.349605730E-1,8.761793375E-2,7.123950869E-2,1.486042738E-1
2.374482290E-1,8.442214131E-2,5.952160433E-2,1.390169114E-1
2.399358860E-1,8.122635633E-2,4.993423447E-2,1.304948032E-1
2.424235420E-1,7.803056389E-2,4.034686089E-2,1.230379492E-1
2.449111980E-1,7.590003312E-2,3.289001435E-2,1.145158410E-1
2.473988540E-1,7.376950979E-2,2.543316968E-2,1.081242561E-1
2.498865110E-1,7.057371736E-2,2.010685205E-2,1.017326787E-1
2.523741670E-1,6.844318658E-2,1.691105962E-2,9.640636295E-2
2.548618230E-1,6.524740160E-2,1.478053257E-2,9.214530140E-2
2.573494790E-1,6.418213248E-2,1.478053257E-2,8.894951642E-2
2.598371360E-1,6.205160543E-2,1.691105962E-2,8.788424730E-2
2.623247920E-1,5.992107838E-2,2.223737910E-2,8.681898564E-2
2.648124480E-1,5.885581672E-2,2.969422378E-2,8.788424730E-2
2.673001040E-1,5.672528967E-2,4.034686089E-2,9.108003974E-2
2.697877610E-1,5.672528967E-2,5.313002318E-2,9.534109384E-2
2.722754170E-1,5.672528967E-2,6.697845459E-2,1.017326787E-1
2.747630730E-1,5.779055133E-2,8.295740932E-2,1.091895252E-1
2.772507290E-1,5.992107838E-2,9.893636405E-2,1.155811027E-1
2.797383860E-1,6.311687082E-2,1.138500497E-1,1.230379492E-1
2.822260420E-1,6.737792492E-2,1.276984811E-1,1.294295341E-1
2.847136980E-1,7.057371736E-2,1.372858584E-1,1.358211190E-1
2.872013540E-1,7.376950979E-2,1.436774284E-1,1.400821656E-1
2.896890110E-1,7.590003312E-2,1.458079666E-1,1.443432271E-1
2.921766670E-1,7.590003312E-2,1.458079666E-1,1.475390196E-1
2.946643230E-1,7.696529478E-2,1.426121742E-1,1.496695429E-1
2.971519790E-1,7.696529478E-2,1.383511126E-1,1.518000662E-1
2.996396360E-1,7.803056389E-2,1.330247968E-1,1.539305896E-1
3.021272920E-1,7.909582555E-2,1.276984811E-1,1.549958587E-1
3.046149480E-1,8.122635633E-2,1.245026886E-1,1.560611278E-1
3.071026040E-1,8.548741043E-2,1.223721579E-1,1.571263820E-1
3.095902610E-1,8.868319541E-2,1.213068962E-1,1.571263820E-1
3.120779170E-1,9.294424951E-2,1.223721579E-1,1.571263820E-1
3.145655730E-1,9.720530361E-2,1.234374270E-1,1.560611278E-1
3.170532290E-1,1.004010960E-1,1.255679578E-1,1.549958587E-1
3.195408860E-1,1.057274193E-1,1.276984811E-1,1.539305896E-1
3.220285420E-1,1.089232042E-1,1.298290044E-1,1.539305896E-1
3.245161980E-1,1.142495275E-1,1.308942735E-1,1.528653353E-1
3.270038540E-1,1.185105816E-1,1.308942735E-1,1.528653353E-1
3.294915110E-1,1.238368973E-1,1.319595277E-1,1.539305896E-1
3.319791670E-1,1.302284747E-1,1.330247968E-1,1.549958587E-1
3.344668230E-1,1.366200596E-1,1.340900660E-1,1.571263820E-1
3.369544790E-1,1.419463754E-1,1.362205893E-1,1.592569202E-1
3.394421360E-1,1.451421678E-1,1.362205893E-1,1.592569202E-1
3.419297920E-1,1.483379602E-1,1.362205893E-1,1.613874435E-1
3.444174480E-1,1.483379602E-1,1.351553202E-1,1.613874435E-1
3.469051040E-1,1.494032294E-1,1.319595277E-1,1.624527127E-1
3.493927610E-1,1.494032294E-1,1.266332120E-1,1.624527127E-1
3.518804170E-1,1.504684836E-1,1.213068962E-1,1.624527127E-1
3.543680730E-1,1.515337527E-1,1.138500497E-1,1.603221744E-1
3.568557290E-1,1.525990218E-1,1.074584723E-1,1.592569202E-1
3.593433860E-1,1.547295451E-1,1.021321490E-1,1.581916511E-1
3.618310420E-1,1.589905918E-1,9.787109494E-2,1.571263820E-1
3.643186980E-1,1.632516533E-1,9.574057162E-2,1.560611278E-1
3.668063540E-1,1.675127149E-1,9.467530251E-2,1.539305896E-1
3.692940110E-1,1.696432382E-1,9.361004084E-2,1.518000662E-1
3.717816670E-1,1.717737615E-1,9.361004084E-2,1.496695429E-1
3.742693230E-1,1.717737615E-1,9.254477918E-2,1.475390196E-1
3.767569790E-1,1.717737615E-1,9.254477918E-2,1.454084814E-1
3.792446360E-1,1.696432382E-1,9.147951752E-2,1.422126889E-1
3.817322920E-1,1.675127149E-1,8.934898674E-2,1.400821656E-1
3.842199480E-1,1.664474458E-1,8.721846342E-2,1.368863732E-1
3.867076040E-1,1.653821766E-1,8.615319431E-2,1.336905807E-1
3.891952610E-1,1.664474458E-1,8.721846342E-2,1.315600574E-1
3.916829170E-1,1.675127149E-1,8.615319431E-2,1.262337416E-1
3.941705730E-1,1.685779691E-1,8.721846342E-2,1.219726875E-1
3.966582290E-1,1.696432382E-1,8.828372508E-2,1.166463718E-1
3.991458860E-1,1.707084924E-1,8.934898674E-2,1.113200486E-1
4.016335420E-1,1.696432382E-1,9.254477918E-2,1.059937328E-1
4.041211980E-1,1.675127149E-1,9.574057162E-2,1.006674170E-1
4.066088540E-1,1.632516533E-1,9.893636405E-2,9.427583218E-2
4.090965110E-1,1.600558609E-1,1.021321490E-1,8.894951642E-2
4.115841670E-1,1.547295451E-1,1.042626798E-1,8.362319320E-2
4.140718230E-1,1.494032294E-1,1.053279415E-1,7.829687744E-2
4.165594790E-1,1.451421678E-1,1.042626798E-1,7.510108501E-2
4.190471360E-1,1.408811212E-1,1.021321490E-1,7.190529257E-2
4.215347920E-1,1.366200596E-1,1.000016257E-1,6.870950758E-2
4.240224480E-1,1.323590130E-1,9.787109494E-2,6.551371515E-2
4.265101040E-1,1.280979514E-1,9.680583328E-2,6.231792271E-2
4.289977610E-1,1.238368973E-1,9.574057162E-2,6.018739566E-2
4.314854170E-1,1.206411049E-1,9.467530251E-2,5.699160323E-2
4.339730730E-1,1.174453199E-1,9.361004084E-2,5.379581451E-2
4.364607290E-1,1.131842583E-1,9.254477918E-2,5.166528746E-2
4.389483860E-1,1.099884734E-1,9.147951752E-2,4.740423337E-2
4.414360420E-1,1.078579426E-1,9.147951752E-2,4.527370632E-2
4.439236980E-1,1.057274193E-1,9.041424841E-2,4.207791388E-2
4.464113540E-1,1.046621501E-1,9.147951752E-2,3.781685978E-2
4.488990110E-1,1.025316268E-1,9.147951752E-2,3.568633273E-2
4.513866670E-1,1.004010960E-1,9.041424841E-2,3.249054030E-2
4.538743230E-1,9.827057272E-2,8.721846342E-2,2.822948620E-2
4.563619790E-1,9.507478029E-2,8.082687855E-2,2.396843210E-2
4.588496360E-1,9.081372619E-2,7.230477035E-2,1.864211448E-2
4.613372920E-1,8.548741043E-2,5.952160433E-2,1.225053146E-2
4.638249480E-1,8.122635633E-2,4.673844203E-2,4.793686327E-3
4.663126040E-1,7.696529478E-2,3.502054140E-2,-2.663159044E-3
4.688002610E-1,7.270424068E-2,2.330264263E-2,-9.054740891E-3
4.712879170E-1,6.950845569E-2,1.371526904E-2,-1.651158556E-2
4.737755730E-1,6.631266326E-2,6.258423906E-3,-2.290316857E-2
4.762632290E-1,6.524740160E-2,1.997369342E-3,-3.036001325E-2
4.787508860E-1,6.311687082E-2,1.997369342E-3,-3.675159439E-2
4.812385420E-1,6.205160543E-2,5.193160381E-3,-4.314317927E-2
4.837261980E-1,6.098634377E-2,1.158474199E-2,-4.846949503E-2
4.862138540E-1,5.992107838E-2,2.010685205E-2,-5.273054913E-2
4.887015110E-1,5.992107838E-2,2.862896025E-2,-5.592634156E-2
4.911891670E-1,5.885581672E-2,3.821633384E-2,-5.699160323E-2
4.936768230E-1,5.672528967E-2,4.780370742E-2,-5.592634156E-2
4.961644790E-1,5.459476262E-2,5.845634267E-2,-5.379581451E-2
4.986521360E-1,5.246423557E-2,6.804371625E-2,-4.953476042E-2
5.011397920E-1,5.246423557E-2,8.082687855E-2,-4.420844093E-2
5.036274480E-1,5.139897019E-2,9.467530251E-2,-3.675159439E-2
5.061151040E-1,5.033370852E-2,1.063932031E-1,-3.036001325E-2
5.086027610E-1,4.926844314E-2,1.181111038E-1,-2.503369562E-2
5.110904170E-1,4.926844314E-2,1.287637353E-1,-1.864211448E-2
5.135780730E-1,5.033370852E-2,1.372858584E-1,-1.331579592E-2
5.160657290E-1,5.033370852E-2,1.447426975E-1,-7.989477366E-3
5.185533860E-1,4.926844314E-2,1.500690132E-1,-2.663159044E-3
5.210410420E-1,4.713791609E-2,1.564605981E-1,1.597895520E-3
5.235286980E-1,4.394212365E-2,1.607216448E-1,3.728422802E-3
5.260163540E-1,4.181159660E-2,1.660479754E-1,4.793686327E-3
5.285040110E-1,3.861580789E-2,1.692437679E-1,3.728422802E-3
5.309916670E-1,3.648528084E-2,1.724395454E-1,2.663159044E-3
5.334793230E-1,3.435475379E-2,1.735048145E-1,-1.597895520E-3
5.359669790E-1,3.222422674E-2,1.724395454E-1,-6.924213842E-3
5.384546360E-1,3.115896136E-2,1.703090221E-1,-1.225053146E-2
5.409422920E-1,2.902843431E-2,1.660479754E-1,-1.864211448E-2
5.434299480E-1,2.902843431E-2,1.607216448E-1,-2.503369562E-2
5.459176040E-1,2.796317078E-2,1.543300748E-1,-3.142527863E-2
5.484052610E-1,2.583264373E-2,1.468732208E-1,-3.675159439E-2
5.508929170E-1,2.370211668E-2,1.404816359E-1,-4.207791388E-2
5.533805730E-1,2.157158963E-2,1.340900660E-1,-4.740423337E-2
5.558682290E-1,1.944106072E-2,1.266332120E-1,-5.379581451E-2
5.583558860E-1,1.624527015E-2,1.202416345E-1,-5.912213027E-2
5.608435420E-1,1.198421605E-2,1.138500497E-1,-6.338318437E-2
5.633311980E-1,8.788425475E-3,1.074584723E-1,-6.870950758E-2
5.658188540E-1,6.657897960E-3,1.021321490E-1,-7.403582335E-2
5.683065110E-1,3.462106921E-3,9.787109494E-2,-7.723161578E-2
5.707941670E-1,1.331579522E-3,9.574057162E-2,-8.042740822E-2
5.732818230E-1,-7.989477599E-4,9.361004084E-2,-8.149266988E-2
5.757694790E-1,-1.864211401E-3,9.254477918E-2,-8.362319320E-2
5.782571360E-1,-2.929474926E-3,9.147951752E-2,-8.468846232E-2
5.807447920E-1,-2.929474926E-3,9.147951752E-2,-8.575372398E-2
5.832324480E-1,-5.060002208E-3,9.361004084E-2,-8.575372398E-2
5.857201040E-1,-6.125265732E-3,9.574057162E-2,-8.681898564E-2
5.882077610E-1,-6.125265732E-3,9.787109494E-2,-8.681898564E-2
5.906954170E-1,-7.190529723E-3,9.893636405E-2,-8.788424730E-2
5.931830730E-1,-9.321057238E-3,1.000016257E-1,-8.894951642E-2
5.956707290E-1,-1.038632076E-2,1.000016257E-1,-8.894951642E-2
5.981583860E-1,-1.358211134E-2,9.787109494E-2,-9.001477808E-2
6.006460420E-1,-1.571263932E-2,9.361004084E-2,-9.108003974E-2
6.031336980E-1,-1.997369342E-2,9.041424841E-2,-9.001477808E-2
6.056213540E-1,-2.316948399E-2,8.508793265E-2,-9.001477808E-2
6.081090110E-1,-2.743053809E-2,8.082687855E-2,-9.108003974E-2
6.105966670E-1,-3.062633052E-2,7.656582445E-2,-9.214530140E-2
6.130843230E-1,-3.382211924E-2,7.443529367E-2,-9.427583218E-2
6.155719790E-1,-3.595264629E-2,7.337003201E-2,-9.534109384E-2
6.180596360E-1,-3.808317333E-2,7.123950869E-2,-9.853688627E-2
6.205472920E-1,-3.914843872E-2,6.910897791E-2,-1.017326787E-1
6.230349480E-1,-4.127896577E-2,6.804371625E-2,-1.059937328E-1
6.255226040E-1,-4.340949282E-2,6.697845459E-2,-1.091895252E-1
6.280102610E-1,-4.447475821E-2,6.484792382E-2,-1.113200486E-1
6.304979170E-1,-4.554001987E-2,6.378266215E-2,-1.134505793E-1
6.329855730E-1,-4.767054692E-2,6.378266215E-2,-1.155811027E-1
6.354732290E-1,-4.767054692E-2,6.484792382E-2,-1.177116334E-1
6.379608860E-1,-4.767054692E-2,6.804371625E-2,-1.187768951E-1
6.404485420E-1,-4.873581231E-2,7.123950869E-2,-1.198421568E-1
6.429361980E-1,-4.767054692E-2,7.443529367E-2,-1.219726875E-1
6.454238540E-1,-4.767054692E-2,7.763108611E-2,-1.219726875E-1
6.479115110E-1,-4.767054692E-2,8.082687855E-2,-1.219726875E-1
6.503991670E-1,-4.767054692E-2,8.295740932E-2,-1.219726875E-1
6.528868230E-1,-4.767054692E-2,8.508793265E-2,-1.209074259E-1
6.553744790E-1,-4.554001987E-2,8.615319431E-2,-1.198421568E-1
6.578621360E-1,-4.340949282E-2,8.615319431E-2,-1.187768951E-1
6.603497920E-1,-4.127896577E-2,8.615319431E-2,-1.177116334E-1
6.628374480E-1,-3.595264629E-2,8.615319431E-2,-1.166463718E-1
6.653251040E-1,-3.169159219E-2,8.721846342E-2,-1.177116334E-1
6.678127610E-1,-2.743053809E-2,8.828372508E-2,-1.198421568E-1
6.703004170E-1,-2.423474751E-2,8.934898674E-2,-1.219726875E-1
6.727880730E-1,-2.210422046E-2,8.828372508E-2,-1.251684725E-1
6.752757290E-1,-1.997369342E-2,8.508793265E-2,-1.294295341E-1
6.777633860E-1,-1.997369342E-2,7.976161689E-2,-1.347558498E-1
6.802510420E-1,-2.103895694E-2,7.230477035E-2,-1.400821656E-1
6.827386980E-1,-2.210422046E-2,6.271740049E-2,-1.443432271E-1
6.852263540E-1,-2.316948399E-2,5.206476152E-2,-1.496695429E-1
6.877140110E-1,-2.423474751E-2,4.034686089E-2,-1.539305896E-1
6.902016670E-1,-2.636527456E-2,2.969422378E-2,-1.592569202E-1
6.926893230E-1,-2.849580161E-2,2.010685205E-2,-1.635179669E-1
6.951769790E-1,-2.956106514E-2,1.158474199E-2,-1.688442826E-1
6.976646360E-1,-3.275685757E-2,5.193160381E-3,-1.741705984E-1
7.001522920E-1,-3.595264629E-2,-1.331579551E-4,-1.784316599E-1
7.026399480E-1,-3.914843872E-2,-5.459476262E-3,-1.826927215E-1
7.051276040E-1,-4.340949282E-2,-9.720530361E-3,-1.858884990E-1
7.076152610E-1,-4.873581231E-2,-1.398158539E-2,-1.880190372E-1
7.101029170E-1,-5.299686641E-2,-1.717737690E-2,-1.890842915E-1
7.125905730E-1,-5.725792050E-2,-2.143843099E-2,-1.890842915E-1
7.150782290E-1,-6.151897460E-2,-2.463422157E-2,-1.880190372E-1
7.175658860E-1,-6.471476704E-2,-2.783001214E-2,-1.858884990E-1
7.200535420E-1,-6.578002870E-2,-2.996053919E-2,-1.826927215E-1
7.225411980E-1,-6.684529036E-2,-3.102580272E-2,-1.773663908E-1
7.250288540E-1,-6.684529036E-2,-2.996053919E-2,-1.731053442E-1
7.275165110E-1,-6.684529036E-2,-2.569948509E-2,-1.656484902E-1
7.300041670E-1,-6.578002870E-2,-1.717737690E-2,-1.592569202E-1
7.324918230E-1,-6.258423626E-2,-5.459476262E-3,-1.507348120E-1
7.349794790E-1,-5.938844755E-2,1.051947847E-2,-1.432779580E-1
7.374671360E-1,-5.406212807E-2,2.862896025E-2,-1.347558498E-1
7.399547920E-1,-4.980107397E-2,4.780370742E-2,-1.272990108E-1
7.424424480E-1,-4.767054692E-2,6.910897791E-2,-1.209074259E-1
7.449301040E-1,-4.447475821E-2,8.934898674E-2,-1.134505793E-1
7.474177610E-1,-4.234423116E-2,1.063932031E-1,-1.070589945E-1
7.499054170E-1,-4.127896577E-2,1.213068962E-1,-1.017326787E-1
7.523930730E-1,-3.914843872E-2,1.330247968E-1,-9.640636295E-2
7.548807290E-1,-3.595264629E-2,1.404816359E-1,-9.214530140E-2
7.573683860E-1,-3.275685757E-2,1.436774284E-1,-8.788424730E-2
7.598560420E-1,-2.956106514E-2,1.447426975E-1,-8.468846232E-2
7.623436980E-1,-2.636527456E-2,1.447426975E-1,-8.149266988E-2
7.648313540E-1,-2.530001104E-2,1.404816359E-1,-7.936213911E-2
7.673190110E-1,-2.530001104E-2,1.351553202E-1,-7.936213911E-2
7.698066670E-1,-2.743053809E-2,1.287637353E-1,-7.936213911E-2
7.722943230E-1,-3.062633052E-2,1.202416345E-1,-8.149266988E-2
7.747819790E-1,-3.488738462E-2,1.095889956E-1,-8.362319320E-2
7.772696360E-1,-4.021370411E-2,9.680583328E-2,-8.575372398E-2
7.797572920E-1,-4.660528526E-2,8.082687855E-2,-8.788424730E-2
7.822449480E-1,-5.406212807E-2,6.165213138E-2,-9.001477808E-2
7.847326040E-1,-6.045371294E-2,4.034686089E-2,-9.108003974E-2
7.872202610E-1,-6.471476704E-2,1.797632314E-2,-9.108003974E-2
7.897079170E-1,-7.004108280E-2,-4.394212738E-3,-9.001477808E-2
7.921955730E-1,-7.217161357E-2,-2.676474862E-2,-8.575372398E-2
7.946832290E-1,-7.430213690E-2,-4.913528636E-2,-8.042740822E-2
7.971708860E-1,-7.430213690E-2,-7.150582224E-2,-7.190529257E-2
7.996585420E-1,-7.536740601E-2,-9.281109273E-2,-6.125266105E-2
8.021461980E-1,-7.536740601E-2,-1.119858399E-1,-4.633896798E-2
8.046338540E-1,-7.217161357E-2,-1.290300637E-1,-3.142527863E-2
8.071215110E-1,-6.791055948E-2,-1.418132186E-1,-1.438105945E-2
8.096091670E-1,-6.045371294E-2,-1.503353268E-1,2.663159044E-3
8.120968230E-1,-4.980107397E-2,-1.545963883E-1,1.651158556E-2
8.145844790E-1,-3.914843872E-2,-1.535311192E-1,3.036001325E-2
8.170721360E-1,-2.636527456E-2,-1.492700726E-1,4.207791388E-2
8.195597920E-1,-1.464737486E-2,-1.407479644E-1,5.166528746E-2
8.220474480E-1,-1.864211401E-3,-1.300953180E-1,5.912213027E-2
8.245351040E-1,9.853689000E-3,-1.173121557E-1,6.338318437E-2
8.270227610E-1,2.050632425E-2,-1.055942550E-1,6.551371515E-2
8.295104170E-1,2.902843431E-2,-9.494162351E-2,6.444845349E-2
8.319980730E-1,3.968106955E-2,-8.748477697E-2,6.018739566E-2
8.344857290E-1,4.820318148E-2,-8.322372288E-2,5.379581451E-2
8.369733860E-1,5.779055133E-2,-8.109319210E-2,4.314317927E-2
8.394610420E-1,6.631266326E-2,-8.002793044E-2,3.249054030E-2
8.419486980E-1,7.270424068E-2,-8.109319210E-2,1.970737800E-2
8.444363540E-1,7.803056389E-2,-8.322372288E-2,6.924213842E-3
8.469240110E-1,8.016108721E-2,-8.855003864E-2,-7.989477366E-3
8.494116670E-1,8.122635633E-2,-9.387636185E-2,-2.290316857E-2
8.518993230E-1,8.016108721E-2,-1.023984700E-1,-3.781685978E-2
8.543869790E-1,7.909582555E-2,-1.119858399E-1,-5.379581451E-2
8.568746360E-1,7.483477145E-2,-1.226384789E-1,-6.870950758E-2
8.593622920E-1,7.163897902E-2,-1.354216337E-1,-8.468846232E-2
8.618499480E-1,6.631266326E-2,-1.482048035E-1,-9.960214794E-2
8.643376040E-1,6.098634377E-2,-1.609879732E-1,-1.145158410E-1
8.668252610E-1,5.566002429E-2,-1.737711281E-1,-1.283642650E-1
8.693129170E-1,4.926844314E-2,-1.844237745E-1,-1.400821656E-1
8.718005730E-1,4.287686199E-2,-1.961416751E-1,-1.507348120E-1
8.742882290E-1,3.542001545E-2,-2.057290375E-1,-1.581916511E-1
8.767758860E-1,2.796317078E-2,-2.153164148E-1,-1.645832360E-1
8.792635420E-1,2.050632425E-2,-2.238385230E-1,-1.688442826E-1
8.817511980E-1,1.304947957E-2,-2.302301079E-1,-1.720400751E-1
8.842388540E-1,7.723161485E-3,-2.355564237E-1,-1.741705984E-1
8.867265110E-1,3.462106921E-3,-2.387522161E-1,-1.741705984E-1
8.892141670E-1,2.663159103E-4,-2.387522161E-1,-1.741705984E-1
8.917018230E-1,-3.994738683E-3,-2.366216928E-1,-1.741705984E-1
8.941894790E-1,-7.190529723E-3,-2.323606312E-1,-1.752358675E-1
8.966771360E-1,-9.321057238E-3,-2.249037921E-1,-1.752358675E-1
8.991647920E-1,-1.358211134E-2,-2.174469382E-1,-1.763011366E-1
9.016524480E-1,-1.784316637E-2,-2.099900991E-1,-1.784316599E-1
9.041401040E-1,-2.316948399E-2,-2.025332451E-1,-1.794969290E-1
9.066277610E-1,-2.849580161E-2,-1.961416751E-1,-1.805621833E-1
9.091154170E-1,-3.382211924E-2,-1.918806136E-1,-1.826927215E-1
9.116030730E-1,-3.808317333E-2,-1.886848211E-1,-1.858884990E-1
9.140907290E-1,-4.234423116E-2,-1.865542978E-1,-1.890842915E-1
9.165783860E-1,-4.447475821E-2,-1.844237745E-1,-1.944106072E-1
9.190660420E-1,-4.554001987E-2,-1.812279820E-1,-1.997369379E-1
9.215536980E-1,-4.873581231E-2,-1.759016514E-1,-2.061285079E-1
9.240413540E-1,-5.086633936E-2,-1.727058738E-1,-2.125200927E-1
9.265290110E-1,-5.406212807E-2,-1.684448123E-1,-2.199769467E-1
9.290166670E-1,-5.832318589E-2,-1.684448123E-1,-2.263685167E-1
9.315043230E-1,-6.258423626E-2,-1.695100814E-1,-2.316948473E-1
9.339919790E-1,-6.684529036E-2,-1.759016514E-1,-2.380864173E-1
9.364796360E-1,-7.110634446E-2,-1.844237745E-1,-2.434127480E-1
9.389672920E-1,-7.430213690E-2,-1.950764060E-1,-2.487390637E-1
9.414549480E-1,-7.643266767E-2,-2.078595608E-1,-2.540653646E-1
9.439426040E-1,-7.749792933E-2,-2.195774615E-1,-2.593916953E-1
9.464302610E-1,-7.749792933E-2,-2.280995846E-1,-2.657832801E-1
9.489179170E-1,-7.749792933E-2,-2.344911546E-1,-2.721748650E-1
9.514055730E-1,-7.856319100E-2,-2.376869470E-1,-2.764359117E-1
9.538932290E-1,-8.069372177E-2,-2.376869470E-1,-2.796317041E-1
9.563808860E-1,-8.282424510E-2,-2.387522161E-1,-2.828274965E-1
9.588685420E-1,-8.495477587E-2,-2.398174703E-1,-2.838927507E-1
9.613561980E-1,-8.602003753E-2,-2.419480085E-1,-2.828274965E-1
9.638438540E-1,-8.708529919E-2,-2.451438010E-1,-2.806969583E-1
9.663315110E-1,-8.495477587E-2,-2.462090552E-1,-2.753706574E-1
9.688191670E-1,-8.175898343E-2,-2.472743243E-1,-2.700443268E-1
9.713068230E-1,-7.856319100E-2,-2.440785319E-1,-2.636527419E-1
9.737944790E-1,-7.430213690E-2,-2.387522161E-1,-2.572611570E-1
9.762821360E-1,-7.217161357E-2,-2.302301079E-1,-2.508696020E-1
9.787697920E-1,-7.004108280E-2,-2.217079997E-1,-2.444780022E-1
9.812574480E-1,-7.004108280E-2,-2.110553533E-1,-2.370211631E-1
9.837451040E-1,-7.110634446E-2,-2.014679909E-1,-2.295643091E-1
9.862327610E-1,-7.323687524E-2,-1.918806136E-1,-2.221074700E-1
9.887204170E-1,-7.536740601E-2,-1.844237745E-1,-2.157158852E-1
9.912080730E-1,-7.643266767E-2,-1.769669205E-1,-2.093243003E-1
9.936957290E-1,-7.536740601E-2,-1.695100814E-1,-2.039979845E-1
9.961833860E-1,-7.536740601E-2,-1.620532274E-1,-1.976063997E-1
9.986710420E-1,-7.323687524E-2,-1.567269117E-1,-1.922800839E-1
1.001158698E0,-7.110634446E-2,-1.503353268E-1,-1.869537681E-1
1.003646354E0,-7.004108280E-2,-1.460742801E-1,-1.816274524E-1
1.006134011E0,-6.791055948E-2,-1.439437568E-1,-1.773663908E-1
1.008621667E0,-6.471476704E-2,-1.439437568E-1,-1.709748209E-1
1.011109323E0,-6.045371294E-2,-1.460742801E-1,-1.645832360E-1
1.013596979E0,-5.619265884E-2,-1.503353268E-1,-1.571263820E-1
1.016084636E0,-5.086633936E-2,-1.545963883E-1,-1.496695429E-1
1.018572292E0,-4.447475821E-2,-1.599227041E-1,-1.422126889E-1
1.021059948E0,-3.808317333E-2,-1.641837656E-1,-1.368863732E-1
1.023547604E0,-2.956106514E-2,-1.673795432E-1,-1.315600574E-1
1.026035261E0,-1.997369342E-2,-1.684448123E-1,-1.272990108E-1
1.028522917E0,-1.038632076E-2,-1.673795432E-1,-1.219726875E-1
1.031010573E0,-7.989477599E-4,-1.673795432E-1,-1.177116334E-1
1.033498229E0,8.788425475E-3,-1.663142890E-1,-1.113200486E-1
1.035985886E0,2.050632425E-2,-1.673795432E-1,-1.049284711E-1
1.038473542E0,3.222422674E-2,-1.684448123E-1,-9.534109384E-2
1.040961198E0,4.500738904E-2,-1.705753356E-1,-8.468846232E-2
1.043448854E0,5.885581672E-2,-1.716406047E-1,-7.297056168E-2
1.045936511E0,7.270424068E-2,-1.727058738E-1,-5.805686861E-2
1.048424167E0,8.442214131E-2,-1.727058738E-1,-4.207791388E-2
1.050911823E0,9.614004195E-2,-1.716406047E-1,-2.609895915E-2
1.053399479E0,1.057274193E-1,-1.705753356E-1,-1.118526794E-2
1.055887136E0,1.163800508E-1,-1.684448123E-1,5.858949851E-3
1.058374792E0,1.259674281E-1,-1.663142890E-1,2.290316857E-2
1.060862448E0,1.344895363E-1,-1.620532274E-1,3.888212144E-2
1.063350104E0,1.430116445E-1,-1.545963883E-1,5.486107618E-2
1.065837761E0,1.483379602E-1,-1.460742801E-1,6.977476925E-2
1.068325417E0,1.515337527E-1,-1.332911104E-1,8.362319320E-2
1.070813073E0,1.525990218E-1,-1.194426864E-1,9.640636295E-2
1.073300729E0,1.525990218E-1,-1.045289934E-1,1.070589945E-1
1.075788386E0,1.515337527E-1,-9.068056941E-2,1.166463718E-1
1.078276042E0,1.515337527E-1,-8.002793044E-2,1.230379492E-1
1.080763698E0,1.525990218E-1,-7.257108390E-2,1.283642650E-1
1.083251354E0,1.536642760E-1,-7.044056058E-2,1.336905807E-1
1.085739011E0,1.547295451E-1,-7.257108390E-2,1.358211190E-1
1.088226667E0,1.557948142E-1,-8.002793044E-2,1.358211190E-1
1.090714323E0,1.557948142E-1,-9.281109273E-2,1.336905807E-1
1.093201979E0,1.547295451E-1,-1.109205782E-1,1.315600574E-1
1.095689636E0,1.536642760E-1,-1.343563795E-1,1.272990108E-1
1.098177292E0,1.536642760E-1,-1.599227041E-1,1.241032109E-1
1.100664948E0,1.536642760E-1,-1.876195520E-1,1.198421568E-1
1.103152604E0,1.557948142E-1,-2.153164148E-1,1.166463718E-1
1.105640261E0,1.557948142E-1,-2.430132627E-1,1.155811027E-1
1.108127917E0,1.547295451E-1,-2.664490640E-1,1.155811027E-1
1.110615573E0,1.536642760E-1,-2.877543271E-1,1.166463718E-1
1.113103229E0,1.515337527E-1,-3.047985733E-1,1.187768951E-1
1.115590886E0,1.483379602E-1,-3.186469972E-1,1.209074259E-1
1.118078542E0,1.440769136E-1,-3.303648829E-1,1.241032109E-1
1.120566198E0,1.398158520E-1,-3.388870060E-1,1.272990108E-1
1.123053854E0,1.334242672E-1,-3.452785909E-1,1.294295341E-1
1.125541511E0,1.270326823E-1,-3.484743834E-1,1.326253265E-1
1.128029167E0,1.185105816E-1,-3.484743834E-1,1.347558498E-1
1.130516823E0,1.089232042E-1,-3.463438451E-1,1.358211190E-1
1.133004479E0,9.827057272E-2,-3.420827985E-1,1.358211190E-1
1.135492136E0,8.761793375E-2,-3.356912136E-1,1.358211190E-1
1.137979792E0,7.483477145E-2,-3.261038363E-1,1.358211190E-1
1.140467448E0,6.205160543E-2,-3.165164590E-1,1.358211190E-1
1.142955104E0,4.926844314E-2,-3.037332892E-1,1.368863732E-1
1.145442761E0,3.542001545E-2,-2.888196111E-1,1.368863732E-1
1.147930417E0,2.263685316E-2,-2.707101107E-1,1.368863732E-1
1.150418073E0,9.853689000E-3,-2.515353858E-1,1.347558498E-1
1.152905729E0,-2.929474926E-3,-2.323606312E-1,1.326253265E-1
1.155393386E0,-1.571263932E-2,-2.153164148E-1,1.294295341E-1
1.157881042E0,-2.956106514E-2,-2.014679909E-1,1.251684725E-1
1.160368698E0,-4.447475821E-2,-1.940111369E-1,1.198421568E-1
1.162856354E0,-5.938844755E-2,-1.929458827E-1,1.155811027E-1
1.165344011E0,-7.536740601E-2,-2.004027218E-1,1.102547869E-1
1.167831667E0,-9.028109163E-2,-2.174469382E-1,1.049284711E-1
1.170319323E0,-1.041295230E-1,-2.408827394E-1,1.017326787E-1
1.172806979E0,-1.158474237E-1,-2.696448565E-1,9.853688627E-2
1.175294636E0,-1.254348010E-1,-3.047985733E-1,9.427583218E-2
1.177782292E0,-1.339569092E-1,-3.399522603E-1,9.108003974E-2
1.180269948E0,-1.392832249E-1,-3.761712313E-1,8.788424730E-2
1.182757604E0,-1.456748098E-1,-4.081291258E-1,8.362319320E-2
1.185245261E0,-1.510011256E-1,-4.368912578E-1,8.042740822E-2
1.187732917E0,-1.584579647E-1,-4.603270590E-1,7.723161578E-2
1.190220573E0,-1.659148186E-1,-4.784365296E-1,7.510108501E-2
1.192708229E0,-1.744369268E-1,-4.933502376E-1,7.403582335E-2
1.195195886E0,-1.840242893E-1,-5.029376149E-1,7.297056168E-2
1.197683542E0,-1.946769357E-1,-5.061333776E-1,7.403582335E-2
1.200171198E0,-2.042642981E-1,-5.061333776E-1,7.510108501E-2
1.202658854E0,-2.117211521E-1,-4.997417927E-1,7.616634667E-2
1.205146511E0,-2.181127369E-1,-4.880239069E-1,7.616634667E-2
1.207634167E0,-2.255695760E-1,-4.731102288E-1,7.510108501E-2
1.210121823E0,-2.340916842E-1,-4.550007284E-1,7.403582335E-2
1.212609479E0,-2.458095849E-1,-4.347607195E-1,7.190529257E-2
1.215097136E0,-2.585927546E-1,-4.177165031E-1,7.084003091E-2
1.217584792E0,-2.745717168E-1,-3.996070325E-1,7.084003091E-2
1.220072448E0,-2.905506492E-1,-3.846933246E-1,7.084003091E-2
1.222560104E0,-3.054643571E-1,-3.729754388E-1,7.297056168E-2
1.225047761E0,-3.193127811E-1,-3.623228073E-1,7.723161578E-2
1.227535417E0,-3.320959508E-1,-3.527354300E-1,8.149266988E-2
1.230023073E0,-3.448790908E-1,-3.442133069E-1,8.681898564E-2
1.232510729E0,-3.565970063E-1,-3.367564678E-1,9.214530140E-2
1.234998386E0,-3.651190996E-1,-3.282343447E-1,9.853688627E-2
1.237486042E0,-3.725759685E-1,-3.239732981E-1,1.038632020E-1
1.239973698E0,-3.779022694E-1,-3.207775056E-1,1.091895252E-1
1.242461354E0,-3.810980618E-1,-3.207775056E-1,1.166463718E-1
1.244949011E0,-3.842938542E-1,-3.250385821E-1,1.230379492E-1
1.247436667E0,-3.874896467E-1,-3.335606754E-1,1.304948032E-1
1.249924323E0,-3.917506933E-1,-3.452785909E-1,1.368863732E-1
1.252411979E0,-3.970770240E-1,-3.601922691E-1,1.422126889E-1
1.254899636E0,-4.024033546E-1,-3.783017397E-1,1.454084814E-1
1.257387292E0,-4.077296555E-1,-3.974764943E-1,1.475390196E-1
1.259874948E0,-4.098601937E-1,-4.155859649E-1,1.454084814E-1
1.262362604E0,-4.119907022E-1,-4.304996729E-1,1.432779580E-1
1.264850313E0,-4.119907022E-1,-4.400870502E-1,1.379516423E-1
1.267338021E0,-4.130559862E-1,-4.454133511E-1,1.336905807E-1
1.269825729E0,-4.151864946E-1,-4.464786351E-1,1.294295341E-1
1.272313438E0,-4.205128253E-1,-4.443480968E-1,1.294295341E-1
1.274801146E0,-4.258391261E-1,-4.411523044E-1,1.326253265E-1
1.277288854E0,-4.301002026E-1,-4.336954653E-1,1.379516423E-1
1.279776563E0,-4.322307110E-1,-4.241080880E-1,1.443432271E-1
1.282264271E0,-4.311654568E-1,-4.123901725E-1,1.518000662E-1
1.284751979E0,-4.311654568E-1,-4.006722867E-1,1.581916511E-1
1.287239688E0,-4.332959950E-1,-3.868238628E-1,1.656484902E-1
1.289727396E0,-4.354265034E-1,-3.729754388E-1,1.741705984E-1
1.292215104E0,-4.386222959E-1,-3.601922691E-1,1.837579757E-1
1.294702813E0,-4.418180883E-1,-3.495396376E-1,1.944106072E-1
1.297190521E0,-4.460791349E-1,-3.431480527E-1,2.071937770E-1
1.299678229E0,-4.492749274E-1,-3.388870060E-1,2.221074700E-1
1.302165938E0,-4.524707198E-1,-3.367564678E-1,2.391516864E-1
1.304653646E0,-4.535360038E-1,-3.378217220E-1,2.572611570E-1
1.307141354E0,-4.524707198E-1,-3.388870060E-1,2.743053734E-1
1.309629063E0,-4.514054656E-1,-3.410175145E-1,2.913496196E-1
1.312116771E0,-4.514054656E-1,-3.442133069E-1,3.062632978E-1
1.314604479E0,-4.514054656E-1,-3.474090993E-1,3.190464675E-1
1.317092188E0,-4.524707198E-1,-3.516701460E-1,3.286338449E-1
1.319579896E0,-4.546012580E-1,-3.569964767E-1,3.360906839E-1
1.322067604E0,-4.556665123E-1,-3.612575233E-1,3.424822688E-1
1.324555313E0,-4.567317963E-1,-3.633880615E-1,3.478085697E-1
1.327043021E0,-4.567317963E-1,-3.644533157E-1,3.520696461E-1
1.329530729E0,-4.567317963E-1,-3.633880615E-1,3.573959470E-1
1.332018438E0,-4.556665123E-1,-3.612575233E-1,3.616569936E-1
1.334506094E0,-4.556665123E-1,-3.569964767E-1,3.648527861E-1
1.336993750E0,-4.567317963E-1,-3.516701460E-1,3.648527861E-1
1.339481407E0,-4.609928429E-1,-3.442133069E-1,3.627222776E-1
1.341969063E0,-4.663191736E-1,-3.356912136E-1,3.573959470E-1
1.344456719E0,-4.716454744E-1,-3.261038363E-1,3.499391079E-1
1.346944375E0,-4.780370593E-1,-3.143859208E-1,3.403517306E-1
1.349432032E0,-4.854938984E-1,-3.026680350E-1,3.307643533E-1
1.351919688E0,-4.918854833E-1,-2.909501195E-1,3.222422600E-1
1.354407344E0,-4.993423223E-1,-2.771016955E-1,3.147853911E-1
1.356895000E0,-5.046686530E-1,-2.643185556E-1,3.115896285E-1
1.359382657E0,-5.089297295E-1,-2.515353858E-1,3.115896285E-1
1.361870313E0,-5.110602379E-1,-2.419480085E-1,3.137201369E-1
1.364357969E0,-5.142560005E-1,-2.376869470E-1,3.179811835E-1
1.366845625E0,-5.163865685E-1,-2.408827394E-1,3.233075142E-1
1.369333282E0,-5.185170770E-1,-2.515353858E-1,3.328948915E-1
1.371820938E0,-5.238434076E-1,-2.696448565E-1,3.435475230E-1
1.374308594E0,-5.302349925E-1,-2.952111959E-1,3.573959470E-1
1.376796250E0,-5.376918316E-1,-3.229080439E-1,3.744401634E-1
1.379283907E0,-5.451486707E-1,-3.506048918E-1,3.946801722E-1
1.381771563E0,-5.515402555E-1,-3.761712313E-1,4.181159735E-1
1.384259219E0,-5.579318404E-1,-3.974764943E-1,4.426170290E-1
1.386746875E0,-5.621928573E-1,-4.113249183E-1,4.671181142E-1
1.389234532E0,-5.653886795E-1,-4.166512489E-1,4.905539155E-1
1.391722188E0,-5.664539337E-1,-4.145207107E-1,5.118591785E-1
1.394209844E0,-5.675191879E-1,-4.049333334E-1,5.289034247E-1
1.396697500E0,-5.696497560E-1,-3.921501637E-1,5.438171029E-1
1.399185157E0,-5.717802644E-1,-3.751059473E-1,5.555350184E-1
1.401672813E0,-5.760413408E-1,-3.601922691E-1,5.640571117E-1
1.404160469E0,-5.792371035E-1,-3.442133069E-1,5.715139508E-1
1.406648125E0,-5.824328661E-1,-3.303648829E-1,5.779055357E-1
1.409135782E0,-5.845634341E-1,-3.186469972E-1,5.853623748E-1
1.411623438E0,-5.866939425E-1,-3.090596199E-1,5.938844681E-1
1.414111094E0,-5.877591968E-1,-3.026680350E-1,6.024065614E-1
1.416598750E0,-5.877591968E-1,-2.984069884E-1,6.130592227E-1
1.419086407E0,-5.877591968E-1,-2.952111959E-1,6.226465702E-1
1.421574063E0,-5.888244510E-1,-2.962764502E-1,6.322339773E-1
1.424061719E0,-5.888244510E-1,-2.973417044E-1,6.407560706E-1
1.426549375E0,-5.898897648E-1,-3.005374968E-1,6.492781639E-1
1.429037032E0,-5.909550190E-1,-3.037332892E-1,6.567350626E-1
1.431524688E0,-5.920202732E-1,-3.069290817E-1,6.609960794E-1
1.434012344E0,-5.930855274E-1,-3.079943359E-1,6.663224101E-1
1.436500000E0,-5.941507816E-1,-3.047985733E-1,6.705834866E-1
1.438987657E0,-5.941507816E-1,-2.973417044E-1,6.759097576E-1
1.441475313E0,-5.930855274E-1,-2.845585644E-1,6.801708341E-1
1.443962969E0,-5.909550190E-1,-2.696448565E-1,6.844319105E-1
1.446450625E0,-5.877591968E-1,-2.547311783E-1,6.897581816E-1
1.448938282E0,-5.856286883E-1,-2.430132627E-1,6.950845122E-1
1.451425938E0,-5.845634341E-1,-2.376869470E-1,7.004108429E-1
1.453913594E0,-5.834981799E-1,-2.419480085E-1,7.057371736E-1
1.456401250E0,-5.834981799E-1,-2.557964325E-1,7.131940126E-1
1.458888907E0,-5.824328661E-1,-2.760364413E-1,7.227813601E-1
1.461376563E0,-5.792371035E-1,-3.037332892E-1,7.334340215E-1
1.463864219E0,-5.739107728E-1,-3.282343447E-1,7.462171912E-1
1.466351875E0,-5.653886795E-1,-3.452785909E-1,7.611308694E-1
1.468839532E0,-5.526055098E-1,-3.538006842E-1,7.739140391E-1
1.471327188E0,-5.355613232E-1,-3.538006842E-1,7.835013866E-1
1.473814844E0,-5.185170770E-1,-3.474090993E-1,7.898929715E-1
1.476302500E0,-5.025381446E-1,-3.388870060E-1,7.898929715E-1
1.478790157E0,-4.897549450E-1,-3.292996287E-1,7.856319547E-1
1.481277813E0,-4.791023135E-1,-3.186469972E-1,7.771098018E-1
1.483765469E0,-4.716454744E-1,-3.069290817E-1,7.653919458E-1
1.486253125E0,-4.652538896E-1,-2.952111959E-1,7.515435219E-1
1.488740782E0,-4.599275887E-1,-2.824280262E-1,7.366297841E-1
1.491228438E0,-4.567317963E-1,-2.707101107E-1,7.217161059E-1
1.493716094E0,-4.546012580E-1,-2.611227632E-1,7.068024278E-1
1.496203750E0,-4.535360038E-1,-2.547311783E-1,6.929540038E-1
1.498691407E0,-4.546012580E-1,-2.504701018E-1,6.801708341E-1
1.501179063E0,-4.546012580E-1,-2.462090552E-1,6.684529185E-1
1.503666719E0,-4.524707198E-1,-2.515353858E-1,6.567350626E-1
1.506154375E0,-4.535360038E-1,-2.621880174E-1,6.450171471E-1
1.508642032E0,-4.556665123E-1,-2.707101107E-1,6.375603080E-1
1.511129688E0,-4.546012580E-1,-2.771016955E-1,6.343644857E-1
1.513617344E0,-4.503402114E-1,-2.813627720E-1,6.364950538E-1
1.516105000E0,-4.450138807E-1,-2.866890728E-1,6.428865790E-1
1.518592657E0,-4.396875799E-1,-2.920154035E-1,6.524739861E-1
1.521080313E0,-4.332959950E-1,-2.994722426E-1,6.652571559E-1
1.523567969E0,-4.258391261E-1,-3.037332892E-1,6.801708341E-1
1.526055625E0,-4.162517786E-1,-3.037332892E-1,6.929540038E-1
1.528543282E0,-4.066644013E-1,-2.973417044E-1,7.025413513E-1
1.531030938E0,-3.981422782E-1,-2.845585644E-1,7.089329362E-1
1.533518594E0,-3.896201849E-1,-2.653838098E-1,7.131940126E-1
1.536006250E0,-3.810980618E-1,-2.440785319E-1,7.153245211E-1
1.538493907E0,-3.736412227E-1,-2.217079997E-1,7.142592669E-1
1.540981563E0,-3.651190996E-1,-1.982721984E-1,7.131940126E-1
1.543469219E0,-3.523359597E-1,-1.780321896E-1,7.089329362E-1
1.545956875E0,-3.384875357E-1,-1.588574350E-1,7.057371736E-1
1.548444532E0,-3.214432895E-1,-1.418132186E-1,6.993455887E-1
1.550932188E0,-3.043990731E-1,-1.258342713E-1,6.918887496E-1
1.553419844E0,-2.873548567E-1,-1.109205782E-1,6.833665967E-1
1.555907500E0,-2.681801319E-1,-9.920267761E-2,6.716487408E-1
1.558395157E0,-2.522011697E-1,-8.961530030E-2,6.578003168E-1
1.560882813E0,-2.351569533E-1,-8.215846121E-2,6.407560706E-1
1.563370469E0,-2.191779912E-1,-7.576687634E-2,6.205160618E-1
1.565858125E0,-2.042642981E-1,-7.150582224E-2,5.992107987E-1
1.568345782E0,-1.904158741E-1,-6.831002980E-2,5.768402815E-1
1.570833438E0,-1.776327193E-1,-6.511423737E-2,5.523391962E-1
1.573321094E0,-1.659148186E-1,-6.085318699E-2,5.278381109E-1
1.575808750E0,-1.531316489E-1,-5.552686751E-2,5.012065172E-1
1.578296407E0,-1.414137483E-1,-4.913528636E-2,4.745749533E-1
1.580784063E0,-1.286305785E-1,-4.167843983E-2,4.490086138E-1
1.583271719E0,-1.158474237E-1,-3.209106624E-2,4.245075583E-1
1.585759375E0,-1.009337306E-1,-2.143843099E-2,4.021370113E-1
1.588247032E0,-8.708529919E-2,-1.078579482E-2,3.829622865E-1
1.590734688E0,-7.323687524E-2,-1.331579551E-4,3.680485785E-1
1.593222344E0,-5.938844755E-2,8.388951421E-3,3.552654386E-1
1.595710000E0,-4.660528526E-2,1.904158667E-2,3.435475230E-1
1.598197657E0,-3.382211924E-2,2.969422378E-2,3.360906839E-1
1.600685313E0,-2.103895694E-2,4.460791498E-2,3.275685608E-1
1.603172969E0,-9.321057238E-3,6.058686972E-2,3.211769760E-1
1.605660625E0,2.396843163E-3,8.082687855E-2,3.169159293E-1
1.608148282E0,1.411474310E-2,1.031974182E-1,3.137201369E-1
1.610635938E0,2.583264373E-2,1.287637353E-1,3.105243444E-1
1.613123594E0,3.648528084E-2,1.532648057E-1,3.083938360E-1
1.615611250E0,4.500738904E-2,1.756353378E-1,3.062632978E-1
1.618098907E0,5.459476262E-2,1.937448233E-1,3.020022511E-1
1.620586563E0,6.205160543E-2,2.075932473E-1,2.977411747E-1
1.623074219E0,6.950845569E-2,2.171806246E-1,2.913496196E-1
1.625561875E0,7.376950979E-2,2.225069404E-1,2.838927507E-1
1.628049532E0,7.590003312E-2,2.267680019E-1,2.775011659E-1
1.630537188E0,7.803056389E-2,2.288985252E-1,2.711096108E-1
1.633024844E0,7.696529478E-2,2.331595868E-1,2.657832801E-1
1.635512500E0,7.696529478E-2,2.352901101E-1,2.604569495E-1
1.638000157E0,7.483477145E-2,2.384859025E-1,2.551306486E-1
1.640487813E0,7.270424068E-2,2.416816950E-1,2.498043180E-1
1.642975469E0,6.950845569E-2,2.459427416E-1,2.466085255E-1
1.645463125E0,6.737792492E-2,2.523343265E-1,2.434127480E-1
1.647950782E0,6.418213248E-2,2.619217038E-1,2.402169555E-1
1.650438438E0,6.205160543E-2,2.736395895E-1,2.380864173E-1
1.652926094E0,5.885581672E-2,2.874880135E-1,2.370211631E-1
1.655413750E0,5.566002429E-2,3.013364673E-1,2.370211631E-1
1.657901407E0,5.033370852E-2,3.173153996E-1,2.370211631E-1
1.660389063E0,4.607265070E-2,3.354249001E-1,2.380864173E-1
1.662876719E0,4.394212365E-2,3.545996249E-1,2.402169555E-1
1.665364375E0,4.181159660E-2,3.759049177E-1,2.434127480E-1
1.667852032E0,3.968106955E-2,3.982754350E-1,2.466085255E-1
1.670339688E0,3.861580789E-2,4.185154438E-1,2.498043180E-1
1.672827344E0,3.968106955E-2,4.366249442E-1,2.508696020E-1
1.675315000E0,4.181159660E-2,4.504733682E-1,2.476737946E-1
1.677802657E0,4.394212365E-2,4.589954615E-1,2.444780022E-1
1.680290313E0,4.713791609E-2,4.621912539E-1,2.370211631E-1
1.682777969E0,5.139897019E-2,4.611259997E-1,2.274337858E-1
1.685265625E0,5.566002429E-2,4.547344148E-1,2.146506310E-1
1.687753282E0,6.098634377E-2,4.451470375E-1,2.008021921E-1
1.690240938E0,6.524740160E-2,4.334291518E-1,1.858884990E-1
1.692728594E0,7.057371736E-2,4.185154438E-1,1.709748209E-1
1.695216250E0,7.590003312E-2,4.014712274E-1,1.539305896E-1
1.697703907E0,8.122635633E-2,3.833617568E-1,1.358211190E-1
1.700191563E0,8.761793375E-2,3.641870022E-1,1.166463718E-1
1.702679219E0,9.507478029E-2,3.428817391E-1,9.640636295E-2
1.705166875E0,1.025316268E-1,3.226417303E-1,7.616634667E-2
1.707654532E0,1.089232042E-1,3.024017215E-1,5.699160323E-2
1.710142188E0,1.131842583E-1,2.842922211E-1,3.888212144E-2
1.712629844E0,1.174453199E-1,2.683132887E-1,2.290316857E-2
1.715117500E0,1.206411049E-1,2.544648647E-1,1.012000442E-2
1.717605157E0,1.238368973E-1,2.459427416E-1,5.326318205E-4
1.720092813E0,1.249021590E-1,2.416816950E-1,-6.924213842E-3
1.722580469E0,1.249021590E-1,2.416816950E-1,-1.118526794E-2
1.725068125E0,1.249021590E-1,2.459427416E-1,-1.331579592E-2
1.727555834E0,1.249021590E-1,2.555301189E-1,-1.225053146E-2
1.730043542E0,1.238368973E-1,2.704437971E-1,-1.012000442E-2
1.732531250E0,1.217063740E-1,2.896185517E-1,-6.924213842E-3
1.735018959E0,1.195758432E-1,3.119890988E-1,-1.597895520E-3
1.737506667E0,1.174453199E-1,3.364901543E-1,3.728422802E-3
1.739994375E0,1.131842583E-1,3.609912097E-1,9.054740891E-3
1.742482084E0,1.078579426E-1,3.844270110E-1,1.544632297E-2
1.744969792E0,1.025316268E-1,4.067975581E-1,2.183790505E-2
1.747457500E0,9.614004195E-2,4.270375669E-1,2.822948620E-2
1.749945209E0,9.081372619E-2,4.451470375E-1,3.568633273E-2
1.752432917E0,8.548741043E-2,4.600607455E-1,4.314317927E-2
1.754920625E0,8.122635633E-2,4.739091694E-1,4.846949503E-2
1.757408334E0,7.590003312E-2,4.845618010E-1,5.273054913E-2
1.759896042E0,7.057371736E-2,4.941491783E-1,5.592634156E-2
1.762383750E0,6.631266326E-2,5.005407333E-1,5.699160323E-2
1.764871459E0,6.098634377E-2,5.037365556E-1,5.592634156E-2
1.767359167E0,5.566002429E-2,5.037365556E-1,5.273054913E-2
1.769846875E0,5.033370852E-2,4.984102249E-1,4.953476042E-2
1.772334584E0,4.500738904E-2,4.877575934E-1,4.420844093E-2
1.774822292E0,3.968106955E-2,4.728438854E-1,3.781685978E-2
1.777310000E0,3.755054250E-2,4.536691606E-1,3.142527863E-2
1.779797709E0,3.542001545E-2,4.312986135E-1,2.396843210E-2
1.782285417E0,3.542001545E-2,4.067975581E-1,1.438105945E-2
1.784773125E0,3.542001545E-2,3.812312186E-1,4.793686327E-3
1.787260834E0,3.542001545E-2,3.556649089E-1,-6.924213842E-3
1.789748542E0,3.648528084E-2,3.279680312E-1,-1.970737800E-2
1.792236250E0,3.861580789E-2,2.992059290E-1,-3.355580568E-2
1.794723959E0,3.861580789E-2,2.725743353E-1,-4.740423337E-2
1.797211667E0,3.968106955E-2,2.470080107E-1,-5.912213027E-2
1.799699375E0,4.181159660E-2,2.246374637E-1,-6.977476925E-2
1.802187032E0,4.394212365E-2,2.054627240E-1,-7.936213911E-2
1.804674688E0,4.607265070E-2,1.905490309E-1,-8.468846232E-2
1.807162344E0,5.033370852E-2,1.788311303E-1,-8.894951642E-2
1.809650000E0,5.459476262E-2,1.713742912E-1,-9.001477808E-2
1.812137657E0,5.885581672E-2,1.692437679E-1,-8.894951642E-2
1.814625313E0,6.418213248E-2,1.713742912E-1,-8.681898564E-2
1.817112969E0,6.844318658E-2,1.767006069E-1,-8.362319320E-2
1.819600625E0,7.163897902E-2,1.873532385E-1,-7.936213911E-2
1.822088282E0,7.483477145E-2,2.012016773E-1,-7.403582335E-2
1.824575938E0,7.909582555E-2,2.182458937E-1,-6.657897681E-2
1.827063594E0,8.335687965E-2,2.384859025E-1,-6.018739566E-2
1.829551250E0,8.655267209E-2,2.608564198E-1,-5.273054913E-2
1.832038907E0,8.974846452E-2,2.832269669E-1,-4.527370632E-2
1.834526563E0,9.400951862E-2,3.045322299E-1,-3.781685978E-2
1.837014219E0,9.614004195E-2,3.237069845E-1,-3.142527863E-2
1.839501875E0,9.827057272E-2,3.386206925E-1,-2.609895915E-2
1.841989532E0,9.933583438E-2,3.492733240E-1,-2.183790505E-2
1.844477188E0,9.933583438E-2,3.567301631E-1,-1.970737800E-2
1.846964844E0,9.933583438E-2,3.588607013E-1,-1.864211448E-2
1.849452500E0,1.004010960E-1,3.588607013E-1,-1.757685095E-2
1.851940157E0,9.933583438E-2,3.545996249E-1,-1.757685095E-2
1.854427813E0,1.004010960E-1,3.471427858E-1,-1.757685095E-2
1.856915469E0,1.004010960E-1,3.354249001E-1,-1.864211448E-2
1.859403125E0,1.014663652E-1,3.215764761E-1,-1.970737800E-2
1.861890782E0,1.025316268E-1,3.034669757E-1,-1.970737800E-2
1.864378438E0,1.046621501E-1,2.832269669E-1,-1.970737800E-2
1.866866094E0,1.089232042E-1,2.597911656E-1,-2.077264152E-2
1.869353750E0,1.131842583E-1,2.331595868E-1,-2.183790505E-2
1.871841407E0,1.195758432E-1,2.065279931E-1,-2.503369562E-2
1.874329063E0,1.249021590E-1,1.788311303E-1,-2.822948620E-2
1.876816719E0,1.323590130E-1,1.511342824E-1,-3.249054030E-2
1.879304375E0,1.398158520E-1,1.234374270E-1,-3.675159439E-2
1.881792032E0,1.494032294E-1,9.787109494E-2,-4.207791388E-2
1.884279688E0,1.600558609E-1,7.337003201E-2,-4.846949503E-2
1.886767344E0,1.707084924E-1,5.099949613E-2,-5.592634156E-2
1.889255000E0,1.834916621E-1,3.075948730E-2,-6.444845349E-2
1.891742657E0,1.984053552E-1,1.584579609E-2,-7.297056168E-2
1.894230313E0,2.133190483E-1,3.062632866E-3,-8.255793154E-2
1.896717969E0,2.292979956E-1,-7.590003312E-3,-9.321057051E-2
1.899205625E0,2.463422120E-1,-1.398158539E-2,-1.070589945E-1
1.901693282E0,2.633864284E-1,-1.930790395E-2,-1.209074259E-1
1.904180938E0,2.814959288E-1,-2.037316747E-2,-1.368863732E-1
1.906668594E0,3.006706536E-1,-1.930790395E-2,-1.539305896E-1
1.909156250E0,3.198454082E-1,-1.611211337E-2,-1.720400751E-1
1.911643907E0,3.400854170E-1,-1.078579482E-2,-1.922800839E-1
1.914131563E0,3.581948876E-1,-4.394212738E-3,-2.103895694E-1
1.916619219E0,3.752391040E-1,9.321057005E-4,-2.274337858E-1
1.919106875E0,3.890875578E-1,4.127896391E-3,-2.434127480E-1
1.921594532E0,4.008054435E-1,7.323687430E-3,-2.551306486E-1
1.924082188E0,4.103928208E-1,1.478053257E-2,-2.647180259E-1
1.926569844E0,4.189149141E-1,2.862896025E-2,-2.711096108E-1
1.929057500E0,4.263717830E-1,4.993423447E-2,-2.732401192E-1
1.931545157E0,4.327633679E-1,7.656582445E-2,-2.753706574E-1
1.934032813E0,4.359591305E-1,1.063932031E-1,-2.753706574E-1
1.936520469E0,4.359591305E-1,1.340900660E-1,-2.743053734E-1
1.939008125E0,4.327633679E-1,1.553953290E-1,-2.721748650E-1
1.941495782E0,4.263717830E-1,1.713742912E-1,-2.679138184E-1
1.943983438E0,4.178496599E-1,1.809616536E-1,-2.593916953E-1
1.946471094E0,4.082622826E-1,1.841574460E-1,-2.466085255E-1
1.948958750E0,3.976096511E-1,1.830921918E-1,-2.284990549E-1
1.951446407E0,3.848264813E-1,1.820269227E-1,-2.050632536E-1
1.953934063E0,3.699128032E-1,1.809616536E-1,-1.784316599E-1
1.956421719E0,3.549990952E-1,1.798963994E-1,-1.464737505E-1
1.958909375E0,3.379548788E-1,1.809616536E-1,-1.123853177E-1
1.961397032E0,3.187801540E-1,1.841574460E-1,-7.616634667E-2
1.963884688E0,2.996053994E-1,1.873532385E-1,-3.888212144E-2
1.966372344E0,2.825611830E-1,1.926795542E-1,-1.597895520E-3
1.968860000E0,2.655169666E-1,1.980058849E-1,3.675159439E-2
1.971347657E0,2.506032586E-1,2.043974549E-1,7.403582335E-2
1.973835313E0,2.367548496E-1,2.129195631E-1,1.102547869E-1
1.976322969E0,2.239716798E-1,2.203764170E-1,1.443432271E-1
1.978810625E0,2.122537792E-1,2.278332561E-1,1.763011366E-1
1.981298282E0,1.994706094E-1,2.310290486E-1,2.061285079E-1
1.983785938E0,1.888179779E-1,2.299637944E-1,2.316948473E-1
1.986273594E0,1.781653464E-1,2.225069404E-1,2.540653646E-1
1.988761250E0,1.696432382E-1,2.097237855E-1,2.732401192E-1
1.991248907E0,1.621863842E-1,1.916143000E-1,2.881538272E-1
1.993736563E0,1.547295451E-1,1.692437679E-1,2.988064587E-1
1.996224219E0,1.472726911E-1,1.447426975E-1,3.051980436E-1
1.998711875E0,1.398158520E-1,1.170458421E-1,3.073285520E-1
2.001199532E0,1.323590130E-1,9.041424841E-2,3.051980436E-1
2.003687188E0,1.238368973E-1,6.484792382E-2,2.998717129E-1
2.006174844E0,1.153147891E-1,4.034686089E-2,2.913496196E-1
2.008662500E0,1.057274193E-1,1.904158667E-2,2.817622423E-1
2.011150157E0,9.614004195E-2,9.321057005E-4,2.721748650E-1
2.013637813E0,8.655267209E-2,-1.504684892E-2,2.615222335E-1
2.016125469E0,7.696529478E-2,-2.889527567E-2,2.540653646E-1
2.018613125E0,6.737792492E-2,-4.274370521E-2,2.466085255E-1
2.021100782E0,5.885581672E-2,-5.765739456E-2,2.423474789E-1
2.023588438E0,4.926844314E-2,-7.257108390E-2,2.402169555E-1
2.026076094E0,3.968106955E-2,-8.855003864E-2,2.391516864E-1
2.028563750E0,3.115896136E-2,-1.034637317E-1,2.412822098E-1
2.031051407E0,2.263685316E-2,-1.173121557E-1,2.434127480E-1
2.033539063E0,1.518000662E-2,-1.300953180E-1,2.476737946E-1
2.036026719E0,5.592633970E-3,-1.418132186E-1,2.530001104E-1
2.038514375E0,-2.929474926E-3,-1.514005959E-1,2.604569495E-1
2.041002032E0,-1.251684781E-2,-1.599227041E-1,2.679138184E-1
2.043489688E0,-2.210422046E-2,-1.684448123E-1,2.775011659E-1
2.045977344E0,-3.169159219E-2,-1.759016514E-1,2.881538272E-1
2.048465000E0,-4.021370411E-2,-1.833585054E-1,3.009369671E-1
2.050952657E0,-4.767054692E-2,-1.897500902E-1,3.147853911E-1
2.053440313E0,-5.512739345E-2,-1.961416751E-1,3.286338449E-1
2.055927969E0,-6.151897460E-2,-2.025332451E-1,3.424822688E-1
2.058415625E0,-6.684529036E-2,-2.067943066E-1,3.573959470E-1
2.060903282E0,-7.217161357E-2,-2.110553533E-1,3.733749092E-1
2.063390938E0,-7.643266767E-2,-2.131858915E-1,3.882885873E-1
2.065878594E0,-7.856319100E-2,-2.121206224E-1,4.042675495E-1
2.068366250E0,-8.069372177E-2,-2.089248300E-1,4.213117659E-1
2.070853907E0,-8.069372177E-2,-2.025332451E-1,4.372907281E-1
2.073341563E0,-8.069372177E-2,-1.961416751E-1,4.522044063E-1
2.075829219E0,-7.856319100E-2,-1.886848211E-1,4.639223218E-1
2.078316875E0,-7.643266767E-2,-1.812279820E-1,4.724444151E-1
2.080804532E0,-7.430213690E-2,-1.737711281E-1,4.777707458E-1
2.083292188E0,-7.110634446E-2,-1.673795432E-1,4.777707458E-1
2.085779844E0,-6.684529036E-2,-1.609879732E-1,4.756402075E-1
2.088267500E0,-6.258423626E-2,-1.545963883E-1,4.703139067E-1
2.090755157E0,-5.832318589E-2,-1.482048035E-1,4.628570378E-1
2.093242813E0,-5.406212807E-2,-1.428784877E-1,4.532696903E-1
2.095730469E0,-4.980107397E-2,-1.354216337E-1,4.426170290E-1
2.098218125E0,-4.554001987E-2,-1.290300637E-1,4.319643974E-1
2.100705782E0,-4.127896577E-2,-1.226384789E-1,4.202465117E-1
2.103193438E0,-3.595264629E-2,-1.173121557E-1,4.063980877E-1
2.105681094E0,-2.956106514E-2,-1.119858399E-1,3.925496638E-1
2.108168750E0,-2.423474751E-2,-1.055942550E-1,3.755054474E-1
2.110656407E0,-1.784316637E-2,-9.813741595E-2,3.584612012E-1
2.113144063E0,-1.145158429E-2,-8.961530030E-2,3.382211924E-1
2.115631719E0,-6.125265732E-3,-8.002793044E-2,3.190464675E-1
2.118119375E0,2.663159103E-4,-6.937529147E-2,2.988064587E-1
2.120607032E0,7.723161485E-3,-5.765739456E-2,2.785664499E-1
2.123094688E0,1.518000662E-2,-4.487423226E-2,2.583264410E-1
2.125582396E0,2.476738021E-2,-3.209106624E-2,2.391516864E-1
2.128070104E0,3.435475379E-2,-1.717737690E-2,2.189116776E-1
2.130557813E0,4.500738904E-2,-3.328948980E-3,1.986716688E-1
2.133045521E0,5.779055133E-2,9.454214945E-3,1.794969290E-1
2.135533229E0,7.057371736E-2,2.330264263E-2,1.581916511E-1
2.138020938E0,8.335687965E-2,3.608580679E-2,1.358211190E-1
2.140508646E0,9.827057272E-2,4.993423447E-2,1.134505793E-1
2.142996354E0,1.131842583E-1,6.378266215E-2,9.001477808E-2
2.145484063E0,1.280979514E-1,7.656582445E-2,6.657897681E-2
2.147971771E0,1.451421678E-1,8.934898674E-2,4.207791388E-2
2.150459479E0,1.600558609E-1,1.021321490E-1,1.970737800E-2
2.152947188E0,1.771000773E-1,1.138500497E-1,-3.728422802E-3
2.155434896E0,1.930790395E-1,1.245026886E-1,-2.503369562E-2
2.157922604E0,2.101232558E-1,1.319595277E-1,-4.527370632E-2
2.160410313E0,2.250369489E-1,1.372858584E-1,-6.551371515E-2
2.162898021E0,2.388853729E-1,1.415469050E-1,-8.468846232E-2
2.165385729E0,2.527337968E-1,1.447426975E-1,-1.027979404E-1
2.167873438E0,2.655169666E-1,1.479384899E-1,-1.219726875E-1
2.170361146E0,2.783001363E-1,1.511342824E-1,-1.390169114E-1
2.172848854E0,2.889527678E-1,1.543300748E-1,-1.571263820E-1
2.175336563E0,2.996053994E-1,1.585911214E-1,-1.741705984E-1
2.177824271E0,3.102580309E-1,1.628521830E-1,-1.890842915E-1
2.180311979E0,3.198454082E-1,1.649827063E-1,-2.018674612E-1
2.182799688E0,3.304980397E-1,1.681784987E-1,-2.146506310E-1
2.185287396E0,3.411506712E-1,1.703090221E-1,-2.263685167E-1
2.187775104E0,3.507380486E-1,1.703090221E-1,-2.380864173E-1
2.190262813E0,3.592601717E-1,1.692437679E-1,-2.487390637E-1
2.192750521E0,3.667170107E-1,1.681784987E-1,-2.615222335E-1
2.195238229E0,3.752391040E-1,1.671132296E-1,-2.753706574E-1
2.197725938E0,3.848264813E-1,1.671132296E-1,-2.902843356E-1
2.200213646E0,3.954791129E-1,1.692437679E-1,-3.073285520E-1
2.202701302E0,4.061317742E-1,1.724395454E-1,-3.243727684E-1
2.205188959E0,4.189149141E-1,1.788311303E-1,-3.446127772E-1
2.207676615E0,4.327633679E-1,1.862879843E-1,-3.648527861E-1
2.210164271E0,4.476770461E-1,1.937448233E-1,-3.850927949E-1
2.212651927E0,4.647212625E-1,2.001364082E-1,-4.074633420E-1
2.215139584E0,4.828307331E-1,2.065279931E-1,-4.287686050E-1
2.217627240E0,5.030707717E-1,2.107890397E-1,-4.511391521E-1
2.220114896E0,5.254412889E-1,2.150501013E-1,-4.745749533E-1
2.222602552E0,5.467465520E-1,2.171806246E-1,-4.990760088E-1
2.225090209E0,5.691171288E-1,2.193111479E-1,-5.246423483E-1
2.227577865E0,5.914876461E-1,2.214416862E-1,-5.512739420E-1
2.230065521E0,6.149234176E-1,2.278332561E-1,-5.789707899E-1
2.232553177E0,6.383592486E-1,2.352901101E-1,-6.087981462E-1
2.235040834E0,6.628602743E-1,2.480732650E-1,-6.386255622E-1
2.237528490E0,6.862961054E-1,2.651174963E-1,-6.705834866E-1
2.240016146E0,7.097318769E-1,2.853575051E-1,-7.036066055E-1
2.242503802E0,7.310371995E-1,3.066627681E-1,-7.376950979E-1
2.244991459E0,7.523424625E-1,3.290333152E-1,-7.728487849E-1
2.247479115E0,7.725824714E-1,3.503385782E-1,-8.080024719E-1
2.249966771E0,7.906919122E-1,3.705785871E-1,-8.431561589E-1
2.252454427E0,8.088014126E-1,3.908185959E-1,-8.761793375E-1
2.254942084E0,8.258456588E-1,4.099933505E-1,-9.081372619E-1
2.257429740E0,8.407593369E-1,4.281028211E-1,-9.358341098E-1
2.259917396E0,8.535425067E-1,4.451470375E-1,-9.624657035E-1
2.262405052E0,8.652604222E-1,4.579302073E-1,-9.859014750E-1
2.264892709E0,8.759130239E-1,4.675175846E-1,-1.007206798E0
2.267380365E0,8.855004311E-1,4.707133770E-1,-1.027446747E0
2.269868021E0,8.950877786E-1,4.664523304E-1,-1.044491053E0
2.272355677E0,9.046751261E-1,4.547344148E-1,-1.059404731E0
2.274843334E0,9.153277874E-1,4.355596602E-1,-1.074318409E0
2.277330990E0,9.249151349E-1,4.067975581E-1,-1.089232087E0
2.279818646E0,9.355677962E-1,3.695133328E-1,-1.103080511E0
2.282306302E0,9.462204576E-1,3.237069845E-1,-1.116928935E0
2.284793959E0,9.558078051E-1,2.704437971E-1,-1.131842613E0
2.287281615E0,9.643298984E-1,2.139848322E-1,-1.145691037E0
2.289769271E0,9.707214832E-1,1.575258672E-1,-1.159539461E0
2.292256927E0,9.781783223E-1,1.063932031E-1,-1.173387885E0
2.294744584E0,9.867004752E-1,6.378266215E-2,-1.188301563E0
2.297232240E0,9.984183311E-1,3.289001435E-2,-1.205345869E0
2.299719896E0,1.013332009E0,1.478053257E-2,-1.224520564E0
2.302207552E0,1.030376315E0,7.323687430E-3,-1.245825887E0
2.304695209E0,1.046355247E0,1.051947847E-2,-1.271392107E0
2.307182865E0,1.058073163E0,2.117211558E-2,-1.299088955E0
2.309670521E0,1.066595197E0,3.502054140E-2,-1.326785922E0
2.312158177E0,1.069790959E0,5.313002318E-2,-1.354482770E0
2.314645834E0,1.067660451E0,7.550056279E-2,-1.381114364E0
2.317133490E0,1.062334180E0,1.031974182E-1,-1.406680584E0
2.319621146E0,1.054877281E0,1.372858584E-1,-1.429051161E0
2.322108802E0,1.047420502E0,1.777658761E-1,-1.449291229E0
2.324596459E0,1.038898349E0,2.257027328E-1,-1.466335416E0
2.327084115E0,1.030376315E0,2.768353820E-1,-1.478053331E0
2.329571771E0,1.019723654E0,3.300985694E-1,-1.484444857E0
2.332059427E0,1.008005738E0,3.812312186E-1,-1.483379602E0
2.334547084E0,9.962878227E-1,4.281028211E-1,-1.474857569E0
2.337034740E0,9.835046530E-1,4.707133770E-1,-1.457813263E0
2.339522396E0,9.717867374E-1,5.058670640E-1,-1.433312178E0
2.342010052E0,9.590035677E-1,5.314334035E-1,-1.401354313E0
2.344497709E0,9.462204576E-1,5.431513190E-1,-1.364070058E0
2.346985365E0,9.323719740E-1,5.410207510E-1,-1.320394278E0
2.349473021E0,9.206541181E-1,5.250418186E-1,-1.273522735E0
2.351960677E0,9.110667109E-1,4.941491783E-1,-1.224520564E0
2.354448334E0,9.046751261E-1,4.536691606E-1,-1.173387885E0
2.356935990E0,9.036098719E-1,4.046670198E-1,-1.123320460E0
2.359423646E0,9.046751261E-1,3.514038324E-1,-1.073253155E0
2.361911302E0,9.078709483E-1,2.970753908E-1,-1.025316238E0
2.364398959E0,9.100014567E-1,2.427469492E-1,-9.805752039E-1
2.366886615E0,9.089362025E-1,1.926795542E-1,-9.400951862E-1
2.369374271E0,9.046751261E-1,1.490037590E-1,-9.060067534E-1
2.371861927E0,8.972182870E-1,1.159805804E-1,-8.783098459E-1
2.374349584E0,8.886961937E-1,9.467530251E-2,-8.570045829E-1
2.376837240E0,8.791088462E-1,8.615319431E-2,-8.420909047E-1
2.379324896E0,8.695214391E-1,9.361004084E-2,-8.325035572E-1
2.381812552E0,8.599340916E-1,1.138500497E-1,-8.271772265E-1
2.384300209E0,8.492814302E-1,1.468732208E-1,-8.261119723E-1
2.386787865E0,8.364982605E-1,1.894837767E-1,-8.271772265E-1
2.389275521E0,8.215845823E-1,2.384859025E-1,-8.293077350E-1
2.391763177E0,8.024098277E-1,2.928143442E-1,-8.335688114E-1
2.394250834E0,7.811045647E-1,3.503385782E-1,-8.378298283E-1
2.396738490E0,7.566034794E-1,4.078628123E-1,-8.431561589E-1
2.399226146E0,7.299718857E-1,4.643217921E-1,-8.474172354E-1
2.401713802E0,7.044056058E-1,5.143891573E-1,-8.516782522E-1
2.404201459E0,6.777740121E-1,5.591302514E-1,-8.538088202E-1
2.406689115E0,6.522076726E-1,5.964145064E-1,-8.538088202E-1
2.409176771E0,6.309024096E-1,6.251766086E-1,-8.506129980E-1
2.411664427E0,6.085318327E-1,6.443513632E-1,-8.431561589E-1
2.414152084E0,5.904223919E-1,6.507429481E-1,-8.314382434E-1
2.416639740E0,5.733781457E-1,6.443513632E-1,-8.165245652E-1
2.419127396E0,5.584644675E-1,6.241113544E-1,-7.973498106E-1
2.421615052E0,5.456812978E-1,5.900229216E-1,-7.739140391E-1
2.424102709E0,5.350286365E-1,5.442165732E-1,-7.504782081E-1
2.426590365E0,5.265065432E-1,4.856270552E-1,-7.249119282E-1
2.429078021E0,5.222455263E-1,4.195807278E-1,-6.982803345E-1
2.431565677E0,5.211802125E-1,3.471427858E-1,-6.727139950E-1
2.434053334E0,5.243760347E-1,2.725743353E-1,-6.503434777E-1
2.436540990E0,5.297023654E-1,1.969406158E-1,-6.290381551E-1
2.439028646E0,5.360939503E-1,1.234374270E-1,-6.119939685E-1
2.441516302E0,5.403549671E-1,5.419528857E-2,-5.970802903E-1
2.444003959E0,5.424855351E-1,-6.524739787E-3,-5.853623748E-1
2.446491615E0,5.424855351E-1,-5.765739456E-2,-5.789707899E-1
2.448979271E0,5.424855351E-1,-9.707214683E-2,-5.747097135E-1
2.451466927E0,5.446160436E-1,-1.215732098E-1,-5.747097135E-1
2.453954584E0,5.488771200E-1,-1.332911104E-1,-5.768402815E-1
2.456442240E0,5.563339591E-1,-1.343563795E-1,-5.821665525E-1
2.458929896E0,5.659213066E-1,-1.258342713E-1,-5.896234512E-1
2.461417552E0,5.755086541E-1,-1.130511016E-1,-5.992107987E-1
2.463905209E0,5.829655528E-1,-1.002679393E-1,-6.098634601E-1
2.466392865E0,5.850960612E-1,-8.855003864E-2,-6.205160618E-1
2.468880521E0,5.797697306E-1,-8.109319210E-2,-6.301034689E-1
2.471368177E0,5.669865608E-1,-8.002793044E-2,-6.396908164E-1
2.473855834E0,5.499423742E-1,-8.428898454E-2,-6.482129097E-1
2.476343490E0,5.286371112E-1,-9.281109273E-2,-6.567350626E-1
2.478831146E0,5.062665343E-1,-1.045289934E-1,-6.641919017E-1
2.481318802E0,4.849612713E-1,-1.141163707E-1,-6.695181727E-1
2.483806459E0,4.679170549E-1,-1.183774248E-1,-6.737792492E-1
2.486294115E0,4.530033767E-1,-1.151816323E-1,-6.769750714E-1
2.488781771E0,4.423507154E-1,-1.013332009E-1,-6.791055799E-1
2.491269479E0,4.338286221E-1,-7.896266878E-2,-6.780403256E-1
2.493757188E0,4.263717830E-1,-4.913528636E-2,-6.759097576E-1
2.496244896E0,4.199801981E-1,-1.398158539E-2,-6.705834866E-1
2.498732604E0,4.146538675E-1,2.117211558E-2,-6.641919017E-1
2.501220313E0,4.093275666E-1,5.313002318E-2,-6.556697488E-1
2.503708021E0,4.050664902E-1,7.976161689E-2,-6.450171471E-1
2.506195729E0,3.997401893E-1,9.574057162E-2,-6.332992315E-1
2.508683438E0,3.933486044E-1,9.893636405E-2,-6.194508076E-1
2.511171146E0,3.869570196E-1,9.147951752E-2,-6.045371294E-1
2.513658854E0,3.826959729E-1,7.123950869E-2,-5.885581374E-1
2.516146563E0,3.795001805E-1,4.247738793E-2,-5.725792050E-1
2.518634271E0,3.805654347E-1,6.258423906E-3,-5.566002727E-1
2.521121979E0,3.826959729E-1,-3.528685868E-2,-5.406212807E-1
2.523609688E0,3.869570196E-1,-8.002793044E-2,-5.257076025E-1
2.526097396E0,3.901528120E-1,-1.247690022E-1,-5.129244328E-1
2.528585104E0,3.912180662E-1,-1.695100814E-1,-5.012065172E-1
2.531072813E0,3.880222738E-1,-2.110553533E-1,-4.926844239E-1
2.533560521E0,3.826959729E-1,-2.472743243E-1,-4.862928391E-1
2.536048229E0,3.773696423E-1,-2.792322338E-1,-4.830970466E-1
2.538535938E0,3.720433414E-1,-3.026680350E-1,-4.820317924E-1
2.541023646E0,3.709780574E-1,-3.133206666E-1,-4.809665382E-1
2.543511354E0,3.720433414E-1,-3.101248741E-1,-4.820317924E-1
2.545999063E0,3.731085956E-1,-2.920154035E-1,-4.820317924E-1
2.548486771E0,3.709780574E-1,-2.589922249E-1,-4.799012840E-1
2.550974479E0,3.624559641E-1,-2.142511457E-1,-4.756402075E-1
2.553462188E0,3.464770019E-1,-1.620532274E-1,-4.692486227E-1
2.555949896E0,3.251717389E-1,-1.066595241E-1,-4.596612751E-1
2.558437604E0,2.985401452E-1,-5.233107507E-2,-4.490086138E-1
2.560925313E0,2.719085515E-1,-2.263685223E-3,-4.351601899E-1
2.563413021E0,2.484727502E-1,4.247738793E-2,-4.202465117E-1
2.565900729E0,2.282327414E-1,7.656582445E-2,-4.021370113E-1
2.568388386E0,2.111885101E-1,1.000016257E-1,-3.840275407E-1
2.570876042E0,1.973400861E-1,1.127847880E-1,-3.627222776E-1
2.573363698E0,1.866874546E-1,1.159805804E-1,-3.392864764E-1
2.575851354E0,1.771000773E-1,1.095889956E-1,-3.147853911E-1
2.578339011E0,1.685779691E-1,9.787109494E-2,-2.870885432E-1
2.580826667E0,1.611211300E-1,7.976161689E-2,-2.572611570E-1
2.583314323E0,1.547295451E-1,5.739107728E-2,-2.274337858E-1
2.585801979E0,1.504684836E-1,3.182475269E-2,-1.954758763E-1
2.588289636E0,1.494032294E-1,3.062632866E-3,-1.624527127E-1
2.590777292E0,1.525990218E-1,-2.783001214E-2,-1.315600574E-1
2.593264948E0,1.589905918E-1,-6.298371404E-2,-1.006674170E-1
2.595752604E0,1.717737615E-1,-1.002679393E-1,-7.190529257E-2
2.598240261E0,1.877527237E-1,-1.418132186E-1,-4.420844093E-2
2.600727917E0,2.079927325E-1,-1.844237745E-1,-2.077264152E-2
2.603215573E0,2.314285189E-1,-2.280995846E-1,5.326318205E-4
2.605703229E0,2.559295893E-1,-2.739059031E-1,1.651158556E-2
2.608190886E0,2.793653905E-1,-3.175817132E-1,2.929474972E-2
2.610678542E0,3.017359376E-1,-3.601922691E-1,3.675159439E-2
2.613166198E0,3.230412006E-1,-3.996070325E-1,3.888212144E-2
2.615653854E0,3.422159553E-1,-4.347607195E-1,3.568633273E-2
2.618141511E0,3.592601717E-1,-4.645881057E-1,2.929474972E-2
2.620629167E0,3.763043880E-1,-4.869586527E-1,1.864211448E-2
2.623116823E0,3.912180662E-1,-4.997417927E-1,4.793686327E-3
2.625604479E0,4.061317742E-1,-5.018723607E-1,-9.054740891E-3
2.628092136E0,4.210454524E-1,-4.901544452E-1,-2.290316857E-2
2.630579792E0,4.327633679E-1,-4.667186439E-1,-3.568633273E-2
2.633067448E0,4.423507154E-1,-4.315649271E-1,-4.527370632E-2
2.635555104E0,4.487423003E-1,-3.889544010E-1,-5.273054913E-2
2.638042761E0,4.487423003E-1,-3.399522603E-1,-5.805686861E-2
2.640530417E0,4.444812536E-1,-2.930806577E-1,-5.805686861E-2
2.643018073E0,4.348938763E-1,-2.504701018E-1,-5.592634156E-2
2.645505729E0,4.210454524E-1,-2.142511457E-1,-4.953476042E-2
2.647993386E0,4.040012360E-1,-1.876195520E-1,-3.888212144E-2
2.650481042E0,3.869570196E-1,-1.684448123E-1,-2.609895915E-2
2.652968698E0,3.709780574E-1,-1.567269117E-1,-9.054740891E-3
2.655456354E0,3.571296334E-1,-1.482048035E-1,1.012000442E-2
2.657944011E0,3.464770019E-1,-1.407479644E-1,3.249054030E-2
2.660431667E0,3.358243704E-1,-1.300953180E-1,5.592634156E-2
2.662919323E0,3.283675313E-1,-1.162468940E-1,7.936213911E-2
2.665406979E0,3.230412006E-1,-9.707214683E-2,1.038632020E-1
2.667894636E0,3.166496158E-1,-7.150582224E-2,1.272990108E-1
2.670382292E0,3.134538233E-1,-4.274370521E-2,1.486042738E-1
2.672869948E0,3.123885691E-1,-8.655266836E-3,1.677790284E-1
2.675357604E0,3.134538233E-1,2.649843320E-2,1.869537681E-1
2.677845261E0,3.166496158E-1,6.165213138E-2,2.029327303E-1
2.680332917E0,3.219759464E-1,9.361004084E-2,2.189116776E-1
2.682820573E0,3.294327855E-1,1.202416345E-1,2.327601016E-1
2.685308229E0,3.379548788E-1,1.415469050E-1,2.455432713E-1
2.687795886E0,3.475422561E-1,1.543300748E-1,2.551306486E-1
2.690283542E0,3.571296334E-1,1.596563905E-1,2.657832801E-1
2.692771198E0,3.667170107E-1,1.553953290E-1,2.743053734E-1
2.695258854E0,3.763043880E-1,1.436774284E-1,2.806969583E-1
2.697746511E0,3.837612271E-1,1.266332120E-1,2.870885432E-1
2.700234167E0,3.912180662E-1,1.042626798E-1,2.913496196E-1
2.702721823E0,3.965443969E-1,8.082687855E-2,2.956106663E-1
2.705209479E0,4.018706977E-1,5.739107728E-2,2.977411747E-1
2.707697136E0,4.071970284E-1,3.395527974E-2,3.009369671E-1
2.710184792E0,4.103928208E-1,1.371526904E-2,3.009369671E-1
2.712672448E0,4.114580750E-1,-4.394212738E-3,2.988064587E-1
2.715160104E0,4.093275666E-1,-2.143843099E-2,2.945453823E-1
2.717647761E0,4.040012360E-1,-3.635212034E-2,2.881538272E-1
2.720135417E0,3.965443969E-1,-4.700475931E-2,2.796317041E-1
2.722623073E0,3.869570196E-1,-5.233107507E-2,2.679138184E-1
2.725110729E0,3.731085956E-1,-4.913528636E-2,2.561959028E-1
2.727598386E0,3.571296334E-1,-3.848264739E-2,2.434127480E-1
2.730086042E0,3.347590864E-1,-1.504684892E-2,2.306295782E-1
2.732573698E0,3.070622385E-1,1.904158667E-2,2.199769467E-1
2.735061354E0,2.740390599E-1,6.378266215E-2,2.093243003E-1
2.737549011E0,2.346243113E-1,1.170458421E-1,2.018674612E-1
2.740036667E0,1.920137703E-1,1.735048145E-1,1.954758763E-1
2.742524323E0,1.462074369E-1,2.299637944E-1,1.901495606E-1
2.745011979E0,9.827057272E-2,2.842922211E-1,1.858884990E-1
2.747499636E0,5.139897019E-2,3.332943618E-1,1.826927215E-1
2.749987292E0,5.592633970E-3,3.737743795E-1,1.816274524E-1
2.752474948E0,-3.914843872E-2,4.067975581E-1,1.794969290E-1
2.754962604E0,-8.069372177E-2,4.302333593E-1,1.784316599E-1
2.757450261E0,-1.201084778E-1,4.462123215E-1,1.794969290E-1
2.759937917E0,-1.573926955E-1,4.547344148E-1,1.784316599E-1
2.762425573E0,-1.914811432E-1,4.568649530E-1,1.773663908E-1
2.764913229E0,-2.234390527E-1,4.547344148E-1,1.752358675E-1
2.767400886E0,-2.532664239E-1,4.451470375E-1,1.720400751E-1
2.769888542E0,-2.788327634E-1,4.302333593E-1,1.667137593E-1
2.772376198E0,-3.033338189E-1,4.099933505E-1,1.581916511E-1
2.774863854E0,-3.235738277E-1,3.822965026E-1,1.486042738E-1
2.777351511E0,-3.427485824E-1,3.503385782E-1,1.368863732E-1
2.779839167E0,-3.587275445E-1,3.130543530E-1,1.230379492E-1
2.782326823E0,-3.725759685E-1,2.725743353E-1,1.091895252E-1
2.784814479E0,-3.832286000E-1,2.288985252E-1,9.321057051E-2
2.787302136E0,-3.928159773E-1,1.830921918E-1,7.723161578E-2
2.789789792E0,-4.002728164E-1,1.372858584E-1,6.231792271E-2
2.792277448E0,-4.066644013E-1,9.147951752E-2,4.633896798E-2
2.794765104E0,-4.109254479E-1,4.567318037E-2,2.929474972E-2
2.797252761E0,-4.141212404E-1,3.062632866E-3,1.544632297E-2
2.799740417E0,-4.162517786E-1,-3.848264739E-2,1.597895520E-3
2.802228073E0,-4.173170328E-1,-7.470161468E-2,-1.012000442E-2
2.804715729E0,-4.141212404E-1,-1.055942550E-1,-2.077264152E-2
2.807203386E0,-4.087949097E-1,-1.290300637E-1,-2.929474972E-2
2.809691042E0,-4.002728164E-1,-1.428784877E-1,-3.568633273E-2
2.812178698E0,-3.885549009E-1,-1.482048035E-1,-4.101264849E-2
2.814666354E0,-3.768370152E-1,-1.428784877E-1,-4.207791388E-2
2.817154011E0,-3.683148921E-1,-1.311605871E-1,-4.207791388E-2
2.819641667E0,-3.629885912E-1,-1.151816323E-1,-3.888212144E-2
2.822129323E0,-3.619233072E-1,-9.813741595E-2,-3.249054030E-2
2.824616979E0,-3.629885912E-1,-8.322372288E-2,-2.503369562E-2
2.827104636E0,-3.661843836E-1,-7.257108390E-2,-1.544632297E-2
2.829592292E0,-3.704454303E-1,-6.724476814E-2,-4.793686327E-3
2.832080000E0,-3.757717609E-1,-6.511423737E-2,7.989477366E-3
2.834567709E0,-3.810980618E-1,-6.511423737E-2,2.077264152E-2
2.837055417E0,-3.896201849E-1,-6.724476814E-2,3.675159439E-2
2.839543125E0,-3.992075622E-1,-6.617950648E-2,5.060002208E-2
2.842030834E0,-4.109254479E-1,-6.085318699E-2,6.551371515E-2
2.844518542E0,-4.226433635E-1,-5.126581341E-2,7.936213911E-2
2.847006250E0,-4.354265034E-1,-3.528685868E-2,9.214530140E-2
2.849493959E0,-4.482096732E-1,-1.504684892E-2,1.038632020E-1
2.851981667E0,-4.588623047E-1,9.454214945E-3,1.134505793E-1
2.854469375E0,-4.695149362E-1,3.715106845E-2,1.198421568E-1
2.856957084E0,-4.791023135E-1,6.484792382E-2,1.241032109E-1
2.859444792E0,-4.865591824E-1,9.467530251E-2,1.262337416E-1
2.861932500E0,-4.918854833E-1,1.234374270E-1,1.251684725E-1
2.864420209E0,-4.950812757E-1,1.511342824E-1,1.241032109E-1
2.866907917E0,-4.982770681E-1,1.777658761E-1,1.209074259E-1
2.869395625E0,-5.004075766E-1,2.022669315E-1,1.155811027E-1
2.871883334E0,-5.004075766E-1,2.235722095E-1,1.113200486E-1
2.874371042E0,-5.004075766E-1,2.406164259E-1,1.070589945E-1
2.876858750E0,-4.993423223E-1,2.544648647E-1,1.027979404E-1
2.879346459E0,-4.972118139E-1,2.629869580E-1,9.853688627E-2
2.881834167E0,-4.950812757E-1,2.672480047E-1,9.640636295E-2
2.884321875E0,-4.940160215E-1,2.661827505E-1,9.427583218E-2
2.886809584E0,-4.908202291E-1,2.608564198E-1,9.321057051E-2
2.889297292E0,-4.876244366E-1,2.533995807E-1,9.427583218E-2
2.891785000E0,-4.833633900E-1,2.448774725E-1,9.534109384E-2
2.894272709E0,-4.780370593E-1,2.342248410E-1,9.853688627E-2
2.896760417E0,-4.716454744E-1,2.246374637E-1,1.027979404E-1
2.899248125E0,-4.641886353E-1,2.139848322E-1,1.081242561E-1
2.901735834E0,-4.567317963E-1,2.033322006E-1,1.134505793E-1
2.904223542E0,-4.482096732E-1,1.905490309E-1,1.187768951E-1
2.906711250E0,-4.375570416E-1,1.756353378E-1,1.251684725E-1
2.909198959E0,-4.247738719E-1,1.628521830E-1,1.315600574E-1
2.911686615E0,-4.098601937E-1,1.479384899E-1,1.368863732E-1
2.914174271E0,-3.938812315E-1,1.362205893E-1,1.411474347E-1
2.916661927E0,-3.768370152E-1,1.255679578E-1,1.454084814E-1
2.919149584E0,-3.597927988E-1,1.181111038E-1,1.486042738E-1
2.921637240E0,-3.427485824E-1,1.149153188E-1,1.496695429E-1
2.924124896E0,-3.257043660E-1,1.149153188E-1,1.507348120E-1
2.926612552E0,-3.086601496E-1,1.170458421E-1,1.518000662E-1
2.929100209E0,-2.916159332E-1,1.213068962E-1,1.518000662E-1
2.931587865E0,-2.745717168E-1,1.255679578E-1,1.507348120E-1
2.934075521E0,-2.553969622E-1,1.308942735E-1,1.507348120E-1
2.936563177E0,-2.351569533E-1,1.340900660E-1,1.496695429E-1
2.939050834E0,-2.138516754E-1,1.362205893E-1,1.496695429E-1
2.941538490E0,-1.904158741E-1,1.362205893E-1,1.507348120E-1
2.944026146E0,-1.627190262E-1,1.362205893E-1,1.518000662E-1
2.946513802E0,-1.328916401E-1,1.372858584E-1,1.549958587E-1
2.949001459E0,-9.773793817E-2,1.394163817E-1,1.581916511E-1
2.951489115E0,-5.938844755E-2,1.447426975E-1,1.613874435E-1
2.953976771E0,-1.677790284E-2,1.543300748E-1,1.645832360E-1
2.956464427E0,2.476738021E-2,1.649827063E-1,1.677790284E-1
2.958952084E0,6.418213248E-2,1.767006069E-1,1.688442826E-1
2.961439740E0,1.025316268E-1,1.884185076E-1,1.699095517E-1
2.963927396E0,1.387505829E-1,1.980058849E-1,1.699095517E-1
2.966415052E0,1.728390306E-1,2.065279931E-1,1.688442826E-1
2.968902709E0,2.058621943E-1,2.150501013E-1,1.667137593E-1
2.971390365E0,2.378201038E-1,2.225069404E-1,1.635179669E-1
2.973878021E0,2.676474750E-1,2.299637944E-1,1.613874435E-1
2.976365677E0,2.964096069E-1,2.363553643E-1,1.581916511E-1
2.978853334E0,3.241064548E-1,2.416816950E-1,1.549958587E-1
2.981340990E0,3.475422561E-1,2.459427416E-1,1.528653353E-1
2.983828646E0,3.667170107E-1,2.470080107E-1,1.496695429E-1
2.986316302E0,3.837612271E-1,2.459427416E-1,1.464737505E-1
2.988803959E0,3.965443969E-1,2.416816950E-1,1.443432271E-1
2.991291615E0,4.050664902E-1,2.363553643E-1,1.432779580E-1
2.993779271E0,4.103928208E-1,2.288985252E-1,1.422126889E-1
2.996266927E0,4.125233591E-1,2.214416862E-1,1.411474347E-1
2.998754584E0,4.125233591E-1,2.139848322E-1,1.400821656E-1
3.001242240E0,4.082622826E-1,2.086585164E-1,1.400821656E-1
3.003729896E0,3.997401893E-1,2.054627240E-1,1.400821656E-1
3.006217552E0,3.890875578E-1,2.022669315E-1,1.400821656E-1
3.008705209E0,3.741738498E-1,1.990711391E-1,1.390169114E-1
3.011192865E0,3.571296334E-1,1.969406158E-1,1.368863732E-1
3.013680521E0,3.368896246E-1,1.926795542E-1,1.347558498E-1
3.016168177E0,3.145190775E-1,1.884185076E-1,1.315600574E-1
3.018655834E0,2.910832763E-1,1.830921918E-1,1.283642650E-1
3.021143490E0,2.665822208E-1,1.767006069E-1,1.230379492E-1
3.023631146E0,2.410158962E-1,1.681784987E-1,1.187768951E-1
3.026118802E0,2.143843025E-1,1.596563905E-1,1.155811027E-1
3.028606459E0,1.877527237E-1,1.511342824E-1,1.113200486E-1
3.031094115E0,1.600558609E-1,1.436774284E-1,1.059937328E-1
3.033581771E0,1.334242672E-1,1.372858584E-1,1.006674170E-1
3.036069427E0,1.067926809E-1,1.319595277E-1,9.534109384E-2
3.038557084E0,8.122635633E-2,1.266332120E-1,9.001477808E-2
3.041044740E0,5.459476262E-2,1.234374270E-1,8.362319320E-2
3.043532396E0,2.902843431E-2,1.202416345E-1,7.723161578E-2
3.046020052E0,2.396843163E-3,1.181111038E-1,7.190529257E-2
3.048507709E0,-2.210422046E-2,1.170458421E-1,6.551371515E-2
3.050995365E0,-4.873581231E-2,1.181111038E-1,5.912213027E-2
3.053483021E0,-7.430213690E-2,1.202416345E-1,5.379581451E-2
3.055970677E0,-1.009337306E-1,1.223721579E-1,4.740423337E-2
3.058458334E0,-1.254348010E-1,1.255679578E-1,3.888212144E-2
3.060945990E0,-1.478053331E-1,1.287637353E-1,2.929474972E-2
3.063433646E0,-1.691105962E-1,1.319595277E-1,1.864211448E-2
3.065921302E0,-1.882853508E-1,1.351553202E-1,5.858949851E-3
3.068408959E0,-2.063948363E-1,1.383511126E-1,-9.054740891E-3
3.070896615E0,-2.234390527E-1,1.426121742E-1,-2.396843210E-2
3.073384271E0,-2.394180000E-1,1.468732208E-1,-3.994738683E-2
3.075871927E0,-2.532664239E-1,1.521995366E-1,-5.592634156E-2
3.078359584E0,-2.671148479E-1,1.585911214E-1,-7.297056168E-2
3.080847240E0,-2.809632719E-1,1.660479754E-1,-8.894951642E-2
3.083334896E0,-2.948117256E-1,1.745700836E-1,-1.049284711E-1
3.085822552E0,-3.086601496E-1,1.841574460E-1,-1.187768951E-1
3.088310209E0,-3.214432895E-1,1.926795542E-1,-1.326253265E-1
3.090797865E0,-3.342264593E-1,2.001364082E-1,-1.454084814E-1
3.093285521E0,-3.448790908E-1,2.054627240E-1,-1.560611278E-1
3.095773177E0,-3.534012139E-1,2.075932473E-1,-1.667137593E-1
3.098260834E0,-3.619233072E-1,2.086585164E-1,-1.741705984E-1
3.100748490E0,-3.683148921E-1,2.043974549E-1,-1.784316599E-1
3.103236146E0,-3.747064769E-1,1.990711391E-1,-1.826927215E-1
3.105723802E0,-3.789675534E-1,1.905490309E-1,-1.848232448E-1
3.108211459E0,-3.832286000E-1,1.809616536E-1,-1.858884990E-1
3.110699115E0,-3.864243925E-1,1.703090221E-1,-1.848232448E-1
3.113186771E0,-3.906854391E-1,1.575258672E-1,-1.826927215E-1
3.115674427E0,-3.949464858E-1,1.426121742E-1,-1.805621833E-1
3.118162084E0,-3.992075622E-1,1.276984811E-1,-1.773663908E-1
3.120649740E0,-4.024033546E-1,1.106542572E-1,-1.741705984E-1
3.123137396E0,-4.034686089E-1,9.361004084E-2,-1.720400751E-1
3.125625052E0,-4.034686089E-1,7.550056279E-2,-1.688442826E-1
3.128112709E0,-4.013380706E-1,5.739107728E-2,-1.656484902E-1
3.130600365E0,-3.970770240E-1,4.034686089E-2,-1.624527127E-1
3.133088021E0,-3.928159773E-1,2.436790615E-2,-1.592569202E-1
3.135575677E0,-3.885549009E-1,1.051947847E-2,-1.539305896E-1
3.138063334E0,-3.832286000E-1,-1.198421582E-3,-1.507348120E-1
3.140550990E0,-3.789675534E-1,-9.720530361E-3,-1.464737505E-1
3.143038646E0,-3.736412227E-1,-1.398158539E-2,-1.432779580E-1
3.145526302E0,-3.672496378E-1,-1.611211337E-2,-1.411474347E-1
3.148013959E0,-3.608580530E-1,-1.291632187E-2,-1.400821656E-1
3.150501615E0,-3.544664681E-1,-6.524739787E-3,-1.400821656E-1
3.152989271E0,-3.459443748E-1,3.062632866E-3,-1.400821656E-1
3.155476927E0,-3.363569975E-1,1.691105962E-2,-1.411474347E-1
3.157964584E0,-3.246390820E-1,3.395527974E-2,-1.432779580E-1
3.160452240E0,-3.118559420E-1,5.313002318E-2,-1.454084814E-1
3.162939896E0,-2.969422340E-1,7.656582445E-2,-1.486042738E-1
3.165427604E0,-2.798980176E-1,1.000016257E-1,-1.528653353E-1
3.167915313E0,-2.628538013E-1,1.234374270E-1,-1.560611278E-1
3.170403021E0,-2.436790615E-1,1.468732208E-1,-1.592569202E-1
3.172890729E0,-2.255695760E-1,1.692437679E-1,-1.624527127E-1
3.175378438E0,-2.074600905E-1,1.884185076E-1,-1.667137593E-1
3.177866146E0,-1.914811432E-1,2.065279931E-1,-1.688442826E-1
3.180353854E0,-1.765674502E-1,2.193111479E-1,-1.720400751E-1
3.182841563E0,-1.627190262E-1,2.288985252E-1,-1.741705984E-1
3.185329271E0,-1.478053331E-1,2.331595868E-1,-1.763011366E-1
3.187816979E0,-1.350221634E-1,2.342248410E-1,-1.773663908E-1
3.190304688E0,-1.211737394E-1,2.299637944E-1,-1.773663908E-1
3.192792396E0,-1.083905771E-1,2.225069404E-1,-1.784316599E-1
3.195280104E0,-9.454214573E-2,2.118543088E-1,-1.763011366E-1
3.197767813E0,-7.962846011E-2,1.990711391E-1,-1.763011366E-1
3.200255521E0,-6.471476704E-2,1.841574460E-1,-1.752358675E-1
3.202743229E0,-4.873581231E-2,1.692437679E-1,-1.741705984E-1
3.205230938E0,-3.275685757E-2,1.564605981E-1,-1.720400751E-1
3.207718646E0,-1.784316637E-2,1.436774284E-1,-1.731053442E-1
3.210206354E0,-6.125265732E-3,1.319595277E-1,-1.720400751E-1
3.212694063E0,4.527370445E-3,1.213068962E-1,-1.741705984E-1
3.215181771E0,1.304947957E-2,1.117195264E-1,-1.763011366E-1
3.217669479E0,2.157158963E-2,1.021321490E-1,-1.816274524E-1
3.220157188E0,2.902843431E-2,9.254477918E-2,-1.869537681E-1
3.222644896E0,3.755054250E-2,7.976161689E-2,-1.933453530E-1
3.225132604E0,4.713791609E-2,6.591318548E-2,-2.008021921E-1
3.227620313E0,5.566002429E-2,4.780370742E-2,-2.114548385E-1
3.230108021E0,6.311687082E-2,2.543316968E-2,-2.210422009E-1
3.232595729E0,6.844318658E-2,-1.198421582E-3,-2.327601016E-1
3.235083438E0,7.270424068E-2,-3.209106624E-2,-2.423474789E-1
3.237571146E0,7.590003312E-2,-6.724476814E-2,-2.519348562E-1
3.240058854E0,7.909582555E-2,-1.055942550E-1,-2.615222335E-1
3.242546563E0,8.335687965E-2,-1.471395344E-1,-2.700443268E-1
3.245034271E0,8.655267209E-2,-1.886848211E-1,-2.775011659E-1
3.247521927E0,8.974846452E-2,-2.291648388E-1,-2.838927507E-1
3.250009584E0,9.081372619E-2,-2.685796022E-1,-2.881538272E-1
3.252497240E0,9.081372619E-2,-3.058638275E-1,-2.902843356E-1
3.254984896E0,8.761793375E-2,-3.399522603E-1,-2.934801280E-1
3.257472552E0,8.442214131E-2,-3.708449006E-1,-2.945453823E-1
3.259960209E0,8.016108721E-2,-3.974764943E-1,-2.956106663E-1
3.262447865E0,7.696529478E-2,-4.177165031E-1,-2.956106663E-1
3.264935521E0,7.270424068E-2,-4.326302111E-1,-2.945453823E-1
3.267423177E0,6.844318658E-2,-4.422175586E-1,-2.934801280E-1
3.269910834E0,6.418213248E-2,-4.454133511E-1,-2.924148738E-1
3.272398490E0,5.885581672E-2,-4.422175586E-1,-2.892190814E-1
3.274886146E0,5.352949724E-2,-4.336954653E-1,-2.870885432E-1
3.277373802E0,4.926844314E-2,-4.219775498E-1,-2.828274965E-1
3.279861459E0,4.500738904E-2,-4.049333334E-1,-2.785664499E-1
3.282349115E0,4.181159660E-2,-3.857586086E-1,-2.732401192E-1
3.284836771E0,4.074633494E-2,-3.665838540E-1,-2.679138184E-1
3.287324427E0,3.861580789E-2,-3.474090993E-1,-2.615222335E-1
3.289812084E0,3.861580789E-2,-3.303648829E-1,-2.540653646E-1
3.292299740E0,3.861580789E-2,-3.143859208E-1,-2.455432713E-1
3.294787396E0,3.861580789E-2,-2.994722426E-1,-2.348906398E-1
3.297275052E0,3.968106955E-2,-2.866890728E-1,-2.231727391E-1
3.299762709E0,4.181159660E-2,-2.728406489E-1,-2.103895694E-1
3.302250365E0,4.500738904E-2,-2.611227632E-1,-1.976063997E-1
3.304738021E0,4.713791609E-2,-2.494048476E-1,-1.837579757E-1
3.307225677E0,4.926844314E-2,-2.398174703E-1,-1.709748209E-1
3.309713334E0,4.926844314E-2,-2.323606312E-1,-1.581916511E-1
3.312200990E0,5.033370852E-2,-2.270343155E-1,-1.443432271E-1
3.314688646E0,5.033370852E-2,-2.270343155E-1,-1.326253265E-1
3.317176302E0,5.139897019E-2,-2.302301079E-1,-1.198421568E-1
3.319663959E0,5.139897019E-2,-2.355564237E-1,-1.091895252E-1
3.322151615E0,5.246423557E-2,-2.451438010E-1,-9.853688627E-2
3.324639271E0,5.352949724E-2,-2.536658943E-1,-8.894951642E-2
3.327126927E0,5.352949724E-2,-2.653838098E-1,-8.149266988E-2
3.329614584E0,5.352949724E-2,-2.760364413E-1,-7.297056168E-2
3.332102240E0,5.459476262E-2,-2.856238186E-1,-6.657897681E-2
3.334589896E0,5.352949724E-2,-2.930806577E-1,-6.125266105E-2
3.337077552E0,5.246423557E-2,-2.994722426E-1,-5.699160323E-2
3.339565209E0,5.139897019E-2,-3.047985733E-1,-5.379581451E-2
3.342052865E0,4.926844314E-2,-3.069290817E-1,-5.060002208E-2
3.344540521E0,4.713791609E-2,-3.069290817E-1,-4.953476042E-2
3.347028177E0,4.607265070E-2,-3.037332892E-1,-4.740423337E-2
3.349515834E0,4.394212365E-2,-2.994722426E-1,-4.527370632E-2
3.352003490E0,4.181159660E-2,-2.952111959E-1,-4.420844093E-2
3.354491146E0,4.074633494E-2,-2.898848653E-1,-4.314317927E-2
3.356978802E0,3.968106955E-2,-2.856238186E-1,-4.207791388E-2
3.359466459E0,3.755054250E-2,-2.813627720E-1,-3.994738683E-2
3.361954115E0,3.542001545E-2,-2.781669796E-1,-3.675159439E-2
3.364441771E0,3.328948840E-2,-2.771016955E-1,-3.462106735E-2
3.366929427E0,3.222422674E-2,-2.760364413E-1,-3.036001325E-2
3.369417084E0,3.222422674E-2,-2.739059031E-1,-2.503369562E-2
3.371904740E0,3.222422674E-2,-2.717753947E-1,-2.077264152E-2
3.374392396E0,3.115896136E-2,-2.675143182E-1,-1.438105945E-2
3.376880052E0,3.222422674E-2,-2.600574791E-1,-7.989477366E-3
3.379367709E0,3.222422674E-2,-2.515353858E-1,-5.326318205E-4
3.381855365E0,3.222422674E-2,-2.408827394E-1,6.924213842E-3
3.384343021E0,3.222422674E-2,-2.270343155E-1,1.438105945E-2
3.386830677E0,3.435475379E-2,-2.110553533E-1,2.183790505E-2
3.389318334E0,3.542001545E-2,-1.929458827E-1,3.036001325E-2
3.391805990E0,3.648528084E-2,-1.727058738E-1,3.781685978E-2
3.394293646E0,3.861580789E-2,-1.514005959E-1,4.633896798E-2
3.396781302E0,4.181159660E-2,-1.290300637E-1,5.379581451E-2
3.399268959E0,4.500738904E-2,-1.077247858E-1,6.125266105E-2
3.401756615E0,5.033370852E-2,-8.535424620E-2,6.657897681E-2
3.404244271E0,5.566002429E-2,-6.511423737E-2,7.297056168E-2
3.406731927E0,6.098634377E-2,-4.487423226E-2,7.829687744E-2
3.409219584E0,6.631266326E-2,-2.889527567E-2,8.255793154E-2
3.411707240E0,7.270424068E-2,-1.398158539E-2,8.788424730E-2
3.414194896E0,7.803056389E-2,-3.328948980E-3,9.214530140E-2
3.416682552E0,8.335687965E-2,3.062632866E-3,9.640636295E-2
3.419170209E0,8.761793375E-2,7.323687430E-3,1.017326787E-1
3.421657865E0,9.294424951E-2,6.258423906E-3,1.059937328E-1
3.424145521E0,9.933583438E-2,4.127896391E-3,1.102547869E-1
3.426633177E0,1.078579426E-1,-1.331579551E-4,1.145158410E-1
3.429120834E0,1.163800508E-1,-6.524739787E-3,1.166463718E-1
3.431608490E0,1.270326823E-1,-1.185105834E-2,1.187768951E-1
3.434096146E0,1.376853287E-1,-1.717737690E-2,1.198421568E-1
3.436583802E0,1.483379602E-1,-2.250369452E-2,1.209074259E-1
3.439071459E0,1.579253376E-1,-2.676474862E-2,1.230379492E-1
3.441559115E0,1.675127149E-1,-2.996053919E-2,1.241032109E-1
3.444046771E0,1.760348231E-1,-3.422159329E-2,1.262337416E-1
3.446534427E0,1.856221855E-1,-3.848264739E-2,1.283642650E-1
3.449022084E0,1.962748319E-1,-4.380896688E-2,1.315600574E-1
3.451509740E0,2.079927325E-1,-5.126581341E-2,1.347558498E-1
3.453997396E0,2.218411565E-1,-5.978792161E-2,1.379516423E-1
3.456485052E0,2.356895804E-1,-7.044056058E-2,1.411474347E-1
3.458972709E0,2.516685426E-1,-8.215846121E-2,1.443432271E-1
3.461460365E0,2.687127590E-1,-9.387636185E-2,1.475390196E-1
3.463948021E0,2.846917212E-1,-1.045289934E-1,1.507348120E-1
3.466435677E0,3.017359376E-1,-1.119858399E-1,1.539305896E-1
3.468923334E0,3.187801540E-1,-1.173121557E-1,1.549958587E-1
3.471410990E0,3.347590864E-1,-1.194426864E-1,1.560611278E-1
3.473898646E0,3.507380486E-1,-1.173121557E-1,1.560611278E-1
3.476386302E0,3.667170107E-1,-1.119858399E-1,1.539305896E-1
3.478873959E0,3.805654347E-1,-1.034637317E-1,1.518000662E-1
3.481361615E0,3.976096511E-1,-9.281109273E-2,1.464737505E-1
3.483849271E0,4.157191217E-1,-7.789740711E-2,1.400821656E-1
3.486336979E0,4.327633679E-1,-6.085318699E-2,1.326253265E-1
3.488824688E0,4.508728385E-1,-4.274370521E-2,1.251684725E-1
3.491312396E0,4.679170549E-1,-2.250369452E-2,1.177116334E-1
3.493800104E0,4.849612713E-1,-2.263685223E-3,1.091895252E-1
3.496287813E0,4.998749495E-1,1.584579609E-2,1.017326787E-1
3.498775521E0,5.137233734E-1,3.289001435E-2,9.534109384E-2
3.501263229E0,5.254412889E-1,4.567318037E-2,9.001477808E-2
3.503750938E0,5.382244587E-1,5.419528857E-2,8.468846232E-2
3.506238646E0,5.499423742E-1,5.526055023E-2,8.042740822E-2
3.508726354E0,5.616602302E-1,5.099949613E-2,7.510108501E-2
3.511214063E0,5.733781457E-1,4.034686089E-2,6.977476925E-2
3.513701771E0,5.850960612E-1,2.436790615E-2,6.444845349E-2
3.516189479E0,5.957486629E-1,6.258423906E-3,5.912213027E-2
3.518677188E0,6.053360701E-1,-1.504684892E-2,5.273054913E-2
3.521164896E0,6.138581634E-1,-3.848264739E-2,4.420844093E-2
3.523652604E0,6.202497482E-1,-5.978792161E-2,3.462106735E-2
3.526140313E0,6.266413331E-1,-7.896266878E-2,2.503369562E-2
3.528628021E0,6.330329180E-1,-9.600688517E-2,1.438105945E-2
3.531115729E0,6.383592486E-1,-1.087900475E-1,1.597895520E-3
3.533603438E0,6.426202655E-1,-1.173121557E-1,-1.012000442E-2
3.536091146E0,6.436855793E-1,-1.247690022E-1,-2.396843210E-2
3.538578854E0,6.436855793E-1,-1.290300637E-1,-3.675159439E-2
3.541066563E0,6.415550113E-1,-1.332911104E-1,-5.060002208E-2
3.543554271E0,6.383592486E-1,-1.386174262E-1,-6.338318437E-2
3.546041979E0,6.340981722E-1,-1.428784877E-1,-7.616634667E-2
3.548529688E0,6.309024096E-1,-1.471395344E-1,-8.788424730E-2
3.551017396E0,6.255760789E-1,-1.524658650E-1,-9.853688627E-2
3.553505104E0,6.213150024E-1,-1.545963883E-1,-1.081242561E-1
3.555992813E0,6.149234176E-1,-1.535311192E-1,-1.166463718E-1
3.558480521E0,6.095971465E-1,-1.482048035E-1,-1.251684725E-1
3.560968229E0,6.032055616E-1,-1.396826953E-1,-1.336905807E-1
3.563455938E0,5.946834087E-1,-1.279647946E-1,-1.411474347E-1
3.565943646E0,5.850960612E-1,-1.151816323E-1,-1.486042738E-1
3.568431354E0,5.755086541E-1,-1.013332009E-1,-1.560611278E-1
3.570919011E0,5.648560524E-1,-8.961530030E-2,-1.624527127E-1
3.573406667E0,5.542033911E-1,-7.896266878E-2,-1.677790284E-1
3.575894323E0,5.446160436E-1,-7.150582224E-2,-1.720400751E-1
3.578381979E0,5.350286365E-1,-6.724476814E-2,-1.763011366E-1
3.580869636E0,5.275717974E-1,-6.511423737E-2,-1.794969290E-1
3.583357292E0,5.201149583E-1,-6.404897571E-2,-1.837579757E-1
3.585844948E0,5.126581192E-1,-6.404897571E-2,-1.869537681E-1
3.588332604E0,5.052012801E-1,-6.298371404E-2,-1.922800839E-1
3.590820261E0,4.956139028E-1,-6.191844866E-2,-1.976063997E-1
3.593307917E0,4.838960171E-1,-6.191844866E-2,-2.029327303E-1
3.595795573E0,4.721781015E-1,-6.404897571E-2,-2.093243003E-1
3.598283229E0,4.583296776E-1,-6.617950648E-2,-2.157158852E-1
3.600770886E0,4.444812536E-1,-7.257108390E-2,-2.231727391E-1
3.603258542E0,4.306328297E-1,-8.109319210E-2,-2.295643091E-1
3.605746198E0,4.167844057E-1,-9.174583107E-2,-2.370211631E-1
3.608233854E0,4.008054435E-1,-1.045289934E-1,-2.434127480E-1
3.610721511E0,3.858917654E-1,-1.173121557E-1,-2.487390637E-1
3.613209167E0,3.720433414E-1,-1.300953180E-1,-2.540653646E-1
3.615696823E0,3.560643792E-1,-1.418132186E-1,-2.583264410E-1
3.618184479E0,3.411506712E-1,-1.514005959E-1,-2.636527419E-1
3.620672136E0,3.251717389E-1,-1.577921808E-1,-2.668485343E-1
3.623159792E0,3.070622385E-1,-1.631184965E-1,-2.711096108E-1
3.625647448E0,2.889527678E-1,-1.673795432E-1,-2.732401192E-1
3.628135104E0,2.697780132E-1,-1.695100814E-1,-2.753706574E-1
3.630622761E0,2.495380044E-1,-1.716406047E-1,-2.764359117E-1
3.633110417E0,2.314285189E-1,-1.716406047E-1,-2.764359117E-1
3.635598073E0,2.143843025E-1,-1.695100814E-1,-2.753706574E-1
3.638085729E0,1.984053552E-1,-1.641837656E-1,-2.732401192E-1
3.640573386E0,1.856221855E-1,-1.535311192E-1,-2.700443268E-1
3.643061042E0,1.707084924E-1,-1.407479644E-1,-2.657832801E-1
3.645548698E0,1.557948142E-1,-1.247690022E-1,-2.615222335E-1
3.648036354E0,1.398158520E-1,-1.077247858E-1,-2.572611570E-1
3.650524011E0,1.217063740E-1,-8.961530030E-2,-2.530001104E-1
3.653011667E0,1.025316268E-1,-7.470161468E-2,-2.487390637E-1
3.655499323E0,8.442214131E-2,-6.298371404E-2,-2.434127480E-1
3.657986979E0,6.737792492E-2,-5.552686751E-2,-2.370211631E-1
3.660474636E0,5.352949724E-2,-5.339634046E-2,-2.295643091E-1
3.662962292E0,4.181159660E-2,-5.552686751E-2,-2.199769467E-1
3.665449948E0,3.328948840E-2,-5.978792161E-2,-2.093243003E-1
3.667937604E0,2.689790726E-2,-6.511423737E-2,-1.976063997E-1
3.670425261E0,2.157158963E-2,-7.150582224E-2,-1.858884990E-1
3.672912917E0,1.518000662E-2,-7.789740711E-2,-1.720400751E-1
3.675400573E0,6.657897960E-3,-8.535424620E-2,-1.571263820E-1
3.677888229E0,-1.864211401E-3,-9.387636185E-2,-1.422126889E-1
3.680375886E0,-1.038632076E-2,-1.034637317E-1,-1.272990108E-1
3.682863542E0,-1.997369342E-2,-1.151816323E-1,-1.113200486E-1
3.685351198E0,-2.636527456E-2,-1.268995255E-1,-9.534109384E-2
3.687838854E0,-3.382211924E-2,-1.418132186E-1,-7.829687744E-2
3.690326511E0,-4.021370411E-2,-1.545963883E-1,-6.231792271E-2
3.692814167E0,-4.447475821E-2,-1.684448123E-1,-4.633896798E-2
3.695301823E0,-4.980107397E-2,-1.801627129E-1,-3.036001325E-2
3.697789479E0,-5.406212807E-2,-1.918806136E-1,-1.651158556E-2
3.700277136E0,-5.938844755E-2,-2.004027218E-1,-3.728422802E-3
3.702764792E0,-6.578002870E-2,-2.078595608E-1,5.858949851E-3
3.705252448E0,-7.323687524E-2,-2.142511457E-1,1.438105945E-2
3.707740104E0,-8.495477587E-2,-2.206427306E-1,2.077264152E-2
3.710227761E0,-9.880319983E-2,-2.259690464E-1,2.716422267E-2
3.712715417E0,-1.115863696E-1,-2.291648388E-1,3.249054030E-2
3.715203073E0,-1.243695319E-1,-2.302301079E-1,3.781685978E-2
3.717690729E0,-1.360874325E-1,-2.270343155E-1,4.314317927E-2
3.720178386E0,-1.456748098E-1,-2.195774615E-1,4.846949503E-2
3.722666042E0,-1.531316489E-1,-2.078595608E-1,5.379581451E-2
3.725153698E0,-1.605884880E-1,-1.918806136E-1,5.805686861E-2
3.727641354E0,-1.680453420E-1,-1.727058738E-1,6.231792271E-2
3.730129011E0,-1.776327193E-1,-1.524658650E-1,6.657897681E-2
3.732616667E0,-1.882853508E-1,-1.322258562E-1,7.297056168E-2
3.735104323E0,-2.000032514E-1,-1.130511016E-1,7.936213911E-2
3.737591979E0,-2.106558830E-1,-9.494162351E-2,8.788424730E-2
3.740079636E0,-2.202432603E-1,-8.109319210E-2,9.960214794E-2
3.742567292E0,-2.266348451E-1,-7.150582224E-2,1.123853177E-1
3.745054948E0,-2.298306376E-1,-6.617950648E-2,1.272990108E-1
3.747542604E0,-2.308958918E-1,-6.617950648E-2,1.422126889E-1
3.750030261E0,-2.330264151E-1,-7.044056058E-2,1.581916511E-1
3.752517917E0,-2.351569533E-1,-8.109319210E-2,1.741705984E-1
3.755005573E0,-2.394180000E-1,-9.494162351E-2,1.912148297E-1
3.757493229E0,-2.458095849E-1,-1.098553166E-1,2.061285079E-1
3.759980886E0,-2.532664239E-1,-1.226384789E-1,2.210422009E-1
3.762468542E0,-2.596580088E-1,-1.322258562E-1,2.359558940E-1
3.764956198E0,-2.649843395E-1,-1.343563795E-1,2.508696020E-1
3.767443854E0,-2.692453861E-1,-1.311605871E-1,2.636527419E-1
3.769931511E0,-2.724411786E-1,-1.237037405E-1,2.743053734E-1
3.772419167E0,-2.777675092E-1,-1.162468940E-1,2.838927507E-1
3.774906823E0,-2.852243483E-1,-1.087900475E-1,2.924148738E-1
3.777394479E0,-2.926811874E-1,-1.034637317E-1,2.977411747E-1
3.779882136E0,-2.990727723E-1,-1.023984700E-1,3.009369671E-1
3.782369792E0,-3.043990731E-1,-1.055942550E-1,3.020022511E-1
3.784857448E0,-3.107906580E-1,-1.130511016E-1,2.998717129E-1
3.787345104E0,-3.182475269E-1,-1.237037405E-1,2.956106663E-1
3.789832761E0,-3.289001584E-1,-1.386174262E-1,2.892190814E-1
3.792320469E0,-3.416832983E-1,-1.556616426E-1,2.817622423E-1
3.794808177E0,-3.555317521E-1,-1.737711281E-1,2.753706574E-1
3.797295886E0,-3.715106845E-1,-1.940111369E-1,2.700443268E-1
3.799783594E0,-3.853591084E-1,-2.142511457E-1,2.636527419E-1
3.802271302E0,-3.970770240E-1,-2.355564237E-1,2.593916953E-1
3.804759011E0,-4.045338631E-1,-2.536658943E-1,2.572611570E-1
3.807246719E0,-4.087949097E-1,-2.685796022E-1,2.561959028E-1
3.809734427E0,-4.130559862E-1,-2.802974880E-1,2.572611570E-1
3.812222136E0,-4.162517786E-1,-2.888196111E-1,2.583264410E-1
3.814709844E0,-4.226433635E-1,-2.930806577E-1,2.615222335E-1
3.817197552E0,-4.301002026E-1,-2.962764502E-1,2.647180259E-1
3.819685261E0,-4.386222959E-1,-2.952111959E-1,2.668485343E-1
3.822172969E0,-4.460791349E-1,-2.909501195E-1,2.700443268E-1
3.824660677E0,-4.535360038E-1,-2.856238186E-1,2.721748650E-1
3.827148386E0,-4.588623047E-1,-2.792322338E-1,2.753706574E-1
3.829636094E0,-4.652538896E-1,-2.749711871E-1,2.785664499E-1
3.832123802E0,-4.716454744E-1,-2.717753947E-1,2.838927507E-1
3.834611511E0,-4.812328517E-1,-2.707101107E-1,2.892190814E-1
3.837099219E0,-4.918854833E-1,-2.707101107E-1,2.977411747E-1
3.839586927E0,-5.046686530E-1,-2.685796022E-1,3.062632978E-1
3.842074636E0,-5.174518228E-1,-2.632532716E-1,3.169159293E-1
3.844562344E0,-5.291697383E-1,-2.536658943E-1,3.286338449E-1
3.847050052E0,-5.408875942E-1,-2.408827394E-1,3.403517306E-1
3.849537761E0,-5.504750013E-1,-2.249037921E-1,3.520696461E-1
3.852025469E0,-5.611276031E-1,-2.078595608E-1,3.637875319E-1
3.854513177E0,-5.707150102E-1,-1.940111369E-1,3.733749092E-1
3.857000886E0,-5.803023577E-1,-1.833585054E-1,3.840275407E-1
3.859488594E0,-5.909550190E-1,-1.780321896E-1,3.946801722E-1
3.861976302E0,-6.005423665E-1,-1.759016514E-1,4.074633420E-1
3.864464011E0,-6.079992056E-1,-1.780321896E-1,4.191812575E-1
3.866951719E0,-6.122602820E-1,-1.812279820E-1,4.298338890E-1
3.869439427E0,-6.154560447E-1,-1.822932363E-1,4.415517747E-1
3.871927136E0,-6.165213585E-1,-1.812279820E-1,4.511391521E-1
3.874414844E0,-6.197171211E-1,-1.780321896E-1,4.596612751E-1
3.876902500E0,-6.239781976E-1,-1.727058738E-1,4.692486227E-1
3.879390157E0,-6.293044686E-1,-1.673795432E-1,4.756402075E-1
3.881877813E0,-6.356960535E-1,-1.631184965E-1,4.830970466E-1
3.884365469E0,-6.431529522E-1,-1.609879732E-1,4.884233773E-1
3.886853125E0,-6.506097913E-1,-1.620532274E-1,4.937497079E-1
3.889340782E0,-6.570013762E-1,-1.684448123E-1,4.969455004E-1
3.891828438E0,-6.612623930E-1,-1.801627129E-1,5.001412630E-1
3.894316094E0,-6.644582152E-1,-1.961416751E-1,5.012065172E-1
3.896803750E0,-6.676539779E-1,-2.174469382E-1,5.001412630E-1
3.899291407E0,-6.697844863E-1,-2.419480085E-1,4.969455004E-1
3.901779063E0,-6.697844863E-1,-2.675143182E-1,4.937497079E-1
3.904266719E0,-6.708498001E-1,-2.920154035E-1,4.894886315E-1
3.906754375E0,-6.697844863E-1,-3.133206666E-1,4.852275848E-1
3.909242032E0,-6.708498001E-1,-3.324954212E-1,4.809665382E-1
3.911729688E0,-6.708498001E-1,-3.463438451E-1,4.777707458E-1
3.914217344E0,-6.719150543E-1,-3.580617309E-1,4.745749533E-1
3.916705000E0,-6.772413850E-1,-3.644533157E-1,4.735096991E-1
3.919192657E0,-6.815024018E-1,-3.676491082E-1,4.724444151E-1
3.921680313E0,-6.825676560E-1,-3.644533157E-1,4.735096991E-1
3.924167969E0,-6.815024018E-1,-3.538006842E-1,4.735096991E-1
3.926655625E0,-6.804371476E-1,-3.388870060E-1,4.692486227E-1
3.929143282E0,-6.836329699E-1,-3.207775056E-1,4.639223218E-1
3.931630938E0,-6.889592409E-1,-3.005374968E-1,4.554001987E-1
3.934118594E0,-6.974813938E-1,-2.802974880E-1,4.458128214E-1
3.936606250E0,-7.102645040E-1,-2.643185556E-1,4.362254739E-1
3.939093907E0,-7.251782417E-1,-2.526006401E-1,4.266380966E-1
3.941581563E0,-7.379614115E-1,-2.398174703E-1,4.191812575E-1
3.944069219E0,-7.432876825E-1,-2.206427306E-1,4.138549268E-1
3.946556875E0,-7.443529963E-1,-1.961416751E-1,4.117243886E-1
3.949044532E0,-7.400919199E-1,-1.673795432E-1,4.117243886E-1
3.951532188E0,-7.358308434E-1,-1.364869028E-1,4.138549268E-1
3.954019844E0,-7.347655892E-1,-1.087900475E-1,4.170507193E-1
3.956507500E0,-7.368960977E-1,-8.855003864E-2,4.223770201E-1
3.958995157E0,-7.432876825E-1,-7.896266878E-2,4.287686050E-1
3.961482813E0,-7.518098354E-1,-8.109319210E-2,4.362254739E-1
3.963970469E0,-7.613971829E-1,-9.281109273E-2,4.458128214E-1
3.966458125E0,-7.688540220E-1,-1.130511016E-1,4.564654827E-1
3.968945782E0,-7.731150985E-1,-1.364869028E-1,4.703139067E-1
3.971433438E0,-7.763108611E-1,-1.620532274E-1,4.852275848E-1
3.973921094E0,-7.763108611E-1,-1.822932363E-1,5.012065172E-1
3.976408750E0,-7.752456069E-1,-1.982721984E-1,5.193160176E-1
3.978896407E0,-7.720498443E-1,-2.057290375E-1,5.374255180E-1
3.981384063E0,-7.688540220E-1,-2.057290375E-1,5.544697046E-1
3.983871719E0,-7.667235136E-1,-2.014679909E-1,5.715139508E-1
3.986359375E0,-7.667235136E-1,-1.929458827E-1,5.853623748E-1
3.988847032E0,-7.677887678E-1,-1.833585054E-1,5.960150361E-1
3.991334688E0,-7.720498443E-1,-1.780321896E-1,6.034718752E-1
3.993822344E0,-7.805719376E-1,-1.780321896E-1,6.098634601E-1
3.996310000E0,-7.933551073E-1,-1.812279820E-1,6.141244769E-1
3.998797657E0,-8.072035313E-1,-1.876195520E-1,6.205160618E-1
4.001285313E0,-8.199867010E-1,-1.940111369E-1,6.279729009E-1
4.003772969E0,-8.306393027E-1,-1.972069293E-1,6.354297400E-1
4.006260625E0,-8.412919641E-1,-1.961416751E-1,6.450171471E-1
4.008748282E0,-8.519446254E-1,-1.908153445E-1,6.556697488E-1
4.011235938E0,-8.625972271E-1,-1.812279820E-1,6.641919017E-1
4.013723594E0,-8.764456511E-1,-1.695100814E-1,6.716487408E-1
4.016211250E0,-8.913593292E-1,-1.567269117E-1,6.791055799E-1
4.018698907E0,-9.094688296E-1,-1.439437568E-1,6.854971647E-1
4.021186563E0,-9.307740927E-1,-1.322258562E-1,6.918887496E-1
4.023674219E0,-9.542099237E-1,-1.237037405E-1,6.993455887E-1
4.026161875E0,-9.819067717E-1,-1.183774248E-1,7.099981904E-1
4.028649532E0,-1.008538365E0,-1.151816323E-1,7.259771824E-1
4.031137188E0,-1.034104705E0,-1.119858399E-1,7.483476996E-1
4.033624844E0,-1.055409908E0,-1.066595241E-1,7.760445476E-1
4.036112500E0,-1.074584723E0,-1.002679393E-1,8.080024719E-1
4.038600157E0,-1.091628909E0,-9.174583107E-2,8.431561589E-1
4.041087813E0,-1.108673096E0,-8.428898454E-2,8.783098459E-1
4.043575469E0,-1.125717402E0,-8.002793044E-2,9.145288467E-1
4.046063125E0,-1.144892097E0,-8.109319210E-2,9.507477880E-1
4.048550782E0,-1.164066792E0,-9.174583107E-2,9.869667888E-1
4.051038438E0,-1.183241606E0,-1.098553166E-1,1.022120476E0
4.053526094E0,-1.198155284E0,-1.354216337E-1,1.056208849E0
4.056013750E0,-1.209873199E0,-1.663142890E-1,1.088166833E0
4.058501407E0,-1.215199471E0,-2.014679909E-1,1.117994189E0
4.060989063E0,-1.216264725E0,-2.376869470E-1,1.143560529E0
4.063476719E0,-1.212003708E0,-2.728406489E-1,1.165931106E0
4.065964375E0,-1.204546809E0,-3.069290817E-1,1.182975292E0
4.068452032E0,-1.191763639E0,-3.378217220E-1,1.191497326E0
4.070939688E0,-1.177915215E0,-3.655185997E-1,1.195758462E0
4.073427344E0,-1.163001537E0,-3.900196552E-1,1.193627954E0
4.075915052E0,-1.145957351E0,-4.123901725E-1,1.186171055E0
4.078402761E0,-1.126782656E0,-4.336954653E-1,1.177648902E0
4.080890469E0,-1.105477333E0,-4.507396817E-1,1.165931106E0
4.083378177E0,-1.082041502E0,-4.635228515E-1,1.152082682E0
4.085865886E0,-1.056475163E0,-4.699144363E-1,1.139299512E0
4.088353594E0,-1.029843569E0,-4.656533599E-1,1.125451088E0
4.090841302E0,-9.957551956E-1,-4.432828426E-1,1.109472036E0
4.093329011E0,-9.616667628E-1,-4.113249183E-1,1.092427850E0
4.095816719E0,-9.371656775E-1,-3.814975321E-1,1.073253155E0
4.098304427E0,-9.190561771E-1,-3.612575233E-1,1.050882578E0
4.100792136E0,-9.020119905E-1,-3.601922691E-1,1.022120476E0
4.103279844E0,-8.860330582E-1,-3.772364855E-1,9.880320430E-1
4.105767552E0,-8.689888120E-1,-4.091944098E-1,9.496825337E-1
4.108255261E0,-8.487488031E-1,-4.507396817E-1,9.092025161E-1
4.110742969E0,-8.263782859E-1,-4.965460002E-1,8.687224984E-1
4.113230677E0,-8.018772006E-1,-5.370260477E-1,8.271772265E-1
4.115718386E0,-7.763108611E-1,-5.711144805E-1,7.877624631E-1
4.118206094E0,-7.507445216E-1,-5.977460742E-1,7.494129539E-1
4.120693802E0,-7.241129875E-1,-6.137250066E-1,7.121287584E-1
4.123181511E0,-6.964160800E-1,-6.211818457E-1,6.737792492E-1
4.125669219E0,-6.655234694E-1,-6.211818457E-1,6.354297400E-1
4.128156927E0,-6.335655451E-1,-6.147902608E-1,5.960150361E-1
4.130644636E0,-5.994771123E-1,-6.020070910E-1,5.512739420E-1
4.133132344E0,-5.621928573E-1,-5.838976502E-1,5.044023395E-1
4.135620052E0,-5.270391703E-1,-5.657881498E-1,4.554001987E-1
4.138107761E0,-4.929507375E-1,-5.476786494E-1,4.053328037E-1
4.140595469E0,-4.620580971E-1,-5.285038948E-1,3.552654386E-1
4.143083177E0,-4.301002026E-1,-5.071986318E-1,3.051980436E-1
4.145570886E0,-3.960117698E-1,-4.805670679E-1,2.561959028E-1
4.148058594E0,-3.619233072E-1,-4.464786351E-1,2.071937770E-1
4.150546302E0,-3.267696202E-1,-4.038680792E-1,1.592569202E-1
4.153034011E0,-2.926811874E-1,-3.527354300E-1,1.102547869E-1
4.155521719E0,-2.607232630E-1,-3.005374968E-1,5.912213027E-2
4.158009427E0,-2.319611609E-1,-2.483395934E-1,7.989477366E-3
4.160497136E0,-2.053295672E-1,-2.025332451E-1,-4.420844093E-2
4.162984844E0,-1.818937659E-1,-1.631184965E-1,-9.427583218E-2
4.165472500E0,-1.584579647E-1,-1.290300637E-1,-1.422126889E-1
4.167960157E0,-1.339569092E-1,-9.813741595E-2,-1.837579757E-1
4.170447813E0,-1.094558388E-1,-6.617950648E-2,-2.210422009E-1
4.172935469E0,-8.388951421E-2,-3.315633163E-2,-2.519348562E-1
4.175423125E0,-5.725792050E-2,3.062632866E-3,-2.785664499E-1
4.177910782E0,-3.382211924E-2,4.034686089E-2,-3.041327596E-1
4.180398438E0,-1.251684781E-2,7.656582445E-2,-3.254380524E-1
4.182886094E0,5.592633970E-3,1.085237339E-1,-3.478085697E-1
4.185373750E0,2.263685316E-2,1.330247968E-1,-3.691138625E-1
4.187861407E0,3.755054250E-2,1.511342824E-1,-3.893538713E-1
4.190349063E0,5.033370852E-2,1.617869139E-1,-4.085285962E-1
4.192836719E0,6.311687082E-2,1.671132296E-1,-4.245075583E-1
4.195324375E0,7.590003312E-2,1.681784987E-1,-4.362254739E-1
4.197812032E0,8.548741043E-2,1.660479754E-1,-4.436823130E-1
4.200299688E0,9.400951862E-2,1.607216448E-1,-4.468781054E-1
4.202787344E0,1.004010960E-1,1.543300748E-1,-4.436823130E-1
4.205275000E0,1.035968885E-1,1.458079666E-1,-4.362254739E-1
4.207762657E0,1.067926809E-1,1.340900660E-1,-4.245075583E-1
4.210250313E0,1.057274193E-1,1.202416345E-1,-4.095938802E-1
4.212737969E0,1.035968885E-1,1.031974182E-1,-3.904191256E-1
4.215225625E0,1.004010960E-1,8.295740932E-2,-3.691138625E-1
4.217713282E0,9.507478029E-2,5.952160433E-2,-3.446127772E-1
4.220200938E0,8.761793375E-2,3.395527974E-2,-3.201117218E-1
4.222688594E0,7.803056389E-2,6.258423906E-3,-2.934801280E-1
4.225176250E0,6.524740160E-2,-2.143843099E-2,-2.647180259E-1
4.227663907E0,5.139897019E-2,-5.020054802E-2,-2.338253707E-1
4.230151563E0,3.648528084E-2,-7.896266878E-2,-1.997369379E-1
4.232639219E0,2.050632425E-2,-1.055942550E-1,-1.635179669E-1
4.235126875E0,5.592633970E-3,-1.311605871E-1,-1.251684725E-1
4.237614532E0,-9.321057238E-3,-1.535311192E-1,-8.362319320E-2
4.240102188E0,-2.210422046E-2,-1.716406047E-1,-4.314317927E-2
4.242589844E0,-3.595264629E-2,-1.865542978E-1,-1.597895520E-3
4.245077500E0,-4.660528526E-2,-1.972069293E-1,3.781685978E-2
4.247565157E0,-5.832318589E-2,-2.025332451E-1,7.616634667E-2
4.250052813E0,-6.684529036E-2,-2.014679909E-1,1.102547869E-1
4.252540469E0,-7.536740601E-2,-1.940111369E-1,1.411474347E-1
4.255028125E0,-8.175898343E-2,-1.812279820E-1,1.667137593E-1
4.257515782E0,-8.602003753E-2,-1.641837656E-1,1.890842915E-1
4.260003438E0,-9.028109163E-2,-1.439437568E-1,2.071937770E-1
4.262491094E0,-9.347688407E-2,-1.226384789E-1,2.210422009E-1
4.264978750E0,-9.560741484E-2,-1.023984700E-1,2.306295782E-1
4.267466407E0,-9.773793817E-2,-8.428898454E-2,2.348906398E-1
4.269954063E0,-9.773793817E-2,-6.937529147E-2,2.370211631E-1
4.272441719E0,-9.773793817E-2,-5.978792161E-2,2.338253707E-1
4.274929375E0,-9.667267650E-2,-5.339634046E-2,2.274337858E-1
4.277417032E0,-9.667267650E-2,-5.126581341E-2,2.178464085E-1
4.279904688E0,-9.560741484E-2,-5.552686751E-2,2.050632536E-1
4.282392344E0,-9.347688407E-2,-6.404897571E-2,1.890842915E-1
4.284880000E0,-9.347688407E-2,-7.576687634E-2,1.720400751E-1
4.287367657E0,-9.347688407E-2,-9.387636185E-2,1.528653353E-1
4.289855313E0,-9.241162241E-2,-1.141163707E-1,1.336905807E-1
4.292342969E0,-9.241162241E-2,-1.364869028E-1,1.134505793E-1
4.294830625E0,-9.134636074E-2,-1.609879732E-1,9.427583218E-2
4.297318282E0,-8.921582997E-2,-1.865542978E-1,7.403582335E-2
4.299805938E0,-8.708529919E-2,-2.131858915E-1,5.592634156E-2
4.302293594E0,-8.495477587E-2,-2.376869470E-1,3.675159439E-2
4.304781250E0,-8.388951421E-2,-2.611227632E-1,1.970737800E-2
4.307268907E0,-8.069372177E-2,-2.792322338E-1,4.793686327E-3
4.309756563E0,-7.856319100E-2,-2.920154035E-1,-6.924213842E-3
4.312244219E0,-7.536740601E-2,-2.984069884E-1,-1.757685095E-2
4.314731875E0,-7.323687524E-2,-3.016027808E-1,-2.503369562E-2
4.317219532E0,-7.110634446E-2,-2.994722426E-1,-2.929474972E-2
4.319707188E0,-6.791055948E-2,-2.952111959E-1,-3.142527863E-2
4.322194844E0,-6.471476704E-2,-2.888196111E-1,-3.142527863E-2
4.324682500E0,-6.258423626E-2,-2.813627720E-1,-2.822948620E-2
4.327170157E0,-5.938844755E-2,-2.728406489E-1,-2.290316857E-2
4.329657813E0,-5.725792050E-2,-2.643185556E-1,-1.757685095E-2
4.332145469E0,-5.512739345E-2,-2.557964325E-1,-1.012000442E-2
4.334633125E0,-5.406212807E-2,-2.451438010E-1,-2.663159044E-3
4.337120782E0,-5.406212807E-2,-2.323606312E-1,5.858949851E-3
4.339608438E0,-5.512739345E-2,-2.163816839E-1,1.225053146E-2
4.342096094E0,-5.619265884E-2,-1.993374527E-1,2.077264152E-2
4.344583750E0,-5.938844755E-2,-1.801627129E-1,2.822948620E-2
4.347071407E0,-6.258423626E-2,-1.620532274E-1,3.675159439E-2
4.349559063E0,-6.684529036E-2,-1.460742801E-1,4.633896798E-2
4.352046719E0,-7.217161357E-2,-1.290300637E-1,5.592634156E-2
4.354534375E0,-7.643266767E-2,-1.141163707E-1,6.657897681E-2
4.357022084E0,-8.069372177E-2,-9.920267761E-2,7.723161578E-2
4.359509792E0,-8.495477587E-2,-8.641951531E-2,8.575372398E-2
4.361997500E0,-9.028109163E-2,-7.470161468E-2,9.108003974E-2
4.364485209E0,-9.454214573E-2,-6.511423737E-2,9.534109384E-2
4.366972917E0,-9.986846894E-2,-5.872265995E-2,9.747162461E-2
4.369460625E0,-1.051947847E-1,-5.552686751E-2,9.747162461E-2
4.371948334E0,-1.105211005E-1,-5.339634046E-2,9.640636295E-2
4.374436042E0,-1.137168929E-1,-5.552686751E-2,9.321057051E-2
4.376923750E0,-1.158474237E-1,-5.872265995E-2,9.001477808E-2
4.379411459E0,-1.179779470E-1,-6.617950648E-2,8.468846232E-2
4.381899167E0,-1.179779470E-1,-7.363634557E-2,7.829687744E-2
4.384386875E0,-1.179779470E-1,-8.428898454E-2,6.870950758E-2
4.386874584E0,-1.179779470E-1,-9.707214683E-2,5.912213027E-2
4.389362292E0,-1.190432087E-1,-1.109205782E-1,4.846949503E-2
4.391850000E0,-1.190432087E-1,-1.237037405E-1,3.568633273E-2
4.394337709E0,-1.179779470E-1,-1.354216337E-1,2.396843210E-2
4.396825417E0,-1.169126853E-1,-1.439437568E-1,1.544632297E-2
4.399313125E0,-1.137168929E-1,-1.503353268E-1,6.924213842E-3
4.401800834E0,-1.105211005E-1,-1.514005959E-1,1.597895520E-3
4.404288542E0,-1.062600464E-1,-1.492700726E-1,-1.597895520E-3
4.406776250E0,-1.019989923E-1,-1.460742801E-1,-2.663159044E-3
4.409263959E0,-9.773793817E-2,-1.386174262E-1,-5.326318205E-4
4.411751667E0,-9.347688407E-2,-1.311605871E-1,2.663159044E-3
4.414239375E0,-8.815056831E-2,-1.205079481E-1,7.989477366E-3
4.416727084E0,-8.388951421E-2,-1.087900475E-1,1.438105945E-2
4.419214792E0,-7.856319100E-2,-9.600688517E-2,2.183790505E-2
4.421702500E0,-7.323687524E-2,-8.109319210E-2,3.036001325E-2
4.424190209E0,-6.897582114E-2,-6.724476814E-2,3.888212144E-2
4.426677917E0,-6.258423626E-2,-5.233107507E-2,4.846949503E-2
4.429165625E0,-5.832318589E-2,-3.635212034E-2,5.805686861E-2
4.431653334E0,-5.299686641E-2,-1.930790395E-2,6.870950758E-2
4.434141042E0,-4.767054692E-2,-3.328948980E-3,7.936213911E-2
4.436628750E0,-4.447475821E-2,1.158474199E-2,8.894951642E-2
4.439116459E0,-3.914843872E-2,2.649843320E-2,9.853688627E-2
4.441604167E0,-3.595264629E-2,3.928159550E-2,1.070589945E-1
4.444091875E0,-3.275685757E-2,4.886896908E-2,1.145158410E-1
4.446579584E0,-2.956106514E-2,5.739107728E-2,1.219726875E-1
4.449067240E0,-2.743053809E-2,6.591318548E-2,1.272990108E-1
4.451554896E0,-2.530001104E-2,7.337003201E-2,1.326253265E-1
4.454042552E0,-2.316948399E-2,7.869634777E-2,1.368863732E-1
4.456530209E0,-2.210422046E-2,8.508793265E-2,1.411474347E-1
4.459017865E0,-2.103895694E-2,9.041424841E-2,1.432779580E-1
4.461505521E0,-1.890842989E-2,9.467530251E-2,1.454084814E-1
4.463993177E0,-1.784316637E-2,9.574057162E-2,1.443432271E-1
4.466480834E0,-1.571263932E-2,9.467530251E-2,1.443432271E-1
4.468968490E0,-1.358211134E-2,9.254477918E-2,1.422126889E-1
4.471456146E0,-1.251684781E-2,8.828372508E-2,1.379516423E-1
4.473943802E0,-1.038632076E-2,8.402267098E-2,1.326253265E-1
4.476431459E0,-8.255792782E-3,7.976161689E-2,1.272990108E-1
4.478919115E0,-7.190529723E-3,7.550056279E-2,1.209074259E-1
4.481406771E0,-6.125265732E-3,7.337003201E-2,1.134505793E-1
4.483894427E0,-5.060002208E-3,6.910897791E-2,1.049284711E-1
4.486382084E0,-3.994738683E-3,6.697845459E-2,9.747162461E-2
4.488869740E0,-1.864211401E-3,6.591318548E-2,9.108003974E-2
4.491357396E0,2.663159103E-4,6.804371625E-2,8.468846232E-2
4.493845052E0,3.462106921E-3,7.123950869E-2,8.042740822E-2
4.496332709E0,5.592633970E-3,7.656582445E-2,7.829687744E-2
4.498820365E0,8.788425475E-3,8.295740932E-2,7.616634667E-2
4.501308021E0,9.853689000E-3,9.041424841E-2,7.723161578E-2
4.503795677E0,1.198421605E-2,9.787109494E-2,7.936213911E-2
4.506283334E0,1.411474310E-2,1.053279415E-1,8.255793154E-2
4.508770990E0,1.518000662E-2,1.106542572E-1,8.788424730E-2
4.511258646E0,1.624527015E-2,1.149153188E-1,9.427583218E-2
4.513746302E0,1.837579720E-2,1.170458421E-1,1.017326787E-1
4.516233959E0,1.944106072E-2,1.181111038E-1,1.102547869E-1
4.518721615E0,2.157158963E-2,1.181111038E-1,1.187768951E-1
4.521209271E0,2.370211668E-2,1.181111038E-1,1.294295341E-1
4.523696927E0,2.689790726E-2,1.181111038E-1,1.400821656E-1
4.526184584E0,2.902843431E-2,1.191763729E-1,1.496695429E-1
4.528672240E0,3.222422674E-2,1.191763729E-1,1.592569202E-1
4.531159896E0,3.435475379E-2,1.191763729E-1,1.688442826E-1
4.533647552E0,3.648528084E-2,1.191763729E-1,1.773663908E-1
4.536135209E0,4.074633494E-2,1.191763729E-1,1.837579757E-1
4.538622865E0,4.287686199E-2,1.181111038E-1,1.901495606E-1
4.541110521E0,4.607265070E-2,1.181111038E-1,1.944106072E-1
4.543598177E0,4.820318148E-2,1.191763729E-1,1.986716688E-1
4.546085834E0,4.926844314E-2,1.191763729E-1,2.008021921E-1
4.548573490E0,5.139897019E-2,1.202416345E-1,2.018674612E-1
4.551061146E0,5.246423557E-2,1.202416345E-1,2.008021921E-1
4.553548802E0,5.352949724E-2,1.202416345E-1,2.008021921E-1
4.556036459E0,5.352949724E-2,1.191763729E-1,1.986716688E-1
4.558524115E0,5.246423557E-2,1.170458421E-1,1.954758763E-1
4.561011771E0,5.033370852E-2,1.138500497E-1,1.922800839E-1
4.563499427E0,4.926844314E-2,1.117195264E-1,1.901495606E-1
4.565987084E0,4.713791609E-2,1.085237339E-1,1.880190372E-1
4.568474740E0,4.713791609E-2,1.063932031E-1,1.848232448E-1
4.570962396E0,4.500738904E-2,1.042626798E-1,1.826927215E-1
4.573450052E0,4.394212365E-2,1.042626798E-1,1.805621833E-1
4.575937709E0,4.074633494E-2,1.042626798E-1,1.773663908E-1
4.578425365E0,3.861580789E-2,1.053279415E-1,1.741705984E-1
4.580913021E0,3.648528084E-2,1.063932031E-1,1.699095517E-1
4.583400677E0,3.435475379E-2,1.074584723E-1,1.667137593E-1
4.585888334E0,3.222422674E-2,1.106542572E-1,1.635179669E-1
4.588375990E0,3.009369783E-2,1.149153188E-1,1.603221744E-1
4.590863646E0,2.902843431E-2,1.223721579E-1,1.581916511E-1
4.593351302E0,2.689790726E-2,1.298290044E-1,1.560611278E-1
4.595838959E0,2.476738021E-2,1.372858584E-1,1.549958587E-1
4.598326615E0,2.370211668E-2,1.447426975E-1,1.549958587E-1
4.600814271E0,2.157158963E-2,1.521995366E-1,1.560611278E-1
4.603301927E0,2.050632425E-2,1.564605981E-1,1.571263820E-1
4.605789584E0,1.837579720E-2,1.607216448E-1,1.592569202E-1
4.608277240E0,1.837579720E-2,1.617869139E-1,1.613874435E-1
4.610764896E0,1.624527015E-2,1.639174372E-1,1.635179669E-1
4.613252552E0,1.624527015E-2,1.649827063E-1,1.645832360E-1
4.615740209E0,1.518000662E-2,1.681784987E-1,1.656484902E-1
4.618227865E0,1.518000662E-2,1.713742912E-1,1.656484902E-1
4.620715521E0,1.518000662E-2,1.745700836E-1,1.635179669E-1
4.623203177E0,1.411474310E-2,1.767006069E-1,1.624527127E-1
4.625690886E0,1.304947957E-2,1.777658761E-1,1.603221744E-1
4.628178594E0,1.198421605E-2,1.767006069E-1,1.571263820E-1
4.630666302E0,1.091895252E-2,1.745700836E-1,1.528653353E-1
4.633154011E0,1.198421605E-2,1.713742912E-1,1.486042738E-1
4.635641719E0,1.198421605E-2,1.681784987E-1,1.443432271E-1
4.638129427E0,1.411474310E-2,1.649827063E-1,1.390169114E-1
4.640617136E0,1.411474310E-2,1.617869139E-1,1.347558498E-1
4.643104844E0,1.624527015E-2,1.607216448E-1,1.283642650E-1
4.645592552E0,1.731053367E-2,1.585911214E-1,1.209074259E-1
4.648080261E0,1.837579720E-2,1.585911214E-1,1.134505793E-1
4.650567969E0,1.944106072E-2,1.585911214E-1,1.059937328E-1
4.653055677E0,2.050632425E-2,1.585911214E-1,9.747162461E-2
4.655543386E0,2.157158963E-2,1.585911214E-1,9.001477808E-2
4.658031094E0,2.370211668E-2,1.585911214E-1,8.255793154E-2
4.660518802E0,2.476738021E-2,1.575258672E-1,7.616634667E-2
4.663006511E0,2.796317078E-2,1.575258672E-1,6.977476925E-2
4.665494219E0,3.009369783E-2,1.575258672E-1,6.338318437E-2
4.667981927E0,3.222422674E-2,1.575258672E-1,5.699160323E-2
4.670469636E0,3.435475379E-2,1.564605981E-1,5.060002208E-2
4.672957344E0,3.648528084E-2,1.564605981E-1,4.314317927E-2
4.675445052E0,3.755054250E-2,1.553953290E-1,3.568633273E-2
4.677932761E0,3.861580789E-2,1.543300748E-1,2.822948620E-2
4.680420469E0,4.074633494E-2,1.521995366E-1,2.077264152E-2
4.682908177E0,4.394212365E-2,1.511342824E-1,1.225053146E-2
4.685395886E0,4.607265070E-2,1.490037590E-1,5.858949851E-3
4.687883594E0,5.033370852E-2,1.468732208E-1,-1.597895520E-3
4.690371302E0,5.352949724E-2,1.458079666E-1,-7.989477366E-3
4.692859011E0,5.672528967E-2,1.458079666E-1,-1.438105945E-2
4.695346719E0,5.885581672E-2,1.468732208E-1,-1.864211448E-2
4.697834427E0,6.205160543E-2,1.490037590E-1,-2.290316857E-2
4.700322136E0,6.631266326E-2,1.532648057E-1,-2.716422267E-2
4.702809844E0,6.844318658E-2,1.575258672E-1,-3.249054030E-2
4.705297552E0,7.163897902E-2,1.617869139E-1,-3.675159439E-2
4.707785261E0,7.270424068E-2,1.649827063E-1,-4.101264849E-2
4.710272969E0,7.376950979E-2,1.649827063E-1,-4.420844093E-2
4.712760677E0,7.696529478E-2,1.628521830E-1,-4.527370632E-2
4.715248386E0,7.909582555E-2,1.585911214E-1,-4.633896798E-2
4.717736094E0,8.335687965E-2,1.500690132E-1,-4.527370632E-2
4.720223750E0,8.761793375E-2,1.404816359E-1,-4.420844093E-2
4.722711407E0,9.187898785E-2,1.287637353E-1,-4.207791388E-2
4.725199063E0,9.720530361E-2,1.149153188E-1,-4.101264849E-2
4.727686719E0,1.014663652E-1,1.010668874E-1,-4.207791388E-2
4.730174375E0,1.057274193E-1,8.615319431E-2,-4.527370632E-2
4.732662032E0,1.099884734E-1,7.123950869E-2,-4.953476042E-2
4.735149688E0,1.131842583E-1,5.632581562E-2,-5.699160323E-2
4.737637344E0,1.185105816E-1,4.247738793E-2,-6.657897681E-2
4.740125000E0,1.259674281E-1,2.756369673E-2,-7.723161578E-2
4.742612657E0,1.344895363E-1,1.478053257E-2,-8.894951642E-2
4.745100313E0,1.440769136E-1,9.321057005E-4,-1.017326787E-1
4.747587969E0,1.525990218E-1,-1.185105834E-2,-1.155811027E-1
4.750075625E0,1.621863842E-1,-2.569948509E-2,-1.304948032E-1
4.752563282E0,1.739042848E-1,-3.954791278E-2,-1.475390196E-1
4.755050938E0,1.856221855E-1,-5.446160212E-2,-1.656484902E-1
4.757538594E0,1.984053552E-1,-6.724476814E-2,-1.858884990E-1
4.760026250E0,2.122537792E-1,-7.789740711E-2,-2.061285079E-1
4.762513907E0,2.271674722E-1,-8.641951531E-2,-2.284990549E-1
4.765001563E0,2.431464195E-1,-9.281109273E-2,-2.519348562E-1
4.767489219E0,2.591253817E-1,-9.600688517E-2,-2.753706574E-1
4.769976875E0,2.761695981E-1,-9.813741595E-2,-3.009369671E-1
4.772464532E0,2.932138145E-1,-9.707214683E-2,-3.254380524E-1
4.774952188E0,3.102580309E-1,-9.387636185E-2,-3.510043621E-1
4.777439844E0,3.273022473E-1,-8.855003864E-2,-3.755054474E-1
4.779927500E0,3.432812095E-1,-8.002793044E-2,-4.000065029E-1
4.782415157E0,3.592601717E-1,-6.937529147E-2,-4.223770201E-1
4.784902813E0,3.741738498E-1,-5.659212917E-2,-4.447475672E-1
4.787390469E0,3.880222738E-1,-4.061317816E-2,-4.660528302E-1
4.789878125E0,4.008054435E-1,-2.250369452E-2,-4.852275848E-1
4.792365782E0,4.125233591E-1,-2.263685223E-3,-5.012065172E-1
4.794853438E0,4.242412448E-1,1.904158667E-2,-5.161202550E-1
4.797341094E0,4.338286221E-1,4.141212255E-2,-5.289034247E-1
4.799828750E0,4.434159994E-1,6.271740049E-2,-5.395560265E-1
4.802316407E0,4.508728385E-1,8.402267098E-2,-5.480781198E-1
4.804804063E0,4.572644234E-1,1.031974182E-1,-5.544697046E-1
4.807291719E0,4.625907242E-1,1.191763729E-1,-5.597960353E-1
4.809779375E0,4.668518007E-1,1.319595277E-1,-5.640571117E-1
4.812267032E0,4.700475931E-1,1.426121742E-1,-5.661876202E-1
4.814754688E0,4.732433856E-1,1.500690132E-1,-5.693834424E-1
4.817242344E0,4.764391780E-1,1.564605981E-1,-5.715139508E-1
4.819730000E0,4.796349406E-1,1.617869139E-1,-5.747097135E-1
4.822217657E0,4.860265255E-1,1.660479754E-1,-5.768402815E-1
4.824705313E0,4.934833944E-1,1.703090221E-1,-5.811012983E-1
4.827192969E0,5.030707717E-1,1.735048145E-1,-5.864276290E-1
4.829680625E0,5.147886276E-1,1.767006069E-1,-5.938844681E-1
4.832168282E0,5.297023654E-1,1.788311303E-1,-6.034718752E-1
4.834655938E0,5.456812978E-1,1.788311303E-1,-6.162550449E-1
4.837143594E0,5.637907982E-1,1.777658761E-1,-6.301034689E-1
4.839631250E0,5.840308070E-1,1.745700836E-1,-6.482129097E-1
4.842118907E0,6.074665785E-1,1.713742912E-1,-6.684529185E-1
4.844606563E0,6.309024096E-1,1.681784987E-1,-6.929540038E-1
4.847094219E0,6.564686894E-1,1.660479754E-1,-7.206508517E-1
4.849581875E0,6.809697747E-1,1.639174372E-1,-7.504782081E-1
4.852069532E0,7.044056058E-1,1.639174372E-1,-7.835013866E-1
4.854557188E0,7.257108688E-1,1.660479754E-1,-8.197203875E-1
4.857044844E0,7.438203096E-1,1.735048145E-1,-8.559393287E-1
4.859532500E0,7.608645558E-1,1.862879843E-1,-8.921582699E-1
4.862020157E0,7.768434882E-1,2.065279931E-1,-9.283772707E-1
4.864507813E0,7.917572260E-1,2.363553643E-1,-9.624657035E-1
4.866995469E0,8.056056499E-1,2.747048736E-1,-9.944236279E-1
4.869483125E0,8.173235059E-1,3.194459379E-1,-1.025316238E0
4.871970782E0,8.269109130E-1,3.652522564E-1,-1.054078341E0
4.874458438E0,8.311719298E-1,4.078628123E-1,-1.080709934E0
4.876946094E0,8.333024979E-1,4.408859909E-1,-1.103080511E0
4.879433750E0,8.301066756E-1,4.611259997E-1,-1.122255206E0
4.881921407E0,8.226498365E-1,4.632565379E-1,-1.135038376E0
4.884409063E0,8.119972348E-1,4.504733682E-1,-1.141430020E0
4.886896719E0,7.992140651E-1,4.249070287E-1,-1.140364766E0
4.889384427E0,7.864308953E-1,3.918838501E-1,-1.130777359E0
4.891872136E0,7.747129798E-1,3.567301631E-1,-1.113733172E0
4.894359844E0,7.619298100E-1,3.237069845E-1,-1.089232087E0
4.896847552E0,7.512772083E-1,2.970753908E-1,-1.059404731E0
4.899335261E0,7.406245470E-1,2.768353820E-1,-1.026381493E0
4.901822969E0,7.289066315E-1,2.651174963E-1,-9.890972972E-1
4.904310677E0,7.171887755E-1,2.576606572E-1,-9.507477880E-1
4.906798386E0,7.054708600E-1,2.544648647E-1,-9.123983383E-1
4.909286094E0,6.958834529E-1,2.533995807E-1,-8.740488291E-1
4.911773802E0,6.852308512E-1,2.533995807E-1,-8.346340656E-1
4.914261511E0,6.777740121E-1,2.533995807E-1,-7.962845564E-1
4.916749219E0,6.692518592E-1,2.555301189E-1,-7.600656152E-1
4.919236927E0,6.617950201E-1,2.587259114E-1,-7.238466144E-1
4.921724636E0,6.532729268E-1,2.629869580E-1,-6.908234954E-1
4.924212344E0,6.468813419E-1,2.683132887E-1,-6.578003168E-1
4.926700052E0,6.415550113E-1,2.779006660E-1,-6.301034689E-1
4.929187761E0,6.394245028E-1,2.906838059E-1,-6.045371294E-1
4.931675469E0,6.404897571E-1,3.077280223E-1,-5.821665525E-1
4.934163177E0,6.447508335E-1,3.290333152E-1,-5.640571117E-1
4.936650886E0,6.500771642E-1,3.503385782E-1,-5.502086878E-1
4.939138594E0,6.554034352E-1,3.705785871E-1,-5.406212807E-1
4.941626302E0,6.575340033E-1,3.854922652E-1,-5.352949500E-1
4.944114011E0,6.564686894E-1,3.950796425E-1,-5.342296958E-1
4.946601719E0,6.532729268E-1,3.972101808E-1,-5.352949500E-1
4.949089427E0,6.479465961E-1,3.950796425E-1,-5.406212807E-1
4.951577136E0,6.426202655E-1,3.876228034E-1,-5.459476113E-1
4.954064844E0,6.394245028E-1,3.780354261E-1,-5.523391962E-1
4.956552552E0,6.394245028E-1,3.684480488E-1,-5.576655269E-1
4.959040261E0,6.404897571E-1,3.577954173E-1,-5.629918575E-1
4.961527969E0,6.426202655E-1,3.450122476E-1,-5.672528744E-1
4.964015677E0,6.426202655E-1,3.269027770E-1,-5.704486966E-1
4.966503386E0,6.404897571E-1,3.013364673E-1,-5.736444592E-1
4.968991094E0,6.362286806E-1,2.661827505E-1,-5.757750273E-1
4.971478802E0,6.298371553E-1,2.225069404E-1,-5.757750273E-1
4.973966511E0,6.213150024E-1,1.692437679E-1,-5.747097135E-1
4.976454219E0,6.127929091E-1,1.106542572E-1,-5.715139508E-1
4.978941927E0,6.032055616E-1,4.886896908E-2,-5.661876202E-1
4.981429636E0,5.946834087E-1,-1.078579482E-2,-5.566002727E-1
4.983917344E0,5.872265697E-1,-6.404897571E-2,-5.438171029E-1
4.986405000E0,5.819002390E-1,-1.066595241E-1,-5.289034247E-1
4.988892657E0,5.797697306E-1,-1.375521719E-1,-5.129244328E-1
4.991380313E0,5.808349848E-1,-1.556616426E-1,-4.969455004E-1
4.993867969E0,5.840308070E-1,-1.631184965E-1,-4.820317924E-1
4.996355625E0,5.882918239E-1,-1.609879732E-1,-4.703139067E-1
4.998843282E0,5.957486629E-1,-1.514005959E-1,-4.607265294E-1
5.001330938E0,6.042708158E-1,-1.375521719E-1,-4.543349445E-1
5.003818594E0,6.138581634E-1,-1.194426864E-1,-4.511391521E-1
5.006306250E0,6.245108247E-1,-1.013332009E-1,-4.522044063E-1
5.008793907E0,6.340981722E-1,-8.428898454E-2,-4.543349445E-1
5.011281563E0,6.415550113E-1,-7.044056058E-2,-4.596612751E-1
5.013769219E0,6.447508335E-1,-5.978792161E-2,-4.671181142E-1
5.016256875E0,6.447508335E-1,-5.020054802E-2,-4.756402075E-1
5.018744532E0,6.415550113E-1,-4.061317816E-2,-4.852275848E-1
5.021232188E0,6.372939944E-1,-2.783001214E-2,-4.937497079E-1
