"Time (s)","Acceleration x (m/s^2)","Acceleration y (m/s^2)","Acceleration z (m/s^2)"
3.069927400E-2,-2.910152197E0,7.864354134E0,5.610213280E0
3.319453500E-2,-2.929305792E0,7.888296127E0,5.662885666E0
3.568979500E-2,-2.938882589E0,7.888296127E0,5.701192856E0
3.818505500E-2,-2.929305792E0,7.893084526E0,5.710769653E0
4.068031600E-2,-2.934094191E0,7.902661324E0,5.710769653E0
4.317557600E-2,-2.934094191E0,7.893084526E0,5.734711647E0
4.567083700E-2,-2.924517393E0,7.907449722E0,5.715558052E0
4.816609700E-2,-2.910152197E0,7.897872925E0,5.705981255E0
5.066135800E-2,-2.900575399E0,7.893084526E0,5.696404457E0
5.315661800E-2,-2.905363798E0,7.902661324E0,5.667674065E0
5.565453500E-2,-2.895787001E0,7.893084526E0,5.658097267E0
5.815245100E-2,-2.881421804E0,7.878719330E0,5.653308868E0
6.060245100E-2,-2.852691412E0,7.873930931E0,5.629366875E0
6.305245100E-2,-2.833537817E0,7.869142532E0,5.610213280E0
6.550245100E-2,-2.819172382E0,7.864354134E0,5.595848083E0
6.795698300E-2,-2.809595585E0,7.845200539E0,5.586271286E0
7.041151400E-2,-2.795230389E0,7.873930931E0,5.576694489E0
7.287641000E-2,-2.771288395E0,7.869142532E0,5.567117691E0
7.535250300E-2,-2.771288395E0,7.864354134E0,5.552752495E0
7.784000300E-2,-2.785653591E0,7.859565735E0,5.562329292E0
8.033849300E-2,-2.761711597E0,7.864354134E0,5.557540894E0
8.284708700E-2,-2.761711597E0,7.849988937E0,5.567117691E0
8.536458700E-2,-2.747346401E0,7.835623741E0,5.552752495E0
8.788943000E-2,-2.747346401E0,7.840412140E0,5.562329292E0
9.041984700E-2,-2.742558002E0,7.835623741E0,5.576694489E0
9.295391000E-2,-2.728192806E0,7.821258545E0,5.591059685E0
9.548963900E-2,-2.704250813E0,7.792528152E0,5.586271286E0
9.801823300E-2,-2.713827610E0,7.787739754E0,5.605424881E0
1.005062530E-1,-2.699462414E0,7.782951355E0,5.619790077E0
1.029942220E-1,-2.685097218E0,7.768586159E0,5.600636482E0
1.054821910E-1,-2.675520420E0,7.759009361E0,5.610213280E0
1.079701600E-1,-2.670732021E0,7.754220963E0,5.610213280E0
1.104581280E-1,-2.656366825E0,7.739855766E0,5.634155273E0
1.129460970E-1,-2.651578426E0,7.715913296E0,5.634155273E0
1.154340660E-1,-2.646790028E0,7.720701694E0,5.643732071E0
1.179220350E-1,-2.632424831E0,7.715913296E0,5.653308868E0
1.204100030E-1,-2.598906040E0,7.715913296E0,5.662885666E0
1.228979720E-1,-2.589329243E0,7.706336498E0,5.672462463E0
1.253859410E-1,-2.589329243E0,7.711124897E0,5.691616058E0
1.278739100E-1,-2.579752445E0,7.711124897E0,5.686827660E0
1.303618780E-1,-2.579752445E0,7.701548100E0,5.710769653E0
1.328498470E-1,-2.579752445E0,7.696759701E0,5.705981255E0
1.353378160E-1,-2.555810213E0,7.682394505E0,5.701192856E0
1.378257850E-1,-2.541445017E0,7.672817707E0,5.734711647E0
1.403137530E-1,-2.531868219E0,7.663240910E0,5.725134850E0
1.428017220E-1,-2.527079821E0,7.658452511E0,5.734711647E0
1.452896910E-1,-2.522291422E0,7.653664112E0,5.758653641E0
1.477776600E-1,-2.503137827E0,7.658452511E0,5.777807236E0
1.502656280E-1,-2.498349428E0,7.658452511E0,5.773018837E0
1.527535970E-1,-2.479195833E0,7.644087315E0,5.763442039E0
1.552415660E-1,-2.483984232E0,7.639298916E0,5.763442039E0
1.577295350E-1,-2.483984232E0,7.624933720E0,5.763442039E0
1.602175030E-1,-2.474407434E0,7.615356922E0,5.768230438E0
1.627054720E-1,-2.488772631E0,7.605780125E0,5.777807236E0
1.651934410E-1,-2.474407434E0,7.600991726E0,5.773018837E0
1.676814100E-1,-2.464830637E0,7.591414928E0,5.782595634E0
1.701693780E-1,-2.460042238E0,7.567472935E0,5.796960831E0
1.726573470E-1,-2.455253839E0,7.567472935E0,5.792172432E0
1.751453160E-1,-2.445677042E0,7.553107738E0,5.792172432E0
1.776332850E-1,-2.431311846E0,7.543530941E0,5.796960831E0
1.801212530E-1,-2.416946650E0,7.543530941E0,5.806537628E0
1.826092220E-1,-2.421735048E0,7.548319340E0,5.820902824E0
1.850971910E-1,-2.416946650E0,7.524377346E0,5.801749229E0
1.875851600E-1,-2.426523447E0,7.533954144E0,5.806537628E0
1.900731280E-1,-2.407369852E0,7.519588947E0,5.825691223E0
1.925610970E-1,-2.402581453E0,7.533954144E0,5.830479622E0
1.950490660E-1,-2.407369852E0,7.524377346E0,5.840056419E0
1.975370350E-1,-2.421735048E0,7.519588947E0,5.844844818E0
2.000250030E-1,-2.416946650E0,7.524377346E0,5.849633217E0
2.025129720E-1,-2.426523447E0,7.529165745E0,5.854421616E0
2.050009410E-1,-2.421735048E0,7.543530941E0,5.868786812E0
2.074889100E-1,-2.431311846E0,7.543530941E0,5.892728806E0
2.099768780E-1,-2.431311846E0,7.562684536E0,5.897517204E0
2.124648470E-1,-2.436100245E0,7.577049732E0,5.911882401E0
2.149528160E-1,-2.445677042E0,7.581838131E0,5.916670799E0
2.174407850E-1,-2.436100245E0,7.596203327E0,5.940612793E0
2.199287530E-1,-2.445677042E0,7.596203327E0,5.935824394E0
2.224167220E-1,-2.440888643E0,7.605780125E0,5.950189590E0
2.249046910E-1,-2.450465441E0,7.620145321E0,5.959766388E0
2.273926600E-1,-2.474407434E0,7.610568523E0,5.983708382E0
2.298806280E-1,-2.469619036E0,7.610568523E0,5.993285179E0
2.323685970E-1,-2.474407434E0,7.610568523E0,6.012439251E0
2.348565660E-1,-2.507926226E0,7.624933720E0,6.031592846E0
2.373445350E-1,-2.512714624E0,7.639298916E0,6.041169643E0
2.398325030E-1,-2.531868219E0,7.644087315E0,6.069900036E0
2.423204720E-1,-2.531868219E0,7.644087315E0,6.079476833E0
2.448084410E-1,-2.541445017E0,7.644087315E0,6.132149220E0
2.472964100E-1,-2.551021814E0,7.648875713E0,6.165668011E0
2.497843780E-1,-2.565387011E0,7.658452511E0,6.180033207E0
2.522723470E-1,-2.570175409E0,7.663240910E0,6.160879612E0
2.547603160E-1,-2.570175409E0,7.668029308E0,6.165668011E0
2.572482850E-1,-2.555810213E0,7.653664112E0,6.165668011E0
2.597362530E-1,-2.541445017E0,7.663240910E0,6.146514416E0
2.622242220E-1,-2.512714624E0,7.658452511E0,6.127360821E0
2.647121910E-1,-2.498349428E0,7.663240910E0,6.084265232E0
2.672001600E-1,-2.474407434E0,7.677606106E0,6.060323238E0
2.696881280E-1,-2.445677042E0,7.687182903E0,6.022016048E0
2.721760970E-1,-2.426523447E0,7.677606106E0,5.969343185E0
2.746640660E-1,-2.421735048E0,7.682394505E0,5.931035995E0
2.771520350E-1,-2.412158251E0,7.677606106E0,5.883152008E0
2.796400030E-1,-2.402581453E0,7.663240910E0,5.873575211E0
2.821279720E-1,-2.383427858E0,7.663240910E0,5.863998413E0
2.846159410E-1,-2.378639460E0,7.658452511E0,5.844844818E0
2.871039100E-1,-2.373851061E0,7.634510517E0,5.816114426E0
2.895918780E-1,-2.383427858E0,7.615356922E0,5.787384033E0
2.920798470E-1,-2.397793055E0,7.629722118E0,5.773018837E0
2.945678160E-1,-2.421735048E0,7.634510517E0,5.777807236E0
2.970557850E-1,-2.431311846E0,7.648875713E0,5.777807236E0
2.995437530E-1,-2.445677042E0,7.639298916E0,5.768230438E0
3.020317220E-1,-2.460042238E0,7.648875713E0,5.777807236E0
3.045196910E-1,-2.464830637E0,7.672817707E0,5.777807236E0
3.070076600E-1,-2.469619036E0,7.691971302E0,5.763442039E0
3.094956280E-1,-2.483984232E0,7.691971302E0,5.768230438E0
3.119835970E-1,-2.469619036E0,7.696759701E0,5.768230438E0
3.144715660E-1,-2.479195833E0,7.696759701E0,5.734711647E0
3.169595350E-1,-2.483984232E0,7.701548100E0,5.729923248E0
3.194475030E-1,-2.493561029E0,7.701548100E0,5.686827660E0
3.219354720E-1,-2.503137827E0,7.711124897E0,5.677250862E0
3.244234410E-1,-2.483984232E0,7.720701694E0,5.643732071E0
3.269114100E-1,-2.474407434E0,7.725490570E0,5.615001678E0
3.293993780E-1,-2.460042238E0,7.706336498E0,5.581482887E0
3.318873470E-1,-2.455253839E0,7.687182903E0,5.533598900E0
3.343753160E-1,-2.450465441E0,7.682394505E0,5.504868031E0
3.368632850E-1,-2.450465441E0,7.691971302E0,5.480926037E0
3.393512530E-1,-2.469619036E0,7.706336498E0,5.452195644E0
3.418392220E-1,-2.445677042E0,7.711124897E0,5.380369663E0
3.443271910E-1,-2.407369852E0,7.668029308E0,5.337274075E0
3.468151600E-1,-2.397793055E0,7.644087315E0,5.303755283E0
3.493031280E-1,-2.369062662E0,7.629722118E0,5.308543682E0
3.517910970E-1,-2.340332270E0,7.620145321E0,5.351639271E0
3.542790660E-1,-2.354697466E0,7.600991726E0,5.346850872E0
3.567670350E-1,-2.354697466E0,7.624933720E0,5.294178486E0
3.592550030E-1,-2.383427858E0,7.629722118E0,5.270236492E0
3.617429720E-1,-2.431311846E0,7.644087315E0,5.284601688E0
3.642309410E-1,-2.455253839E0,7.653664112E0,5.289390087E0
3.667189100E-1,-2.503137827E0,7.653664112E0,5.356427670E0
3.692068780E-1,-2.541445017E0,7.653664112E0,5.399523258E0
3.716948470E-1,-2.574964046E0,7.663240910E0,5.428253651E0
3.741828160E-1,-2.469619036E0,7.505223751E0,5.552752495E0
3.766707850E-1,-2.139219284E0,7.069478989E0,5.916670799E0
3.791587530E-1,-2.177526474E0,7.102997780E0,5.878363609E0
3.816467220E-1,-2.230198860E0,7.170035362E0,6.002861977E0
3.841346910E-1,-1.933317900E0,6.882731438E0,6.903081894E0
3.866226600E-1,-1.942894697E0,6.810905457E0,7.003638744E0
3.891106280E-1,-2.201468468E0,6.892308235E0,6.716334343E0
3.915985970E-1,-2.483984232E0,6.964134216E0,6.515221596E0
3.940865660E-1,-2.718616009E0,7.050325394E0,6.381145954E0
3.965745350E-1,-2.948459387E0,7.189188957E0,6.271012783E0
3.990625030E-1,-3.116053581E0,7.356783390E0,6.189610004E0
4.015504720E-1,-3.183091164E0,7.519588947E0,6.194398403E0
4.040384410E-1,-3.154360771E0,7.639298916E0,6.251859188E0
4.065264100E-1,-3.077746391E0,7.701548100E0,6.352415562E0
4.090143780E-1,-2.890998602E0,7.720701694E0,6.433818340E0
4.115023470E-1,-2.618059635E0,7.701548100E0,6.457760334E0
4.139903160E-1,-2.325966835E0,7.672817707E0,6.414664745E0
4.164782850E-1,-2.038662672E0,7.624933720E0,6.328473568E0
4.189662530E-1,-1.837549806E0,7.591414928E0,6.247070789E0
4.214542220E-1,-1.679532528E0,7.538742542E0,6.151302814E0
4.239421910E-1,-1.593341231E0,7.466916561E0,6.050746441E0
4.264301600E-1,-1.578976035E0,7.404667377E0,5.945401192E0
4.289181280E-1,-1.617283225E0,7.380725384E0,5.844844818E0
4.314060970E-1,-1.598129630E0,7.399878979E0,5.763442039E0
4.338940660E-1,-1.574187636E0,7.414244175E0,5.629366875E0
4.363820350E-1,-1.473631144E0,7.447762966E0,5.471349239E0
4.388700030E-1,-1.339555860E0,7.438186169E0,5.303755283E0
4.413579720E-1,-1.219845772E0,7.385513783E0,5.279813290E0
4.438459410E-1,-1.104924083E0,7.265803814E0,5.318120480E0
4.463339100E-1,-1.109712481E0,7.155670166E0,5.337274075E0
4.488218780E-1,-1.186326981E0,7.059902191E0,5.342062473E0
4.513098470E-1,-1.310825467E0,6.949769020E0,5.313332081E0
4.537978160E-1,-1.497573137E0,6.820482254E0,5.207987309E0
4.562857850E-1,-1.674744129E0,6.686406612E0,5.083488941E0
4.587737530E-1,-1.837549806E0,6.581061840E0,4.896740913E0
4.612617220E-1,-1.976413488E0,6.446986675E0,4.652532578E0
4.637496910E-1,-2.096123695E0,6.298546314E0,4.360439777E0
4.662376600E-1,-2.211045265E0,6.116586685E0,4.087501049E0
4.687256280E-1,-2.412158251E0,5.790975571E0,3.781043053E0
4.712135970E-1,-2.421735048E0,5.599439144E0,3.421912670E0
4.737015660E-1,-2.359485865E0,5.551555157E0,3.187281132E0
4.761895350E-1,-2.378639460E0,5.518036366E0,3.110666513E0
4.786775030E-1,-2.397793055E0,5.474940777E0,3.182492495E0
4.811654720E-1,-2.436100245E0,5.479729176E0,3.402759075E0
4.836534410E-1,-2.488772631E0,5.498882771E0,3.661332846E0
4.861414100E-1,-2.488772631E0,5.527613163E0,3.972579241E0
4.886293780E-1,-2.455253839E0,5.565920353E0,4.255095005E0
4.911173470E-1,-2.397793055E0,5.570708752E0,4.523245335E0
4.936053160E-1,-2.369062662E0,5.561131954E0,4.733935356E0
4.960932850E-1,-2.349909067E0,5.503671169E0,4.896740913E0
4.985812530E-1,-2.373851061E0,5.403114796E0,5.064335346E0
5.010692220E-1,-2.436100245E0,5.288193226E0,5.136161327E0
5.035571910E-1,-2.522291422E0,5.192424774E0,5.193622112E0
5.060451600E-1,-2.675520420E0,5.096656799E0,5.184045315E0
5.085331280E-1,-2.881421804E0,4.996100426E0,5.160103321E0
5.110210970E-1,-3.101688385E0,4.909909248E0,5.131372929E0
5.135090660E-1,-3.288435936E0,4.852448463E0,5.093065739E0
5.159970350E-1,-3.427299738E0,4.833294868E0,5.030816555E0
5.184850030E-1,-3.513490915E0,4.823718071E0,4.920682907E0
5.209729720E-1,-3.609259129E0,4.885967255E0,4.791396141E0
5.234609410E-1,-3.695450306E0,4.996100426E0,4.719570160E0
5.259489100E-1,-3.767276287E0,5.101445198E0,4.657320976E0
5.284368780E-1,-3.920505285E0,5.235520363E0,4.628590584E0
5.309248470E-1,-4.126406670E0,5.379172802E0,4.652532578E0
5.334128160E-1,-4.327519417E0,5.522824764E0,4.738723755E0
5.359007850E-1,-4.528632641E0,5.666476727E0,4.882375717E0
5.383887530E-1,-4.710591793E0,5.824494362E0,5.064335346E0
5.408767220E-1,-4.873397350E0,5.982511520E0,5.265448093E0
5.433646910E-1,-5.045780182E0,6.111798286E0,5.480926037E0
5.458526600E-1,-5.199008942E0,6.245873451E0,5.729923248E0
5.483406280E-1,-5.342660904E0,6.384737492E0,6.022016048E0
5.508285970E-1,-5.515043736E0,6.494870663E0,6.323685169E0
5.533165660E-1,-5.706579685E0,6.609792233E0,6.625354767E0
5.558045350E-1,-5.888539314E0,6.724713802E0,6.898293495E0
5.582925030E-1,-6.022614479E0,6.801328659E0,7.113771915E0
5.607804720E-1,-6.127959251E0,6.844424248E0,7.267000675E0
5.632684410E-1,-6.238092422E0,6.925827026E0,7.391499043E0
5.657564100E-1,-6.290764809E0,7.026383400E0,7.525574684E0
5.682443780E-1,-6.281188011E0,7.126939774E0,7.678803444E0
5.707323470E-1,-6.266822815E0,7.246650219E0,7.808090210E0
5.732203160E-1,-6.281188011E0,7.294534206E0,8.018779755E0
5.757082850E-1,-6.362590790E0,7.284957409E0,7.961318970E0
5.781962530E-1,-6.515820026E0,7.256227016E0,8.478466988E0
5.806842220E-1,-6.645106792E0,7.155670166E0,9.124900818E0
5.831721910E-1,-6.621164799E0,7.021595001E0,9.206304550E0
5.856601600E-1,-6.309918404E0,6.767809868E0,8.784924507E0
5.881481280E-1,-5.874173641E0,6.442198277E0,8.052298546E0
5.906360970E-1,-5.553350925E0,6.164470673E0,7.132925510E0
5.931240660E-1,-5.457582951E0,5.963357925E0,6.146514416E0
5.956120350E-1,-5.639542103E0,5.891531944E0,5.313332081E0
5.981000030E-1,-5.979518890E0,5.939415932E0,4.695628166E0
6.005879720E-1,-6.343437195E0,6.059125900E0,4.451419353E0
6.030759410E-1,-6.592434406E0,6.193201065E0,4.499303341E0
6.055639100E-1,-6.712144375E0,6.298546314E0,4.748300552E0
6.080518780E-1,-6.678625584E0,6.317699909E0,5.069123745E0
6.105398470E-1,-6.477512836E0,6.284181118E0,5.361216068E0
6.130278160E-1,-6.194996834E0,6.255450726E0,5.509656429E0
6.155157850E-1,-5.883750439E0,6.241085052E0,5.605424881E0
6.180037530E-1,-5.634753704E0,6.217143059E0,5.672462463E0
6.204917220E-1,-5.476736546E0,6.135740280E0,5.696404457E0
6.229796910E-1,-5.457582951E0,6.035183907E0,5.710769653E0
6.254676600E-1,-5.452794552E0,5.972934723E0,5.801749229E0
6.279556280E-1,-5.462371349E0,5.886743546E0,5.911882401E0
6.304435970E-1,-5.491101742E0,5.771821976E0,6.084265232E0
6.329315660E-1,-5.548562527E0,5.618592739E0,6.357203960E0
6.354195350E-1,-5.610811710E0,5.383961201E0,7.003638744E0
6.379075030E-1,-5.744886875E0,5.111021996E0,7.812878609E0
6.403954720E-1,-5.864596844E0,4.828506470E0,8.440159798E0
6.428834410E-1,-5.946000099E0,4.641758442E0,8.732252121E0
6.453714100E-1,-5.979518890E0,4.526836872E0,8.971672058E0
6.478593780E-1,-6.099228859E0,4.493318081E0,9.177573204E0
6.503473470E-1,-6.228515625E0,4.498106480E0,9.206304550E0
6.528353160E-1,-6.400898457E0,4.589086056E0,9.670779228E0
6.553232850E-1,-6.544550419E0,4.732738018E0,1.012088871E1
6.578112530E-1,-6.716932774E0,4.919486046E0,1.049917316E1
6.602992220E-1,-6.822277546E0,5.077503204E0,1.094449425E1
6.627871910E-1,-6.841431141E0,5.158905983E0,1.146643066E1
6.652751600E-1,-6.745663166E0,5.259462357E0,1.199315453E1
6.677631280E-1,-6.606799603E0,5.269039154E0,1.243847656E1
6.702510970E-1,-6.482301235E0,5.235520363E0,1.276887608E1
6.727390660E-1,-6.391321659E0,5.158905983E0,1.296998882E1
6.752270350E-1,-6.353013992E0,5.077503204E0,1.302266121E1
6.777150030E-1,-6.386533260E0,4.948216438E0,1.293168163E1
6.802029720E-1,-6.467936039E0,4.766256809E0,1.275929928E1
6.826909410E-1,-6.525396824E0,4.569932461E0,1.250072575E1
6.851789100E-1,-6.554127216E0,4.349666119E0,1.223257542E1
6.876668780E-1,-6.578069210E0,4.129399300E0,1.190217495E1
6.901548470E-1,-6.592434406E0,3.899555922E0,1.151910305E1
6.926428160E-1,-6.554127216E0,3.693654776E0,1.109772301E1
6.951307850E-1,-6.496666431E0,3.473388195E0,1.070986271E1
6.976187530E-1,-6.420052052E0,3.296217203E0,1.023102283E1
7.001067220E-1,-6.333860397E0,3.142988205E0,9.699509621E0
7.025946910E-1,-6.309918404E0,3.023278236E0,9.158419609E0
7.050826600E-1,-6.271611214E0,2.941875219E0,8.655637741E0
7.075706280E-1,-6.252457619E0,2.855684042E0,8.215105057E0
7.100585970E-1,-6.257246017E0,2.841318846E0,7.846397400E0
7.125465660E-1,-6.266822815E0,2.817376852E0,7.592612267E0
7.150345350E-1,-6.228515625E0,2.793434858E0,7.439383030E0
7.175225030E-1,-6.190208435E0,2.798223257E0,7.367557049E0
7.200104720E-1,-6.070498466E0,2.783858061E0,7.329249859E0
7.224984410E-1,-5.931634903E0,2.759916067E0,7.353191853E0
7.249864100E-1,-5.759252071E0,2.740762472E0,7.425017834E0
7.274743780E-1,-5.562927723E0,2.731185675E0,7.511209488E0
7.299623470E-1,-5.347449303E0,2.712032080E0,7.559093475E0
7.324503160E-1,-5.165490150E0,2.731185675E0,7.592612267E0
7.349382850E-1,-5.017049789E0,2.716820478E0,7.626131058E0
7.374262530E-1,-4.887762547E0,2.688089848E0,7.635707855E0
7.399142220E-1,-4.801571369E0,2.644994259E0,7.678803444E0
7.424021910E-1,-4.763264179E0,2.587533474E0,7.697957039E0
7.448901600E-1,-4.791994572E0,2.510919094E0,7.693168640E0
7.473781280E-1,-4.806359768E0,2.415150881E0,7.683591843E0
7.498660970E-1,-4.854243755E0,2.290652514E0,7.664438248E0
7.523540660E-1,-4.892550945E0,2.147000313E0,7.693168640E0
7.548420350E-1,-4.959589005E0,1.988983035E0,7.764994621E0
7.573300030E-1,-4.983530998E0,1.864484549E0,7.855974197E0
7.598179720E-1,-5.007472992E0,1.749562860E0,7.937376976E0
7.623059410E-1,-5.012261391E0,1.658583283E0,8.037933350E0
7.647939100E-1,-5.026626587E0,1.634641171E0,8.176796913E0
7.672818780E-1,-5.036203384E0,1.586757183E0,8.325238228E0
7.697698470E-1,-5.031414986E0,1.534084797E0,8.478466988E0
7.722578160E-1,-5.017049789E0,1.524507880E0,8.511985779E0
7.747457850E-1,-4.978742599E0,1.558026791E0,8.564658165E0
7.772337530E-1,-4.921281815E0,1.596333981E0,8.622118950E0
7.797217220E-1,-4.859032154E0,1.658583283E0,8.698733330E0
7.822096910E-1,-4.830301762E0,1.687313676E0,8.770559311E0
7.846976600E-1,-4.825513363E0,1.653794765E0,8.784924507E0
7.871856280E-1,-4.782417774E0,1.663371682E0,8.875904083E0
7.896735970E-1,-4.677073002E0,1.821388960E0,9.024344444E0
7.921615660E-1,-4.557363033E0,1.907580256E0,9.120112419E0
7.946495350E-1,-4.452018261E0,1.984194636E0,9.139266014E0
7.971375030E-1,-4.394556999E0,2.041655540E0,9.129689217E0
7.996254720E-1,-4.341884613E0,2.075174332E0,9.105747223E0
8.021134410E-1,-4.337096214E0,2.084751129E0,9.072228432E0
8.046014100E-1,-4.298789024E0,2.118269920E0,9.000402451E0
8.070893780E-1,-4.284423828E0,2.118269920E0,8.914211273E0
8.095773470E-1,-4.226963043E0,2.123058319E0,8.789712906E0
8.120653160E-1,-4.188655853E0,2.113481522E0,8.670002937E0
8.145532850E-1,-4.150348663E0,2.113481522E0,8.569446564E0
8.170412530E-1,-4.140771866E0,2.127846718E0,8.444948196E0
8.195292220E-1,-4.131195068E0,2.170942307E0,8.325238228E0
8.220171910E-1,-4.112041473E0,2.218826532E0,8.167220116E0
8.245051600E-1,-4.097676277E0,2.295440912E0,8.013991356E0
8.269931280E-1,-4.102464676E0,2.381632090E0,7.841609001E0
8.294810970E-1,-4.097676277E0,2.472611904E0,7.693168640E0
8.319690660E-1,-4.064157486E0,2.573168278E0,7.559093475E0
8.344570350E-1,-4.030638695E0,2.683301449E0,7.482479095E0
8.369450030E-1,-4.001908302E0,2.774281263E0,7.434594631E0
8.394329720E-1,-3.973177671E0,2.893991232E0,7.329249859E0
8.419209410E-1,-3.925293684E0,2.980182648E0,7.252635479E0
8.444089100E-1,-3.858256102E0,3.056797028E0,7.233481884E0
8.468968780E-1,-3.810372114E0,3.128623009E0,7.209539890E0
8.493848470E-1,-3.738545895E0,3.243544817E0,7.185597897E0
8.518728160E-1,-3.719392300E0,3.324947596E0,7.228693485E0
8.543607850E-1,-3.719392300E0,3.396773577E0,7.267000675E0
8.568487530E-1,-3.738545895E0,3.468599796E0,7.267000675E0
8.593367220E-1,-3.733757496E0,3.526060581E0,7.286154270E0
8.618246910E-1,-3.733757496E0,3.588309765E0,7.343615055E0
8.643126600E-1,-3.728969097E0,3.645770550E0,7.377133846E0
8.668006280E-1,-3.719392300E0,3.693654776E0,7.415441036E0
8.692885970E-1,-3.705027103E0,3.736750364E0,7.458536625E0
8.717765660E-1,-3.695450306E0,3.755903959E0,7.492055893E0
8.742645350E-1,-3.695450306E0,3.784634352E0,7.554305077E0
8.767525030E-1,-3.690661907E0,3.789422750E0,7.597400665E0
8.792404720E-1,-3.705027103E0,3.722385168E0,7.539939880E0
8.817284410E-1,-3.709815502E0,3.626616955E0,7.492055893E0
8.842164100E-1,-3.676296711E0,3.612251759E0,7.525574684E0
8.867043780E-1,-3.623624325E0,3.617040157E0,7.602189064E0
8.891923470E-1,-3.580528736E0,3.617040157E0,7.697957039E0
8.916803160E-1,-3.566163540E0,3.626616955E0,7.808090210E0
8.941682850E-1,-3.566163540E0,3.617040157E0,7.923011780E0
8.966562530E-1,-3.566163540E0,3.602674961E0,8.061875343E0
8.991442220E-1,-3.551798105E0,3.573944569E0,8.143278122E0
9.016321910E-1,-3.537432909E0,3.554790974E0,8.248623848E0
9.041201600E-1,-3.518279314E0,3.521272182E0,8.330026627E0
9.066081280E-1,-3.508702517E0,3.497330189E0,8.411429405E0
9.090960970E-1,-3.499125719E0,3.478176594E0,8.483255386E0
9.115840660E-1,-3.508702517E0,3.454234600E0,8.555081367E0
9.140720350E-1,-3.527856112E0,3.420715570E0,8.626907349E0
9.165600030E-1,-3.542221308E0,3.387196779E0,8.674791336E0
9.190479720E-1,-3.547009706E0,3.363254786E0,8.722675323E0
9.215359410E-1,-3.527856112E0,3.334524393E0,8.741828918E0
9.240239100E-1,-3.508702517E0,3.301005602E0,8.756194115E0
9.265118780E-1,-3.479972124E0,3.243544817E0,8.703521729E0
9.289998470E-1,-3.451241732E0,3.195660830E0,8.670002937E0
9.314878160E-1,-3.412934542E0,3.152565002E0,8.646060944E0
9.339757850E-1,-3.374627352E0,3.128623009E0,8.612542152E0
9.364637530E-1,-3.345896959E0,3.080739021E0,8.535927773E0
9.389517220E-1,-3.307589531E0,3.037643433E0,8.449736595E0
9.414396910E-1,-3.254917145E0,2.989759445E0,8.349180222E0
9.439276600E-1,-3.216609955E0,2.946663857E0,8.248623848E0
9.464156280E-1,-3.173514366E0,2.927510023E0,8.200738907E0
9.489035970E-1,-3.163937569E0,2.913144827E0,8.152854919E0
9.513915660E-1,-3.125630379E0,2.879626036E0,8.081028938E0
9.538795350E-1,-3.092111588E0,2.865260839E0,8.004414558E0
9.563675030E-1,-3.034650564E0,2.836530447E0,7.946953773E0
9.588554720E-1,-2.986766577E0,2.831742048E0,7.879916191E0
9.613434410E-1,-2.929305792E0,2.836530447E0,7.808090210E0
9.638314100E-1,-2.881421804E0,2.817376852E0,7.769783020E0
9.663193780E-1,-2.857479811E0,2.798223257E0,7.693168640E0
9.688073470E-1,-2.843114614E0,2.779069662E0,7.626131058E0
9.712953160E-1,-2.828749418E0,2.807800055E0,7.602189064E0
9.737832850E-1,-2.833537817E0,2.831742048E0,7.597400665E0
9.762712530E-1,-2.847903013E0,2.826953650E0,7.587823868E0
9.787592220E-1,-2.852691412E0,2.822165251E0,7.611765862E0
9.812471910E-1,-2.852691412E0,2.836530447E0,7.674015045E0
9.837351600E-1,-2.852691412E0,2.836530447E0,7.760206223E0
9.862231280E-1,-2.876633406E0,2.812588453E0,7.846397400E0
9.887110970E-1,-2.876633406E0,2.855684042E0,7.932588577E0
9.911990660E-1,-2.900575399E0,2.898779631E0,8.023568153E0
9.936870350E-1,-2.958036184E0,2.903568029E0,8.109759331E0
9.961750030E-1,-3.005920172E0,2.917933226E0,8.162431717E0
9.986629720E-1,-3.053804159E0,2.941875219E0,8.248623848E0
1.001150941E0,-3.082534790E0,2.956240654E0,8.334815025E0
1.003638910E0,-3.116053581E0,2.989759445E0,8.382699013E0
1.006126878E0,-3.144783974E0,3.013701439E0,8.478466988E0
1.008614847E0,-3.154360771E0,3.032855034E0,8.555081367E0
1.011102816E0,-3.187879562E0,3.037643433E0,8.622118950E0
1.013590785E0,-3.192667961E0,3.052008629E0,8.713098526E0
1.016078753E0,-3.207033157E0,3.066373825E0,8.813654900E0
1.018566722E0,-3.245340347E0,3.075950623E0,8.871115685E0
1.021054691E0,-3.278859138E0,3.061585426E0,8.923788071E0
1.023542660E0,-3.312378168E0,3.066373825E0,8.966883659E0
1.026030628E0,-3.326743364E0,3.075950623E0,8.995614052E0
1.028518597E0,-3.341108561E0,3.066373825E0,9.024344444E0
1.031006566E0,-3.355473757E0,3.061585426E0,9.033921242E0
1.033494535E0,-3.365050554E0,3.071162224E0,9.043498039E0
1.035982503E0,-3.365050554E0,3.075950623E0,9.029132843E0
1.038470472E0,-3.374627352E0,3.056797028E0,9.057863235E0
1.040958441E0,-3.379415751E0,3.052008629E0,9.062651634E0
1.043446410E0,-3.393780947E0,3.042431831E0,9.067440033E0
1.045934378E0,-3.412934542E0,3.061585426E0,9.072228432E0
1.048422347E0,-3.432088137E0,3.061585426E0,9.081805229E0
1.050910316E0,-3.436876535E0,3.052008629E0,9.077016830E0
1.053398285E0,-3.460818529E0,3.056797028E0,9.067440033E0
1.055886253E0,-3.484760523E0,3.042431831E0,9.077016830E0
1.058374222E0,-3.494337320E0,3.052008629E0,9.048286438E0
1.060862191E0,-3.513490915E0,3.047220230E0,9.033921242E0
1.063350160E0,-3.575740337E0,2.951452255E0,8.871115685E0
1.065838128E0,-3.570951939E0,2.917933226E0,8.832808495E0
1.068326097E0,-3.561375141E0,2.932298422E0,8.828020096E0
1.070814066E0,-3.575740337E0,2.951452255E0,8.808866501E0
1.073302035E0,-3.609259129E0,2.975394249E0,8.823231697E0
1.075790003E0,-3.618835926E0,2.994547844E0,8.823231697E0
1.078277972E0,-3.623624325E0,3.023278236E0,8.847173691E0
1.080765941E0,-3.623624325E0,3.037643433E0,8.847173691E0
1.083253910E0,-3.633201122E0,3.061585426E0,8.856750488E0
1.085741878E0,-3.614047527E0,3.066373825E0,8.842385292E0
1.088229847E0,-3.580528736E0,3.085527420E0,8.828020096E0
1.090717816E0,-3.590105534E0,3.090315819E0,8.808866501E0
1.093205785E0,-3.604470730E0,3.080739021E0,8.775347710E0
1.095693753E0,-3.633201122E0,3.099892616E0,8.770559311E0
1.098181722E0,-3.671508312E0,3.090315819E0,8.746617317E0
1.100669691E0,-3.695450306E0,3.099892616E0,8.741828918E0
1.103157660E0,-3.719392300E0,3.109469414E0,8.741828918E0
1.105645628E0,-3.724180698E0,3.099892616E0,8.737040520E0
1.108133597E0,-3.719392300E0,3.099892616E0,8.756194115E0
1.110621566E0,-3.728969097E0,3.114257812E0,8.794501305E0
1.113109535E0,-3.728969097E0,3.123834610E0,8.804078102E0
1.115597503E0,-3.743334293E0,3.104681015E0,8.818443298E0
1.118085472E0,-3.738545895E0,3.104681015E0,8.813654900E0
1.120573441E0,-3.748122692E0,3.119046211E0,8.789712906E0
1.123061410E0,-3.748122692E0,3.114257812E0,8.799289703E0
1.125549378E0,-3.748122692E0,3.099892616E0,8.780136108E0
1.128037347E0,-3.748122692E0,3.099892616E0,8.760982513E0
1.130525316E0,-3.767276287E0,3.119046211E0,8.765770912E0
1.133013285E0,-3.762487888E0,3.109469414E0,8.756194115E0
1.135501253E0,-3.767276287E0,3.104681015E0,8.746617317E0
1.137989222E0,-3.786429882E0,3.114257812E0,8.746617317E0
1.140477191E0,-3.767276287E0,3.095104218E0,8.737040520E0
1.142965160E0,-3.748122692E0,3.099892616E0,8.737040520E0
1.145453128E0,-3.743334293E0,3.095104218E0,8.760982513E0
1.147941097E0,-3.733757496E0,3.090315819E0,8.784924507E0
1.150429066E0,-3.748122692E0,3.099892616E0,8.808866501E0
1.152917035E0,-3.762487888E0,3.099892616E0,8.813654900E0
1.155405003E0,-3.767276287E0,3.095104218E0,8.828020096E0
1.157892972E0,-3.781641483E0,3.099892616E0,8.866327286E0
1.160380941E0,-3.791218281E0,3.109469414E0,8.885480881E0
1.162868910E0,-3.800795317E0,3.104681015E0,8.899846077E0
1.165356878E0,-3.824737310E0,3.109469414E0,8.923788071E0
1.167844847E0,-3.829525709E0,3.095104218E0,8.933364868E0
1.170332816E0,-3.824737310E0,3.090315819E0,8.952518463E0
1.172820785E0,-3.805583715E0,3.095104218E0,8.966883659E0
1.175308753E0,-3.791218281E0,3.071162224E0,8.962095261E0
1.177796722E0,-3.800795317E0,3.061585426E0,8.957306862E0
1.180284691E0,-3.781641483E0,3.056797028E0,8.966883659E0
1.182772660E0,-3.781641483E0,3.052008629E0,8.990825653E0
1.185260628E0,-3.776853085E0,3.013701439E0,8.971672058E0
1.187748597E0,-3.796006680E0,3.008913040E0,8.938153267E0
1.190236566E0,-3.805583715E0,2.984971046E0,8.904634476E0
1.192724535E0,-3.810372114E0,2.984971046E0,8.875904083E0
1.195212503E0,-3.805583715E0,2.984971046E0,8.847173691E0
1.197700472E0,-3.805583715E0,2.970605850E0,8.837596893E0
1.200188441E0,-3.791218281E0,2.970605850E0,8.842385292E0
1.202676410E0,-3.796006680E0,2.975394249E0,8.842385292E0
1.205164378E0,-3.800795317E0,2.965817451E0,8.856750488E0
1.207652347E0,-3.800795317E0,2.970605850E0,8.871115685E0
1.210140316E0,-3.815160513E0,2.975394249E0,8.861538887E0
1.212628285E0,-3.824737310E0,2.989759445E0,8.880692482E0
1.215116253E0,-3.824737310E0,3.008913040E0,8.909422874E0
1.217604222E0,-3.839102507E0,2.994547844E0,8.828020096E0
1.220092191E0,-3.839102507E0,2.994547844E0,8.813654900E0
1.222580160E0,-3.829525709E0,3.008913040E0,8.808866501E0
1.225068128E0,-3.843890905E0,3.032855034E0,8.847173691E0
1.227556097E0,-3.843890905E0,3.056797028E0,8.904634476E0
1.230044066E0,-3.867832899E0,3.095104218E0,8.942941666E0
1.232532035E0,-3.863044500E0,3.133411407E0,8.966883659E0
1.235020003E0,-3.853467703E0,3.157353401E0,8.995614052E0
1.237507972E0,-3.863044500E0,3.166930199E0,8.966883659E0
1.239995941E0,-3.853467703E0,3.166930199E0,8.923788071E0
1.242483910E0,-3.843890905E0,3.162141800E0,8.880692482E0
1.244971878E0,-3.858256102E0,3.142988205E0,8.842385292E0
1.247459847E0,-3.863044500E0,3.147776604E0,8.794501305E0
1.249947816E0,-3.872621298E0,3.142988205E0,8.756194115E0
1.252435785E0,-3.839102507E0,3.133411407E0,8.722675323E0
1.254923753E0,-3.834314108E0,3.119046211E0,8.670002937E0
1.257411722E0,-3.815160513E0,3.119046211E0,8.655637741E0
1.259899691E0,-3.805583715E0,3.114257812E0,8.641272545E0
1.262387660E0,-3.796006680E0,3.114257812E0,8.641272545E0
1.264875628E0,-3.805583715E0,3.128623009E0,8.641272545E0
1.267363597E0,-3.815160513E0,3.147776604E0,8.641272545E0
1.269851566E0,-3.800795317E0,3.157353401E0,8.636484146E0
1.272339535E0,-3.815160513E0,3.152565002E0,8.626907349E0
1.274827503E0,-3.796006680E0,3.171718597E0,8.646060944E0
1.277315472E0,-3.791218281E0,3.186083794E0,8.674791336E0
1.279803441E0,-3.781641483E0,3.166930199E0,8.674791336E0
1.282291410E0,-3.796006680E0,3.171718597E0,8.674791336E0
1.284779378E0,-3.796006680E0,3.171718597E0,8.698733330E0
1.287267347E0,-3.762487888E0,3.171718597E0,8.703521729E0
1.289755316E0,-3.762487888E0,3.176506996E0,8.713098526E0
1.292243285E0,-3.762487888E0,3.166930199E0,8.746617317E0
1.294731253E0,-3.786429882E0,3.166930199E0,8.780136108E0
1.297219222E0,-3.796006680E0,3.162141800E0,8.799289703E0
1.299707191E0,-3.800795317E0,3.181295395E0,8.818443298E0
1.302195160E0,-3.791218281E0,3.186083794E0,8.851962090E0
1.304683128E0,-3.786429882E0,3.147776604E0,8.823231697E0
1.307171097E0,-3.805583715E0,3.109469414E0,8.751405716E0
1.309659066E0,-3.786429882E0,3.090315819E0,8.727463722E0
1.312147035E0,-3.757699490E0,3.095104218E0,8.760982513E0
1.314635003E0,-3.781641483E0,3.090315819E0,8.828020096E0
1.317122972E0,-3.767276287E0,3.080739021E0,8.885480881E0
1.319610941E0,-3.772064686E0,3.090315819E0,8.952518463E0
1.322098910E0,-3.767276287E0,3.123834610E0,9.000402451E0
1.324586878E0,-3.757699490E0,3.123834610E0,9.024344444E0
1.327074847E0,-3.762487888E0,3.123834610E0,9.029132843E0
1.329562816E0,-3.757699490E0,3.109469414E0,8.990825653E0
1.332050785E0,-3.738545895E0,3.095104218E0,8.962095261E0
1.334538753E0,-3.719392300E0,3.085527420E0,8.928576469E0
1.337026722E0,-3.685873508E0,3.056797028E0,8.875904083E0
1.339514691E0,-3.661931515E0,3.047220230E0,8.828020096E0
1.342002660E0,-3.642777920E0,3.023278236E0,8.784924507E0
1.344490628E0,-3.628412724E0,3.013701439E0,8.727463722E0
1.346978597E0,-3.585317135E0,2.999336243E0,8.674791336E0
1.349466566E0,-3.561375141E0,2.984971046E0,8.607753754E0
1.351954535E0,-3.537432909E0,2.980182648E0,8.598176956E0
1.354442503E0,-3.527856112E0,2.975394249E0,8.564658165E0
1.356930472E0,-3.518279314E0,2.975394249E0,8.531139374E0
1.359418441E0,-3.523067713E0,2.965817451E0,8.511985779E0
1.361906410E0,-3.532644510E0,2.946663857E0,8.502408981E0
1.364394378E0,-3.547009706E0,2.970605850E0,8.502408981E0
1.366882347E0,-3.537432909E0,2.965817451E0,8.492832184E0
1.369370316E0,-3.537432909E0,2.965817451E0,8.468890190E0
1.371858285E0,-3.537432909E0,2.965817451E0,8.483255386E0
1.374346253E0,-3.561375141E0,2.956240654E0,8.559869766E0
1.376834222E0,-3.575740337E0,2.951452255E0,8.607753754E0
1.379322191E0,-3.575740337E0,2.961029053E0,8.641272545E0
1.381810160E0,-3.556586742E0,2.965817451E0,8.698733330E0
1.384298128E0,-3.561375141E0,2.941875219E0,8.760982513E0
1.386786097E0,-3.575740337E0,2.927510023E0,8.828020096E0
1.389274066E0,-3.580528736E0,2.927510023E0,8.875904083E0
1.391762035E0,-3.566163540E0,2.932298422E0,8.928576469E0
1.394250003E0,-3.570951939E0,2.941875219E0,8.942941666E0
1.396737972E0,-3.594893932E0,2.951452255E0,8.971672058E0
1.399225941E0,-3.580528736E0,2.975394249E0,9.005190849E0
1.401713910E0,-3.590105534E0,2.980182648E0,9.072228432E0
1.404201878E0,-3.547009706E0,2.994547844E0,9.139266014E0
1.406689847E0,-3.547009706E0,2.980182648E0,9.100958824E0
1.409177816E0,-3.556586742E0,2.922721624E0,9.014767647E0
1.411665785E0,-3.508702517E0,2.922721624E0,9.029132843E0
1.414153753E0,-3.499125719E0,2.932298422E0,9.057863235E0
1.416641722E0,-3.513490915E0,2.937086821E0,9.091382027E0
1.419129691E0,-3.513490915E0,2.951452255E0,9.148842812E0
1.421617660E0,-3.532644510E0,2.965817451E0,9.182361603E0
1.424105628E0,-3.556586742E0,2.970605850E0,9.201516151E0
1.426593597E0,-3.551798105E0,2.980182648E0,9.211092949E0
1.429081566E0,-3.547009706E0,2.975394249E0,9.225458145E0
1.431569535E0,-3.523067713E0,2.970605850E0,9.191938400E0
1.434057503E0,-3.523067713E0,2.965817451E0,9.211092949E0
1.436545472E0,-3.537432909E0,2.980182648E0,9.244611740E0
1.439033441E0,-3.537432909E0,3.004124641E0,9.249400139E0
1.441521410E0,-3.523067713E0,3.013701439E0,9.239823341E0
1.444009378E0,-3.542221308E0,3.028066635E0,9.258976936E0
1.446497347E0,-3.547009706E0,3.061585426E0,9.268553734E0
1.448985316E0,-3.566163540E0,3.080739021E0,9.273342133E0
1.451473285E0,-3.590105534E0,3.119046211E0,9.268553734E0
1.453961253E0,-3.594893932E0,3.138199806E0,9.268553734E0
1.456449222E0,-3.599682331E0,3.166930199E0,9.263765335E0
1.458937191E0,-3.575740337E0,3.195660830E0,9.273342133E0
1.461425160E0,-3.575740337E0,3.238756418E0,9.282918930E0
1.463913128E0,-3.532644510E0,3.277063608E0,9.278130531E0
1.466401097E0,-3.503914118E0,3.310582399E0,9.258976936E0
1.468889066E0,-3.475183725E0,3.320159197E0,9.220669746E0
1.471377035E0,-3.436876535E0,3.339312792E0,9.196727753E0
1.473865003E0,-3.436876535E0,3.377619982E0,9.167996407E0
1.476352972E0,-3.436876535E0,3.377619982E0,9.110535622E0
1.478840941E0,-3.460818529E0,3.411138773E0,9.048286438E0
1.481328910E0,-3.475183725E0,3.425503969E0,9.005190849E0
1.483816878E0,-3.475183725E0,3.444657803E0,8.942941666E0
1.486304847E0,-3.484760523E0,3.435081005E0,8.885480881E0
1.488792816E0,-3.479972124E0,3.387196779E0,8.828020096E0
1.491280785E0,-3.456030130E0,3.363254786E0,8.756194115E0
1.493768753E0,-3.417722940E0,3.334524393E0,8.689156532E0
1.496256722E0,-3.369838953E0,3.305794001E0,8.588600159E0
1.498744691E0,-3.341108561E0,3.286640406E0,8.473678589E0
1.501232660E0,-3.312378168E0,3.272275209E0,8.363545418E0
1.503720628E0,-3.302801132E0,3.272275209E0,8.243835449E0
1.506208597E0,-3.307589531E0,3.277063608E0,8.148066521E0
1.508696566E0,-3.302801132E0,3.281852007E0,8.090605736E0
1.511184535E0,-3.321954966E0,3.291428804E0,8.042721748E0
1.513672503E0,-3.331531763E0,3.291428804E0,8.013991356E0
1.516160472E0,-3.350685358E0,3.315370798E0,8.028356552E0
1.518648441E0,-3.350685358E0,3.320159197E0,8.047510147E0
1.521136410E0,-3.374627352E0,3.344101191E0,8.057086945E0
1.523624378E0,-3.360262156E0,3.363254786E0,8.090605736E0
1.526112347E0,-3.374627352E0,3.387196779E0,8.143278122E0
1.528600316E0,-3.374627352E0,3.425503969E0,8.191162109E0
1.531088285E0,-3.379415751E0,3.435081005E0,8.258200645E0
1.533576253E0,-3.388992548E0,3.459022999E0,8.325238228E0
1.536064222E0,-3.398569345E0,3.444657803E0,8.368333817E0
1.538552191E0,-3.412934542E0,3.425503969E0,8.377910614E0
1.541040160E0,-3.388992548E0,3.444657803E0,8.430583000E0
1.543528128E0,-3.360262156E0,3.487753391E0,8.488043785E0
1.546016097E0,-3.360262156E0,3.511695385E0,8.574234962E0
1.548504066E0,-3.345896959E0,3.521272182E0,8.650849342E0
1.550992035E0,-3.326743364E0,3.521272182E0,8.727463722E0
1.553480003E0,-3.350685358E0,3.540425777E0,8.804078102E0
1.555967972E0,-3.360262156E0,3.554790974E0,8.890269279E0
1.558455941E0,-3.360262156E0,3.569156170E0,8.933364868E0
1.560943910E0,-3.360262156E0,3.573944569E0,9.019556046E0
1.563431878E0,-3.360262156E0,3.588309765E0,9.081805229E0
1.565919847E0,-3.355473757E0,3.578732967E0,9.115324020E0
1.568407816E0,-3.350685358E0,3.593098164E0,9.134477615E0
1.570895785E0,-3.350685358E0,3.602674961E0,9.134477615E0
1.573383753E0,-3.341108561E0,3.583521366E0,9.096170425E0
1.575871722E0,-3.326743364E0,3.583521366E0,9.072228432E0
1.578359691E0,-3.278859138E0,3.593098164E0,9.038709641E0
1.580847660E0,-3.245340347E0,3.607463360E0,8.971672058E0
1.583335628E0,-3.216609955E0,3.588309765E0,8.914211273E0
1.585823597E0,-3.192667961E0,3.583521366E0,8.842385292E0
1.588311566E0,-3.178302765E0,3.583521366E0,8.799289703E0
1.590799535E0,-3.144783974E0,3.573944569E0,8.756194115E0
1.593287503E0,-3.144783974E0,3.597886562E0,8.689156532E0
1.595775472E0,-3.144783974E0,3.597886562E0,8.646060944E0
1.598263441E0,-3.120841980E0,3.583521366E0,8.593388557E0
1.600751410E0,-3.087323189E0,3.573944569E0,8.569446564E0
1.603239378E0,-3.063380957E0,3.593098164E0,8.545504570E0
1.605727347E0,-3.039438963E0,3.607463360E0,8.483255386E0
1.608215316E0,-3.010708570E0,3.607463360E0,8.425794601E0
1.610703285E0,-2.986766577E0,3.617040157E0,8.406641006E0
1.613191253E0,-2.991554976E0,3.612251759E0,8.373122215E0
1.615679222E0,-2.962824583E0,3.612251759E0,8.358757019E0
1.618167191E0,-2.943670988E0,3.597886562E0,8.334815025E0
1.620655160E0,-2.919728994E0,3.602674961E0,8.301296234E0
1.623143128E0,-2.905363798E0,3.607463360E0,8.272565842E0
1.625631097E0,-2.895787001E0,3.612251759E0,8.215105057E0
1.628119066E0,-2.890998602E0,3.617040157E0,8.210315704E0
1.630607035E0,-2.886210203E0,3.612251759E0,8.191162109E0
1.633095003E0,-2.900575399E0,3.621828556E0,8.200738907E0
1.635582972E0,-2.924517393E0,3.626616955E0,8.191162109E0
1.638070941E0,-2.943670988E0,3.631405354E0,8.234258652E0
1.640558910E0,-2.953247786E0,3.655347347E0,8.239047050E0
1.643046878E0,-2.953247786E0,3.660135746E0,8.258200645E0
1.645534847E0,-2.962824583E0,3.664924145E0,8.282142639E0
1.648022816E0,-2.967612982E0,3.693654776E0,8.320449829E0
1.650510785E0,-2.962824583E0,3.712808371E0,8.334815025E0
1.652998753E0,-2.972401381E0,3.736750364E0,8.344391823E0
1.655486722E0,-2.967612982E0,3.746327162E0,8.334815025E0
1.657974691E0,-2.962824583E0,3.755903959E0,8.344391823E0
1.660462660E0,-2.972401381E0,3.770269156E0,8.334815025E0
1.662950628E0,-2.986766577E0,3.770269156E0,8.330026627E0
1.665438597E0,-2.991554976E0,3.765480757E0,8.296507835E0
1.667926566E0,-3.001131773E0,3.746327162E0,8.277354240E0
1.670414535E0,-2.981978178E0,3.746327162E0,8.277354240E0
1.672902503E0,-2.958036184E0,3.765480757E0,8.272565842E0
1.675390472E0,-2.948459387E0,3.770269156E0,8.277354240E0
1.677878441E0,-2.934094191E0,3.789422750E0,8.286931038E0
1.680366410E0,-2.938882589E0,3.818153143E0,8.315661430E0
1.682854378E0,-2.943670988E0,3.822941542E0,8.339603424E0
1.685342347E0,-2.934094191E0,3.808576345E0,8.353968620E0
1.687830316E0,-2.958036184E0,3.803787947E0,8.363545418E0
1.690318285E0,-2.962824583E0,3.813364744E0,8.358757019E0
1.692806253E0,-2.972401381E0,3.818153143E0,8.392275810E0
1.695294222E0,-2.991554976E0,3.842095137E0,8.421006203E0
1.697782191E0,-3.005920172E0,3.866037130E0,8.488043785E0
1.700270160E0,-3.025073767E0,3.880402327E0,8.521562576E0
1.702758128E0,-3.039438963E0,3.885190725E0,8.550292969E0
1.705246097E0,-3.049015760E0,3.889979124E0,8.583811760E0
1.707734066E0,-3.044227362E0,3.904344320E0,8.612542152E0
1.710222035E0,-3.058592558E0,3.909132719E0,8.636484146E0
1.712710003E0,-3.049015760E0,3.909132719E0,8.655637741E0
1.715197972E0,-3.053804159E0,3.923498154E0,8.655637741E0
1.717685941E0,-3.053804159E0,3.937863350E0,8.655637741E0
1.720173910E0,-3.049015760E0,3.942651749E0,8.646060944E0
1.722661878E0,-3.039438963E0,3.947440147E0,8.631695747E0
1.725149847E0,-3.020285368E0,3.952228546E0,8.593388557E0
1.727637816E0,-3.005920172E0,3.928286552E0,8.583811760E0
1.730125785E0,-3.001131773E0,3.904344320E0,8.564658165E0
1.732613753E0,-2.996343374E0,3.889979124E0,8.531139374E0
1.735101722E0,-2.986766577E0,3.880402327E0,8.526350975E0
1.737589691E0,-2.986766577E0,3.846883535E0,8.483255386E0
1.740077660E0,-2.986766577E0,3.818153143E0,8.440159798E0
1.742565628E0,-2.991554976E0,3.822941542E0,8.411429405E0
1.745053597E0,-2.991554976E0,3.803787947E0,8.392275810E0
1.747541566E0,-2.986766577E0,3.803787947E0,8.373122215E0
1.750029535E0,-2.996343374E0,3.784634352E0,8.377910614E0
1.752517503E0,-2.991554976E0,3.775057554E0,8.349180222E0
1.755005472E0,-3.001131773E0,3.779845953E0,8.377910614E0
1.757493441E0,-3.020285368E0,3.775057554E0,8.377910614E0
1.759981410E0,-3.025073767E0,3.803787947E0,8.382699013E0
1.762469378E0,-3.044227362E0,3.813364744E0,8.382699013E0
1.764957347E0,-3.049015760E0,3.803787947E0,8.382699013E0
1.767445316E0,-3.063380957E0,3.822941542E0,8.397064209E0
1.769933285E0,-3.058592558E0,3.846883535E0,8.387487411E0
1.772421253E0,-3.077746391E0,3.875613928E0,8.401852608E0
1.774909222E0,-3.077746391E0,3.861248732E0,8.425794601E0
1.777397191E0,-3.087323189E0,3.880402327E0,8.454524994E0
1.779885160E0,-3.087323189E0,3.889979124E0,8.473678589E0
1.782373128E0,-3.087323189E0,3.904344320E0,8.511985779E0
1.784861097E0,-3.087323189E0,3.923498154E0,8.526350975E0
1.787349066E0,-3.072957993E0,3.928286552E0,8.540716171E0
1.789837035E0,-3.068169594E0,3.933074951E0,8.564658165E0
1.792325003E0,-3.058592558E0,3.913921118E0,8.555081367E0
1.794812972E0,-3.053804159E0,3.904344320E0,8.507197380E0
1.797300941E0,-3.044227362E0,3.918709517E0,8.497620583E0
1.799788910E0,-3.039438963E0,3.918709517E0,8.488043785E0
1.802276878E0,-3.049015760E0,3.928286552E0,8.464101791E0
1.804764847E0,-3.039438963E0,3.933074951E0,8.492832184E0
1.807252816E0,-3.053804159E0,3.899555922E0,8.478466988E0
1.809740785E0,-3.068169594E0,3.899555922E0,8.473678589E0
1.812228753E0,-3.072957993E0,3.909132719E0,8.478466988E0
1.814716722E0,-3.063380957E0,3.904344320E0,8.478466988E0
1.817204691E0,-3.053804159E0,3.899555922E0,8.468890190E0
1.819692660E0,-3.058592558E0,3.889979124E0,8.459313393E0
1.822180628E0,-3.072957993E0,3.885190725E0,8.454524994E0
1.824668597E0,-3.077746391E0,3.880402327E0,8.454524994E0
1.827156566E0,-3.072957993E0,3.880402327E0,8.440159798E0
1.829644535E0,-3.082534790E0,3.880402327E0,8.416217804E0
1.832132503E0,-3.087323189E0,3.875613928E0,8.406641006E0
1.834620472E0,-3.092111588E0,3.899555922E0,8.430583000E0
1.837108441E0,-3.106476784E0,3.899555922E0,8.416217804E0
1.839596410E0,-3.101688385E0,3.899555922E0,8.440159798E0
1.842084378E0,-3.106476784E0,3.909132719E0,8.449736595E0
1.844572347E0,-3.092111588E0,3.909132719E0,8.440159798E0
1.847060316E0,-3.077746391E0,3.918709517E0,8.444948196E0
1.849548285E0,-3.077746391E0,3.928286552E0,8.459313393E0
1.852036253E0,-3.063380957E0,3.937863350E0,8.449736595E0
1.854524222E0,-3.049015760E0,3.937863350E0,8.459313393E0
1.857012191E0,-3.034650564E0,3.942651749E0,8.454524994E0
1.859500160E0,-3.039438963E0,3.937863350E0,8.464101791E0
1.861988128E0,-3.049015760E0,3.937863350E0,8.454524994E0
1.864476097E0,-3.049015760E0,3.928286552E0,8.468890190E0
1.866964066E0,-3.058592558E0,3.947440147E0,8.468890190E0
1.869452035E0,-3.063380957E0,3.933074951E0,8.440159798E0
1.871940003E0,-3.058592558E0,3.942651749E0,8.444948196E0
1.874427972E0,-3.068169594E0,3.942651749E0,8.435371399E0
1.876915941E0,-3.096899986E0,3.933074951E0,8.421006203E0
1.879403910E0,-3.096899986E0,3.894767523E0,8.411429405E0
1.881891878E0,-3.116053581E0,3.909132719E0,8.406641006E0
1.884379847E0,-3.106476784E0,3.904344320E0,8.397064209E0
1.886867816E0,-3.077746391E0,3.894767523E0,8.387487411E0
1.889355785E0,-3.096899986E0,3.885190725E0,8.392275810E0
1.891843753E0,-3.092111588E0,3.904344320E0,8.401852608E0
1.894331722E0,-3.077746391E0,3.885190725E0,8.421006203E0
1.896819691E0,-3.077746391E0,3.894767523E0,8.440159798E0
1.899307660E0,-3.072957993E0,3.889979124E0,8.459313393E0
1.901795628E0,-3.072957993E0,3.894767523E0,8.488043785E0
1.904283597E0,-3.072957993E0,3.889979124E0,8.511985779E0
1.906771566E0,-3.068169594E0,3.870825529E0,8.555081367E0
1.909259535E0,-3.068169594E0,3.889979124E0,8.579023361E0
1.911747503E0,-3.077746391E0,3.899555922E0,8.598176956E0
1.914235472E0,-3.082534790E0,3.909132719E0,8.622118950E0
1.916723441E0,-3.077746391E0,3.899555922E0,8.631695747E0
1.919211410E0,-3.063380957E0,3.889979124E0,8.631695747E0
1.921699378E0,-3.068169594E0,3.885190725E0,8.626907349E0
1.924187347E0,-3.063380957E0,3.880402327E0,8.612542152E0
1.926675316E0,-3.068169594E0,3.885190725E0,8.622118950E0
1.929163285E0,-3.092111588E0,3.875613928E0,8.631695747E0
1.931651253E0,-3.096899986E0,3.875613928E0,8.636484146E0
1.934139222E0,-3.092111588E0,3.866037130E0,8.655637741E0
1.936627191E0,-3.096899986E0,3.827729940E0,8.631695747E0
1.939115160E0,-3.106476784E0,3.813364744E0,8.598176956E0
1.941603128E0,-3.096899986E0,3.822941542E0,8.583811760E0
1.944091097E0,-3.082534790E0,3.818153143E0,8.602965355E0
1.946579066E0,-3.087323189E0,3.818153143E0,8.612542152E0
1.949067035E0,-3.101688385E0,3.818153143E0,8.617330551E0
1.951555003E0,-3.096899986E0,3.846883535E0,8.655637741E0
1.954042972E0,-3.092111588E0,3.842095137E0,8.670002937E0
1.956530941E0,-3.087323189E0,3.842095137E0,8.660426140E0
1.959018910E0,-3.082534790E0,3.861248732E0,8.646060944E0
1.961506878E0,-3.082534790E0,3.861248732E0,8.626907349E0
1.963994847E0,-3.082534790E0,3.856460333E0,8.626907349E0
1.966482816E0,-3.082534790E0,3.875613928E0,8.612542152E0
1.968970785E0,-3.087323189E0,3.885190725E0,8.622118950E0
1.971458753E0,-3.087323189E0,3.866037130E0,8.602965355E0
1.973946722E0,-3.077746391E0,3.861248732E0,8.583811760E0
1.976434691E0,-3.092111588E0,3.861248732E0,8.588600159E0
1.978922660E0,-3.096899986E0,3.856460333E0,8.559869766E0
1.981410628E0,-3.077746391E0,3.842095137E0,8.531139374E0
1.983898597E0,-3.092111588E0,3.837306738E0,8.526350975E0
1.986386566E0,-3.087323189E0,3.842095137E0,8.511985779E0
1.988874535E0,-3.077746391E0,3.842095137E0,8.511985779E0
1.991362503E0,-3.072957993E0,3.851671934E0,8.507197380E0
1.993850472E0,-3.063380957E0,3.851671934E0,8.521562576E0
1.996338441E0,-3.077746391E0,3.875613928E0,8.535927773E0
1.998826410E0,-3.077746391E0,3.885190725E0,8.550292969E0
2.001314378E0,-3.068169594E0,3.875613928E0,8.574234962E0
2.003802347E0,-3.058592558E0,3.880402327E0,8.598176956E0
2.006290316E0,-3.077746391E0,3.880402327E0,8.617330551E0
2.008778285E0,-3.092111588E0,3.885190725E0,8.636484146E0
2.011266253E0,-3.116053581E0,3.866037130E0,8.631695747E0
2.013754222E0,-3.120841980E0,3.875613928E0,8.636484146E0
2.016242191E0,-3.120841980E0,3.889979124E0,8.655637741E0
2.018730160E0,-3.135207176E0,3.904344320E0,8.670002937E0
2.021218128E0,-3.149572372E0,3.904344320E0,8.670002937E0
2.023706097E0,-3.159149170E0,3.909132719E0,8.665214539E0
2.026194066E0,-3.149572372E0,3.904344320E0,8.689156532E0
2.028682035E0,-3.168725967E0,3.923498154E0,8.698733330E0
2.031170003E0,-3.168725967E0,3.937863350E0,8.703521729E0
2.033657972E0,-3.168725967E0,3.933074951E0,8.684368134E0
2.036145941E0,-3.154360771E0,3.947440147E0,8.665214539E0
2.038633910E0,-3.159149170E0,3.937863350E0,8.636484146E0
2.041121878E0,-3.163937569E0,3.933074951E0,8.622118950E0
2.043609847E0,-3.154360771E0,3.933074951E0,8.593388557E0
2.046097816E0,-3.159149170E0,3.913921118E0,8.593388557E0
2.048585785E0,-3.159149170E0,3.904344320E0,8.598176956E0
2.051073753E0,-3.144783974E0,3.904344320E0,8.583811760E0
2.053561722E0,-3.144783974E0,3.909132719E0,8.598176956E0
2.056049691E0,-3.130418777E0,3.904344320E0,8.622118950E0
2.058537660E0,-3.144783974E0,3.894767523E0,8.631695747E0
2.061025628E0,-3.135207176E0,3.913921118E0,8.646060944E0
2.063513597E0,-3.139995575E0,3.933074951E0,8.626907349E0
2.066001566E0,-3.154360771E0,3.923498154E0,8.631695747E0
2.068489535E0,-3.163937569E0,3.947440147E0,8.607753754E0
2.070977503E0,-3.149572372E0,3.933074951E0,8.569446564E0
2.073465472E0,-3.154360771E0,3.923498154E0,8.559869766E0
2.075953441E0,-3.168725967E0,3.904344320E0,8.555081367E0
2.078441410E0,-3.144783974E0,3.913921118E0,8.559869766E0
2.080929378E0,-3.130418777E0,3.904344320E0,8.555081367E0
2.083417347E0,-3.130418777E0,3.894767523E0,8.550292969E0
2.085905316E0,-3.135207176E0,3.894767523E0,8.540716171E0
2.088393285E0,-3.120841980E0,3.904344320E0,8.545504570E0
2.090881253E0,-3.101688385E0,3.904344320E0,8.535927773E0
2.093369222E0,-3.111265182E0,3.913921118E0,8.516774178E0
2.095857191E0,-3.116053581E0,3.913921118E0,8.497620583E0
2.098345160E0,-3.139995575E0,3.918709517E0,8.497620583E0
2.100833128E0,-3.139995575E0,3.928286552E0,8.516774178E0
2.103321097E0,-3.159149170E0,3.909132719E0,8.492832184E0
2.105809066E0,-3.187879562E0,3.880402327E0,8.483255386E0
2.108297035E0,-3.173514366E0,3.899555922E0,8.483255386E0
2.110785003E0,-3.173514366E0,3.923498154E0,8.521562576E0
2.113272972E0,-3.168725967E0,3.928286552E0,8.559869766E0
2.115760941E0,-3.149572372E0,3.928286552E0,8.583811760E0
2.118248910E0,-3.173514366E0,3.952228546E0,8.617330551E0
2.120736878E0,-3.178302765E0,3.957016945E0,8.650849342E0
2.123224847E0,-3.178302765E0,3.957016945E0,8.650849342E0
2.125712816E0,-3.168725967E0,3.976170540E0,8.631695747E0
2.128200785E0,-3.154360771E0,3.976170540E0,8.622118950E0
2.130688753E0,-3.159149170E0,3.947440147E0,8.612542152E0
2.133176722E0,-3.163937569E0,3.952228546E0,8.598176956E0
2.135664691E0,-3.173514366E0,3.937863350E0,8.588600159E0
2.138152660E0,-3.183091164E0,3.942651749E0,8.564658165E0
2.140640628E0,-3.178302765E0,3.942651749E0,8.564658165E0
2.143128597E0,-3.183091164E0,3.942651749E0,8.545504570E0
2.145616566E0,-3.187879562E0,3.937863350E0,8.535927773E0
2.148104535E0,-3.197456360E0,3.952228546E0,8.526350975E0
2.150592503E0,-3.178302765E0,3.961805344E0,8.521562576E0
2.153080472E0,-3.173514366E0,3.966593742E0,8.521562576E0
2.155568441E0,-3.163937569E0,3.966593742E0,8.521562576E0
2.158056410E0,-3.154360771E0,3.971382141E0,8.526350975E0
2.160544378E0,-3.144783974E0,3.980958939E0,8.511985779E0
2.163032347E0,-3.144783974E0,3.971382141E0,8.507197380E0
2.165520316E0,-3.120841980E0,3.976170540E0,8.502408981E0
2.168008285E0,-3.125630379E0,3.976170540E0,8.502408981E0
2.170496253E0,-3.130418777E0,3.985747337E0,8.516774178E0
2.172984222E0,-3.130418777E0,3.980958939E0,8.507197380E0
2.175472191E0,-3.135207176E0,3.985747337E0,8.502408981E0
2.177960160E0,-3.154360771E0,3.990535736E0,8.507197380E0
2.180448128E0,-3.163937569E0,4.009689331E0,8.478466988E0
2.182936097E0,-3.168725967E0,4.004900932E0,8.459313393E0
2.185424066E0,-3.168725967E0,4.000112534E0,8.435371399E0
2.187912035E0,-3.173514366E0,4.009689331E0,8.416217804E0
2.190400003E0,-3.183091164E0,4.024054527E0,8.421006203E0
2.192887972E0,-3.173514366E0,4.033631325E0,8.411429405E0
2.195375941E0,-3.163937569E0,4.028842926E0,8.401852608E0
2.197863910E0,-3.159149170E0,4.028842926E0,8.401852608E0
2.200351878E0,-3.163937569E0,4.033631325E0,8.416217804E0
2.202839847E0,-3.149572372E0,4.028842926E0,8.401852608E0
2.205327816E0,-3.154360771E0,4.033631325E0,8.387487411E0
2.207815785E0,-3.154360771E0,4.019266129E0,8.382699013E0
2.210303753E0,-3.159149170E0,4.019266129E0,8.397064209E0
2.212791722E0,-3.149572372E0,4.033631325E0,8.406641006E0
2.215279691E0,-3.178302765E0,4.033631325E0,8.421006203E0
2.217767660E0,-3.187879562E0,4.014477730E0,8.444948196E0
2.220255628E0,-3.178302765E0,4.014477730E0,8.454524994E0
2.222743597E0,-3.173514366E0,4.033631325E0,8.454524994E0
2.225231566E0,-3.173514366E0,4.004900932E0,8.440159798E0
2.227719535E0,-3.159149170E0,4.004900932E0,8.421006203E0
2.230207503E0,-3.159149170E0,4.000112534E0,8.397064209E0
2.232695472E0,-3.149572372E0,4.009689331E0,8.440159798E0
2.235183441E0,-3.149572372E0,4.028842926E0,8.459313393E0
2.237671410E0,-3.159149170E0,4.024054527E0,8.483255386E0
2.240159378E0,-3.159149170E0,4.028842926E0,8.521562576E0
2.242647347E0,-3.168725967E0,4.033631325E0,8.535927773E0
2.245135316E0,-3.149572372E0,4.038419724E0,8.535927773E0
2.247623285E0,-3.159149170E0,4.028842926E0,8.535927773E0
2.250111253E0,-3.159149170E0,4.038419724E0,8.511985779E0
2.252599222E0,-3.139995575E0,4.033631325E0,8.488043785E0
2.255087191E0,-3.139995575E0,4.014477730E0,8.488043785E0
2.257575160E0,-3.144783974E0,4.009689331E0,8.478466988E0
2.260063128E0,-3.144783974E0,4.014477730E0,8.464101791E0
2.262551097E0,-3.135207176E0,3.990535736E0,8.468890190E0
2.265039066E0,-3.130418777E0,3.995324135E0,8.488043785E0
2.267527035E0,-3.111265182E0,3.985747337E0,8.507197380E0
2.270015003E0,-3.116053581E0,3.995324135E0,8.507197380E0
2.272502972E0,-3.106476784E0,3.990535736E0,8.502408981E0
2.274990941E0,-3.116053581E0,3.995324135E0,8.507197380E0
2.277478910E0,-3.116053581E0,3.995324135E0,8.526350975E0
2.279966878E0,-3.116053581E0,3.995324135E0,8.531139374E0
2.282454847E0,-3.116053581E0,3.995324135E0,8.521562576E0
2.284942816E0,-3.125630379E0,3.990535736E0,8.535927773E0
2.287430785E0,-3.125630379E0,3.985747337E0,8.540716171E0
2.289918753E0,-3.125630379E0,3.976170540E0,8.535927773E0
2.292406722E0,-3.130418777E0,3.976170540E0,8.526350975E0
2.294894691E0,-3.125630379E0,3.966593742E0,8.511985779E0
2.297382660E0,-3.116053581E0,3.971382141E0,8.507197380E0
2.299870628E0,-3.111265182E0,3.966593742E0,8.468890190E0
2.302358597E0,-3.106476784E0,3.961805344E0,8.459313393E0
2.304846566E0,-3.111265182E0,3.971382141E0,8.449736595E0
2.307334535E0,-3.125630379E0,3.995324135E0,8.440159798E0
2.309822503E0,-3.125630379E0,3.985747337E0,8.435371399E0
2.312310472E0,-3.120841980E0,3.995324135E0,8.435371399E0
2.314798441E0,-3.116053581E0,4.009689331E0,8.435371399E0
2.317286410E0,-3.111265182E0,4.014477730E0,8.435371399E0
2.319774378E0,-3.096899986E0,4.033631325E0,8.444948196E0
2.322262347E0,-3.082534790E0,4.019266129E0,8.430583000E0
2.324750316E0,-3.072957993E0,4.014477730E0,8.411429405E0
2.327238285E0,-3.087323189E0,4.019266129E0,8.411429405E0
2.329726253E0,-3.087323189E0,4.019266129E0,8.382699013E0
2.332214222E0,-3.096899986E0,4.004900932E0,8.353968620E0
2.334702191E0,-3.096899986E0,3.990535736E0,8.310873032E0
2.337190160E0,-3.101688385E0,4.004900932E0,8.301296234E0
2.339678128E0,-3.087323189E0,4.004900932E0,8.315661430E0
2.342166097E0,-3.082534790E0,4.024054527E0,8.334815025E0
2.344654066E0,-3.082534790E0,4.038419724E0,8.344391823E0
2.347142035E0,-3.072957993E0,4.057573318E0,8.358757019E0
2.349630003E0,-3.068169594E0,4.057573318E0,8.387487411E0
2.352117972E0,-3.068169594E0,4.081515312E0,8.401852608E0
2.354605941E0,-3.072957993E0,4.076726913E0,8.401852608E0
2.357093910E0,-3.092111588E0,4.071938515E0,8.401852608E0
2.359581878E0,-3.087323189E0,4.067150116E0,8.392275810E0
2.362069847E0,-3.101688385E0,4.057573318E0,8.392275810E0
2.364557816E0,-3.101688385E0,4.057573318E0,8.411429405E0
2.367045785E0,-3.111265182E0,4.062361717E0,8.401852608E0
2.369533753E0,-3.111265182E0,4.038419724E0,8.392275810E0
2.372021722E0,-3.116053581E0,4.047996521E0,8.387487411E0
2.374509691E0,-3.130418777E0,4.067150116E0,8.406641006E0
2.376997660E0,-3.130418777E0,4.047996521E0,8.416217804E0
2.379485628E0,-3.144783974E0,4.062361717E0,8.430583000E0
2.381973597E0,-3.144783974E0,4.076726913E0,8.444948196E0
2.384461566E0,-3.135207176E0,4.076726913E0,8.449736595E0
2.386949535E0,-3.116053581E0,4.057573318E0,8.478466988E0
2.389437503E0,-3.111265182E0,4.052784920E0,8.483255386E0
2.391925472E0,-3.116053581E0,4.052784920E0,8.497620583E0
2.394413441E0,-3.144783974E0,4.047996521E0,8.492832184E0
2.396901410E0,-3.144783974E0,4.038419724E0,8.521562576E0
2.399389378E0,-3.149572372E0,4.043208122E0,8.535927773E0
2.401877347E0,-3.144783974E0,4.047996521E0,8.535927773E0
2.404365316E0,-3.144783974E0,4.038419724E0,8.545504570E0
2.406853285E0,-3.149572372E0,4.019266129E0,8.559869766E0
2.409341253E0,-3.149572372E0,4.024054527E0,8.545504570E0
2.411829222E0,-3.144783974E0,4.028842926E0,8.559869766E0
2.414317191E0,-3.135207176E0,4.019266129E0,8.550292969E0
2.416805160E0,-3.135207176E0,4.000112534E0,8.550292969E0
2.419293128E0,-3.144783974E0,4.004900932E0,8.559869766E0
2.421781097E0,-3.139995575E0,3.985747337E0,8.555081367E0
2.424269066E0,-3.120841980E0,4.000112534E0,8.559869766E0
2.426757035E0,-3.130418777E0,3.995324135E0,8.545504570E0
2.429245003E0,-3.125630379E0,3.971382141E0,8.516774178E0
2.431732972E0,-3.111265182E0,3.961805344E0,8.502408981E0
2.434220941E0,-3.087323189E0,3.966593742E0,8.492832184E0
2.436708910E0,-3.063380957E0,3.985747337E0,8.492832184E0
2.439196878E0,-3.063380957E0,3.985747337E0,8.521562576E0
2.441684847E0,-3.053804159E0,3.995324135E0,8.511985779E0
2.444172816E0,-3.034650564E0,3.995324135E0,8.507197380E0
2.446660785E0,-3.058592558E0,4.019266129E0,8.497620583E0
2.449148753E0,-3.015496969E0,4.028842926E0,8.497620583E0
2.451636722E0,-3.005920172E0,4.014477730E0,8.483255386E0
2.454124691E0,-3.005920172E0,4.014477730E0,8.454524994E0
2.456612660E0,-2.996343374E0,4.019266129E0,8.425794601E0
2.459100628E0,-2.986766577E0,4.019266129E0,8.406641006E0
2.461588597E0,-2.991554976E0,4.028842926E0,8.397064209E0
2.464076566E0,-2.977189779E0,4.028842926E0,8.353968620E0
2.466564535E0,-2.991554976E0,4.019266129E0,8.306084633E0
2.469052503E0,-3.010708570E0,4.028842926E0,8.291719437E0
2.471540472E0,-3.029862165E0,4.019266129E0,8.267777443E0
2.474028441E0,-3.049015760E0,4.033631325E0,8.277354240E0
2.476516410E0,-3.053804159E0,4.047996521E0,8.277354240E0
2.479004378E0,-3.058592558E0,4.047996521E0,8.277354240E0
2.481492347E0,-3.058592558E0,4.038419724E0,8.267777443E0
2.483980316E0,-3.058592558E0,4.043208122E0,8.277354240E0
2.486468285E0,-3.058592558E0,4.067150116E0,8.267777443E0
2.488956253E0,-3.077746391E0,4.086303711E0,8.267777443E0
2.491444222E0,-3.101688385E0,4.086303711E0,8.277354240E0
2.493932191E0,-3.116053581E0,4.067150116E0,8.277354240E0
2.496420160E0,-3.120841980E0,4.071938515E0,8.310873032E0
2.498908128E0,-3.130418777E0,4.071938515E0,8.315661430E0
2.501396097E0,-3.149572372E0,4.067150116E0,8.334815025E0
2.503884066E0,-3.116053581E0,4.086303711E0,8.344391823E0
2.506372035E0,-3.125630379E0,4.091092110E0,8.373122215E0
2.508860003E0,-3.130418777E0,4.081515312E0,8.397064209E0
2.511347972E0,-3.139995575E0,4.081515312E0,8.392275810E0
2.513835941E0,-3.125630379E0,4.081515312E0,8.425794601E0
2.516323910E0,-3.125630379E0,4.076726913E0,8.440159798E0
2.518811878E0,-3.125630379E0,4.086303711E0,8.444948196E0
2.521299847E0,-3.120841980E0,4.086303711E0,8.430583000E0
2.523787816E0,-3.120841980E0,4.076726913E0,8.430583000E0
2.526275785E0,-3.125630379E0,4.081515312E0,8.416217804E0
2.528763753E0,-3.135207176E0,4.052784920E0,8.435371399E0
2.531251722E0,-3.144783974E0,4.057573318E0,8.421006203E0
2.533739691E0,-3.144783974E0,4.043208122E0,8.421006203E0
2.536227660E0,-3.159149170E0,4.028842926E0,8.401852608E0
2.538715628E0,-3.159149170E0,4.043208122E0,8.421006203E0
2.541203597E0,-3.163937569E0,4.033631325E0,8.397064209E0
2.543691514E0,-3.163937569E0,4.043208122E0,8.392275810E0
2.546179430E0,-3.173514366E0,4.028842926E0,8.349180222E0
2.548667347E0,-3.163937569E0,4.014477730E0,8.349180222E0
2.551155264E0,-3.144783974E0,4.038419724E0,8.344391823E0
2.553643180E0,-3.149572372E0,4.038419724E0,8.377910614E0
2.556131097E0,-3.144783974E0,4.047996521E0,8.382699013E0
2.558619014E0,-3.144783974E0,4.038419724E0,8.382699013E0
2.561106930E0,-3.139995575E0,4.038419724E0,8.377910614E0
2.563594847E0,-3.139995575E0,4.062361717E0,8.392275810E0
2.566082764E0,-3.154360771E0,4.091092110E0,8.377910614E0
2.568570680E0,-3.130418777E0,4.071938515E0,8.392275810E0
2.571058597E0,-3.144783974E0,4.052784920E0,8.377910614E0
2.573546514E0,-3.163937569E0,4.071938515E0,8.373122215E0
2.576034430E0,-3.154360771E0,4.081515312E0,8.387487411E0
2.578522347E0,-3.173514366E0,4.095880508E0,8.392275810E0
2.581010264E0,-3.168725967E0,4.091092110E0,8.397064209E0
2.583498180E0,-3.163937569E0,4.100668907E0,8.377910614E0
2.585986097E0,-3.173514366E0,4.100668907E0,8.382699013E0
2.588474014E0,-3.168725967E0,4.095880508E0,8.368333817E0
2.590961930E0,-3.183091164E0,4.124610901E0,8.377910614E0
2.593449847E0,-3.173514366E0,4.124610901E0,8.382699013E0
2.595937764E0,-3.178302765E0,4.105457306E0,8.382699013E0
2.598425680E0,-3.178302765E0,4.119822502E0,8.382699013E0
2.600913597E0,-3.187879562E0,4.129399300E0,8.382699013E0
2.603401514E0,-3.173514366E0,4.138976097E0,8.363545418E0
2.605889430E0,-3.187879562E0,4.124610901E0,8.392275810E0
2.608377347E0,-3.197456360E0,4.124610901E0,8.416217804E0
2.610865264E0,-3.207033157E0,4.115034103E0,8.397064209E0
2.613353233E0,-3.235763550E0,4.115034103E0,8.392275810E0
2.615841201E0,-3.235763550E0,4.105457306E0,8.377910614E0
2.618329170E0,-3.235763550E0,4.110245705E0,8.368333817E0
2.620817139E0,-3.250128746E0,4.095880508E0,8.358757019E0
2.623305108E0,-3.240551949E0,4.105457306E0,8.358757019E0
2.625793076E0,-3.245340347E0,4.115034103E0,8.339603424E0
2.628281045E0,-3.254917145E0,4.100668907E0,8.353968620E0
2.630769014E0,-3.254917145E0,4.095880508E0,8.353968620E0
2.633256983E0,-3.264493942E0,4.095880508E0,8.339603424E0
2.635744951E0,-3.254917145E0,4.100668907E0,8.325238228E0
2.638232920E0,-3.254917145E0,4.105457306E0,8.334815025E0
2.640720889E0,-3.259705544E0,4.110245705E0,8.339603424E0
2.643208858E0,-3.269282341E0,4.115034103E0,8.330026627E0
2.645696826E0,-3.278859138E0,4.105457306E0,8.344391823E0
2.648184795E0,-3.274070740E0,4.100668907E0,8.363545418E0
2.650672764E0,-3.293224335E0,4.115034103E0,8.392275810E0
2.653160733E0,-3.278859138E0,4.134187698E0,8.416217804E0
2.655648701E0,-3.288435936E0,4.138976097E0,8.444948196E0
2.658136670E0,-3.288435936E0,4.148552895E0,8.459313393E0
2.660624639E0,-3.293224335E0,4.162918091E0,8.468890190E0
2.663112608E0,-3.312378168E0,4.167706490E0,8.492832184E0
2.665600576E0,-3.331531763E0,4.172494888E0,8.497620583E0
2.668088545E0,-3.350685358E0,4.167706490E0,8.492832184E0
2.670576514E0,-3.336320162E0,4.172494888E0,8.507197380E0
2.673064483E0,-3.360262156E0,4.158129692E0,8.507197380E0
2.675552451E0,-3.355473757E0,4.158129692E0,8.511985779E0
2.678040420E0,-3.350685358E0,4.138976097E0,8.502408981E0
2.680528389E0,-3.345896959E0,4.129399300E0,8.502408981E0
2.683016358E0,-3.326743364E0,4.129399300E0,8.497620583E0
2.685504326E0,-3.336320162E0,4.134187698E0,8.483255386E0
2.687992295E0,-3.341108561E0,4.134187698E0,8.478466988E0
2.690480264E0,-3.321954966E0,4.134187698E0,8.468890190E0
2.692968233E0,-3.317166567E0,4.129399300E0,8.468890190E0
2.695456201E0,-3.307589531E0,4.129399300E0,8.459313393E0
2.697944170E0,-3.331531763E0,4.129399300E0,8.440159798E0
2.700432139E0,-3.312378168E0,4.119822502E0,8.425794601E0
2.702920108E0,-3.307589531E0,4.129399300E0,8.401852608E0
2.705408076E0,-3.302801132E0,4.119822502E0,8.401852608E0
2.707896045E0,-3.307589531E0,4.119822502E0,8.368333817E0
2.710384014E0,-3.293224335E0,4.124610901E0,8.349180222E0
2.712871983E0,-3.298012733E0,4.110245705E0,8.339603424E0
2.715359951E0,-3.288435936E0,4.100668907E0,8.320449829E0
2.717847920E0,-3.274070740E0,4.095880508E0,8.320449829E0
2.720335889E0,-3.259705544E0,4.095880508E0,8.291719437E0
2.722823858E0,-3.259705544E0,4.100668907E0,8.296507835E0
2.725311826E0,-3.259705544E0,4.110245705E0,8.291719437E0
2.727799795E0,-3.259705544E0,4.110245705E0,8.286931038E0
2.730287764E0,-3.254917145E0,4.110245705E0,8.306084633E0
2.732775733E0,-3.264493942E0,4.100668907E0,8.320449829E0
2.735263701E0,-3.278859138E0,4.095880508E0,8.334815025E0
2.737751670E0,-3.298012733E0,4.100668907E0,8.368333817E0
2.740239639E0,-3.288435936E0,4.110245705E0,8.382699013E0
2.742727608E0,-3.302801132E0,4.134187698E0,8.397064209E0
2.745215576E0,-3.321954966E0,4.129399300E0,8.401852608E0
2.747703545E0,-3.336320162E0,4.138976097E0,8.416217804E0
2.750191514E0,-3.326743364E0,4.134187698E0,8.421006203E0
2.752679483E0,-3.341108561E0,4.124610901E0,8.425794601E0
2.755167451E0,-3.345896959E0,4.129399300E0,8.440159798E0
2.757655420E0,-3.336320162E0,4.124610901E0,8.449736595E0
2.760143389E0,-3.321954966E0,4.105457306E0,8.454524994E0
2.762631358E0,-3.312378168E0,4.134187698E0,8.454524994E0
2.765119326E0,-3.312378168E0,4.134187698E0,8.435371399E0
2.767607295E0,-3.307589531E0,4.115034103E0,8.421006203E0
2.770095264E0,-3.293224335E0,4.115034103E0,8.435371399E0
2.772583233E0,-3.302801132E0,4.115034103E0,8.430583000E0
2.775071201E0,-3.269282341E0,4.100668907E0,8.440159798E0
2.777559170E0,-3.274070740E0,4.100668907E0,8.430583000E0
2.780047139E0,-3.283647537E0,4.129399300E0,8.425794601E0
2.782535108E0,-3.302801132E0,4.115034103E0,8.425794601E0
2.785023076E0,-3.288435936E0,4.124610901E0,8.425794601E0
2.787511045E0,-3.298012733E0,4.134187698E0,8.430583000E0
2.789999014E0,-3.312378168E0,4.124610901E0,8.416217804E0
2.792486983E0,-3.312378168E0,4.115034103E0,8.421006203E0
2.794974951E0,-3.307589531E0,4.100668907E0,8.397064209E0
2.797462920E0,-3.302801132E0,4.091092110E0,8.392275810E0
2.799950889E0,-3.307589531E0,4.100668907E0,8.373122215E0
2.802438858E0,-3.274070740E0,4.100668907E0,8.382699013E0
2.804926826E0,-3.274070740E0,4.110245705E0,8.392275810E0
2.807414795E0,-3.269282341E0,4.115034103E0,8.397064209E0
2.809902764E0,-3.259705544E0,4.115034103E0,8.401852608E0
2.812390733E0,-3.259705544E0,4.105457306E0,8.392275810E0
2.814878701E0,-3.245340347E0,4.115034103E0,8.377910614E0
2.817366670E0,-3.254917145E0,4.110245705E0,8.373122215E0
2.819854639E0,-3.259705544E0,4.119822502E0,8.387487411E0
2.822342608E0,-3.254917145E0,4.100668907E0,8.406641006E0
2.824830576E0,-3.254917145E0,4.091092110E0,8.406641006E0
2.827318545E0,-3.269282341E0,4.105457306E0,8.411429405E0
2.829806514E0,-3.254917145E0,4.095880508E0,8.397064209E0
2.832294483E0,-3.254917145E0,4.091092110E0,8.363545418E0
2.834782451E0,-3.245340347E0,4.081515312E0,8.368333817E0
2.837270420E0,-3.245340347E0,4.071938515E0,8.373122215E0
2.839758389E0,-3.235763550E0,4.067150116E0,8.368333817E0
2.842246358E0,-3.245340347E0,4.057573318E0,8.363545418E0
2.844734326E0,-3.235763550E0,4.033631325E0,8.349180222E0
2.847222295E0,-3.235763550E0,4.043208122E0,8.320449829E0
2.849710264E0,-3.221398354E0,4.052784920E0,8.349180222E0
2.852198233E0,-3.211821556E0,4.062361717E0,8.382699013E0
2.854686201E0,-3.211821556E0,4.062361717E0,8.397064209E0
2.857174170E0,-3.216609955E0,4.076726913E0,8.401852608E0
2.859662139E0,-3.211821556E0,4.076726913E0,8.406641006E0
2.862150108E0,-3.197456360E0,4.086303711E0,8.397064209E0
2.864638076E0,-3.178302765E0,4.067150116E0,8.387487411E0
2.867126045E0,-3.187879562E0,4.057573318E0,8.397064209E0
2.869614014E0,-3.173514366E0,4.067150116E0,8.382699013E0
2.872101983E0,-3.168725967E0,4.057573318E0,8.387487411E0
2.874589951E0,-3.173514366E0,4.067150116E0,8.363545418E0
2.877077920E0,-3.168725967E0,4.057573318E0,8.377910614E0
2.879565889E0,-3.192667961E0,4.057573318E0,8.363545418E0
2.882053858E0,-3.207033157E0,4.052784920E0,8.344391823E0
2.884541826E0,-3.207033157E0,4.033631325E0,8.349180222E0
2.887029795E0,-3.207033157E0,4.052784920E0,8.368333817E0
2.889517764E0,-3.183091164E0,4.043208122E0,8.382699013E0
2.892005733E0,-3.183091164E0,4.033631325E0,8.382699013E0
2.894493701E0,-3.183091164E0,4.033631325E0,8.382699013E0
2.896981670E0,-3.178302765E0,4.047996521E0,8.411429405E0
2.899469639E0,-3.183091164E0,4.047996521E0,8.435371399E0
2.901957608E0,-3.202244759E0,4.057573318E0,8.444948196E0
2.904445576E0,-3.202244759E0,4.067150116E0,8.473678589E0
2.906933545E0,-3.230975151E0,4.067150116E0,8.483255386E0
2.909421514E0,-3.240551949E0,4.071938515E0,8.497620583E0
2.911909483E0,-3.235763550E0,4.071938515E0,8.507197380E0
2.914397451E0,-3.250128746E0,4.071938515E0,8.516774178E0
2.916885420E0,-3.240551949E0,4.081515312E0,8.502408981E0
2.919373389E0,-3.250128746E0,4.071938515E0,8.497620583E0
2.921861358E0,-3.245340347E0,4.071938515E0,8.483255386E0
2.924349326E0,-3.240551949E0,4.067150116E0,8.468890190E0
2.926837295E0,-3.245340347E0,4.062361717E0,8.454524994E0
2.929325264E0,-3.221398354E0,4.062361717E0,8.449736595E0
2.931813233E0,-3.221398354E0,4.067150116E0,8.440159798E0
2.934301201E0,-3.230975151E0,4.062361717E0,8.421006203E0
2.936789170E0,-3.216609955E0,4.038419724E0,8.406641006E0
2.939277139E0,-3.211821556E0,4.038419724E0,8.392275810E0
2.941765108E0,-3.207033157E0,4.047996521E0,8.406641006E0
2.944253076E0,-3.207033157E0,4.057573318E0,8.421006203E0
2.946741045E0,-3.207033157E0,4.047996521E0,8.430583000E0
2.949229014E0,-3.202244759E0,4.057573318E0,8.435371399E0
2.951716930E0,-3.202244759E0,4.076726913E0,8.449736595E0
2.954204847E0,-3.221398354E0,4.076726913E0,8.459313393E0
2.956692764E0,-3.221398354E0,4.076726913E0,8.468890190E0
2.959180680E0,-3.216609955E0,4.091092110E0,8.483255386E0
2.961668597E0,-3.211821556E0,4.095880508E0,8.473678589E0
2.964156514E0,-3.216609955E0,4.071938515E0,8.468890190E0
2.966644430E0,-3.192667961E0,4.062361717E0,8.468890190E0
2.969132347E0,-3.197456360E0,4.067150116E0,8.468890190E0
2.971620264E0,-3.216609955E0,4.071938515E0,8.464101791E0
2.974108180E0,-3.216609955E0,4.057573318E0,8.440159798E0
2.976596097E0,-3.216609955E0,4.071938515E0,8.430583000E0
2.979084014E0,-3.221398354E0,4.076726913E0,8.440159798E0
2.981571930E0,-3.235763550E0,4.062361717E0,8.454524994E0
2.984059847E0,-3.240551949E0,4.062361717E0,8.444948196E0
2.986547764E0,-3.230975151E0,4.076726913E0,8.459313393E0
2.989035680E0,-3.230975151E0,4.062361717E0,8.449736595E0
2.991523597E0,-3.230975151E0,4.076726913E0,8.411429405E0
2.994011514E0,-3.226186752E0,4.095880508E0,8.411429405E0
2.996499430E0,-3.226186752E0,4.095880508E0,8.425794601E0
2.998987347E0,-3.207033157E0,4.086303711E0,8.421006203E0
3.001475264E0,-3.211821556E0,4.095880508E0,8.401852608E0
3.003963180E0,-3.192667961E0,4.095880508E0,8.392275810E0
3.006451097E0,-3.211821556E0,4.091092110E0,8.392275810E0
3.008939014E0,-3.202244759E0,4.095880508E0,8.363545418E0
3.011426930E0,-3.197456360E0,4.091092110E0,8.368333817E0
3.013914847E0,-3.183091164E0,4.091092110E0,8.339603424E0
3.016402764E0,-3.187879562E0,4.081515312E0,8.339603424E0
3.018890680E0,-3.173514366E0,4.091092110E0,8.306084633E0
3.021378597E0,-3.163937569E0,4.086303711E0,8.272565842E0
3.023866514E0,-3.168725967E0,4.086303711E0,8.262989044E0
3.026354430E0,-3.173514366E0,4.100668907E0,8.267777443E0
3.028842347E0,-3.178302765E0,4.091092110E0,8.286931038E0
3.031330316E0,-3.168725967E0,4.095880508E0,8.291719437E0
3.033818285E0,-3.163937569E0,4.100668907E0,8.301296234E0
3.036306253E0,-3.173514366E0,4.100668907E0,8.291719437E0
3.038794222E0,-3.178302765E0,4.100668907E0,8.286931038E0
3.041282191E0,-3.173514366E0,4.081515312E0,8.301296234E0
3.043770160E0,-3.163937569E0,4.081515312E0,8.320449829E0
3.046258128E0,-3.159149170E0,4.091092110E0,8.310873032E0
3.048746097E0,-3.159149170E0,4.091092110E0,8.330026627E0
3.051234066E0,-3.149572372E0,4.100668907E0,8.320449829E0
3.053722035E0,-3.149572372E0,4.105457306E0,8.325238228E0
3.056210003E0,-3.149572372E0,4.095880508E0,8.325238228E0
3.058697972E0,-3.154360771E0,4.091092110E0,8.330026627E0
3.061185941E0,-3.159149170E0,4.091092110E0,8.334815025E0
3.063673910E0,-3.149572372E0,4.081515312E0,8.325238228E0
3.066161878E0,-3.149572372E0,4.081515312E0,8.320449829E0
3.068649847E0,-3.135207176E0,4.067150116E0,8.320449829E0
3.071137816E0,-3.139995575E0,4.067150116E0,8.325238228E0
3.073625785E0,-3.144783974E0,4.043208122E0,8.296507835E0
3.076113753E0,-3.130418777E0,4.052784920E0,8.291719437E0
3.078601722E0,-3.149572372E0,4.043208122E0,8.306084633E0
3.081089691E0,-3.130418777E0,4.047996521E0,8.296507835E0
3.083577660E0,-3.130418777E0,4.047996521E0,8.301296234E0
3.086065628E0,-3.116053581E0,4.057573318E0,8.291719437E0
3.088553597E0,-3.111265182E0,4.071938515E0,8.291719437E0
3.091041566E0,-3.125630379E0,4.062361717E0,8.301296234E0
3.093529535E0,-3.120841980E0,4.076726913E0,8.320449829E0
3.096017503E0,-3.120841980E0,4.076726913E0,8.344391823E0
3.098505472E0,-3.130418777E0,4.076726913E0,8.330026627E0
3.100993441E0,-3.135207176E0,4.081515312E0,8.339603424E0
3.103481410E0,-3.130418777E0,4.081515312E0,8.339603424E0
3.105969378E0,-3.125630379E0,4.076726913E0,8.349180222E0
3.108457347E0,-3.120841980E0,4.071938515E0,8.330026627E0
3.110945316E0,-3.139995575E0,4.081515312E0,8.320449829E0
3.113433285E0,-3.144783974E0,4.081515312E0,8.339603424E0
3.115921253E0,-3.173514366E0,4.081515312E0,8.339603424E0
3.118409222E0,-3.163937569E0,4.095880508E0,8.330026627E0
3.120897191E0,-3.149572372E0,4.091092110E0,8.325238228E0
3.123385160E0,-3.163937569E0,4.091092110E0,8.315661430E0
3.125873128E0,-3.168725967E0,4.095880508E0,8.334815025E0
3.128361097E0,-3.168725967E0,4.105457306E0,8.330026627E0
3.130849066E0,-3.168725967E0,4.100668907E0,8.334815025E0
3.133337035E0,-3.173514366E0,4.086303711E0,8.344391823E0
3.135825003E0,-3.187879562E0,4.091092110E0,8.368333817E0
3.138312972E0,-3.197456360E0,4.081515312E0,8.358757019E0
3.140800941E0,-3.192667961E0,4.091092110E0,8.349180222E0
3.143288910E0,-3.216609955E0,4.091092110E0,8.368333817E0
3.145776878E0,-3.221398354E0,4.100668907E0,8.392275810E0
3.148264847E0,-3.230975151E0,4.105457306E0,8.406641006E0
3.150752816E0,-3.254917145E0,4.124610901E0,8.444948196E0
3.153240785E0,-3.254917145E0,4.129399300E0,8.435371399E0
3.155728753E0,-3.254917145E0,4.124610901E0,8.459313393E0
3.158216722E0,-3.254917145E0,4.119822502E0,8.454524994E0
3.160704691E0,-3.259705544E0,4.129399300E0,8.459313393E0
3.163192660E0,-3.278859138E0,4.134187698E0,8.459313393E0
3.165680628E0,-3.274070740E0,4.124610901E0,8.440159798E0
3.168168597E0,-3.283647537E0,4.119822502E0,8.440159798E0
3.170656566E0,-3.274070740E0,4.124610901E0,8.425794601E0
3.173144535E0,-3.269282341E0,4.124610901E0,8.430583000E0
3.175632503E0,-3.278859138E0,4.138976097E0,8.421006203E0
3.178120472E0,-3.264493942E0,4.119822502E0,8.416217804E0
3.180608441E0,-3.278859138E0,4.110245705E0,8.416217804E0
3.183096410E0,-3.283647537E0,4.129399300E0,8.416217804E0
3.185584378E0,-3.278859138E0,4.129399300E0,8.411429405E0
3.188072347E0,-3.283647537E0,4.119822502E0,8.397064209E0
3.190560316E0,-3.274070740E0,4.119822502E0,8.387487411E0
3.193048285E0,-3.278859138E0,4.110245705E0,8.368333817E0
3.195536253E0,-3.278859138E0,4.105457306E0,8.358757019E0
3.198024222E0,-3.283647537E0,4.119822502E0,8.320449829E0
3.200512191E0,-3.278859138E0,4.115034103E0,8.320449829E0
3.203000160E0,-3.283647537E0,4.110245705E0,8.320449829E0
3.205488128E0,-3.302801132E0,4.100668907E0,8.325238228E0
3.207976097E0,-3.302801132E0,4.105457306E0,8.320449829E0
3.210464066E0,-3.293224335E0,4.119822502E0,8.315661430E0
3.212952035E0,-3.288435936E0,4.124610901E0,8.306084633E0
3.215440003E0,-3.293224335E0,4.129399300E0,8.296507835E0
3.217927972E0,-3.307589531E0,4.134187698E0,8.277354240E0
3.220415941E0,-3.288435936E0,4.119822502E0,8.291719437E0
3.222903910E0,-3.283647537E0,4.119822502E0,8.282142639E0
3.225391878E0,-3.293224335E0,4.119822502E0,8.272565842E0
3.227879847E0,-3.293224335E0,4.124610901E0,8.277354240E0
3.230367816E0,-3.293224335E0,4.138976097E0,8.282142639E0
3.232855785E0,-3.307589531E0,4.143764496E0,8.282142639E0
3.235343753E0,-3.312378168E0,4.134187698E0,8.291719437E0
3.237831722E0,-3.312378168E0,4.138976097E0,8.277354240E0
3.240319691E0,-3.331531763E0,4.143764496E0,8.296507835E0
3.242807660E0,-3.331531763E0,4.158129692E0,8.315661430E0
3.245295628E0,-3.341108561E0,4.158129692E0,8.325238228E0
3.247783597E0,-3.341108561E0,4.162918091E0,8.325238228E0
3.250271566E0,-3.321954966E0,4.167706490E0,8.334815025E0
3.252759535E0,-3.341108561E0,4.167706490E0,8.339603424E0
3.255247451E0,-3.326743364E0,4.153341293E0,8.344391823E0
3.257735368E0,-3.326743364E0,4.182071686E0,8.330026627E0
3.260223285E0,-3.336320162E0,4.191648483E0,8.339603424E0
3.262711201E0,-3.345896959E0,4.172494888E0,8.339603424E0
3.265199118E0,-3.336320162E0,4.172494888E0,8.339603424E0
3.267687035E0,-3.341108561E0,4.172494888E0,8.339603424E0
3.270174951E0,-3.331531763E0,4.191648483E0,8.353968620E0
3.272662868E0,-3.331531763E0,4.177283287E0,8.339603424E0
3.275150785E0,-3.312378168E0,4.167706490E0,8.344391823E0
3.277638701E0,-3.307589531E0,4.162918091E0,8.325238228E0
3.280126618E0,-3.317166567E0,4.153341293E0,8.320449829E0
3.282614535E0,-3.307589531E0,4.162918091E0,8.306084633E0
3.285102451E0,-3.312378168E0,4.148552895E0,8.315661430E0
3.287590368E0,-3.321954966E0,4.138976097E0,8.325238228E0
3.290078285E0,-3.312378168E0,4.134187698E0,8.315661430E0
3.292566201E0,-3.336320162E0,4.124610901E0,8.320449829E0
3.295054118E0,-3.326743364E0,4.124610901E0,8.330026627E0
3.297542035E0,-3.312378168E0,4.129399300E0,8.349180222E0
3.300029951E0,-3.312378168E0,4.119822502E0,8.358757019E0
3.302517868E0,-3.302801132E0,4.124610901E0,8.387487411E0
3.305005785E0,-3.317166567E0,4.115034103E0,8.406641006E0
3.307493701E0,-3.321954966E0,4.115034103E0,8.435371399E0
3.309981618E0,-3.312378168E0,4.119822502E0,8.449736595E0
3.312469535E0,-3.317166567E0,4.134187698E0,8.430583000E0
3.314957451E0,-3.326743364E0,4.134187698E0,8.435371399E0
3.317445368E0,-3.321954966E0,4.138976097E0,8.449736595E0
3.319933285E0,-3.302801132E0,4.138976097E0,8.435371399E0
3.322421201E0,-3.274070740E0,4.110245705E0,8.411429405E0
3.324909118E0,-3.278859138E0,4.110245705E0,8.416217804E0
3.327397035E0,-3.269282341E0,4.119822502E0,8.416217804E0
3.329884951E0,-3.245340347E0,4.110245705E0,8.406641006E0
3.332372868E0,-3.226186752E0,4.110245705E0,8.382699013E0
3.334860785E0,-3.216609955E0,4.119822502E0,8.363545418E0
3.337348701E0,-3.207033157E0,4.105457306E0,8.373122215E0
3.339836618E0,-3.207033157E0,4.095880508E0,8.363545418E0
3.342324535E0,-3.183091164E0,4.095880508E0,8.353968620E0
3.344812503E0,-3.187879562E0,4.100668907E0,8.330026627E0
3.347300472E0,-3.163937569E0,4.091092110E0,8.325238228E0
3.349788441E0,-3.159149170E0,4.105457306E0,8.349180222E0
3.352276410E0,-3.173514366E0,4.105457306E0,8.344391823E0
3.354764378E0,-3.173514366E0,4.100668907E0,8.330026627E0
3.357252347E0,-3.168725967E0,4.095880508E0,8.330026627E0
3.359740316E0,-3.178302765E0,4.076726913E0,8.320449829E0
3.362228285E0,-3.168725967E0,4.086303711E0,8.306084633E0
3.364716253E0,-3.163937569E0,4.081515312E0,8.286931038E0
3.367204222E0,-3.163937569E0,4.047996521E0,8.272565842E0
3.369692191E0,-3.159149170E0,4.057573318E0,8.272565842E0
3.372180160E0,-3.144783974E0,4.052784920E0,8.262989044E0
3.374668128E0,-3.159149170E0,4.047996521E0,8.262989044E0
3.377156097E0,-3.149572372E0,4.038419724E0,8.277354240E0
3.379644066E0,-3.168725967E0,4.033631325E0,8.282142639E0
3.382132035E0,-3.168725967E0,4.038419724E0,8.301296234E0
3.384620003E0,-3.168725967E0,4.038419724E0,8.310873032E0
3.387107972E0,-3.178302765E0,4.038419724E0,8.330026627E0
3.389595941E0,-3.163937569E0,4.062361717E0,8.339603424E0
3.392083910E0,-3.159149170E0,4.057573318E0,8.373122215E0
3.394571878E0,-3.173514366E0,4.076726913E0,8.387487411E0
3.397059847E0,-3.187879562E0,4.071938515E0,8.406641006E0
3.399547816E0,-3.173514366E0,4.081515312E0,8.421006203E0
3.402035785E0,-3.192667961E0,4.071938515E0,8.421006203E0
3.404523753E0,-3.192667961E0,4.086303711E0,8.435371399E0
3.407011722E0,-3.197456360E0,4.076726913E0,8.440159798E0
3.409499691E0,-3.197456360E0,4.081515312E0,8.454524994E0
3.411987660E0,-3.202244759E0,4.081515312E0,8.444948196E0
3.414475628E0,-3.202244759E0,4.086303711E0,8.444948196E0
3.416963597E0,-3.197456360E0,4.091092110E0,8.444948196E0
3.419451566E0,-3.202244759E0,4.115034103E0,8.430583000E0
3.421939535E0,-3.178302765E0,4.100668907E0,8.397064209E0
3.424427503E0,-3.183091164E0,4.105457306E0,8.382699013E0
3.426915472E0,-3.163937569E0,4.100668907E0,8.397064209E0
3.429403441E0,-3.168725967E0,4.086303711E0,8.377910614E0
3.431891410E0,-3.149572372E0,4.086303711E0,8.363545418E0
3.434379378E0,-3.130418777E0,4.105457306E0,8.363545418E0
3.436867347E0,-3.116053581E0,4.100668907E0,8.353968620E0
3.439355316E0,-3.139995575E0,4.095880508E0,8.349180222E0
3.441843285E0,-3.144783974E0,4.100668907E0,8.339603424E0
3.444331253E0,-3.139995575E0,4.081515312E0,8.339603424E0
3.446819222E0,-3.163937569E0,4.067150116E0,8.349180222E0
3.449307191E0,-3.168725967E0,4.052784920E0,8.344391823E0
3.451795160E0,-3.178302765E0,4.062361717E0,8.349180222E0
3.454283128E0,-3.183091164E0,4.057573318E0,8.363545418E0
3.456771097E0,-3.192667961E0,4.047996521E0,8.349180222E0
3.459259066E0,-3.183091164E0,4.052784920E0,8.382699013E0
3.461747035E0,-3.178302765E0,4.062361717E0,8.373122215E0
3.464235003E0,-3.187879562E0,4.067150116E0,8.373122215E0
3.466722972E0,-3.192667961E0,4.057573318E0,8.377910614E0
3.469210941E0,-3.187879562E0,4.057573318E0,8.401852608E0
3.471698910E0,-3.183091164E0,4.062361717E0,8.397064209E0
3.474186878E0,-3.187879562E0,4.057573318E0,8.416217804E0
3.476674847E0,-3.207033157E0,4.052784920E0,8.416217804E0
3.479162816E0,-3.216609955E0,4.057573318E0,8.416217804E0
3.481650785E0,-3.230975151E0,4.062361717E0,8.416217804E0
3.484138753E0,-3.230975151E0,4.071938515E0,8.416217804E0
3.486626722E0,-3.250128746E0,4.067150116E0,8.425794601E0
3.489114691E0,-3.259705544E0,4.067150116E0,8.416217804E0
3.491602660E0,-3.250128746E0,4.057573318E0,8.435371399E0
3.494090628E0,-3.235763550E0,4.071938515E0,8.411429405E0
3.496578597E0,-3.230975151E0,4.081515312E0,8.411429405E0
3.499066566E0,-3.216609955E0,4.076726913E0,8.401852608E0
3.501554535E0,-3.230975151E0,4.062361717E0,8.392275810E0
3.504042503E0,-3.221398354E0,4.071938515E0,8.397064209E0
3.506530472E0,-3.230975151E0,4.081515312E0,8.377910614E0
3.509018441E0,-3.240551949E0,4.071938515E0,8.382699013E0
3.511506410E0,-3.264493942E0,4.076726913E0,8.373122215E0
3.513994326E0,-3.269282341E0,4.081515312E0,8.373122215E0
3.516482243E0,-3.250128746E0,4.091092110E0,8.363545418E0
3.518970160E0,-3.226186752E0,4.100668907E0,8.358757019E0
3.521458076E0,-3.226186752E0,4.105457306E0,8.349180222E0
3.523945993E0,-3.240551949E0,4.095880508E0,8.344391823E0
3.526433910E0,-3.254917145E0,4.110245705E0,8.344391823E0
3.528921826E0,-3.235763550E0,4.100668907E0,8.344391823E0
3.531409743E0,-3.235763550E0,4.110245705E0,8.339603424E0
3.533897660E0,-3.235763550E0,4.115034103E0,8.344391823E0
3.536385576E0,-3.240551949E0,4.119822502E0,8.353968620E0
3.538873493E0,-3.240551949E0,4.134187698E0,8.358757019E0
3.541361410E0,-3.240551949E0,4.134187698E0,8.368333817E0
3.543849326E0,-3.264493942E0,4.138976097E0,8.397064209E0
3.546337243E0,-3.274070740E0,4.134187698E0,8.392275810E0
3.548825160E0,-3.269282341E0,4.143764496E0,8.397064209E0
3.551313076E0,-3.274070740E0,4.143764496E0,8.421006203E0
3.553800993E0,-3.278859138E0,4.138976097E0,8.430583000E0
3.556288910E0,-3.264493942E0,4.138976097E0,8.430583000E0
3.558776826E0,-3.269282341E0,4.134187698E0,8.411429405E0
3.561264743E0,-3.274070740E0,4.119822502E0,8.401852608E0
3.563752660E0,-3.269282341E0,4.124610901E0,8.392275810E0
3.566240576E0,-3.264493942E0,4.134187698E0,8.358757019E0
3.568728493E0,-3.278859138E0,4.143764496E0,8.349180222E0
3.571216410E0,-3.278859138E0,4.138976097E0,8.358757019E0
3.573704326E0,-3.274070740E0,4.134187698E0,8.349180222E0
3.576192243E0,-3.250128746E0,4.138976097E0,8.334815025E0
3.578680160E0,-3.269282341E0,4.138976097E0,8.325238228E0
3.581168076E0,-3.283647537E0,4.129399300E0,8.325238228E0
3.583655993E0,-3.278859138E0,4.124610901E0,8.320449829E0
3.586143910E0,-3.274070740E0,4.134187698E0,8.306084633E0
3.588631826E0,-3.283647537E0,4.148552895E0,8.334815025E0
3.591119743E0,-3.288435936E0,4.148552895E0,8.315661430E0
3.593607660E0,-3.288435936E0,4.148552895E0,8.301296234E0
3.596095576E0,-3.278859138E0,4.143764496E0,8.286931038E0
3.598583493E0,-3.264493942E0,4.134187698E0,8.315661430E0
3.601071410E0,-3.259705544E0,4.129399300E0,8.301296234E0
3.603559326E0,-3.269282341E0,4.129399300E0,8.301296234E0
3.606047243E0,-3.259705544E0,4.129399300E0,8.301296234E0
3.608535160E0,-3.264493942E0,4.138976097E0,8.296507835E0
3.611023076E0,-3.264493942E0,4.153341293E0,8.286931038E0
3.613510993E0,-3.250128746E0,4.153341293E0,8.296507835E0
3.615998910E0,-3.254917145E0,4.138976097E0,8.286931038E0
3.618486878E0,-3.250128746E0,4.138976097E0,8.296507835E0
3.620974847E0,-3.245340347E0,4.138976097E0,8.306084633E0
3.623462816E0,-3.245340347E0,4.119822502E0,8.282142639E0
3.625950785E0,-3.254917145E0,4.105457306E0,8.286931038E0
3.628438753E0,-3.245340347E0,4.115034103E0,8.286931038E0
3.630926722E0,-3.269282341E0,4.105457306E0,8.291719437E0
3.633414691E0,-3.288435936E0,4.110245705E0,8.291719437E0
3.635902660E0,-3.278859138E0,4.110245705E0,8.310873032E0
3.638390628E0,-3.293224335E0,4.115034103E0,8.334815025E0
3.640878597E0,-3.302801132E0,4.124610901E0,8.339603424E0
3.643366566E0,-3.288435936E0,4.129399300E0,8.353968620E0
3.645854535E0,-3.321954966E0,4.110245705E0,8.368333817E0
3.648342503E0,-3.331531763E0,4.115034103E0,8.382699013E0
3.650830472E0,-3.331531763E0,4.124610901E0,8.373122215E0
3.653318441E0,-3.350685358E0,4.115034103E0,8.382699013E0
3.655806410E0,-3.341108561E0,4.129399300E0,8.387487411E0
3.658294378E0,-3.345896959E0,4.143764496E0,8.401852608E0
3.660782347E0,-3.336320162E0,4.138976097E0,8.392275810E0
3.663270316E0,-3.345896959E0,4.143764496E0,8.392275810E0
3.665758285E0,-3.350685358E0,4.162918091E0,8.401852608E0
3.668246253E0,-3.360262156E0,4.158129692E0,8.401852608E0
3.670734222E0,-3.336320162E0,4.153341293E0,8.406641006E0
3.673222191E0,-3.331531763E0,4.153341293E0,8.392275810E0
3.675710160E0,-3.321954966E0,4.158129692E0,8.397064209E0
3.678198128E0,-3.312378168E0,4.162918091E0,8.392275810E0
3.680686097E0,-3.317166567E0,4.167706490E0,8.377910614E0
3.683174066E0,-3.317166567E0,4.177283287E0,8.368333817E0
3.685662035E0,-3.312378168E0,4.162918091E0,8.353968620E0
3.688150003E0,-3.302801132E0,4.153341293E0,8.353968620E0
3.690637972E0,-3.302801132E0,4.162918091E0,8.334815025E0
3.693125941E0,-3.293224335E0,4.158129692E0,8.320449829E0
3.695613910E0,-3.298012733E0,4.153341293E0,8.310873032E0
3.698101878E0,-3.283647537E0,4.153341293E0,8.306084633E0
3.700589847E0,-3.269282341E0,4.158129692E0,8.315661430E0
3.703077816E0,-3.269282341E0,4.153341293E0,8.310873032E0
3.705565785E0,-3.250128746E0,4.143764496E0,8.320449829E0
3.708053753E0,-3.245340347E0,4.158129692E0,8.286931038E0
3.710541722E0,-3.259705544E0,4.153341293E0,8.286931038E0
3.713029691E0,-3.283647537E0,4.153341293E0,8.282142639E0
3.715517660E0,-3.293224335E0,4.162918091E0,8.277354240E0
3.718005628E0,-3.293224335E0,4.158129692E0,8.282142639E0
3.720493597E0,-3.288435936E0,4.158129692E0,8.282142639E0
3.722981566E0,-3.269282341E0,4.158129692E0,8.306084633E0
3.725469535E0,-3.283647537E0,4.158129692E0,8.306084633E0
3.727957503E0,-3.278859138E0,4.162918091E0,8.310873032E0
3.730445472E0,-3.269282341E0,4.153341293E0,8.301296234E0
3.732933441E0,-3.269282341E0,4.153341293E0,8.310873032E0
3.735421410E0,-3.283647537E0,4.148552895E0,8.315661430E0
3.737909378E0,-3.283647537E0,4.162918091E0,8.306084633E0
3.740397347E0,-3.269282341E0,4.162918091E0,8.301296234E0
3.742885316E0,-3.264493942E0,4.158129692E0,8.320449829E0
3.745373285E0,-3.250128746E0,4.143764496E0,8.320449829E0
3.747861253E0,-3.245340347E0,4.138976097E0,8.315661430E0
3.750349222E0,-3.240551949E0,4.134187698E0,8.306084633E0
3.752837191E0,-3.235763550E0,4.134187698E0,8.291719437E0
3.755325108E0,-3.250128746E0,4.134187698E0,8.277354240E0
3.757813024E0,-3.235763550E0,4.105457306E0,8.248623848E0
3.760300941E0,-3.211821556E0,4.119822502E0,8.267777443E0
3.762788858E0,-3.211821556E0,4.115034103E0,8.258200645E0
3.765276774E0,-3.230975151E0,4.110245705E0,8.243835449E0
3.767764691E0,-3.230975151E0,4.110245705E0,8.248623848E0
3.770252608E0,-3.216609955E0,4.115034103E0,8.262989044E0
3.772740524E0,-3.226186752E0,4.115034103E0,8.262989044E0
3.775228441E0,-3.235763550E0,4.119822502E0,8.296507835E0
3.777716358E0,-3.259705544E0,4.129399300E0,8.296507835E0
3.780204274E0,-3.245340347E0,4.129399300E0,8.301296234E0
3.782692191E0,-3.259705544E0,4.143764496E0,8.330026627E0
3.785180108E0,-3.254917145E0,4.138976097E0,8.320449829E0
3.787668024E0,-3.283647537E0,4.134187698E0,8.344391823E0
3.790155941E0,-3.283647537E0,4.129399300E0,8.353968620E0
3.792643858E0,-3.293224335E0,4.134187698E0,8.358757019E0
3.795131774E0,-3.278859138E0,4.138976097E0,8.358757019E0
3.797619691E0,-3.278859138E0,4.153341293E0,8.382699013E0
3.800107608E0,-3.283647537E0,4.129399300E0,8.397064209E0
3.802595524E0,-3.278859138E0,4.143764496E0,8.392275810E0
3.805083441E0,-3.283647537E0,4.148552895E0,8.416217804E0
3.807571358E0,-3.283647537E0,4.148552895E0,8.421006203E0
3.810059274E0,-3.288435936E0,4.134187698E0,8.411429405E0
3.812547191E0,-3.298012733E0,4.124610901E0,8.411429405E0
3.815035108E0,-3.302801132E0,4.134187698E0,8.416217804E0
3.817523024E0,-3.293224335E0,4.129399300E0,8.421006203E0
3.820010941E0,-3.293224335E0,4.134187698E0,8.406641006E0
3.822498858E0,-3.298012733E0,4.134187698E0,8.392275810E0
3.824986774E0,-3.283647537E0,4.138976097E0,8.416217804E0
3.827474691E0,-3.283647537E0,4.143764496E0,8.430583000E0
3.829962608E0,-3.283647537E0,4.148552895E0,8.440159798E0
3.832450524E0,-3.264493942E0,4.143764496E0,8.454524994E0
3.834938441E0,-3.264493942E0,4.143764496E0,8.449736595E0
3.837426358E0,-3.264493942E0,4.148552895E0,8.425794601E0
3.839914274E0,-3.269282341E0,4.153341293E0,8.416217804E0
3.842402191E0,-3.259705544E0,4.143764496E0,8.411429405E0
3.844890108E0,-3.259705544E0,4.148552895E0,8.411429405E0
3.847378024E0,-3.264493942E0,4.138976097E0,8.411429405E0
3.849865941E0,-3.259705544E0,4.138976097E0,8.401852608E0
3.852353858E0,-3.264493942E0,4.162918091E0,8.377910614E0
3.854841774E0,-3.264493942E0,4.167706490E0,8.358757019E0
3.857329691E0,-3.259705544E0,4.148552895E0,8.339603424E0
3.859817608E0,-3.269282341E0,4.138976097E0,8.334815025E0
3.862305524E0,-3.269282341E0,4.143764496E0,8.310873032E0
3.864793441E0,-3.250128746E0,4.143764496E0,8.310873032E0
3.867281358E0,-3.240551949E0,4.148552895E0,8.306084633E0
3.869769274E0,-3.235763550E0,4.148552895E0,8.301296234E0
3.872257191E0,-3.240551949E0,4.134187698E0,8.301296234E0
3.874745108E0,-3.230975151E0,4.158129692E0,8.282142639E0
3.877233076E0,-3.226186752E0,4.182071686E0,8.272565842E0
3.879721045E0,-3.235763550E0,4.148552895E0,8.258200645E0
3.882209014E0,-3.226186752E0,4.153341293E0,8.253412247E0
3.884696983E0,-3.230975151E0,4.143764496E0,8.248623848E0
3.887184951E0,-3.230975151E0,4.138976097E0,8.239047050E0
3.889672920E0,-3.235763550E0,4.148552895E0,8.239047050E0
3.892160889E0,-3.230975151E0,4.148552895E0,8.229470253E0
3.894648858E0,-3.235763550E0,4.138976097E0,8.224681854E0
3.897136826E0,-3.226186752E0,4.143764496E0,8.229470253E0
3.899624795E0,-3.216609955E0,4.148552895E0,8.248623848E0
3.902112764E0,-3.235763550E0,4.143764496E0,8.243835449E0
3.904600733E0,-3.250128746E0,4.143764496E0,8.224681854E0
3.907088701E0,-3.250128746E0,4.134187698E0,8.239047050E0
3.909576670E0,-3.254917145E0,4.153341293E0,8.267777443E0
3.912064639E0,-3.245340347E0,4.138976097E0,8.282142639E0
3.914552608E0,-3.230975151E0,4.167706490E0,8.301296234E0
3.917040576E0,-3.226186752E0,4.182071686E0,8.310873032E0
3.919528545E0,-3.226186752E0,4.177283287E0,8.301296234E0
3.922016514E0,-3.235763550E0,4.172494888E0,8.291719437E0
3.924504483E0,-3.235763550E0,4.191648483E0,8.301296234E0
3.926992451E0,-3.226186752E0,4.182071686E0,8.291719437E0
3.929480420E0,-3.216609955E0,4.196436882E0,8.306084633E0
3.931968389E0,-3.216609955E0,4.182071686E0,8.291719437E0
3.934456358E0,-3.221398354E0,4.177283287E0,8.272565842E0
3.936944326E0,-3.192667961E0,4.172494888E0,8.267777443E0
3.939432295E0,-3.207033157E0,4.196436882E0,8.262989044E0
3.941920264E0,-3.192667961E0,4.196436882E0,8.258200645E0
3.944408233E0,-3.202244759E0,4.186860085E0,8.253412247E0
3.946896201E0,-3.202244759E0,4.182071686E0,8.262989044E0
3.949384170E0,-3.202244759E0,4.182071686E0,8.253412247E0
3.951872139E0,-3.211821556E0,4.172494888E0,8.248623848E0
3.954360108E0,-3.216609955E0,4.148552895E0,8.229470253E0
3.956848076E0,-3.207033157E0,4.158129692E0,8.219893456E0
3.959336045E0,-3.207033157E0,4.162918091E0,8.200738907E0
3.961824014E0,-3.207033157E0,4.158129692E0,8.191162109E0
3.964311983E0,-3.207033157E0,4.153341293E0,8.181585312E0
3.966799951E0,-3.197456360E0,4.153341293E0,8.210315704E0
3.969287920E0,-3.202244759E0,4.162918091E0,8.229470253E0
3.971775889E0,-3.202244759E0,4.167706490E0,8.224681854E0
3.974263858E0,-3.202244759E0,4.162918091E0,8.224681854E0
3.976751826E0,-3.202244759E0,4.162918091E0,8.234258652E0
3.979239795E0,-3.187879562E0,4.162918091E0,8.234258652E0
3.981727764E0,-3.192667961E0,4.162918091E0,8.239047050E0
3.984215733E0,-3.187879562E0,4.158129692E0,8.243835449E0
3.986703701E0,-3.202244759E0,4.153341293E0,8.234258652E0
3.989191670E0,-3.197456360E0,4.158129692E0,8.243835449E0
3.991679587E0,-3.197456360E0,4.162918091E0,8.243835449E0
3.994167503E0,-3.221398354E0,4.158129692E0,8.253412247E0
3.996655420E0,-3.230975151E0,4.167706490E0,8.248623848E0
3.999143337E0,-3.240551949E0,4.167706490E0,8.258200645E0
4.001631253E0,-3.250128746E0,4.167706490E0,8.267777443E0
4.004119170E0,-3.235763550E0,4.162918091E0,8.291719437E0
4.006607087E0,-3.250128746E0,4.172494888E0,8.286931038E0
4.009095003E0,-3.245340347E0,4.167706490E0,8.277354240E0
4.011582920E0,-3.235763550E0,4.182071686E0,8.301296234E0
4.014070837E0,-3.240551949E0,4.191648483E0,8.291719437E0
4.016558753E0,-3.240551949E0,4.191648483E0,8.291719437E0
4.019046670E0,-3.230975151E0,4.182071686E0,8.296507835E0
4.021534587E0,-3.230975151E0,4.186860085E0,8.286931038E0
4.024022503E0,-3.226186752E0,4.177283287E0,8.291719437E0
4.026510420E0,-3.245340347E0,4.172494888E0,8.277354240E0
4.028998337E0,-3.254917145E0,4.177283287E0,8.272565842E0
4.031486253E0,-3.240551949E0,4.177283287E0,8.282142639E0
4.033974170E0,-3.226186752E0,4.162918091E0,8.267777443E0
4.036462087E0,-3.240551949E0,4.153341293E0,8.258200645E0
4.038950003E0,-3.240551949E0,4.162918091E0,8.258200645E0
4.041437920E0,-3.230975151E0,4.162918091E0,8.282142639E0
4.043925837E0,-3.240551949E0,4.158129692E0,8.286931038E0
4.046413753E0,-3.250128746E0,4.153341293E0,8.277354240E0
4.048901670E0,-3.250128746E0,4.148552895E0,8.282142639E0
4.051389587E0,-3.269282341E0,4.134187698E0,8.286931038E0
4.053877503E0,-3.274070740E0,4.143764496E0,8.286931038E0
4.056365420E0,-3.288435936E0,4.158129692E0,8.306084633E0
4.058853337E0,-3.298012733E0,4.153341293E0,8.325238228E0
4.061341253E0,-3.293224335E0,4.153341293E0,8.310873032E0
4.063829170E0,-3.283647537E0,4.162918091E0,8.310873032E0
4.066317087E0,-3.278859138E0,4.158129692E0,8.325238228E0
4.068805003E0,-3.293224335E0,4.167706490E0,8.363545418E0
4.071292920E0,-3.283647537E0,4.167706490E0,8.353968620E0
4.073780837E0,-3.302801132E0,4.172494888E0,8.373122215E0
4.076268753E0,-3.293224335E0,4.172494888E0,8.363545418E0
4.078756670E0,-3.293224335E0,4.186860085E0,8.363545418E0
4.081244587E0,-3.302801132E0,4.201225281E0,8.363545418E0
4.083732503E0,-3.293224335E0,4.196436882E0,8.373122215E0
4.086220420E0,-3.288435936E0,4.191648483E0,8.368333817E0
4.088708337E0,-3.307589531E0,4.196436882E0,8.358757019E0
4.091196253E0,-3.307589531E0,4.201225281E0,8.339603424E0
4.093684170E0,-3.302801132E0,4.210802078E0,8.325238228E0
4.096172087E0,-3.288435936E0,4.201225281E0,8.301296234E0
4.098660003E0,-3.293224335E0,4.196436882E0,8.296507835E0
4.101147920E0,-3.288435936E0,4.210802078E0,8.286931038E0
4.103635837E0,-3.274070740E0,4.210802078E0,8.282142639E0
4.106123753E0,-3.278859138E0,4.229955673E0,8.277354240E0
4.108611670E0,-3.269282341E0,4.225167274E0,8.277354240E0
4.111099587E0,-3.259705544E0,4.229955673E0,8.272565842E0
4.113587503E0,-3.283647537E0,4.229955673E0,8.282142639E0
4.116075420E0,-3.283647537E0,4.229955673E0,8.267777443E0
4.118563337E0,-3.288435936E0,4.239532471E0,8.262989044E0
4.121051253E0,-3.278859138E0,4.229955673E0,8.272565842E0
4.123539170E0,-3.283647537E0,4.225167274E0,8.267777443E0
4.126027087E0,-3.283647537E0,4.225167274E0,8.277354240E0
4.128515003E0,-3.274070740E0,4.215590477E0,8.272565842E0
4.131002920E0,-3.278859138E0,4.201225281E0,8.243835449E0
4.133490837E0,-3.278859138E0,4.206013680E0,8.239047050E0
4.135978753E0,-3.264493942E0,4.201225281E0,8.229470253E0
4.138466670E0,-3.259705544E0,4.201225281E0,8.215105057E0
4.140954639E0,-3.274070740E0,4.201225281E0,8.224681854E0
4.143442608E0,-3.264493942E0,4.191648483E0,8.224681854E0
4.145930576E0,-3.264493942E0,4.186860085E0,8.229470253E0
4.148418545E0,-3.250128746E0,4.182071686E0,8.239047050E0
4.150906514E0,-3.254917145E0,4.172494888E0,8.248623848E0
4.153394483E0,-3.235763550E0,4.172494888E0,8.243835449E0
4.155882451E0,-3.230975151E0,4.167706490E0,8.239047050E0
4.158370420E0,-3.240551949E0,4.162918091E0,8.262989044E0
4.160858389E0,-3.245340347E0,4.167706490E0,8.258200645E0
4.163346358E0,-3.254917145E0,4.172494888E0,8.248623848E0
4.165834326E0,-3.264493942E0,4.162918091E0,8.253412247E0
4.168322295E0,-3.269282341E0,4.158129692E0,8.262989044E0
4.170810264E0,-3.274070740E0,4.162918091E0,8.277354240E0
4.173298233E0,-3.254917145E0,4.148552895E0,8.272565842E0
4.175786201E0,-3.254917145E0,4.158129692E0,8.286931038E0
4.178274170E0,-3.245340347E0,4.172494888E0,8.267777443E0
4.180762139E0,-3.254917145E0,4.153341293E0,8.262989044E0
4.183250108E0,-3.259705544E0,4.153341293E0,8.277354240E0
4.185738076E0,-3.269282341E0,4.158129692E0,8.267777443E0
4.188226045E0,-3.240551949E0,4.148552895E0,8.272565842E0
4.190714014E0,-3.240551949E0,4.143764496E0,8.262989044E0
4.193201983E0,-3.254917145E0,4.162918091E0,8.277354240E0
4.195689951E0,-3.254917145E0,4.172494888E0,8.262989044E0
4.198177920E0,-3.250128746E0,4.162918091E0,8.286931038E0
4.200665889E0,-3.235763550E0,4.162918091E0,8.282142639E0
4.203153858E0,-3.235763550E0,4.191648483E0,8.272565842E0
4.205641826E0,-3.250128746E0,4.167706490E0,8.282142639E0
4.208129795E0,-3.254917145E0,4.182071686E0,8.282142639E0
4.210617764E0,-3.254917145E0,4.182071686E0,8.282142639E0
4.213105733E0,-3.254917145E0,4.182071686E0,8.282142639E0
4.215593701E0,-3.259705544E0,4.182071686E0,8.267777443E0
4.218081670E0,-3.259705544E0,4.191648483E0,8.248623848E0
4.220569639E0,-3.245340347E0,4.191648483E0,8.262989044E0
4.223057608E0,-3.240551949E0,4.182071686E0,8.262989044E0
4.225545576E0,-3.240551949E0,4.191648483E0,8.239047050E0
4.228033545E0,-3.230975151E0,4.191648483E0,8.229470253E0
4.230521514E0,-3.235763550E0,4.196436882E0,8.234258652E0
4.233009483E0,-3.230975151E0,4.206013680E0,8.243835449E0
4.235497451E0,-3.230975151E0,4.210802078E0,8.248623848E0
4.237985420E0,-3.235763550E0,4.196436882E0,8.262989044E0
4.240473337E0,-3.230975151E0,4.196436882E0,8.286931038E0
4.242961253E0,-3.221398354E0,4.201225281E0,8.306084633E0
4.245449170E0,-3.235763550E0,4.186860085E0,8.286931038E0
4.247937087E0,-3.226186752E0,4.191648483E0,8.301296234E0
4.250425003E0,-3.216609955E0,4.172494888E0,8.315661430E0
4.252912920E0,-3.216609955E0,4.167706490E0,8.310873032E0
4.255400837E0,-3.230975151E0,4.153341293E0,8.306084633E0
4.257888753E0,-3.226186752E0,4.148552895E0,8.315661430E0
4.260376670E0,-3.245340347E0,4.134187698E0,8.306084633E0
4.262864587E0,-3.259705544E0,4.119822502E0,8.315661430E0
4.265352503E0,-3.250128746E0,4.115034103E0,8.320449829E0
4.267840420E0,-3.269282341E0,4.119822502E0,8.325238228E0
4.270328337E0,-3.274070740E0,4.119822502E0,8.339603424E0
4.272816253E0,-3.269282341E0,4.105457306E0,8.363545418E0
4.275304170E0,-3.240551949E0,4.105457306E0,8.373122215E0
4.277792087E0,-3.245340347E0,4.105457306E0,8.382699013E0
4.280280003E0,-3.254917145E0,4.100668907E0,8.392275810E0
4.282767920E0,-3.259705544E0,4.100668907E0,8.397064209E0
4.285255837E0,-3.264493942E0,4.105457306E0,8.406641006E0
4.287743753E0,-3.269282341E0,4.119822502E0,8.401852608E0
4.290231670E0,-3.269282341E0,4.110245705E0,8.421006203E0
4.292719587E0,-3.302801132E0,4.105457306E0,8.416217804E0
4.295207503E0,-3.336320162E0,4.100668907E0,8.430583000E0
4.297695420E0,-3.336320162E0,4.115034103E0,8.430583000E0
4.300183337E0,-3.331531763E0,4.115034103E0,8.421006203E0
4.302671253E0,-3.317166567E0,4.115034103E0,8.401852608E0
4.305159170E0,-3.312378168E0,4.105457306E0,8.411429405E0
4.307647087E0,-3.331531763E0,4.124610901E0,8.406641006E0
4.310135003E0,-3.326743364E0,4.134187698E0,8.397064209E0
4.312622920E0,-3.331531763E0,4.138976097E0,8.392275810E0
4.315110837E0,-3.321954966E0,4.148552895E0,8.382699013E0
4.317598753E0,-3.331531763E0,4.167706490E0,8.392275810E0
4.320086670E0,-3.321954966E0,4.182071686E0,8.387487411E0
4.322574587E0,-3.317166567E0,4.167706490E0,8.373122215E0
4.325062503E0,-3.317166567E0,4.177283287E0,8.377910614E0
4.327550420E0,-3.321954966E0,4.196436882E0,8.368333817E0
4.330038337E0,-3.345896959E0,4.210802078E0,8.363545418E0
4.332526253E0,-3.331531763E0,4.206013680E0,8.349180222E0
4.335014170E0,-3.331531763E0,4.206013680E0,8.349180222E0
4.337502087E0,-3.326743364E0,4.210802078E0,8.344391823E0
4.339990003E0,-3.331531763E0,4.201225281E0,8.310873032E0
4.342477920E0,-3.326743364E0,4.191648483E0,8.310873032E0
4.344965837E0,-3.312378168E0,4.201225281E0,8.291719437E0
4.347453753E0,-3.307589531E0,4.191648483E0,8.296507835E0
4.349941670E0,-3.307589531E0,4.182071686E0,8.301296234E0
4.352429587E0,-3.302801132E0,4.182071686E0,8.282142639E0
4.354917503E0,-3.288435936E0,4.182071686E0,8.282142639E0
4.357405420E0,-3.302801132E0,4.167706490E0,8.296507835E0
4.359893337E0,-3.302801132E0,4.177283287E0,8.282142639E0
4.362381253E0,-3.288435936E0,4.158129692E0,8.282142639E0
4.364869170E0,-3.302801132E0,4.158129692E0,8.272565842E0
4.367357087E0,-3.307589531E0,4.162918091E0,8.277354240E0
4.369845003E0,-3.312378168E0,4.172494888E0,8.286931038E0
4.372332920E0,-3.321954966E0,4.167706490E0,8.286931038E0
4.374820837E0,-3.317166567E0,4.162918091E0,8.282142639E0
4.377308753E0,-3.307589531E0,4.158129692E0,8.282142639E0
4.379796670E0,-3.307589531E0,4.162918091E0,8.291719437E0
4.382284587E0,-3.331531763E0,4.148552895E0,8.306084633E0
4.384772503E0,-3.331531763E0,4.167706490E0,8.296507835E0
4.387260420E0,-3.341108561E0,4.162918091E0,8.301296234E0
4.389748337E0,-3.350685358E0,4.167706490E0,8.306084633E0
4.392236253E0,-3.350685358E0,4.167706490E0,8.315661430E0
4.394724170E0,-3.345896959E0,4.182071686E0,8.282142639E0
4.397212087E0,-3.350685358E0,4.177283287E0,8.286931038E0
4.399700003E0,-3.341108561E0,4.172494888E0,8.286931038E0
4.402187920E0,-3.336320162E0,4.177283287E0,8.277354240E0
4.404675837E0,-3.341108561E0,4.196436882E0,8.286931038E0
4.407163753E0,-3.331531763E0,4.206013680E0,8.306084633E0
4.409651670E0,-3.336320162E0,4.196436882E0,8.306084633E0
4.412139587E0,-3.336320162E0,4.215590477E0,8.315661430E0
4.414627503E0,-3.331531763E0,4.206013680E0,8.310873032E0
4.417115420E0,-3.312378168E0,4.201225281E0,8.320449829E0
4.419603337E0,-3.302801132E0,4.210802078E0,8.325238228E0
4.422091253E0,-3.298012733E0,4.215590477E0,8.315661430E0
4.424579170E0,-3.321954966E0,4.210802078E0,8.306084633E0
4.427067087E0,-3.341108561E0,4.206013680E0,8.306084633E0
4.429555055E0,-3.312378168E0,4.220378876E0,8.286931038E0
4.432043024E0,-3.312378168E0,4.210802078E0,8.277354240E0
4.434530993E0,-3.312378168E0,4.220378876E0,8.267777443E0
4.437018962E0,-3.307589531E0,4.206013680E0,8.262989044E0
4.439506930E0,-3.307589531E0,4.206013680E0,8.258200645E0
4.441994899E0,-3.307589531E0,4.201225281E0,8.258200645E0
4.444482868E0,-3.302801132E0,4.182071686E0,8.234258652E0
4.446970837E0,-3.302801132E0,4.196436882E0,8.219893456E0
4.449458805E0,-3.283647537E0,4.186860085E0,8.200738907E0
4.451946774E0,-3.278859138E0,4.172494888E0,8.191162109E0
4.454434743E0,-3.293224335E0,4.186860085E0,8.172008514E0
4.456922712E0,-3.293224335E0,4.186860085E0,8.181585312E0
4.459410680E0,-3.278859138E0,4.172494888E0,8.191162109E0
4.461898649E0,-3.269282341E0,4.167706490E0,8.191162109E0
4.464386618E0,-3.269282341E0,4.172494888E0,8.195950508E0
4.466874587E0,-3.269282341E0,4.172494888E0,8.205527306E0
4.469362555E0,-3.274070740E0,4.177283287E0,8.219893456E0
4.471850524E0,-3.269282341E0,4.167706490E0,8.210315704E0
4.474338493E0,-3.259705544E0,4.148552895E0,8.219893456E0
4.476826462E0,-3.274070740E0,4.158129692E0,8.229470253E0
4.479314430E0,-3.274070740E0,4.158129692E0,8.253412247E0
4.481802399E0,-3.274070740E0,4.167706490E0,8.253412247E0
4.484290368E0,-3.269282341E0,4.148552895E0,8.262989044E0
4.486778337E0,-3.269282341E0,4.138976097E0,8.262989044E0
4.489266305E0,-3.278859138E0,4.138976097E0,8.267777443E0
4.491754274E0,-3.278859138E0,4.134187698E0,8.267777443E0
4.494242243E0,-3.278859138E0,4.124610901E0,8.291719437E0
4.496730212E0,-3.283647537E0,4.129399300E0,8.315661430E0
4.499218180E0,-3.293224335E0,4.134187698E0,8.339603424E0
4.501706149E0,-3.283647537E0,4.134187698E0,8.358757019E0
4.504194118E0,-3.293224335E0,4.124610901E0,8.363545418E0
4.506682087E0,-3.317166567E0,4.134187698E0,8.368333817E0
4.509170055E0,-3.307589531E0,4.143764496E0,8.382699013E0
4.511658024E0,-3.298012733E0,4.153341293E0,8.401852608E0
4.514145941E0,-3.307589531E0,4.167706490E0,8.416217804E0
4.516633858E0,-3.321954966E0,4.153341293E0,8.435371399E0
4.519121774E0,-3.321954966E0,4.162918091E0,8.444948196E0
4.521609691E0,-3.312378168E0,4.148552895E0,8.444948196E0
4.524097608E0,-3.307589531E0,4.158129692E0,8.440159798E0
4.526585524E0,-3.307589531E0,4.138976097E0,8.440159798E0
4.529073441E0,-3.302801132E0,4.153341293E0,8.435371399E0
4.531561358E0,-3.302801132E0,4.153341293E0,8.416217804E0
4.534049274E0,-3.278859138E0,4.162918091E0,8.416217804E0
4.536537191E0,-3.274070740E0,4.153341293E0,8.397064209E0
4.539025108E0,-3.274070740E0,4.158129692E0,8.406641006E0
4.541513024E0,-3.264493942E0,4.167706490E0,8.421006203E0
4.544000941E0,-3.269282341E0,4.148552895E0,8.382699013E0
4.546488858E0,-3.235763550E0,4.153341293E0,8.373122215E0
4.548976774E0,-3.235763550E0,4.158129692E0,8.358757019E0
4.551464691E0,-3.221398354E0,4.162918091E0,8.339603424E0
4.553952608E0,-3.235763550E0,4.167706490E0,8.325238228E0
4.556440524E0,-3.245340347E0,4.162918091E0,8.315661430E0
4.558928441E0,-3.254917145E0,4.158129692E0,8.315661430E0
4.561416358E0,-3.254917145E0,4.172494888E0,8.296507835E0
4.563904274E0,-3.259705544E0,4.167706490E0,8.291719437E0
4.566392191E0,-3.254917145E0,4.167706490E0,8.277354240E0
4.568880108E0,-3.269282341E0,4.158129692E0,8.277354240E0
4.571368024E0,-3.278859138E0,4.167706490E0,8.262989044E0
4.573855941E0,-3.283647537E0,4.158129692E0,8.248623848E0
4.576343858E0,-3.264493942E0,4.148552895E0,8.262989044E0
4.578831774E0,-3.269282341E0,4.158129692E0,8.262989044E0
4.581319691E0,-3.269282341E0,4.158129692E0,8.243835449E0
4.583807608E0,-3.274070740E0,4.158129692E0,8.234258652E0
4.586295524E0,-3.278859138E0,4.153341293E0,8.229470253E0
4.588783441E0,-3.274070740E0,4.167706490E0,8.229470253E0
4.591271358E0,-3.269282341E0,4.158129692E0,8.219893456E0
4.593759274E0,-3.274070740E0,4.153341293E0,8.229470253E0
4.596247191E0,-3.288435936E0,4.143764496E0,8.224681854E0
4.598735108E0,-3.283647537E0,4.138976097E0,8.234258652E0
4.601223024E0,-3.274070740E0,4.153341293E0,8.234258652E0
4.603710941E0,-3.293224335E0,4.153341293E0,8.243835449E0
4.606198858E0,-3.302801132E0,4.148552895E0,8.239047050E0
4.608686774E0,-3.288435936E0,4.162918091E0,8.253412247E0
4.611174691E0,-3.283647537E0,4.158129692E0,8.258200645E0
4.613662608E0,-3.283647537E0,4.158129692E0,8.258200645E0
4.616150524E0,-3.278859138E0,4.143764496E0,8.267777443E0
4.618638441E0,-3.278859138E0,4.153341293E0,8.258200645E0
4.621126358E0,-3.283647537E0,4.148552895E0,8.243835449E0
4.623614274E0,-3.278859138E0,4.148552895E0,8.253412247E0
4.626102191E0,-3.283647537E0,4.143764496E0,8.239047050E0
4.628590108E0,-3.293224335E0,4.134187698E0,8.253412247E0
4.631078024E0,-3.278859138E0,4.143764496E0,8.248623848E0
4.633565941E0,-3.293224335E0,4.167706490E0,8.253412247E0
4.636053858E0,-3.278859138E0,4.158129692E0,8.267777443E0
4.638541774E0,-3.274070740E0,4.158129692E0,8.267777443E0
4.641029691E0,-3.278859138E0,4.162918091E0,8.277354240E0
4.643517608E0,-3.293224335E0,4.182071686E0,8.277354240E0
4.646005524E0,-3.288435936E0,4.177283287E0,8.286931038E0
4.648493441E0,-3.298012733E0,4.191648483E0,8.291719437E0
4.650981358E0,-3.293224335E0,4.206013680E0,8.310873032E0
4.653469274E0,-3.283647537E0,4.196436882E0,8.320449829E0
4.655957191E0,-3.288435936E0,4.206013680E0,8.330026627E0
4.658445108E0,-3.298012733E0,4.206013680E0,8.330026627E0
4.660933024E0,-3.317166567E0,4.210802078E0,8.330026627E0
4.663420941E0,-3.321954966E0,4.206013680E0,8.339603424E0
4.665908858E0,-3.331531763E0,4.206013680E0,8.349180222E0
4.668396774E0,-3.341108561E0,4.210802078E0,8.353968620E0
4.670884691E0,-3.326743364E0,4.215590477E0,8.353968620E0
4.673372608E0,-3.307589531E0,4.215590477E0,8.344391823E0
4.675860524E0,-3.312378168E0,4.201225281E0,8.334815025E0
4.678348441E0,-3.298012733E0,4.215590477E0,8.344391823E0
4.680836358E0,-3.298012733E0,4.215590477E0,8.349180222E0
4.683324274E0,-3.302801132E0,4.206013680E0,8.330026627E0
4.685812191E0,-3.293224335E0,4.210802078E0,8.291719437E0
4.688300108E0,-3.312378168E0,4.206013680E0,8.277354240E0
4.690788024E0,-3.317166567E0,4.201225281E0,8.267777443E0
4.693275941E0,-3.321954966E0,4.201225281E0,8.262989044E0
4.695763858E0,-3.307589531E0,4.196436882E0,8.248623848E0
4.698251774E0,-3.312378168E0,4.186860085E0,8.253412247E0
4.700739691E0,-3.312378168E0,4.177283287E0,8.258200645E0
4.703227608E0,-3.302801132E0,4.182071686E0,8.253412247E0
4.705715524E0,-3.278859138E0,4.182071686E0,8.224681854E0
4.708203441E0,-3.288435936E0,4.177283287E0,8.229470253E0
4.710691358E0,-3.288435936E0,4.182071686E0,8.239047050E0
4.713179274E0,-3.278859138E0,4.177283287E0,8.248623848E0
4.715667191E0,-3.293224335E0,4.191648483E0,8.239047050E0
4.718155108E0,-3.298012733E0,4.177283287E0,8.253412247E0
4.720643024E0,-3.298012733E0,4.177283287E0,8.262989044E0
4.723130941E0,-3.293224335E0,4.172494888E0,8.258200645E0
4.725618858E0,-3.293224335E0,4.167706490E0,8.248623848E0
4.728106774E0,-3.293224335E0,4.162918091E0,8.253412247E0
4.730594691E0,-3.307589531E0,4.158129692E0,8.262989044E0
4.733082608E0,-3.298012733E0,4.172494888E0,8.267777443E0
4.735570524E0,-3.298012733E0,4.162918091E0,8.258200645E0
4.738058441E0,-3.283647537E0,4.153341293E0,8.253412247E0
4.740546358E0,-3.278859138E0,4.167706490E0,8.262989044E0
4.743034274E0,-3.264493942E0,4.182071686E0,8.262989044E0
4.745522191E0,-3.264493942E0,4.177283287E0,8.262989044E0
4.748010108E0,-3.264493942E0,4.186860085E0,8.248623848E0
4.750498024E0,-3.269282341E0,4.167706490E0,8.258200645E0
4.752985941E0,-3.278859138E0,4.172494888E0,8.272565842E0
4.755473858E0,-3.283647537E0,4.177283287E0,8.282142639E0
4.757961774E0,-3.278859138E0,4.158129692E0,8.296507835E0
4.760449691E0,-3.274070740E0,4.182071686E0,8.272565842E0
4.762937608E0,-3.269282341E0,4.177283287E0,8.282142639E0
4.765425524E0,-3.288435936E0,4.177283287E0,8.282142639E0
4.767913441E0,-3.283647537E0,4.177283287E0,8.282142639E0
4.770401358E0,-3.278859138E0,4.177283287E0,8.282142639E0
4.772889274E0,-3.298012733E0,4.182071686E0,8.301296234E0
4.775377191E0,-3.278859138E0,4.182071686E0,8.310873032E0
4.777865108E0,-3.278859138E0,4.196436882E0,8.320449829E0
4.780353024E0,-3.274070740E0,4.186860085E0,8.306084633E0
4.782840941E0,-3.274070740E0,4.182071686E0,8.282142639E0
4.785328858E0,-3.264493942E0,4.177283287E0,8.262989044E0
4.787816774E0,-3.278859138E0,4.172494888E0,8.243835449E0
4.790304691E0,-3.264493942E0,4.186860085E0,8.234258652E0
4.792792608E0,-3.269282341E0,4.186860085E0,8.243835449E0
4.795280524E0,-3.254917145E0,4.186860085E0,8.248623848E0
4.797768441E0,-3.250128746E0,4.172494888E0,8.258200645E0
4.800256358E0,-3.240551949E0,4.167706490E0,8.267777443E0
4.802744274E0,-3.254917145E0,4.172494888E0,8.296507835E0
4.805232191E0,-3.259705544E0,4.191648483E0,8.286931038E0
4.807720108E0,-3.269282341E0,4.196436882E0,8.296507835E0
4.810208024E0,-3.274070740E0,4.186860085E0,8.315661430E0
4.812695941E0,-3.283647537E0,4.206013680E0,8.310873032E0
4.815183858E0,-3.298012733E0,4.201225281E0,8.296507835E0
4.817671774E0,-3.278859138E0,4.206013680E0,8.291719437E0
4.820159743E0,-3.278859138E0,4.201225281E0,8.277354240E0
4.822647712E0,-3.288435936E0,4.191648483E0,8.282142639E0
4.825135680E0,-3.288435936E0,4.191648483E0,8.267777443E0
4.827623649E0,-3.293224335E0,4.196436882E0,8.272565842E0
4.830111618E0,-3.293224335E0,4.196436882E0,8.267777443E0
4.832599587E0,-3.298012733E0,4.201225281E0,8.267777443E0
4.835087555E0,-3.298012733E0,4.177283287E0,8.267777443E0
4.837575524E0,-3.283647537E0,4.177283287E0,8.277354240E0
4.840063493E0,-3.278859138E0,4.186860085E0,8.277354240E0
4.842551462E0,-3.274070740E0,4.167706490E0,8.282142639E0
4.845039430E0,-3.264493942E0,4.172494888E0,8.291719437E0
4.847527399E0,-3.274070740E0,4.177283287E0,8.291719437E0
4.850015368E0,-3.259705544E0,4.172494888E0,8.296507835E0
4.852503337E0,-3.278859138E0,4.172494888E0,8.310873032E0
4.854991305E0,-3.269282341E0,4.186860085E0,8.306084633E0
4.857479274E0,-3.264493942E0,4.167706490E0,8.291719437E0
4.859967243E0,-3.274070740E0,4.162918091E0,8.301296234E0
4.862455212E0,-3.269282341E0,4.172494888E0,8.310873032E0
4.864943180E0,-3.269282341E0,4.148552895E0,8.296507835E0
4.867431149E0,-3.264493942E0,4.148552895E0,8.301296234E0
4.869919118E0,-3.269282341E0,4.148552895E0,8.296507835E0
4.872407087E0,-3.264493942E0,4.138976097E0,8.301296234E0
4.874895055E0,-3.278859138E0,4.134187698E0,8.296507835E0
4.877383024E0,-3.269282341E0,4.124610901E0,8.301296234E0
4.879870993E0,-3.274070740E0,4.119822502E0,8.325238228E0
4.882358962E0,-3.283647537E0,4.138976097E0,8.344391823E0
4.884846930E0,-3.283647537E0,4.148552895E0,8.373122215E0
4.887334899E0,-3.283647537E0,4.153341293E0,8.373122215E0
4.889822816E0,-3.278859138E0,4.134187698E0,8.363545418E0
4.892310733E0,-3.283647537E0,4.153341293E0,8.363545418E0
4.894798649E0,-3.288435936E0,4.148552895E0,8.358757019E0
4.897286566E0,-3.298012733E0,4.143764496E0,8.339603424E0
4.899774483E0,-3.298012733E0,4.143764496E0,8.339603424E0
4.902262399E0,-3.293224335E0,4.138976097E0,8.349180222E0
4.904750316E0,-3.293224335E0,4.158129692E0,8.358757019E0
4.907238233E0,-3.298012733E0,4.153341293E0,8.363545418E0
4.909726149E0,-3.288435936E0,4.167706490E0,8.353968620E0
4.912214066E0,-3.293224335E0,4.158129692E0,8.344391823E0
4.914701983E0,-3.293224335E0,4.153341293E0,8.339603424E0
4.917189899E0,-3.288435936E0,4.158129692E0,8.363545418E0
4.919677816E0,-3.278859138E0,4.158129692E0,8.353968620E0
4.922165733E0,-3.274070740E0,4.153341293E0,8.349180222E0
4.924653649E0,-3.254917145E0,4.153341293E0,8.330026627E0
4.927141566E0,-3.250128746E0,4.158129692E0,8.320449829E0
4.929629483E0,-3.259705544E0,4.143764496E0,8.315661430E0
4.932117399E0,-3.259705544E0,4.143764496E0,8.310873032E0
4.934605316E0,-3.254917145E0,4.148552895E0,8.296507835E0
4.937093233E0,-3.264493942E0,4.153341293E0,8.282142639E0
4.939581149E0,-3.298012733E0,4.162918091E0,8.291719437E0
4.942069066E0,-3.293224335E0,4.167706490E0,8.306084633E0
4.944556983E0,-3.298012733E0,4.186860085E0,8.310873032E0
4.947044899E0,-3.307589531E0,4.182071686E0,8.306084633E0
4.949532816E0,-3.307589531E0,4.186860085E0,8.325238228E0
4.952020733E0,-3.298012733E0,4.191648483E0,8.339603424E0
4.954508649E0,-3.302801132E0,4.196436882E0,8.325238228E0
4.956996566E0,-3.321954966E0,4.196436882E0,8.306084633E0
4.959484483E0,-3.312378168E0,4.215590477E0,8.301296234E0
4.961972399E0,-3.331531763E0,4.215590477E0,8.310873032E0
4.964460316E0,-3.336320162E0,4.215590477E0,8.296507835E0
4.966948233E0,-3.345896959E0,4.220378876E0,8.301296234E0
4.969436149E0,-3.350685358E0,4.234744072E0,8.310873032E0
4.971924066E0,-3.336320162E0,4.244320869E0,8.315661430E0
4.974411983E0,-3.355473757E0,4.239532471E0,8.306084633E0
4.976899899E0,-3.355473757E0,4.234744072E0,8.306084633E0
4.979387816E0,-3.345896959E0,4.244320869E0,8.296507835E0
4.981875733E0,-3.355473757E0,4.234744072E0,8.310873032E0
4.984363649E0,-3.345896959E0,4.239532471E0,8.315661430E0
4.986851566E0,-3.336320162E0,4.229955673E0,8.315661430E0
4.989339483E0,-3.331531763E0,4.215590477E0,8.301296234E0
4.991827399E0,-3.317166567E0,4.220378876E0,8.301296234E0
4.994315316E0,-3.307589531E0,4.210802078E0,8.296507835E0
4.996803233E0,-3.317166567E0,4.210802078E0,8.296507835E0
4.999291149E0,-3.307589531E0,4.215590477E0,8.291719437E0
5.001779066E0,-3.288435936E0,4.206013680E0,8.277354240E0
5.004266983E0,-3.298012733E0,4.206013680E0,8.277354240E0
5.006754899E0,-3.269282341E0,4.191648483E0,8.262989044E0
5.009242816E0,-3.288435936E0,4.182071686E0,8.272565842E0
5.011730733E0,-3.288435936E0,4.177283287E0,8.277354240E0
5.014218649E0,-3.274070740E0,4.172494888E0,8.253412247E0
5.016706566E0,-3.278859138E0,4.177283287E0,8.258200645E0
5.019194483E0,-3.278859138E0,4.167706490E0,8.248623848E0
5.021682399E0,-3.283647537E0,4.172494888E0,8.258200645E0
5.024170316E0,-3.278859138E0,4.167706490E0,8.253412247E0
5.026658233E0,-3.264493942E0,4.186860085E0,8.243835449E0
5.029146149E0,-3.264493942E0,4.172494888E0,8.210315704E0
5.031634066E0,-3.269282341E0,4.162918091E0,8.210315704E0
5.034121983E0,-3.278859138E0,4.167706490E0,8.215105057E0
5.036609899E0,-3.278859138E0,4.172494888E0,8.215105057E0
5.039097816E0,-3.264493942E0,4.167706490E0,8.229470253E0
5.041585733E0,-3.269282341E0,4.172494888E0,8.243835449E0
5.044073649E0,-3.259705544E0,4.167706490E0,8.224681854E0
5.046561566E0,-3.259705544E0,4.177283287E0,8.205527306E0
5.049049483E0,-3.278859138E0,4.182071686E0,8.229470253E0
5.051537399E0,-3.278859138E0,4.186860085E0,8.215105057E0
5.054025316E0,-3.259705544E0,4.186860085E0,8.234258652E0
5.056513233E0,-3.269282341E0,4.186860085E0,8.243835449E0
5.059001149E0,-3.264493942E0,4.196436882E0,8.262989044E0
5.061489066E0,-3.250128746E0,4.191648483E0,8.262989044E0
5.063976983E0,-3.254917145E0,4.196436882E0,8.253412247E0
5.066464899E0,-3.278859138E0,4.206013680E0,8.253412247E0
5.068952816E0,-3.278859138E0,4.201225281E0,8.277354240E0
5.071440733E0,-3.283647537E0,4.210802078E0,8.267777443E0
5.073928649E0,-3.288435936E0,4.210802078E0,8.262989044E0
5.076416566E0,-3.293224335E0,4.201225281E0,8.262989044E0
5.078904483E0,-3.293224335E0,4.206013680E0,8.277354240E0
5.081392399E0,-3.278859138E0,4.206013680E0,8.301296234E0
5.083880316E0,-3.274070740E0,4.210802078E0,8.310873032E0
5.086368233E0,-3.259705544E0,4.215590477E0,8.286931038E0
5.088856149E0,-3.269282341E0,4.225167274E0,8.320449829E0
5.091344066E0,-3.264493942E0,4.220378876E0,8.315661430E0
5.093831983E0,-3.264493942E0,4.206013680E0,8.330026627E0
5.096319899E0,-3.274070740E0,4.206013680E0,8.306084633E0
5.098807816E0,-3.283647537E0,4.206013680E0,8.306084633E0
5.101295733E0,-3.278859138E0,4.196436882E0,8.306084633E0
5.103783649E0,-3.278859138E0,4.182071686E0,8.291719437E0
5.106271566E0,-3.283647537E0,4.167706490E0,8.291719437E0
5.108759483E0,-3.278859138E0,4.196436882E0,8.296507835E0
5.111247399E0,-3.278859138E0,4.177283287E0,8.306084633E0
5.113735316E0,-3.254917145E0,4.177283287E0,8.291719437E0
5.116223233E0,-3.264493942E0,4.177283287E0,8.296507835E0
5.118711149E0,-3.250128746E0,4.162918091E0,8.291719437E0
5.121199066E0,-3.245340347E0,4.162918091E0,8.282142639E0
5.123686983E0,-3.254917145E0,4.167706490E0,8.267777443E0
5.126174899E0,-3.269282341E0,4.153341293E0,8.272565842E0
5.128662816E0,-3.269282341E0,4.153341293E0,8.262989044E0
5.131150733E0,-3.254917145E0,4.148552895E0,8.253412247E0
5.133638649E0,-3.250128746E0,4.158129692E0,8.248623848E0
5.136126566E0,-3.259705544E0,4.167706490E0,8.243835449E0
5.138614483E0,-3.245340347E0,4.158129692E0,8.248623848E0
5.141102399E0,-3.230975151E0,4.148552895E0,8.248623848E0
5.143590316E0,-3.230975151E0,4.158129692E0,8.253412247E0
5.146078233E0,-3.226186752E0,4.172494888E0,8.258200645E0
5.148566149E0,-3.250128746E0,4.158129692E0,8.248623848E0
5.151054066E0,-3.250128746E0,4.158129692E0,8.253412247E0
5.153541983E0,-3.245340347E0,4.162918091E0,8.243835449E0
5.156029899E0,-3.259705544E0,4.158129692E0,8.248623848E0
5.158517816E0,-3.250128746E0,4.167706490E0,8.262989044E0
5.161005733E0,-3.250128746E0,4.158129692E0,8.267777443E0
5.163493649E0,-3.264493942E0,4.148552895E0,8.262989044E0
5.165981566E0,-3.250128746E0,4.162918091E0,8.272565842E0
5.168469483E0,-3.250128746E0,4.172494888E0,8.272565842E0
5.170957399E0,-3.254917145E0,4.177283287E0,8.282142639E0
5.173445316E0,-3.264493942E0,4.177283287E0,8.320449829E0
5.175933233E0,-3.259705544E0,4.186860085E0,8.325238228E0
5.178421149E0,-3.278859138E0,4.186860085E0,8.310873032E0
5.180909066E0,-3.283647537E0,4.186860085E0,8.315661430E0
5.183396983E0,-3.293224335E0,4.172494888E0,8.330026627E0
5.185884899E0,-3.293224335E0,4.186860085E0,8.315661430E0
5.188372816E0,-3.312378168E0,4.172494888E0,8.334815025E0
5.190860733E0,-3.317166567E0,4.172494888E0,8.334815025E0
5.193348649E0,-3.312378168E0,4.177283287E0,8.310873032E0
5.195836566E0,-3.307589531E0,4.162918091E0,8.325238228E0
5.198324483E0,-3.321954966E0,4.167706490E0,8.296507835E0
5.200812399E0,-3.321954966E0,4.167706490E0,8.286931038E0
5.203300316E0,-3.307589531E0,4.158129692E0,8.301296234E0
5.205788233E0,-3.288435936E0,4.158129692E0,8.320449829E0
5.208276149E0,-3.293224335E0,4.167706490E0,8.334815025E0
5.210764066E0,-3.298012733E0,4.172494888E0,8.310873032E0
5.213251983E0,-3.283647537E0,4.177283287E0,8.306084633E0
5.215739899E0,-3.283647537E0,4.182071686E0,8.310873032E0
5.218227816E0,-3.278859138E0,4.162918091E0,8.320449829E0
5.220715733E0,-3.298012733E0,4.158129692E0,8.330026627E0
5.223203649E0,-3.298012733E0,4.177283287E0,8.334815025E0
5.225691566E0,-3.298012733E0,4.167706490E0,8.330026627E0
5.228179483E0,-3.312378168E0,4.172494888E0,8.330026627E0
5.230667399E0,-3.317166567E0,4.162918091E0,8.344391823E0
5.233155316E0,-3.321954966E0,4.167706490E0,8.344391823E0
5.235643233E0,-3.336320162E0,4.177283287E0,8.344391823E0
5.238131149E0,-3.321954966E0,4.186860085E0,8.358757019E0
5.240619066E0,-3.321954966E0,4.182071686E0,8.358757019E0
5.243106983E0,-3.345896959E0,4.177283287E0,8.387487411E0
