"Time (s)","Gyroscope x (rad/s)","Gyroscope y (rad/s)","Gyroscope z (rad/s)"
9.041984700E-2,-7.110634446E-2,-5.605949834E-2,5.512739345E-2
9.295391000E-2,-7.323687524E-2,-5.712476373E-2,6.045371294E-2
9.548963900E-2,-7.643266767E-2,-5.819002539E-2,6.364950538E-2
9.801823300E-2,-7.962846011E-2,-6.032055244E-2,6.791055948E-2
1.005062530E-1,-8.282424510E-2,-6.138581783E-2,7.110634446E-2
1.029942220E-1,-8.708529919E-2,-6.351634115E-2,7.323687524E-2
1.054821910E-1,-9.134636074E-2,-6.351634115E-2,7.430213690E-2
1.079701600E-1,-9.454214573E-2,-6.458161026E-2,7.749792933E-2
1.104581280E-1,-9.880319983E-2,-6.671213359E-2,7.856319100E-2
1.129460970E-1,-1.009337306E-1,-6.671213359E-2,7.962846011E-2
1.154340660E-1,-1.041295230E-1,-6.777740270E-2,8.069372177E-2
1.179220350E-1,-1.051947847E-1,-6.884266436E-2,8.175898343E-2
1.204100030E-1,-1.073253155E-1,-6.884266436E-2,8.282424510E-2
1.228979720E-1,-1.083905771E-1,-6.777740270E-2,8.388951421E-2
1.253859410E-1,-1.105211005E-1,-6.777740270E-2,8.388951421E-2
1.278739100E-1,-1.105211005E-1,-6.671213359E-2,8.388951421E-2
1.303618780E-1,-1.115863696E-1,-6.564687192E-2,8.282424510E-2
1.328498470E-1,-1.115863696E-1,-6.458161026E-2,8.282424510E-2
1.353378160E-1,-1.126516312E-1,-6.245107949E-2,8.282424510E-2
1.378257850E-1,-1.115863696E-1,-6.138581783E-2,8.282424510E-2
1.403137530E-1,-1.115863696E-1,-5.925529078E-2,8.282424510E-2
1.428017220E-1,-1.115863696E-1,-5.712476373E-2,8.282424510E-2
1.452896910E-1,-1.105211005E-1,-5.605949834E-2,8.282424510E-2
1.477776600E-1,-1.094558388E-1,-5.499423668E-2,8.175898343E-2
1.502656280E-1,-1.083905771E-1,-5.392897129E-2,8.175898343E-2
1.527535970E-1,-1.073253155E-1,-5.286370963E-2,8.175898343E-2
1.552415660E-1,-1.062600464E-1,-5.286370963E-2,8.069372177E-2
1.577295350E-1,-1.051947847E-1,-5.179844424E-2,8.069372177E-2
1.602175030E-1,-1.041295230E-1,-5.073318258E-2,7.962846011E-2
1.627054720E-1,-1.030642539E-1,-5.073318258E-2,7.962846011E-2
1.651934410E-1,-1.030642539E-1,-5.073318258E-2,7.856319100E-2
1.676814100E-1,-1.019989923E-1,-5.073318258E-2,7.749792933E-2
1.701693780E-1,-1.019989923E-1,-5.073318258E-2,7.643266767E-2
1.726573470E-1,-1.009337306E-1,-4.966791719E-2,7.536740601E-2
1.751453160E-1,-1.009337306E-1,-4.966791719E-2,7.430213690E-2
1.776332850E-1,-9.986846894E-2,-4.966791719E-2,7.217161357E-2
1.801212530E-1,-9.986846894E-2,-4.966791719E-2,7.110634446E-2
1.826092220E-1,-9.986846894E-2,-4.860265180E-2,6.897582114E-2
1.850971910E-1,-9.880319983E-2,-4.753739014E-2,6.791055948E-2
1.875851600E-1,-9.773793817E-2,-4.647212476E-2,6.578002870E-2
1.900731280E-1,-9.773793817E-2,-4.647212476E-2,6.364950538E-2
1.925610970E-1,-9.667267650E-2,-4.434159771E-2,6.045371294E-2
1.950490660E-1,-9.560741484E-2,-4.327633604E-2,5.725792050E-2
1.975370350E-1,-9.560741484E-2,-4.114580899E-2,5.512739345E-2
2.000250030E-1,-9.454214573E-2,-3.901528195E-2,5.193160102E-2
2.025129720E-1,-9.347688407E-2,-3.688475490E-2,4.980107397E-2
2.050009410E-1,-9.241162241E-2,-3.368896246E-2,4.767054692E-2
2.074889100E-1,-9.028109163E-2,-3.262370080E-2,4.447475821E-2
2.099768780E-1,-8.921582997E-2,-2.942790836E-2,4.127896577E-2
2.124648470E-1,-8.708529919E-2,-2.729738131E-2,3.808317333E-2
2.149528160E-1,-8.495477587E-2,-2.516685426E-2,3.488738462E-2
2.174407850E-1,-8.282424510E-2,-2.410159074E-2,3.275685757E-2
2.199287530E-1,-8.069372177E-2,-2.197106183E-2,3.062633052E-2
2.224167220E-1,-7.856319100E-2,-1.984053478E-2,2.849580161E-2
2.249046910E-1,-7.536740601E-2,-1.877527125E-2,2.636527456E-2
2.273926600E-1,-7.323687524E-2,-1.771000773E-2,2.423474751E-2
2.298806280E-1,-7.004108280E-2,-1.664474420E-2,2.210422046E-2
2.323685970E-1,-6.684529036E-2,-1.557948068E-2,2.103895694E-2
2.348565660E-1,-6.151897460E-2,-1.557948068E-2,1.890842989E-2
2.373445350E-1,-5.832318589E-2,-1.557948068E-2,1.784316637E-2
2.398325030E-1,-5.512739345E-2,-1.664474420E-2,1.571263932E-2
2.423204720E-1,-5.086633936E-2,-1.664474420E-2,1.358211134E-2
2.448084410E-1,-4.660528526E-2,-1.984053478E-2,1.251684781E-2
2.472964100E-1,-4.234423116E-2,-2.303632535E-2,1.145158429E-2
2.497843780E-1,-3.808317333E-2,-2.836264484E-2,1.145158429E-2
2.522723470E-1,-3.169159219E-2,-3.368896246E-2,1.038632076E-2
2.547603160E-1,-2.636527456E-2,-3.901528195E-2,9.321057238E-3
2.572482850E-1,-2.103895694E-2,-4.434159771E-2,9.321057238E-3
2.597362530E-1,-1.464737486E-2,-4.966791719E-2,8.255792782E-3
2.622242220E-1,-9.321057238E-3,-5.392897129E-2,8.255792782E-3
2.647121910E-1,-5.060002208E-3,-5.819002539E-2,7.190529723E-3
2.672001600E-1,-7.989477599E-4,-6.245107949E-2,7.190529723E-3
2.696881280E-1,3.462106921E-3,-6.564687192E-2,7.190529723E-3
2.721760970E-1,5.592633970E-3,-6.777740270E-2,7.190529723E-3
2.746640660E-1,7.723161485E-3,-6.990792602E-2,8.255792782E-3
2.771520350E-1,8.788425475E-3,-6.990792602E-2,8.255792782E-3
2.796400030E-1,9.853689000E-3,-6.990792602E-2,9.321057238E-3
2.821279720E-1,9.853689000E-3,-6.884266436E-2,9.321057238E-3
2.846159410E-1,9.853689000E-3,-6.777740270E-2,9.321057238E-3
2.871039100E-1,8.788425475E-3,-6.671213359E-2,8.255792782E-3
2.895918780E-1,7.723161485E-3,-6.351634115E-2,7.190529723E-3
2.920798470E-1,6.657897960E-3,-6.032055244E-2,6.125265732E-3
2.945678160E-1,5.592633970E-3,-5.712476373E-2,6.125265732E-3
2.970557850E-1,4.527370445E-3,-5.392897129E-2,5.060002208E-3
2.995437530E-1,2.396843163E-3,-4.966791719E-2,5.060002208E-3
3.020317220E-1,1.331579522E-3,-4.647212476E-2,3.994738683E-3
3.045196910E-1,1.331579522E-3,-4.221107066E-2,3.994738683E-3
3.070076600E-1,2.663159103E-4,-3.795001656E-2,5.060002208E-3
3.094956280E-1,2.663159103E-4,-3.368896246E-2,6.125265732E-3
3.119835970E-1,-7.989477599E-4,-2.942790836E-2,8.255792782E-3
3.144715660E-1,-7.989477599E-4,-2.516685426E-2,1.038632076E-2
3.169595350E-1,-7.989477599E-4,-2.090579830E-2,1.145158429E-2
3.194475030E-1,-7.989477599E-4,-1.557948068E-2,1.358211134E-2
3.219354720E-1,-7.989477599E-4,-1.025316212E-2,1.677790284E-2
3.244234410E-1,-7.989477599E-4,-4.926844500E-3,1.890842989E-2
3.269114100E-1,2.663159103E-4,1.464737463E-3,2.210422046E-2
3.293993780E-1,2.663159103E-4,9.986846708E-3,2.423474751E-2
3.318873470E-1,2.663159103E-4,1.957421936E-2,2.636527456E-2
3.343753160E-1,1.331579522E-3,2.916159295E-2,2.956106514E-2
3.368632850E-1,2.396843163E-3,4.194475710E-2,3.062633052E-2
3.393512530E-1,4.527370445E-3,5.685844645E-2,3.275685757E-2
3.418392220E-1,6.657897960E-3,7.177213579E-2,3.382211924E-2
3.443271910E-1,8.788425475E-3,9.094688296E-2,3.488738462E-2
3.468151600E-1,1.304947957E-2,1.133174226E-1,3.488738462E-2
3.493031280E-1,1.837579720E-2,1.378184855E-1,3.275685757E-2
3.517910970E-1,2.476738021E-2,1.633848101E-1,2.849580161E-2
3.542790660E-1,3.115896136E-2,1.889511347E-1,2.423474751E-2
3.567670350E-1,3.755054250E-2,2.145174593E-1,1.890842989E-2
3.592550030E-1,4.394212365E-2,2.411490530E-1,1.358211134E-2
3.617429720E-1,5.139897019E-2,2.688459158E-1,9.321057238E-3
3.642309410E-1,5.885581672E-2,2.965427637E-1,3.994738683E-3
3.667189100E-1,6.737792492E-2,3.231743574E-1,-2.663159103E-4
3.692068780E-1,7.483477145E-2,3.508712053E-1,-4.527370445E-3
3.716948470E-1,8.229161799E-2,3.785680532E-1,-8.788425475E-3
3.741828160E-1,9.081372619E-2,4.041343927E-1,-1.198421605E-2
3.766707850E-1,9.614004195E-2,4.190480709E-1,-1.624527015E-2
3.791587530E-1,9.720530361E-2,4.211786091E-1,-2.263685316E-2
3.816467220E-1,9.187898785E-2,4.147870243E-1,-3.009369783E-2
3.841346910E-1,8.335687965E-2,3.913512230E-1,-4.074633494E-2
3.866226600E-1,6.524740160E-2,3.370227814E-1,-5.352949724E-2
3.891106280E-1,4.074633494E-2,2.699111700E-1,-7.057371736E-2
3.915985970E-1,1.198421605E-2,1.985385120E-1,-8.761793375E-2
3.940865660E-1,-1.890842989E-2,1.282311082E-1,-1.057274193E-1
3.965745350E-1,-4.980107397E-2,6.111950055E-2,-1.227716357E-1
3.990625030E-1,-7.856319100E-2,2.530001104E-3,-1.398158520E-1
4.015504720E-1,-1.041295230E-1,-4.966791719E-2,-1.557948142E-1
4.040384410E-1,-1.243695319E-1,-9.440898895E-2,-1.696432382E-1
4.065264100E-1,-1.382179558E-1,-1.338237375E-1,-1.824263930E-1
4.090143780E-1,-1.467400640E-1,-1.679121852E-1,-1.962748319E-1
4.115023470E-1,-1.488705873E-1,-1.966743022E-1,-2.090579867E-1
4.139903160E-1,-1.467400640E-1,-2.222406268E-1,-2.218411565E-1
4.164782850E-1,-1.403484792E-1,-2.435459048E-1,-2.367548496E-1
4.189662530E-1,-1.350221634E-1,-2.627206445E-1,-2.537990510E-1
4.214542220E-1,-1.318263710E-1,-2.797648609E-1,-2.729738057E-1
4.239421910E-1,-1.307611167E-1,-2.946785688E-1,-2.921485603E-1
4.264301600E-1,-1.350221634E-1,-3.085269928E-1,-3.123885691E-1
4.289181280E-1,-1.446095407E-1,-3.191796243E-1,-3.326285779E-1
4.314060970E-1,-1.595232338E-1,-3.277017176E-1,-3.518033028E-1
4.338940660E-1,-1.776327193E-1,-3.330280483E-1,-3.699128032E-1
4.363820350E-1,-1.989379823E-1,-3.351585865E-1,-3.848264813E-1
4.388700030E-1,-2.202432603E-1,-3.287670016E-1,-3.976096511E-1
4.413579720E-1,-2.426137924E-1,-3.170490861E-1,-4.103928208E-1
4.438459410E-1,-2.639190555E-1,-3.021354079E-1,-4.231759906E-1
4.463339100E-1,-2.830938101E-1,-2.861564457E-1,-4.370244145E-1
4.488218780E-1,-3.001380265E-1,-2.691122293E-1,-4.551338851E-1
4.513098470E-1,-3.107906580E-1,-2.499374747E-1,-4.753738940E-1
4.537978160E-1,-3.171822429E-1,-2.254364192E-1,-4.988096952E-1
4.562857850E-1,-3.171822429E-1,-1.956090331E-1,-5.233107805E-1
4.587737530E-1,-3.107906580E-1,-1.561942846E-1,-5.520728827E-1
4.612617220E-1,-2.990727723E-1,-1.061268896E-1,-5.829655528E-1
4.637496910E-1,-2.841590643E-1,-4.221107066E-2,-6.191844940E-1
4.662376600E-1,-2.660495937E-1,3.555317223E-2,-6.607297659E-1
4.687256280E-1,-2.447443157E-1,1.282311082E-1,-7.065361142E-1
4.712135970E-1,-2.234390527E-1,2.358227372E-1,-7.576687932E-1
4.737015660E-1,-2.042642981E-1,3.583280444E-1,-8.130624890E-1
4.761895350E-1,-1.893506050E-1,4.914860129E-1,-8.780435324E-1
4.786775030E-1,-1.776327193E-1,6.299703121E-1,-9.494162202E-1
4.811654720E-1,-1.723063886E-1,7.673892975E-1,-1.028245687E0
4.836534410E-1,-1.701758653E-1,8.984166980E-1,-1.112401605E0
4.861414100E-1,-1.723063886E-1,1.018791556E0,-1.200818419E0
4.886293780E-1,-1.786979735E-1,1.124252558E0,-1.292431116E0
4.911173470E-1,-1.904158741E-1,1.210538983E0,-1.386174321E0
4.936053160E-1,-2.063948363E-1,1.276585340E0,-1.478852272E0
4.960932850E-1,-2.287653685E-1,1.324522138E0,-1.569399714E0
4.985812530E-1,-2.543317080E-1,1.356480122E0,-1.655686021E0
5.010692220E-1,-2.841590643E-1,1.373524308E0,-1.737711310E0
5.035571910E-1,-3.193127811E-1,1.377785325E0,-1.814410329E0
5.060451600E-1,-3.597927988E-1,1.370328546E0,-1.884717703E0
5.085331280E-1,-4.034686089E-1,1.355414867E0,-1.947568297E0
5.110210970E-1,-4.503402114E-1,1.335174799E0,-2.004027128E0
5.135090660E-1,-5.014728308E-1,1.312804222E0,-2.055159807E0
5.159970350E-1,-5.536707640E-1,1.289368510E0,-2.100966215E0
5.184850030E-1,-6.079992056E-1,1.266997933E0,-2.144642115E0
5.209729720E-1,-6.623276472E-1,1.247823238E0,-2.186187267E0
5.234609410E-1,-7.177214026E-1,1.230778933E0,-2.226667404E0
5.259489100E-1,-7.731150985E-1,1.215865254E0,-2.266082048E0
5.284368780E-1,-8.274435401E-1,1.203082085E0,-2.304431677E0
5.309248470E-1,-8.796414733E-1,1.193494797E0,-2.339585304E0
5.334128160E-1,-9.286435843E-1,1.186037898E0,-2.372608423E0
5.359007850E-1,-9.755151868E-1,1.181776881E0,-2.401370525E0
5.383887530E-1,-1.019191027E0,1.176450491E0,-2.425871611E0
5.408767220E-1,-1.060736299E0,1.172189474E0,-2.443981171E0
5.433646910E-1,-1.098020554E0,1.164732575E0,-2.456764221E0
5.458526600E-1,-1.132108927E0,1.154080033E0,-2.462090492E0
5.483406280E-1,-1.163001537E0,1.139166355E0,-2.459959984E0
5.508285970E-1,-1.190698385E0,1.118926287E0,-2.450372696E0
5.533165660E-1,-1.215199471E0,1.094425201E0,-2.433328390E0
5.558045350E-1,-1.236504793E0,1.065663099E0,-2.406696796E0
5.582925030E-1,-1.254614234E0,1.032639980E0,-2.371543169E0
5.607804720E-1,-1.269527912E0,9.974862337E-1,-2.329998016E0
5.632684410E-1,-1.282311082E0,9.612672925E-1,-2.280995846E0
5.657564100E-1,-1.290833235E0,9.250482917E-1,-2.227732658E0
5.682443780E-1,-1.297224760E0,8.866988420E-1,-2.168077707E0
5.707323470E-1,-1.301485896E0,8.472840786E-1,-2.103096724E0
5.732203160E-1,-1.303616405E0,8.057388067E-1,-2.035985231E0
5.757082850E-1,-1.316399574E0,7.663240433E-1,-1.966742992E0
5.781962530E-1,-1.346226931E0,7.269092798E-1,-1.897500873E0
5.806842220E-1,-1.401620626E0,6.736460924E-1,-1.829324007E0
5.831721910E-1,-1.483645916E0,6.022734046E-1,-1.764342904E0
5.856601600E-1,-1.592302799E0,5.095955133E-1,-1.701492310E0
5.881481280E-1,-1.721199751E0,4.009386003E-1,-1.642902851E0
5.906360970E-1,-1.862879753E0,2.805638015E-1,-1.589639664E0
5.931240660E-1,-2.013082027E0,1.591237634E-1,-1.541702747E0
5.956120350E-1,-2.167545080E0,4.514054582E-2,-1.496961713E0
5.981000030E-1,-2.327334642E0,-5.712476373E-2,-1.456481695E0
6.005879720E-1,-2.489254713E0,-1.434111148E-1,-1.417066932E0
6.030759410E-1,-2.656501293E0,-2.179795653E-1,-1.377652168E0
6.055639100E-1,-2.828008652E0,-2.840259075E-1,-1.340368032E0
6.080518780E-1,-3.001646519E0,-3.458112180E-1,-1.303083777E0
6.105398470E-1,-3.177415133E0,-4.033354521E-1,-1.268995285E0
6.130278160E-1,-3.351052999E0,-4.576638937E-1,-1.238102674E0
6.155157850E-1,-3.522560596E0,-5.045354962E-1,-1.211471081E0
6.180037530E-1,-3.686611176E0,-5.428850055E-1,-1.189100504E0
6.204917220E-1,-3.844270229E0,-5.684512854E-1,-1.172056317E0
6.229796910E-1,-3.993407011E0,-5.780386925E-1,-1.160338402E0
6.254676600E-1,-4.134021759E0,-5.673860312E-1,-1.149685740E0
6.279556280E-1,-4.261853695E0,-5.375586748E-1,-1.141163707E0
6.304435970E-1,-4.377967358E0,-4.885565341E-1,-1.133706808E0
6.329315660E-1,-4.479167461E0,-4.203796685E-1,-1.127315283E0
6.354195350E-1,-4.566518784E0,-3.383543491E-1,-1.118793130E0
6.379075030E-1,-4.641087532E0,-2.541985512E-1,-1.111336350E0
6.403954720E-1,-4.702872753E0,-1.764342934E-1,-1.102814198E0
6.428834410E-1,-4.750809669E0,-1.039963663E-1,-1.093226790E0
6.453714100E-1,-4.782767296E0,-3.368896246E-2,-1.081508875E0
6.478593780E-1,-4.795550823E0,3.661843762E-2,-1.065529943E0
6.503473470E-1,-4.788093567E0,1.079910994E-1,-1.044224739E0
6.528353160E-1,-4.758266449E0,1.772332340E-1,-1.015462518E0
6.553232850E-1,-4.705003262E0,2.379532605E-1,-9.803088903E-1
6.578112530E-1,-4.629369259E0,2.858901322E-1,-9.345025420E-1
6.602992220E-1,-4.531365395E0,3.189133108E-1,-8.812393546E-1
6.627871910E-1,-4.412055492E0,3.327617347E-1,-8.205193281E-1
6.652751600E-1,-4.272506237E0,3.231743574E-1,-7.512772083E-1
6.677631280E-1,-4.113781929E0,2.880206704E-1,-6.777740121E-1
6.702510970E-1,-3.935882807E0,2.283658981E-1,-6.000097394E-1
6.727390660E-1,-3.743070126E0,1.463405937E-1,-5.201149583E-1
6.752270350E-1,-3.535343647E0,4.514054582E-2,-4.402202070E-1
6.777150030E-1,-3.318029881E0,-7.097318769E-2,-3.592601717E-1
6.802029720E-1,-3.091128826E0,-1.934785098E-1,-2.772348523E-1
6.826909410E-1,-2.857836008E0,-3.181143403E-1,-1.952095628E-1
6.851789100E-1,-2.622412682E0,-4.406196773E-1,-1.153147891E-1
6.876668780E-1,-2.388054848E0,-5.567334294E-1,-3.861580789E-2
6.901548470E-1,-2.155827284E0,-6.632598042E-1,3.382211924E-2
6.926428160E-1,-1.929991364E0,-7.570029497E-1,1.019989923E-1
6.951307850E-1,-1.711612344E0,-8.358324766E-1,1.648495495E-1
6.976187530E-1,-1.506016493E0,-8.986830115E-1,2.223737836E-1
7.001067220E-1,-1.314269066E0,-9.444893599E-1,2.703106403E-1
7.025946910E-1,-1.139565825E0,-9.700556993E-1,3.118559420E-1
7.050826600E-1,-9.819067717E-1,-9.775125384E-1,3.448790908E-1
7.075706280E-1,-8.444877267E-1,-9.657946229E-1,3.725759685E-1
7.100585970E-1,-7.283740044E-1,-9.370325208E-1,3.928159773E-1
7.125465660E-1,-6.325002909E-1,-8.944219947E-1,4.087949097E-1
7.150345350E-1,-5.558013320E-1,-8.443545699E-1,4.194475710E-1
7.175225030E-1,-4.982770681E-1,-7.910913825E-1,4.290349185E-1
7.200104720E-1,-4.567317963E-1,-7.378282547E-1,4.343612492E-1
7.224984410E-1,-4.322307110E-1,-6.888260841E-1,4.364917874E-1
7.249864100E-1,-4.183822870E-1,-6.483460665E-1,4.364917874E-1
7.274743780E-1,-4.173170328E-1,-6.185187101E-1,4.343612492E-1
7.299623470E-1,-4.237086177E-1,-6.025397182E-1,4.290349185E-1
7.324503160E-1,-4.396875799E-1,-5.993439555E-1,4.215780795E-1
7.349382850E-1,-4.599275887E-1,-6.089313030E-1,4.119907022E-1
7.374262530E-1,-4.844286442E-1,-6.313018799E-1,3.992075622E-1
7.399142220E-1,-5.121254921E-1,-6.643250585E-1,3.864243925E-1
7.424021910E-1,-5.408875942E-1,-7.069355845E-1,3.715106845E-1
7.448901600E-1,-5.707150102E-1,-7.580682635E-1,3.555317521E-1
7.473781280E-1,-5.994771123E-1,-8.123967052E-1,3.395527899E-1
7.498660970E-1,-6.282392144E-1,-8.699209094E-1,3.225085735E-1
7.523540660E-1,-6.548708081E-1,-9.253146052E-1,3.043990731E-1
7.548420350E-1,-6.772413850E-1,-9.775125384E-1,2.862896025E-1
7.573300030E-1,-6.964160800E-1,-1.023318887E0,2.671148479E-1
7.598179720E-1,-7.091992497E-1,-1.061668396E0,2.468748540E-1
7.623059410E-1,-7.155908346E-1,-1.090430498E0,2.266348451E-1
7.647939100E-1,-7.134603262E-1,-1.110670447E0,2.042642981E-1
7.672818780E-1,-7.028076649E-1,-1.121323109E0,1.797632426E-1
7.697698470E-1,-6.836329699E-1,-1.124518991E0,1.552621722E-1
7.722578160E-1,-6.527402997E-1,-1.119192600E0,1.296958476E-1
7.747457850E-1,-6.143907905E-1,-1.107474685E0,1.019989923E-1
7.772337530E-1,-5.653886795E-1,-1.090430498E0,7.430213690E-2
7.797217220E-1,-5.067991614E-1,-1.070190430E0,4.447475821E-2
7.822096910E-1,-4.396875799E-1,-1.047819972E0,1.464737486E-2
7.846976600E-1,-3.661843836E-1,-1.026514649E0,-1.624527015E-2
7.871856280E-1,-2.862896025E-1,-1.008405209E0,-4.713791609E-2
7.896735970E-1,-2.000032514E-1,-9.977525473E-1,-7.803056389E-2
7.921615660E-1,-1.094558388E-1,-9.966872931E-1,-1.057274193E-1
7.946495350E-1,-1.464737486E-2,-1.005209446E0,-1.323590130E-1
7.971375030E-1,8.335687965E-2,-1.021188378E0,-1.568600684E-1
7.996254720E-1,1.824263930E-1,-1.044624209E0,-1.813611388E-1
8.021134410E-1,2.814959288E-1,-1.073386312E0,-2.026664019E-1
8.046014100E-1,3.795001805E-1,-1.106409431E0,-2.229064107E-1
8.070893780E-1,4.753738940E-1,-1.139432669E0,-2.420811653E-1
8.095773470E-1,5.680518150E-1,-1.171390533E0,-2.591253817E-1
8.120653160E-1,6.575340033E-1,-1.201217890E0,-2.740390599E-1
8.145532850E-1,7.427550554E-1,-1.225718975E0,-2.878875136E-1
8.170412530E-1,8.215845823E-1,-1.244893670E0,-3.028011918E-1
8.195292220E-1,8.940225244E-1,-1.256611586E0,-3.155843616E-1
8.220171910E-1,9.600688815E-1,-1.261937976E0,-3.273022473E-1
8.245051600E-1,1.019723654E0,-1.257676840E0,-3.379548788E-1
8.269931280E-1,1.071921587E0,-1.247024298E0,-3.475422561E-1
8.294810970E-1,1.115597367E0,-1.227849483E0,-3.571296334E-1
8.319690660E-1,1.150750995E0,-1.200152636E0,-3.667170107E-1
8.344570350E-1,1.176317334E0,-1.167129517E0,-3.741738498E-1
8.369450030E-1,1.195492148E0,-1.128780007E0,-3.816306889E-1
8.394329720E-1,1.202948928E0,-1.086169481E0,-3.880222738E-1
8.419209410E-1,1.201883674E0,-1.042493582E0,-3.933486044E-1
8.444089100E-1,1.190165758E0,-9.956220388E-1,-3.997401893E-1
8.468968780E-1,1.168860555E0,-9.498156905E-1,-4.040012360E-1
8.493848470E-1,1.139033198E0,-9.050745964E-1,-4.082622826E-1
8.518728160E-1,1.101748943E0,-8.624640703E-1,-4.093275666E-1
8.543607850E-1,1.057007790E0,-8.251798749E-1,-4.103928208E-1
8.568487530E-1,1.005875230E0,-7.942872047E-1,-4.103928208E-1
8.593367220E-1,9.494162202E-1,-7.697861195E-1,-4.071970284E-1
8.618246910E-1,8.897614479E-1,-7.516766787E-1,-4.018706977E-1
8.643126600E-1,8.279761672E-1,-7.399587631E-1,-3.944138587E-1
8.668006280E-1,7.629950643E-1,-7.346324325E-1,-3.848264813E-1
8.692885970E-1,6.980140209E-1,-7.325019240E-1,-3.741738498E-1
8.717765660E-1,6.330329180E-1,-7.346324325E-1,-3.624559641E-1
8.742645350E-1,5.680518150E-1,-7.399587631E-1,-3.475422561E-1
8.767525030E-1,5.052012801E-1,-7.463503480E-1,-3.315632939E-1
8.792404720E-1,4.434159994E-1,-7.527419329E-1,-3.145190775E-1
8.817284410E-1,3.826959729E-1,-7.538071871E-1,-2.985401452E-1
8.842164100E-1,3.230412006E-1,-7.495461106E-1,-2.836264372E-1
8.867043780E-1,2.676474750E-1,-7.399587631E-1,-2.687127590E-1
8.891923470E-1,2.154495716E-1,-7.282408476E-1,-2.516685426E-1
8.916803160E-1,1.685779691E-1,-7.122619152E-1,-2.346243113E-1
8.941682850E-1,1.270326823E-1,-6.941524148E-1,-2.165148407E-1
8.966562530E-1,9.081372619E-2,-6.749776602E-1,-1.984053552E-1
8.991442220E-1,6.205160543E-2,-6.547376513E-1,-1.792306006E-1
9.016321910E-1,3.968106955E-2,-6.334323883E-1,-1.600558609E-1
9.041201600E-1,2.263685316E-2,-6.121271253E-1,-1.408811212E-1
9.066081280E-1,1.198421605E-2,-5.918871164E-1,-1.227716357E-1
9.090960970E-1,8.788425475E-3,-5.727123618E-1,-1.025316268E-1
9.115840660E-1,1.091895252E-2,-5.535376072E-1,-8.229161799E-2
9.140720350E-1,1.837579720E-2,-5.375586748E-1,-6.098634377E-2
9.165600030E-1,3.115896136E-2,-5.226449966E-1,-3.861580789E-2
9.190479720E-1,4.820318148E-2,-5.109270811E-1,-1.518000662E-2
9.215359410E-1,7.057371736E-2,-5.002744198E-1,8.255792782E-3
9.240239100E-1,9.507478029E-2,-4.906870723E-1,3.275685757E-2
9.265118780E-1,1.227716357E-1,-4.800344408E-1,5.619265884E-2
9.289998470E-1,1.515337527E-1,-4.683165252E-1,8.069372177E-2
9.314878160E-1,1.802958697E-1,-4.544681013E-1,1.019989923E-1
9.339757850E-1,2.090579867E-1,-4.384891391E-1,1.233042628E-1
9.364637530E-1,2.388853729E-1,-4.193144143E-1,1.424790174E-1
9.389517220E-1,2.665822208E-1,-3.969438672E-1,1.595232338E-1
9.414396910E-1,2.932138145E-1,-3.724428117E-1,1.744369268E-1
9.439276600E-1,3.187801540E-1,-3.426154256E-1,1.872200817E-1
9.464156280E-1,3.400854170E-1,-3.095922470E-1,1.989379823E-1
9.489035970E-1,3.603254259E-1,-2.744385600E-1,2.074600905E-1
9.513915660E-1,3.763043880E-1,-2.382195890E-1,2.149169445E-1
9.538795350E-1,3.890875578E-1,-2.009353489E-1,2.202432603E-1
9.563675030E-1,3.997401893E-1,-1.625858694E-1,2.234390527E-1
9.588554720E-1,4.061317742E-1,-1.253016293E-1,2.255695760E-1
9.613434410E-1,4.082622826E-1,-8.695214242E-2,2.255695760E-1
9.638314100E-1,4.071970284E-1,-5.073318258E-2,2.245043069E-1
9.663193780E-1,4.029359818E-1,-1.664474420E-2,2.223737836E-1
9.688073470E-1,3.954791129E-1,1.744369231E-2,2.181127369E-1
9.712953160E-1,3.848264813E-1,4.940159991E-2,2.138516754E-1
9.737832850E-1,3.699128032E-1,8.029424399E-2,2.074600905E-1
9.762712530E-1,3.539338410E-1,1.090563685E-1,2.021337748E-1
9.787592220E-1,3.358243704E-1,1.367532164E-1,1.968074590E-1
9.812471910E-1,3.155843616E-1,1.633848101E-1,1.904158741E-1
9.837351600E-1,2.921485603E-1,1.868206114E-1,1.861548275E-1
9.862231280E-1,2.687127590E-1,2.070606202E-1,1.797632426E-1
9.887110970E-1,2.431464195E-1,2.262353599E-1,1.733716577E-1
9.911990660E-1,2.165148407E-1,2.432795912E-1,1.669800729E-1
9.936870350E-1,1.888179779E-1,2.592585385E-1,1.605884880E-1
9.961750030E-1,1.600558609E-1,2.731069624E-1,1.531316489E-1
9.986629720E-1,1.323590130E-1,2.858901322E-1,1.467400640E-1
1.001150941E0,1.035968885E-1,2.965427637E-1,1.392832249E-1
1.003638910E0,7.483477145E-2,3.061301410E-1,1.307611167E-1
1.006126878E0,4.713791609E-2,3.135869801E-1,1.233042628E-1
1.008614847E0,1.944106072E-2,3.189133108E-1,1.147821546E-1
1.011102816E0,-7.190529723E-3,3.199785650E-1,1.073253155E-1
1.013590785E0,-3.275685757E-2,3.178480268E-1,9.986846894E-2
1.016078753E0,-5.725792050E-2,3.114564717E-1,9.241162241E-2
1.018566722E0,-7.962846011E-2,2.997385561E-1,8.388951421E-2
1.021054691E0,-1.009337306E-1,2.848248780E-1,7.536740601E-2
1.023542660E0,-1.222390011E-1,2.667153776E-1,6.684529036E-2
1.026030628E0,-1.414137483E-1,2.432795912E-1,5.938844755E-2
1.028518597E0,-1.584579647E-1,2.177132517E-1,4.980107397E-2
1.031006566E0,-1.744369268E-1,1.900164038E-1,4.127896577E-2
1.033494535E0,-1.882853508E-1,1.623195410E-1,3.169159219E-2
1.035982503E0,-2.000032514E-1,1.335574239E-1,2.210422046E-2
1.038470472E0,-2.095906287E-1,1.058605760E-1,1.251684781E-2
1.040958441E0,-2.170474678E-1,7.816372067E-2,3.994738683E-3
1.043446410E0,-2.213085145E-1,5.153212696E-2,-5.592633970E-3
1.045934378E0,-2.234390527E-1,2.703106403E-2,-1.518000662E-2
1.048422347E0,-2.223737836E-1,4.660528619E-3,-2.370211668E-2
1.050910316E0,-2.181127369E-1,-1.557948068E-2,-3.222422674E-2
1.053398285E0,-2.117211521E-1,-3.475422785E-2,-3.968106955E-2
1.055886253E0,-2.031990439E-1,-4.966791719E-2,-4.607265070E-2
1.058374222E0,-1.925463974E-1,-6.351634115E-2,-5.139897019E-2
1.060862191E0,-1.797632426E-1,-7.310371846E-2,-5.566002429E-2
1.063350160E0,-1.659148186E-1,-7.843003422E-2,-6.098634377E-2
1.065838128E0,-1.520663798E-1,-7.736477256E-2,-6.737792492E-2
1.068326097E0,-1.392832249E-1,-7.097318769E-2,-7.270424068E-2
1.070814066E0,-1.254348010E-1,-6.138581783E-2,-7.696529478E-2
1.073302035E0,-1.115863696E-1,-4.966791719E-2,-8.016108721E-2
1.075790003E0,-9.667267650E-2,-3.581948951E-2,-8.122635633E-2
1.078277972E0,-8.175898343E-2,-2.090579830E-2,-8.229161799E-2
1.080765941E0,-6.684529036E-2,-8.122635074E-3,-8.122635633E-2
1.083253910E0,-5.193160102E-2,5.725792143E-3,-7.909582555E-2
1.085741878E0,-3.808317333E-2,1.637842879E-2,-7.696529478E-2
1.088229847E0,-2.530001104E-2,2.703106403E-2,-7.483477145E-2
1.090717816E0,-1.464737486E-2,3.661843762E-2,-7.163897902E-2
1.093205785E0,-5.060002208E-3,4.407528415E-2,-6.631266326E-2
1.095693753E0,1.331579522E-3,5.153212696E-2,-6.205160543E-2
1.098181722E0,5.592633970E-3,5.898897350E-2,-5.779055133E-2
1.100669691E0,7.723161485E-3,6.431528926E-2,-5.352949724E-2
1.103157660E0,7.723161485E-3,7.070687413E-2,-4.820318148E-2
1.105645628E0,7.723161485E-3,7.603318989E-2,-4.181159660E-2
1.108133597E0,4.527370445E-3,8.029424399E-2,-3.755054250E-2
1.110621566E0,2.663159103E-4,8.242477477E-2,-3.222422674E-2
1.113109535E0,-5.060002208E-3,8.349003643E-2,-2.796317078E-2
1.115597503E0,-1.145158429E-2,8.349003643E-2,-2.370211668E-2
1.118085472E0,-1.997369342E-2,8.349003643E-2,-1.944106072E-2
1.120573441E0,-2.956106514E-2,8.242477477E-2,-1.731053367E-2
1.123061410E0,-3.914843872E-2,8.135951310E-2,-1.518000662E-2
1.125549378E0,-4.980107397E-2,7.922898233E-2,-1.304947957E-2
1.128037347E0,-6.045371294E-2,7.709845901E-2,-1.304947957E-2
1.130525316E0,-7.217161357E-2,7.496792823E-2,-1.304947957E-2
1.133013285E0,-8.388951421E-2,7.283740491E-2,-1.411474310E-2
1.135501253E0,-9.667267650E-2,7.070687413E-2,-1.624527015E-2
1.137989222E0,-1.094558388E-1,6.857634336E-2,-1.837579720E-2
1.140477191E0,-1.222390011E-1,6.538055837E-2,-2.157158963E-2
1.142965160E0,-1.350221634E-1,6.325002760E-2,-2.476738021E-2
1.145453128E0,-1.488705873E-1,5.898897350E-2,-2.689790726E-2
1.147941097E0,-1.616537571E-1,5.366265774E-2,-3.115896136E-2
1.150429066E0,-1.733716577E-1,4.620581120E-2,-3.435475379E-2
1.152917035E0,-1.840242893E-1,3.874896467E-2,-3.755054250E-2
1.155405003E0,-1.936116666E-1,2.809632942E-2,-3.968106955E-2
1.157892972E0,-2.021337748E-1,1.744369231E-2,-4.074633494E-2
1.160380941E0,-2.095906287E-1,4.660528619E-3,-4.181159660E-2
1.162868910E0,-2.149169445E-1,-7.057371549E-3,-4.287686199E-2
1.165356878E0,-2.181127369E-1,-1.984053478E-2,-4.287686199E-2
1.167844847E0,-2.181127369E-1,-3.262370080E-2,-4.181159660E-2
1.170332816E0,-2.170474678E-1,-4.540686309E-2,-4.074633494E-2
1.172820785E0,-2.138516754E-1,-5.605949834E-2,-3.861580789E-2
1.175308753E0,-2.085253596E-1,-6.564687192E-2,-3.755054250E-2
1.177796722E0,-2.010685056E-1,-7.203845680E-2,-3.542001545E-2
1.180284691E0,-1.914811432E-1,-7.629951090E-2,-3.328948840E-2
1.182772660E0,-1.808284968E-1,-7.949529588E-2,-3.115896136E-2
1.185260628E0,-1.691105962E-1,-8.162582666E-2,-2.902843431E-2
1.187748597E0,-1.552621722E-1,-8.056056499E-2,-2.689790726E-2
1.190236566E0,-1.424790174E-1,-7.736477256E-2,-2.370211668E-2
1.192724535E0,-1.286305785E-1,-7.203845680E-2,-2.157158963E-2
1.195212503E0,-1.147821546E-1,-6.351634115E-2,-1.944106072E-2
1.197700472E0,-1.009337306E-1,-5.286370963E-2,-1.624527015E-2
1.200188441E0,-8.708529919E-2,-4.114580899E-2,-1.411474310E-2
1.202676410E0,-7.323687524E-2,-2.942790836E-2,-1.198421605E-2
1.205164378E0,-6.045371294E-2,-1.771000773E-2,-8.788425475E-3
1.207652347E0,-4.660528526E-2,-5.992108025E-3,-5.592633970E-3
1.210140316E0,-3.382211924E-2,3.595264861E-3,-3.462106921E-3
1.212628285E0,-2.316948399E-2,1.318263728E-2,-2.663159103E-4
1.215116253E0,-1.251684781E-2,1.850895584E-2,2.929474926E-3
1.217604222E0,-2.929474926E-3,2.490053698E-2,6.125265732E-3
1.220092191E0,4.527370445E-3,3.129211813E-2,6.125265732E-3
1.222580160E0,1.091895252E-2,3.874896467E-2,7.190529723E-3
1.225068128E0,1.624527015E-2,4.407528415E-2,7.190529723E-3
1.227556097E0,2.157158963E-2,4.727107286E-2,8.255792782E-3
1.230044066E0,2.583264373E-2,4.620581120E-2,1.038632076E-2
1.232532035E0,3.009369783E-2,4.194475710E-2,1.145158429E-2
1.235020003E0,3.222422674E-2,3.448791057E-2,1.251684781E-2
1.237507972E0,3.542001545E-2,2.383527346E-2,1.464737486E-2
1.239995941E0,3.755054250E-2,1.105211023E-2,1.571263932E-2
1.242483910E0,3.968106955E-2,-1.731053460E-3,1.677790284E-2
1.244971878E0,3.861580789E-2,-1.557948068E-2,1.677790284E-2
1.247459847E0,3.648528084E-2,-2.729738131E-2,1.677790284E-2
1.249947816E0,3.222422674E-2,-3.795001656E-2,1.571263932E-2
1.252435785E0,2.476738021E-2,-4.753739014E-2,1.464737486E-2
1.254923753E0,1.731053367E-2,-5.499423668E-2,1.251684781E-2
1.257411722E0,6.657897960E-3,-6.138581783E-2,9.321057238E-3
1.259899691E0,-5.060002208E-3,-6.671213359E-2,5.060002208E-3
1.262387660E0,-1.784316637E-2,-7.203845680E-2,1.864211401E-3
1.264875628E0,-3.169159219E-2,-7.736477256E-2,-3.462106921E-3
1.267363597E0,-4.660528526E-2,-8.375635743E-2,-7.723161485E-3
1.269851566E0,-6.151897460E-2,-9.121319652E-2,-1.091895252E-2
1.272339535E0,-7.643266767E-2,-9.973530471E-2,-1.411474310E-2
1.274827503E0,-9.134636074E-2,-1.082574204E-1,-1.731053367E-2
1.277315472E0,-1.062600464E-1,-1.189100519E-1,-1.837579720E-2
1.279803441E0,-1.201084778E-1,-1.295626909E-1,-1.944106072E-2
1.282291410E0,-1.339569092E-1,-1.402153224E-1,-2.050632425E-2
1.284779378E0,-1.456748098E-1,-1.508679688E-1,-2.157158963E-2
1.287267347E0,-1.563274413E-1,-1.604553312E-1,-2.157158963E-2
1.289755316E0,-1.659148186E-1,-1.689774394E-1,-1.944106072E-2
1.292243285E0,-1.733716577E-1,-1.764342934E-1,-1.624527015E-2
1.294731253E0,-1.786979735E-1,-1.838911325E-1,-1.304947957E-2
1.297219222E0,-1.829590350E-1,-1.881521940E-1,-7.723161485E-3
1.299707191E0,-1.840242893E-1,-1.913479865E-1,-2.663159103E-4
1.302195160E0,-1.829590350E-1,-1.924132407E-1,7.190529723E-3
1.304683128E0,-1.808284968E-1,-1.902827173E-1,1.571263932E-2
1.307171097E0,-1.755021811E-1,-1.828258783E-1,2.423474751E-2
1.309659066E0,-1.691105962E-1,-1.700427085E-1,3.169159219E-2
1.312147035E0,-1.616537571E-1,-1.529984921E-1,4.021370411E-2
1.314635003E0,-1.510011256E-1,-1.338237375E-1,4.873581231E-2
1.317122972E0,-1.403484792E-1,-1.146489978E-1,5.938844755E-2
1.319610941E0,-1.265000552E-1,-9.547425061E-2,7.217161357E-2
1.322098910E0,-1.105211005E-1,-7.736477256E-2,8.495477587E-2
1.324586878E0,-9.241162241E-2,-6.245107949E-2,9.880319983E-2
1.327074847E0,-7.217161357E-2,-5.073318258E-2,1.137168929E-1
1.329562816E0,-5.193160102E-2,-4.114580899E-2,1.296958476E-1
1.332050785E0,-3.062633052E-2,-3.262370080E-2,1.456748098E-1
1.334538753E0,-8.255792782E-3,-2.623211779E-2,1.616537571E-1
1.337026722E0,1.091895252E-2,-1.877527125E-2,1.765674502E-1
1.339514691E0,2.796317078E-2,-1.238369010E-2,1.914811432E-1
1.342002660E0,4.287686199E-2,-4.926844500E-3,2.031990439E-1
1.344490628E0,5.672528967E-2,2.530001104E-3,2.138516754E-1
1.346978597E0,6.737792492E-2,1.211737376E-2,2.213085145E-1
1.349466566E0,7.483477145E-2,2.277000993E-2,2.277000993E-1
1.351954535E0,8.122635633E-2,3.342264518E-2,2.308958918E-1
1.354442503E0,8.335687965E-2,4.407528415E-2,2.319611609E-1
1.356930472E0,8.335687965E-2,5.472791940E-2,2.308958918E-1
1.359418441E0,8.016108721E-2,6.431528926E-2,2.277000993E-1
1.361906410E0,7.376950979E-2,7.177213579E-2,2.234390527E-1
1.364394378E0,6.524740160E-2,7.709845901E-2,2.170474678E-1
1.366882347E0,5.352949724E-2,8.135951310E-2,2.095906287E-1
1.369370316E0,4.074633494E-2,8.242477477E-2,2.021337748E-1
1.371858285E0,2.583264373E-2,8.029424399E-2,1.946769357E-1
1.374346253E0,8.788425475E-3,7.496792823E-2,1.861548275E-1
1.376834222E0,-7.190529723E-3,6.538055837E-2,1.776327193E-1
1.379322191E0,-2.423474751E-2,5.259739235E-2,1.701758653E-1
1.381810160E0,-4.127896577E-2,3.661843762E-2,1.637842804E-1
1.384298128E0,-5.619265884E-2,1.957421936E-2,1.584579647E-1
1.386786097E0,-7.110634446E-2,3.994738800E-4,1.531316489E-1
1.389274066E0,-8.388951421E-2,-2.090579830E-2,1.488705873E-1
1.391762035E0,-9.454214573E-2,-4.327633604E-2,1.456748098E-1
1.394250003E0,-1.019989923E-1,-6.564687192E-2,1.414137483E-1
1.396737972E0,-1.083905771E-1,-8.908267319E-2,1.392832249E-1
1.399225941E0,-1.115863696E-1,-1.114532053E-1,1.360874325E-1
1.401713910E0,-1.115863696E-1,-1.348890066E-1,1.339569092E-1
1.404201878E0,-1.094558388E-1,-1.561942846E-1,1.318263710E-1
1.406689847E0,-1.030642539E-1,-1.774995476E-1,1.296958476E-1
1.409177816E0,-9.560741484E-2,-1.956090331E-1,1.265000552E-1
1.411665785E0,-8.602003753E-2,-2.083922029E-1,1.211737394E-1
1.414153753E0,-7.323687524E-2,-2.169143111E-1,1.169126853E-1
1.416641722E0,-5.938844755E-2,-2.243711501E-1,1.137168929E-1
1.419129691E0,-4.234423116E-2,-2.296974659E-1,1.105211005E-1
1.421617660E0,-2.210422046E-2,-2.328932583E-1,1.094558388E-1
1.424105628E0,2.663159103E-4,-2.360890508E-1,1.105211005E-1
1.426593597E0,2.476738021E-2,-2.382195890E-1,1.137168929E-1
1.429081566E0,5.246423557E-2,-2.382195890E-1,1.179779470E-1
1.431569535E0,8.016108721E-2,-2.350237966E-1,1.222390011E-1
1.434057503E0,1.099884734E-1,-2.296974659E-1,1.275653243E-1
1.436545472E0,1.419463754E-1,-2.222406268E-1,1.350221634E-1
1.439033441E0,1.728390306E-1,-2.115879953E-1,1.435442716E-1
1.441521410E0,2.058621943E-1,-1.988048255E-1,1.541969180E-1
1.444009378E0,2.399506420E-1,-1.849564016E-1,1.648495495E-1
1.446497347E0,2.740390599E-1,-1.679121852E-1,1.765674502E-1
1.448985316E0,3.091927767E-1,-1.498026997E-1,1.893506050E-1
1.451473285E0,3.443464637E-1,-1.295626909E-1,2.031990439E-1
1.453961253E0,3.805654347E-1,-1.082574204E-1,2.170474678E-1
1.456449222E0,4.157191217E-1,-8.695214242E-2,2.330264151E-1
1.458937191E0,4.508728385E-1,-6.564687192E-2,2.490053773E-1
1.461425160E0,4.860265255E-1,-4.327633604E-2,2.660495937E-1
1.463913128E0,5.222455263E-1,-2.303632535E-2,2.809632719E-1
1.466401097E0,5.563339591E-1,-3.861580743E-3,2.948117256E-1
1.468889066E0,5.904223919E-1,1.318263728E-2,3.086601496E-1
1.471377035E0,6.255760789E-1,2.916159295E-2,3.214432895E-1
1.473865003E0,6.585992575E-1,4.301001877E-2,3.331612051E-1
1.476352972E0,6.916224360E-1,5.366265774E-2,3.448790908E-1
1.478840941E0,7.225150466E-1,6.218476593E-2,3.555317521E-1
1.481328910E0,7.512772083E-1,6.751108170E-2,3.661843836E-1
1.483816878E0,7.779088020E-1,6.857634336E-2,3.747064769E-1
1.486304847E0,8.013445735E-1,6.857634336E-2,3.832286000E-1
1.488792816E0,8.205193281E-1,6.538055837E-2,3.896201849E-1
1.491280785E0,8.343677521E-1,6.111950055E-2,3.949464858E-1
1.493768753E0,8.418245912E-1,5.579318479E-2,3.970770240E-1
1.496256722E0,8.450203538E-1,4.833633825E-2,3.970770240E-1
1.498744691E0,8.407593369E-1,3.981423005E-2,3.949464858E-1
1.501232660E0,8.301066756E-1,3.022685647E-2,3.896201849E-1
1.503720628E0,8.141277432E-1,1.957421936E-2,3.810980618E-1
1.506208597E0,7.906919122E-1,9.986846708E-3,3.704454303E-1
1.508696566E0,7.608645558E-1,3.994738800E-4,3.576622605E-1
1.511184535E0,7.267761230E-1,-1.025316212E-2,3.427485824E-1
1.513672503E0,6.873613596E-1,-2.090579830E-2,3.267696202E-1
1.516160472E0,6.436855793E-1,-3.475422785E-2,3.107906580E-1
1.518648441E0,5.978792310E-1,-4.966791719E-2,2.948117256E-1
1.521136410E0,5.488771200E-1,-6.564687192E-2,2.777675092E-1
1.523624378E0,4.998749495E-1,-8.375635743E-2,2.628538013E-1
1.526112347E0,4.498075843E-1,-1.039963663E-1,2.479401082E-1
1.528600316E0,3.986749053E-1,-1.253016293E-1,2.351569533E-1
1.531088285E0,3.496727943E-1,-1.466069072E-1,2.223737836E-1
1.533576253E0,3.028011918E-1,-1.689774394E-1,2.106558830E-1
1.536064222E0,2.580601275E-1,-1.913479865E-1,2.000032514E-1
1.538552191E0,2.143843025E-1,-2.105227262E-1,1.904158741E-1
1.541040160E0,1.728390306E-1,-2.265016884E-1,1.808284968E-1
1.543528128E0,1.355548054E-1,-2.392848432E-1,1.701758653E-1
1.546016097E0,1.025316268E-1,-2.499374747E-1,1.616537571E-1
1.548504066E0,7.483477145E-2,-2.573943138E-1,1.531316489E-1
1.550992035E0,5.139897019E-2,-2.627206445E-1,1.456748098E-1
1.553480003E0,3.222422674E-2,-2.659164369E-1,1.392832249E-1
1.555967972E0,1.837579720E-2,-2.669816911E-1,1.339569092E-1
1.558455941E0,8.788425475E-3,-2.669816911E-1,1.296958476E-1
1.560943910E0,4.527370445E-3,-2.659164369E-1,1.254348010E-1
1.563431878E0,3.462106921E-3,-2.648511827E-1,1.222390011E-1
1.565919847E0,7.723161485E-3,-2.627206445E-1,1.211737394E-1
1.568407816E0,1.518000662E-2,-2.616553903E-1,1.190432087E-1
1.570895785E0,2.583264373E-2,-2.605901062E-1,1.201084778E-1
1.573383753E0,3.968106955E-2,-2.595248520E-1,1.211737394E-1
1.575871722E0,5.459476262E-2,-2.573943138E-1,1.233042628E-1
1.578359691E0,7.376950979E-2,-2.563290596E-1,1.254348010E-1
1.580847660E0,9.187898785E-2,-2.531332672E-1,1.275653243E-1
1.583335628E0,1.121189967E-1,-2.488722205E-1,1.296958476E-1
1.585823597E0,1.312937438E-1,-2.435459048E-1,1.307611167E-1
1.588311566E0,1.504684836E-1,-2.371543199E-1,1.318263710E-1
1.590799535E0,1.696432382E-1,-2.296974659E-1,1.318263710E-1
1.593287503E0,1.866874546E-1,-2.190448344E-1,1.328916401E-1
1.595775472E0,2.026664019E-1,-2.083922029E-1,1.328916401E-1
1.598263441E0,2.175800949E-1,-1.956090331E-1,1.328916401E-1
1.600751410E0,2.314285189E-1,-1.828258783E-1,1.318263710E-1
1.603239378E0,2.420811653E-1,-1.711079776E-1,1.318263710E-1
1.605727347E0,2.527337968E-1,-1.583248079E-1,1.307611167E-1
1.608215316E0,2.612559199E-1,-1.455416381E-1,1.307611167E-1
1.610703285E0,2.687127590E-1,-1.327584833E-1,1.307611167E-1
1.613191253E0,2.740390599E-1,-1.210405827E-1,1.286305785E-1
1.615679222E0,2.761695981E-1,-1.082574204E-1,1.275653243E-1
1.618167191E0,2.783001363E-1,-9.760478139E-2,1.265000552E-1
1.620655160E0,2.783001363E-1,-8.695214242E-2,1.233042628E-1
1.623143128E0,2.761695981E-1,-7.736477256E-2,1.190432087E-1
1.625631097E0,2.729738057E-1,-6.884266436E-2,1.137168929E-1
1.628119066E0,2.665822208E-1,-6.032055244E-2,1.083905771E-1
1.630607035E0,2.601906359E-1,-5.179844424E-2,1.030642539E-1
1.633095003E0,2.516685426E-1,-4.434159771E-2,9.667267650E-2
1.635582972E0,2.420811653E-1,-3.688475490E-2,8.921582997E-2
1.638070941E0,2.314285189E-1,-3.049317189E-2,8.175898343E-2
1.640558910E0,2.207758874E-1,-2.516685426E-2,7.430213690E-2
1.643046878E0,2.079927325E-1,-2.090579830E-2,6.578002870E-2
1.645534847E0,1.952095628E-1,-1.771000773E-2,5.832318589E-2
1.648022816E0,1.802958697E-1,-1.664474420E-2,5.086633936E-2
1.650510785E0,1.664474458E-1,-1.771000773E-2,4.340949282E-2
1.652998753E0,1.515337527E-1,-2.303632535E-2,3.595264629E-2
1.655486722E0,1.366200596E-1,-2.836264484E-2,2.956106514E-2
1.657974691E0,1.217063740E-1,-3.581948951E-2,2.316948399E-2
1.660462660E0,1.067926809E-1,-4.540686309E-2,1.677790284E-2
1.662950628E0,9.187898785E-2,-5.712476373E-2,1.038632076E-2
1.665438597E0,7.803056389E-2,-6.777740270E-2,3.994738683E-3
1.667926566E0,6.205160543E-2,-7.949529588E-2,-1.331579522E-3
1.670414535E0,4.820318148E-2,-9.014793485E-2,-7.723161485E-3
1.672902503E0,3.328948840E-2,-9.973530471E-2,-1.304947957E-2
1.675390472E0,2.050632425E-2,-1.082574204E-1,-1.837579720E-2
1.677878441E0,7.723161485E-3,-1.167795286E-1,-2.370211668E-2
1.680366410E0,-2.929474926E-3,-1.221058443E-1,-2.689790726E-2
1.682854378E0,-1.145158429E-2,-1.274321675E-1,-3.115896136E-2
1.685342347E0,-1.890842989E-2,-1.306279600E-1,-3.542001545E-2
1.687830316E0,-2.530001104E-2,-1.327584833E-1,-3.861580789E-2
1.690318285E0,-2.849580161E-2,-1.306279600E-1,-4.181159660E-2
1.692806253E0,-3.169159219E-2,-1.274321675E-1,-4.394212365E-2
1.695294222E0,-3.382211924E-2,-1.221058443E-1,-4.500738904E-2
1.697782191E0,-3.382211924E-2,-1.157142594E-1,-4.607265070E-2
1.700270160E0,-3.275685757E-2,-1.082574204E-1,-4.500738904E-2
1.702758128E0,-2.849580161E-2,-1.008005738E-1,-4.394212365E-2
1.705246097E0,-2.316948399E-2,-9.440898895E-2,-4.074633494E-2
1.707734066E0,-1.571263932E-2,-8.801741153E-2,-3.648528084E-2
1.710222035E0,-9.321057238E-3,-8.162582666E-2,-3.328948840E-2
1.712710003E0,2.663159103E-4,-7.629951090E-2,-2.796317078E-2
1.715197972E0,9.853689000E-3,-7.097318769E-2,-2.157158963E-2
1.717685941E0,2.157158963E-2,-6.671213359E-2,-1.518000662E-2
1.720173910E0,3.328948840E-2,-6.245107949E-2,-7.723161485E-3
1.722661878E0,4.500738904E-2,-5.819002539E-2,-2.663159103E-4
1.725149847E0,5.779055133E-2,-5.392897129E-2,6.125265732E-3
1.727637816E0,6.950845569E-2,-4.753739014E-2,1.358211134E-2
1.730125785E0,8.016108721E-2,-4.221107066E-2,1.997369342E-2
1.732613753E0,9.081372619E-2,-3.581948951E-2,2.530001104E-2
1.735101722E0,1.004010960E-1,-2.836264484E-2,3.062633052E-2
1.737589691E0,1.078579426E-1,-1.984053478E-2,3.382211924E-2
1.740077660E0,1.142495275E-1,-1.131842658E-2,3.701791167E-2
1.742565628E0,1.195758432E-1,-2.796316985E-3,3.914843872E-2
1.745053597E0,1.227716357E-1,5.725792143E-3,4.021370411E-2
1.747541566E0,1.249021590E-1,1.531316526E-2,4.127896577E-2
1.750029535E0,1.249021590E-1,2.383527346E-2,4.127896577E-2
1.752517503E0,1.249021590E-1,3.129211813E-2,4.021370411E-2
1.755005472E0,1.227716357E-1,3.661843762E-2,3.808317333E-2
1.757493441E0,1.206411049E-1,3.981423005E-2,3.595264629E-2
1.759981410E0,1.153147891E-1,4.194475710E-2,3.275685757E-2
1.762469378E0,1.099884734E-1,4.194475710E-2,2.956106514E-2
1.764957347E0,1.046621501E-1,3.981423005E-2,2.530001104E-2
1.767445316E0,9.720530361E-2,3.661843762E-2,2.103895694E-2
1.769933285E0,8.974846452E-2,3.235738352E-2,1.677790284E-2
1.772421253E0,8.229161799E-2,2.703106403E-2,1.251684781E-2
1.774909222E0,7.376950979E-2,2.063948289E-2,8.255792782E-3
1.777397191E0,6.631266326E-2,1.424790081E-2,3.994738683E-3
1.779885160E0,5.885581672E-2,7.856319658E-3,-2.663159103E-4
1.782373128E0,5.139897019E-2,1.464737463E-3,-4.527370445E-3
1.784861097E0,4.500738904E-2,-4.926844500E-3,-7.723161485E-3
1.787349066E0,3.861580789E-2,-1.131842658E-2,-9.853689000E-3
1.789837035E0,3.328948840E-2,-1.877527125E-2,-1.304947957E-2
1.792325003E0,2.902843431E-2,-2.410159074E-2,-1.518000662E-2
1.794812972E0,2.583264373E-2,-2.836264484E-2,-1.624527015E-2
1.797300941E0,2.157158963E-2,-3.262370080E-2,-1.837579720E-2
1.799788910E0,1.837579720E-2,-3.475422785E-2,-2.050632425E-2
1.802276878E0,1.518000662E-2,-3.581948951E-2,-2.263685316E-2
1.804764847E0,1.304947957E-2,-3.688475490E-2,-2.370211668E-2
1.807252816E0,1.091895252E-2,-3.795001656E-2,-2.476738021E-2
1.809740785E0,9.853689000E-3,-3.795001656E-2,-2.583264373E-2
1.812228753E0,9.853689000E-3,-3.688475490E-2,-2.689790726E-2
1.814716722E0,8.788425475E-3,-3.581948951E-2,-2.583264373E-2
1.817204691E0,8.788425475E-3,-3.475422785E-2,-2.476738021E-2
1.819692660E0,8.788425475E-3,-3.262370080E-2,-2.476738021E-2
1.822180628E0,9.853689000E-3,-2.942790836E-2,-2.370211668E-2
1.824668597E0,1.091895252E-2,-2.623211779E-2,-2.263685316E-2
1.827156566E0,1.198421605E-2,-2.410159074E-2,-2.050632425E-2
1.829644535E0,1.411474310E-2,-2.090579830E-2,-1.944106072E-2
1.832132503E0,1.624527015E-2,-1.771000773E-2,-1.731053367E-2
1.834620472E0,1.731053367E-2,-1.451421715E-2,-1.518000662E-2
1.837108441E0,1.837579720E-2,-1.238369010E-2,-1.304947957E-2
1.839596410E0,2.050632425E-2,-1.131842658E-2,-9.853689000E-3
1.842084378E0,2.157158963E-2,-9.187898599E-3,-7.723161485E-3
1.844572347E0,2.370211668E-2,-7.057371549E-3,-5.592633970E-3
1.847060316E0,2.476738021E-2,-7.057371549E-3,-4.527370445E-3
1.849548285E0,2.689790726E-2,-5.992108025E-3,-2.396843163E-3
1.852036253E0,2.902843431E-2,-4.926844500E-3,-1.331579522E-3
1.854524222E0,2.902843431E-2,-3.861580743E-3,-2.663159103E-4
1.857012191E0,3.009369783E-2,-3.861580743E-3,-2.663159103E-4
1.859500160E0,3.115896136E-2,-3.861580743E-3,-2.663159103E-4
1.861988128E0,3.222422674E-2,-3.861580743E-3,-2.663159103E-4
1.864476097E0,3.222422674E-2,-2.796316985E-3,-2.663159103E-4
1.866964066E0,3.115896136E-2,-1.731053460E-3,7.989477599E-4
1.869452035E0,3.115896136E-2,-1.731053460E-3,7.989477599E-4
1.871940003E0,3.009369783E-2,-6.657897611E-4,7.989477599E-4
1.874427972E0,2.902843431E-2,3.994738800E-4,7.989477599E-4
1.876915941E0,2.796317078E-2,1.464737463E-3,7.989477599E-4
1.879403910E0,2.476738021E-2,3.595264861E-3,1.864211401E-3
1.881891878E0,2.263685316E-2,6.791055668E-3,1.864211401E-3
1.884379847E0,1.837579720E-2,9.986846708E-3,2.929474926E-3
1.886867816E0,1.411474310E-2,1.424790081E-2,2.929474926E-3
1.889355785E0,1.091895252E-2,1.850895584E-2,2.929474926E-3
1.891843753E0,5.592633970E-3,2.277000993E-2,2.929474926E-3
1.894331722E0,2.663159103E-4,2.596580051E-2,3.994738683E-3
1.896819691E0,-3.994738683E-3,2.916159295E-2,2.929474926E-3
1.899307660E0,-9.321057238E-3,3.022685647E-2,2.929474926E-3
1.901795628E0,-1.464737486E-2,3.129211813E-2,2.929474926E-3
1.904283597E0,-1.890842989E-2,3.022685647E-2,2.929474926E-3
1.906771566E0,-2.316948399E-2,3.022685647E-2,1.864211401E-3
1.909259535E0,-2.743053809E-2,2.809632942E-2,7.989477599E-4
1.911747503E0,-2.956106514E-2,2.596580051E-2,-2.663159103E-4
1.914235472E0,-3.169159219E-2,2.383527346E-2,-2.663159103E-4
1.916723441E0,-3.382211924E-2,2.063948289E-2,-1.331579522E-3
1.919211410E0,-3.382211924E-2,1.850895584E-2,-3.462106921E-3
1.921699378E0,-3.382211924E-2,1.637842879E-2,-3.462106921E-3
1.924187347E0,-3.275685757E-2,1.424790081E-2,-4.527370445E-3
1.926675316E0,-3.062633052E-2,1.105211023E-2,-5.592633970E-3
1.929163285E0,-2.956106514E-2,8.921583183E-3,-6.657897960E-3
1.931651253E0,-2.636527456E-2,6.791055668E-3,-7.723161485E-3
1.934139222E0,-2.316948399E-2,5.725792143E-3,-7.723161485E-3
1.936627191E0,-1.997369342E-2,3.595264861E-3,-7.723161485E-3
1.939115160E0,-1.677790284E-2,3.595264861E-3,-7.723161485E-3
1.941603128E0,-1.464737486E-2,5.725792143E-3,-8.788425475E-3
1.944091097E0,-1.251684781E-2,7.856319658E-3,-9.853689000E-3
1.946579066E0,-9.321057238E-3,9.986846708E-3,-1.091895252E-2
1.949067035E0,-5.060002208E-3,1.211737376E-2,-9.853689000E-3
1.951555003E0,-1.864211401E-3,1.318263728E-2,-9.853689000E-3
1.954042972E0,3.462106921E-3,1.318263728E-2,-8.788425475E-3
1.956530941E0,7.723161485E-3,1.211737376E-2,-8.788425475E-3
1.959018910E0,1.304947957E-2,1.105211023E-2,-6.657897960E-3
1.961506878E0,1.837579720E-2,9.986846708E-3,-6.657897960E-3
1.963994847E0,2.263685316E-2,7.856319658E-3,-5.592633970E-3
1.966482816E0,2.796317078E-2,6.791055668E-3,-5.592633970E-3
1.968970785E0,3.435475379E-2,6.791055668E-3,-4.527370445E-3
1.971458753E0,3.861580789E-2,5.725792143E-3,-4.527370445E-3
1.973946722E0,4.287686199E-2,6.791055668E-3,-3.462106921E-3
1.976434691E0,4.713791609E-2,7.856319658E-3,-1.331579522E-3
1.978922660E0,4.926844314E-2,9.986846708E-3,-2.663159103E-4
1.981410628E0,5.246423557E-2,1.211737376E-2,7.989477599E-4
1.983898597E0,5.459476262E-2,1.637842879E-2,7.989477599E-4
1.986386566E0,5.672528967E-2,2.170474641E-2,1.864211401E-3
1.988874535E0,5.779055133E-2,2.809632942E-2,1.864211401E-3
1.991362503E0,5.885581672E-2,3.448791057E-2,1.864211401E-3
1.993850472E0,5.885581672E-2,4.087949172E-2,1.864211401E-3
1.996338441E0,5.885581672E-2,4.727107286E-2,7.989477599E-4
1.998826410E0,5.885581672E-2,5.259739235E-2,7.989477599E-4
2.001314378E0,5.885581672E-2,5.792371184E-2,1.864211401E-3
2.003802347E0,5.992107838E-2,6.218476593E-2,1.864211401E-3
2.006290316E0,5.992107838E-2,6.644582003E-2,1.864211401E-3
2.008778285E0,5.885581672E-2,7.070687413E-2,1.864211401E-3
2.011266253E0,5.779055133E-2,7.283740491E-2,2.929474926E-3
2.013754222E0,5.779055133E-2,7.603318989E-2,2.929474926E-3
2.016242191E0,5.779055133E-2,7.816372067E-2,2.929474926E-3
2.018730160E0,5.779055133E-2,7.922898233E-2,2.929474926E-3
2.021218128E0,5.885581672E-2,8.029424399E-2,2.929474926E-3
2.023706097E0,5.885581672E-2,8.029424399E-2,2.929474926E-3
2.026194066E0,5.992107838E-2,7.922898233E-2,2.929474926E-3
2.028682035E0,5.992107838E-2,7.603318989E-2,2.929474926E-3
2.031170003E0,6.098634377E-2,7.283740491E-2,2.929474926E-3
2.033657972E0,6.205160543E-2,6.751108170E-2,3.994738683E-3
2.036145941E0,6.205160543E-2,6.111950055E-2,2.929474926E-3
2.038633910E0,6.205160543E-2,5.472791940E-2,2.929474926E-3
2.041121878E0,6.098634377E-2,4.940159991E-2,1.864211401E-3
2.043609847E0,5.992107838E-2,4.407528415E-2,7.989477599E-4
2.046097816E0,5.885581672E-2,3.981423005E-2,-2.663159103E-4
2.048585785E0,5.779055133E-2,3.555317223E-2,-1.331579522E-3
2.051073753E0,5.672528967E-2,3.235738352E-2,-1.331579522E-3
2.053561722E0,5.459476262E-2,2.916159295E-2,-1.331579522E-3
2.056049691E0,5.246423557E-2,2.490053698E-2,-2.396843163E-3
2.058537660E0,5.139897019E-2,2.063948289E-2,-2.396843163E-3
2.061025628E0,4.820318148E-2,1.637842879E-2,-3.462106921E-3
2.063513597E0,4.607265070E-2,1.105211023E-2,-3.462106921E-3
2.066001566E0,4.394212365E-2,3.595264861E-3,-3.462106921E-3
2.068489535E0,4.074633494E-2,-2.796316985E-3,-3.462106921E-3
2.070977503E0,3.861580789E-2,-9.187898599E-3,-3.462106921E-3
2.073465472E0,3.648528084E-2,-1.557948068E-2,-4.527370445E-3
2.075953441E0,3.435475379E-2,-2.197106183E-2,-4.527370445E-3
2.078441410E0,3.222422674E-2,-2.623211779E-2,-5.592633970E-3
2.080929378E0,3.009369783E-2,-3.155843541E-2,-6.657897960E-3
2.083417347E0,2.902843431E-2,-3.581948951E-2,-7.723161485E-3
2.085905316E0,2.689790726E-2,-3.795001656E-2,-8.788425475E-3
2.088393285E0,2.583264373E-2,-4.008054361E-2,-9.853689000E-3
2.090881253E0,2.583264373E-2,-4.221107066E-2,-1.091895252E-2
2.093369222E0,2.583264373E-2,-4.327633604E-2,-1.198421605E-2
2.095857191E0,2.583264373E-2,-4.221107066E-2,-1.304947957E-2
2.098345160E0,2.583264373E-2,-4.221107066E-2,-1.304947957E-2
2.100833128E0,2.796317078E-2,-4.114580899E-2,-1.304947957E-2
2.103321097E0,2.902843431E-2,-3.795001656E-2,-1.304947957E-2
2.105809066E0,3.115896136E-2,-3.368896246E-2,-1.411474310E-2
2.108297035E0,3.222422674E-2,-2.623211779E-2,-1.411474310E-2
2.110785003E0,3.542001545E-2,-1.771000773E-2,-1.411474310E-2
2.113272972E0,3.861580789E-2,-1.025316212E-2,-1.304947957E-2
2.115760941E0,4.181159660E-2,-2.796316985E-3,-1.198421605E-2
2.118248910E0,4.713791609E-2,3.595264861E-3,-8.788425475E-3
2.120736878E0,5.246423557E-2,7.856319658E-3,-7.723161485E-3
2.123224847E0,5.885581672E-2,1.211737376E-2,-5.592633970E-3
2.125712816E0,6.524740160E-2,1.424790081E-2,-3.462106921E-3
2.128200785E0,7.163897902E-2,1.637842879E-2,-2.663159103E-4
2.130688753E0,7.803056389E-2,1.850895584E-2,1.864211401E-3
2.133176722E0,8.229161799E-2,1.957421936E-2,3.994738683E-3
2.135664691E0,8.761793375E-2,2.170474641E-2,5.060002208E-3
2.138152660E0,9.187898785E-2,2.277000993E-2,6.125265732E-3
2.140640628E0,9.614004195E-2,2.490053698E-2,7.190529723E-3
2.143128597E0,9.933583438E-2,2.703106403E-2,8.255792782E-3
2.145616566E0,1.014663652E-1,2.916159295E-2,8.255792782E-3
2.148104535E0,1.025316268E-1,3.022685647E-2,9.321057238E-3
2.150592503E0,1.046621501E-1,3.129211813E-2,9.321057238E-3
2.153080472E0,1.046621501E-1,3.235738352E-2,8.255792782E-3
2.155568441E0,1.046621501E-1,3.342264518E-2,8.255792782E-3
2.158056410E0,1.046621501E-1,3.342264518E-2,6.125265732E-3
2.160544378E0,1.046621501E-1,3.235738352E-2,6.125265732E-3
2.163032347E0,1.035968885E-1,2.916159295E-2,5.060002208E-3
2.165520316E0,1.025316268E-1,2.809632942E-2,3.994738683E-3
2.168008285E0,1.014663652E-1,2.596580051E-2,2.929474926E-3
2.170496253E0,9.933583438E-2,2.277000993E-2,1.864211401E-3
2.172984222E0,9.720530361E-2,1.957421936E-2,7.989477599E-4
2.175472191E0,9.507478029E-2,1.637842879E-2,-2.663159103E-4
2.177960160E0,9.187898785E-2,1.318263728E-2,-1.331579522E-3
2.180448128E0,8.868319541E-2,9.986846708E-3,-3.462106921E-3
2.182936097E0,8.442214131E-2,4.660528619E-3,-4.527370445E-3
2.185424066E0,7.909582555E-2,1.464737463E-3,-4.527370445E-3
2.187912035E0,7.376950979E-2,-2.796316985E-3,-5.592633970E-3
2.190400003E0,6.844318658E-2,-7.057371549E-3,-7.723161485E-3
2.192887972E0,6.311687082E-2,-1.131842658E-2,-8.788425475E-3
2.195375941E0,5.672528967E-2,-1.557948068E-2,-8.788425475E-3
2.197863910E0,5.139897019E-2,-2.090579830E-2,-9.853689000E-3
2.200351878E0,4.500738904E-2,-2.410159074E-2,-1.091895252E-2
2.202839847E0,3.861580789E-2,-2.836264484E-2,-1.198421605E-2
2.205327816E0,3.115896136E-2,-3.155843541E-2,-1.304947957E-2
2.207815785E0,2.476738021E-2,-3.475422785E-2,-1.304947957E-2
2.210303753E0,1.944106072E-2,-3.795001656E-2,-1.411474310E-2
2.212791722E0,1.411474310E-2,-4.008054361E-2,-1.518000662E-2
2.215279691E0,8.788425475E-3,-4.114580899E-2,-1.518000662E-2
2.217767660E0,5.592633970E-3,-4.221107066E-2,-1.624527015E-2
2.220255628E0,1.331579522E-3,-4.221107066E-2,-1.624527015E-2
2.222743597E0,-1.864211401E-3,-4.327633604E-2,-1.518000662E-2
2.225231566E0,-3.994738683E-3,-4.327633604E-2,-1.518000662E-2
2.227719535E0,-7.190529723E-3,-4.327633604E-2,-1.518000662E-2
2.230207503E0,-8.255792782E-3,-4.114580899E-2,-1.518000662E-2
2.232695472E0,-9.321057238E-3,-4.008054361E-2,-1.411474310E-2
2.235183441E0,-9.321057238E-3,-3.795001656E-2,-1.411474310E-2
2.237671410E0,-8.255792782E-3,-3.475422785E-2,-1.411474310E-2
2.240159378E0,-7.190529723E-3,-3.368896246E-2,-1.304947957E-2
2.242647347E0,-2.929474926E-3,-3.155843541E-2,-1.198421605E-2
2.245135316E0,2.663159103E-4,-3.049317189E-2,-8.788425475E-3
2.247623285E0,3.462106921E-3,-3.049317189E-2,-6.657897960E-3
2.250111253E0,7.723161485E-3,-2.942790836E-2,-4.527370445E-3
2.252599222E0,1.198421605E-2,-2.729738131E-2,-1.331579522E-3
2.255087191E0,1.624527015E-2,-2.516685426E-2,7.989477599E-4
2.257575160E0,2.050632425E-2,-2.303632535E-2,2.929474926E-3
2.260063128E0,2.476738021E-2,-1.771000773E-2,5.060002208E-3
2.262551097E0,2.902843431E-2,-1.238369010E-2,7.190529723E-3
2.265039066E0,3.222422674E-2,-7.057371549E-3,9.321057238E-3
2.267527035E0,3.648528084E-2,-6.657897611E-4,1.038632076E-2
2.270015003E0,4.074633494E-2,3.595264861E-3,1.251684781E-2
2.272502972E0,4.500738904E-2,8.921583183E-3,1.358211134E-2
2.274990941E0,4.926844314E-2,1.318263728E-2,1.571263932E-2
2.277478910E0,5.246423557E-2,1.637842879E-2,1.571263932E-2
2.279966878E0,5.566002429E-2,1.850895584E-2,1.571263932E-2
2.282454847E0,5.885581672E-2,2.063948289E-2,1.571263932E-2
2.284942816E0,6.098634377E-2,2.170474641E-2,1.677790284E-2
2.287430785E0,6.418213248E-2,2.170474641E-2,1.571263932E-2
2.289918753E0,6.524740160E-2,2.063948289E-2,1.571263932E-2
2.292406722E0,6.631266326E-2,1.850895584E-2,1.464737486E-2
2.294894691E0,6.737792492E-2,1.637842879E-2,1.358211134E-2
2.297382660E0,6.737792492E-2,1.424790081E-2,1.145158429E-2
2.299870628E0,6.631266326E-2,1.105211023E-2,1.038632076E-2
2.302358597E0,6.631266326E-2,7.856319658E-3,7.190529723E-3
2.304846566E0,6.418213248E-2,3.595264861E-3,5.060002208E-3
2.307334535E0,6.205160543E-2,1.464737463E-3,1.864211401E-3
2.309822503E0,6.098634377E-2,-1.731053460E-3,-1.331579522E-3
2.312310472E0,5.992107838E-2,-4.926844500E-3,-3.462106921E-3
2.314798441E0,5.885581672E-2,-7.057371549E-3,-6.657897960E-3
2.317286410E0,5.672528967E-2,-9.187898599E-3,-1.091895252E-2
2.319774378E0,5.459476262E-2,-1.238369010E-2,-1.304947957E-2
2.322262347E0,5.246423557E-2,-1.557948068E-2,-1.731053367E-2
2.324750316E0,5.033370852E-2,-1.877527125E-2,-1.944106072E-2
2.327238285E0,4.820318148E-2,-2.197106183E-2,-2.263685316E-2
2.329726253E0,4.607265070E-2,-2.516685426E-2,-2.476738021E-2
2.332214222E0,4.394212365E-2,-2.836264484E-2,-2.796317078E-2
2.334702191E0,3.968106955E-2,-3.049317189E-2,-3.009369783E-2
2.337190160E0,3.648528084E-2,-2.942790836E-2,-3.222422674E-2
2.339678128E0,3.328948840E-2,-2.836264484E-2,-3.435475379E-2
2.342166097E0,3.115896136E-2,-2.623211779E-2,-3.648528084E-2
2.344654066E0,2.796317078E-2,-2.516685426E-2,-3.648528084E-2
2.347142035E0,2.583264373E-2,-2.303632535E-2,-3.755054250E-2
2.349630003E0,2.370211668E-2,-2.303632535E-2,-3.755054250E-2
2.352117972E0,2.370211668E-2,-2.303632535E-2,-3.755054250E-2
2.354605941E0,2.263685316E-2,-2.197106183E-2,-3.648528084E-2
2.357093910E0,2.157158963E-2,-2.303632535E-2,-3.542001545E-2
2.359581878E0,2.050632425E-2,-2.197106183E-2,-3.435475379E-2
2.362069847E0,1.944106072E-2,-2.090579830E-2,-3.222422674E-2
2.364557816E0,1.944106072E-2,-1.877527125E-2,-3.009369783E-2
2.367045785E0,1.944106072E-2,-1.557948068E-2,-2.796317078E-2
2.369533753E0,1.944106072E-2,-1.131842658E-2,-2.583264373E-2
2.372021722E0,1.944106072E-2,-7.057371549E-3,-2.370211668E-2
2.374509691E0,2.050632425E-2,-1.731053460E-3,-2.050632425E-2
2.376997660E0,2.050632425E-2,4.660528619E-3,-1.837579720E-2
2.379485628E0,2.050632425E-2,8.921583183E-3,-1.624527015E-2
2.381973597E0,2.050632425E-2,1.318263728E-2,-1.411474310E-2
2.384461566E0,2.050632425E-2,1.744369231E-2,-1.091895252E-2
2.386949535E0,2.157158963E-2,2.063948289E-2,-8.788425475E-3
2.389437503E0,2.157158963E-2,2.277000993E-2,-6.657897960E-3
2.391925472E0,2.157158963E-2,2.383527346E-2,-4.527370445E-3
2.394413441E0,2.157158963E-2,2.383527346E-2,-3.462106921E-3
2.396901410E0,2.263685316E-2,2.383527346E-2,-1.331579522E-3
2.399389378E0,2.263685316E-2,2.277000993E-2,-2.663159103E-4
2.401877347E0,2.370211668E-2,2.170474641E-2,7.989477599E-4
2.404365316E0,2.476738021E-2,1.957421936E-2,7.989477599E-4
2.406853285E0,2.583264373E-2,1.850895584E-2,1.864211401E-3
2.409341253E0,2.689790726E-2,1.744369231E-2,1.864211401E-3
2.411829222E0,2.902843431E-2,1.637842879E-2,2.929474926E-3
2.414317191E0,3.115896136E-2,1.637842879E-2,2.929474926E-3
2.416805160E0,3.328948840E-2,1.637842879E-2,3.994738683E-3
2.419293128E0,3.542001545E-2,1.637842879E-2,2.929474926E-3
2.421781097E0,3.755054250E-2,1.637842879E-2,2.929474926E-3
2.424269066E0,4.181159660E-2,1.637842879E-2,2.929474926E-3
2.426757035E0,4.500738904E-2,1.744369231E-2,1.864211401E-3
2.429245003E0,4.926844314E-2,1.850895584E-2,7.989477599E-4
2.431732972E0,5.246423557E-2,2.063948289E-2,-1.331579522E-3
2.434220941E0,5.672528967E-2,2.383527346E-2,-3.462106921E-3
2.436708910E0,5.992107838E-2,2.703106403E-2,-5.592633970E-3
2.439196878E0,6.418213248E-2,2.916159295E-2,-7.723161485E-3
2.441684847E0,6.844318658E-2,3.235738352E-2,-8.788425475E-3
2.444172816E0,7.270424068E-2,3.448791057E-2,-1.091895252E-2
2.446660785E0,7.696529478E-2,3.661843762E-2,-1.304947957E-2
2.449148753E0,8.122635633E-2,3.661843762E-2,-1.411474310E-2
2.451636722E0,8.548741043E-2,3.661843762E-2,-1.624527015E-2
2.454124691E0,8.974846452E-2,3.661843762E-2,-1.837579720E-2
2.456612660E0,9.294424951E-2,3.555317223E-2,-2.050632425E-2
2.459100628E0,9.507478029E-2,3.555317223E-2,-2.157158963E-2
2.461588597E0,9.720530361E-2,3.448791057E-2,-2.370211668E-2
2.464076566E0,9.720530361E-2,3.342264518E-2,-2.476738021E-2
2.466564535E0,9.720530361E-2,3.235738352E-2,-2.583264373E-2
2.469052503E0,9.720530361E-2,3.235738352E-2,-2.796317078E-2
2.471540472E0,9.614004195E-2,3.235738352E-2,-3.009369783E-2
2.474028441E0,9.400951862E-2,3.129211813E-2,-3.009369783E-2
2.476516410E0,9.187898785E-2,3.342264518E-2,-3.115896136E-2
2.479004378E0,8.868319541E-2,3.342264518E-2,-3.115896136E-2
2.481492347E0,8.442214131E-2,3.342264518E-2,-3.222422674E-2
2.483980316E0,8.016108721E-2,3.448791057E-2,-3.222422674E-2
2.486468285E0,7.376950979E-2,3.448791057E-2,-3.222422674E-2
2.488956253E0,6.737792492E-2,3.448791057E-2,-3.328948840E-2
2.491444222E0,6.098634377E-2,3.555317223E-2,-3.435475379E-2
2.493932191E0,5.459476262E-2,3.448791057E-2,-3.648528084E-2
2.496420160E0,4.820318148E-2,3.448791057E-2,-3.755054250E-2
2.498908128E0,4.074633494E-2,3.448791057E-2,-3.755054250E-2
2.501396097E0,3.542001545E-2,3.235738352E-2,-3.861580789E-2
2.503884066E0,2.902843431E-2,3.129211813E-2,-3.968106955E-2
2.506372035E0,2.370211668E-2,2.809632942E-2,-4.074633494E-2
2.508860003E0,1.944106072E-2,2.490053698E-2,-4.287686199E-2
2.511347972E0,1.411474310E-2,2.063948289E-2,-4.394212365E-2
2.513835941E0,1.091895252E-2,1.531316526E-2,-4.500738904E-2
2.516323910E0,8.788425475E-3,9.986846708E-3,-4.607265070E-2
2.518811878E0,6.657897960E-3,5.725792143E-3,-4.607265070E-2
2.521299847E0,5.592633970E-3,-6.657897611E-4,-4.713791609E-2
2.523787816E0,4.527370445E-3,-3.861580743E-3,-4.820318148E-2
2.526275785E0,4.527370445E-3,-7.057371549E-3,-4.926844314E-2
2.528763753E0,4.527370445E-3,-9.187898599E-3,-5.033370852E-2
2.531251722E0,5.592633970E-3,-1.025316212E-2,-5.139897019E-2
2.533739691E0,5.592633970E-3,-1.025316212E-2,-5.246423557E-2
2.536227660E0,7.723161485E-3,-1.025316212E-2,-5.246423557E-2
2.538715628E0,9.853689000E-3,-9.187898599E-3,-5.246423557E-2
2.541203597E0,1.198421605E-2,-7.057371549E-3,-5.139897019E-2
2.543691514E0,1.411474310E-2,-3.861580743E-3,-5.139897019E-2
2.546179430E0,1.624527015E-2,-6.657897611E-4,-5.139897019E-2
2.548667347E0,1.944106072E-2,2.530001104E-3,-5.139897019E-2
2.551155264E0,2.050632425E-2,7.856319658E-3,-5.139897019E-2
2.553643180E0,2.263685316E-2,1.211737376E-2,-5.246423557E-2
2.556131097E0,2.476738021E-2,1.637842879E-2,-5.246423557E-2
2.558619014E0,2.689790726E-2,1.957421936E-2,-5.246423557E-2
2.561106930E0,2.902843431E-2,2.277000993E-2,-5.246423557E-2
2.563594847E0,3.009369783E-2,2.596580051E-2,-5.246423557E-2
2.566082764E0,3.222422674E-2,2.809632942E-2,-5.352949724E-2
2.568570680E0,3.542001545E-2,3.022685647E-2,-5.352949724E-2
2.571058597E0,3.755054250E-2,3.235738352E-2,-5.459476262E-2
2.573546514E0,3.861580789E-2,3.342264518E-2,-5.459476262E-2
2.576034430E0,3.968106955E-2,3.342264518E-2,-5.459476262E-2
2.578522347E0,4.181159660E-2,3.555317223E-2,-5.459476262E-2
2.581010264E0,4.287686199E-2,3.555317223E-2,-5.459476262E-2
2.583498180E0,4.287686199E-2,3.661843762E-2,-5.459476262E-2
2.585986097E0,4.181159660E-2,3.768370301E-2,-5.459476262E-2
2.588474014E0,4.181159660E-2,3.768370301E-2,-5.352949724E-2
2.590961930E0,4.074633494E-2,3.874896467E-2,-5.352949724E-2
2.593449847E0,4.074633494E-2,3.874896467E-2,-5.352949724E-2
2.595937764E0,3.968106955E-2,3.981423005E-2,-5.246423557E-2
2.598425680E0,3.755054250E-2,3.981423005E-2,-5.139897019E-2
2.600913597E0,3.648528084E-2,3.874896467E-2,-5.139897019E-2
2.603401514E0,3.542001545E-2,3.874896467E-2,-5.033370852E-2
2.605889430E0,3.328948840E-2,3.768370301E-2,-4.926844314E-2
2.608377347E0,3.222422674E-2,3.661843762E-2,-4.926844314E-2
2.610865264E0,2.902843431E-2,3.555317223E-2,-4.820318148E-2
2.613353233E0,2.583264373E-2,3.342264518E-2,-4.713791609E-2
2.615841201E0,2.370211668E-2,3.235738352E-2,-4.713791609E-2
2.618329170E0,2.050632425E-2,2.916159295E-2,-4.713791609E-2
2.620817139E0,1.837579720E-2,2.703106403E-2,-4.607265070E-2
2.623305108E0,1.411474310E-2,2.490053698E-2,-4.607265070E-2
2.625793076E0,1.091895252E-2,2.277000993E-2,-4.607265070E-2
2.628281045E0,7.723161485E-3,1.957421936E-2,-4.607265070E-2
2.630769014E0,4.527370445E-3,1.531316526E-2,-4.713791609E-2
2.633256983E0,1.331579522E-3,1.211737376E-2,-4.713791609E-2
2.635744951E0,-7.989477599E-4,8.921583183E-3,-4.713791609E-2
2.638232920E0,-3.994738683E-3,5.725792143E-3,-4.820318148E-2
2.640720889E0,-8.255792782E-3,3.595264861E-3,-4.926844314E-2
2.643208858E0,-1.145158429E-2,1.464737463E-3,-4.926844314E-2
2.645696826E0,-1.358211134E-2,-6.657897611E-4,-5.033370852E-2
2.648184795E0,-1.677790284E-2,-6.657897611E-4,-4.926844314E-2
2.650672764E0,-1.784316637E-2,-1.731053460E-3,-5.033370852E-2
2.653160733E0,-1.997369342E-2,-1.731053460E-3,-4.926844314E-2
2.655648701E0,-2.103895694E-2,-2.796316985E-3,-4.820318148E-2
2.658136670E0,-2.103895694E-2,-2.796316985E-3,-4.607265070E-2
2.660624639E0,-2.103895694E-2,-3.861580743E-3,-4.500738904E-2
2.663112608E0,-2.103895694E-2,-3.861580743E-3,-4.394212365E-2
2.665600576E0,-1.997369342E-2,-4.926844500E-3,-4.181159660E-2
2.668088545E0,-1.890842989E-2,-4.926844500E-3,-3.968106955E-2
2.670576514E0,-1.571263932E-2,-5.992108025E-3,-3.648528084E-2
2.673064483E0,-1.358211134E-2,-4.926844500E-3,-3.328948840E-2
2.675552451E0,-1.145158429E-2,-4.926844500E-3,-3.009369783E-2
2.678040420E0,-7.190529723E-3,-3.861580743E-3,-2.796317078E-2
2.680528389E0,-3.994738683E-3,-2.796316985E-3,-2.583264373E-2
2.683016358E0,-7.989477599E-4,-1.731053460E-3,-2.263685316E-2
2.685504326E0,2.396843163E-3,-6.657897611E-4,-2.050632425E-2
2.687992295E0,5.592633970E-3,1.464737463E-3,-1.837579720E-2
2.690480264E0,8.788425475E-3,2.530001104E-3,-1.624527015E-2
2.692968233E0,1.198421605E-2,3.595264861E-3,-1.624527015E-2
2.695456201E0,1.518000662E-2,4.660528619E-3,-1.518000662E-2
2.697944170E0,1.731053367E-2,5.725792143E-3,-1.518000662E-2
2.700432139E0,2.050632425E-2,4.660528619E-3,-1.518000662E-2
2.702920108E0,2.263685316E-2,4.660528619E-3,-1.411474310E-2
2.705408076E0,2.370211668E-2,4.660528619E-3,-1.411474310E-2
2.707896045E0,2.583264373E-2,3.595264861E-3,-1.411474310E-2
2.710384014E0,2.583264373E-2,3.595264861E-3,-1.411474310E-2
2.712871983E0,2.689790726E-2,4.660528619E-3,-1.411474310E-2
2.715359951E0,2.583264373E-2,4.660528619E-3,-1.411474310E-2
2.717847920E0,2.583264373E-2,6.791055668E-3,-1.411474310E-2
2.720335889E0,2.370211668E-2,7.856319658E-3,-1.518000662E-2
2.722823858E0,2.157158963E-2,8.921583183E-3,-1.411474310E-2
2.725311826E0,1.944106072E-2,9.986846708E-3,-1.411474310E-2
2.727799795E0,1.624527015E-2,1.105211023E-2,-1.518000662E-2
2.730287764E0,1.304947957E-2,1.318263728E-2,-1.518000662E-2
2.732775733E0,8.788425475E-3,1.424790081E-2,-1.518000662E-2
2.735263701E0,6.657897960E-3,1.424790081E-2,-1.411474310E-2
2.737751670E0,2.396843163E-3,1.531316526E-2,-1.411474310E-2
2.740239639E0,-7.989477599E-4,1.531316526E-2,-1.304947957E-2
2.742727608E0,-2.929474926E-3,1.424790081E-2,-1.198421605E-2
2.745215576E0,-5.060002208E-3,1.318263728E-2,-1.091895252E-2
2.747703545E0,-7.190529723E-3,1.211737376E-2,-7.723161485E-3
2.750191514E0,-9.321057238E-3,9.986846708E-3,-6.657897960E-3
2.752679483E0,-9.321057238E-3,8.921583183E-3,-4.527370445E-3
2.755167451E0,-9.321057238E-3,7.856319658E-3,-2.396843163E-3
2.757655420E0,-9.321057238E-3,6.791055668E-3,-2.663159103E-4
2.760143389E0,-8.255792782E-3,5.725792143E-3,7.989477599E-4
2.762631358E0,-8.255792782E-3,5.725792143E-3,1.864211401E-3
2.765119326E0,-6.125265732E-3,4.660528619E-3,2.929474926E-3
2.767607295E0,-6.125265732E-3,4.660528619E-3,2.929474926E-3
2.770095264E0,-5.060002208E-3,4.660528619E-3,3.994738683E-3
2.772583233E0,-3.994738683E-3,2.530001104E-3,3.994738683E-3
2.775071201E0,-2.929474926E-3,2.530001104E-3,2.929474926E-3
2.777559170E0,-1.864211401E-3,3.994738800E-4,1.864211401E-3
2.780047139E0,-1.864211401E-3,-1.731053460E-3,1.864211401E-3
2.782535108E0,-7.989477599E-4,-2.796316985E-3,1.864211401E-3
2.785023076E0,2.663159103E-4,-4.926844500E-3,7.989477599E-4
2.787511045E0,1.331579522E-3,-7.057371549E-3,1.864211401E-3
2.789999014E0,1.331579522E-3,-9.187898599E-3,1.864211401E-3
2.792486983E0,2.396843163E-3,-1.131842658E-2,1.864211401E-3
2.794974951E0,2.396843163E-3,-1.238369010E-2,2.929474926E-3
2.797462920E0,1.331579522E-3,-1.344895363E-2,2.929474926E-3
2.799950889E0,2.396843163E-3,-1.557948068E-2,3.994738683E-3
2.802438858E0,1.331579522E-3,-1.557948068E-2,5.060002208E-3
2.804926826E0,1.331579522E-3,-1.557948068E-2,7.190529723E-3
2.807414795E0,1.331579522E-3,-1.557948068E-2,7.190529723E-3
2.809902764E0,2.663159103E-4,-1.664474420E-2,8.255792782E-3
2.812390733E0,2.663159103E-4,-1.557948068E-2,1.038632076E-2
2.814878701E0,-7.989477599E-4,-1.557948068E-2,1.251684781E-2
2.817366670E0,-1.864211401E-3,-1.451421715E-2,1.358211134E-2
2.819854639E0,-1.864211401E-3,-1.344895363E-2,1.464737486E-2
2.822342608E0,-1.864211401E-3,-1.238369010E-2,1.464737486E-2
2.824830576E0,-1.864211401E-3,-1.131842658E-2,1.571263932E-2
2.827318545E0,-7.989477599E-4,-1.025316212E-2,1.784316637E-2
2.829806514E0,1.331579522E-3,-9.187898599E-3,1.784316637E-2
2.832294483E0,1.331579522E-3,-7.057371549E-3,1.890842989E-2
2.834782451E0,2.396843163E-3,-4.926844500E-3,1.890842989E-2
2.837270420E0,3.462106921E-3,-3.861580743E-3,1.997369342E-2
2.839758389E0,5.592633970E-3,-1.731053460E-3,1.997369342E-2
2.842246358E0,6.657897960E-3,-6.657897611E-4,1.890842989E-2
2.844734326E0,7.723161485E-3,3.994738800E-4,1.890842989E-2
2.847222295E0,7.723161485E-3,2.530001104E-3,1.890842989E-2
2.849710264E0,7.723161485E-3,4.660528619E-3,1.784316637E-2
2.852198233E0,7.723161485E-3,6.791055668E-3,1.677790284E-2
2.854686201E0,7.723161485E-3,7.856319658E-3,1.677790284E-2
2.857174170E0,7.723161485E-3,8.921583183E-3,1.677790284E-2
2.859662139E0,7.723161485E-3,8.921583183E-3,1.571263932E-2
2.862150108E0,6.657897960E-3,6.791055668E-3,1.571263932E-2
2.864638076E0,6.657897960E-3,4.660528619E-3,1.464737486E-2
2.867126045E0,5.592633970E-3,2.530001104E-3,1.358211134E-2
2.869614014E0,4.527370445E-3,-6.657897611E-4,1.251684781E-2
2.872101983E0,3.462106921E-3,-2.796316985E-3,1.251684781E-2
2.874589951E0,1.331579522E-3,-5.992108025E-3,1.145158429E-2
2.877077920E0,2.663159103E-4,-9.187898599E-3,1.038632076E-2
2.879565889E0,-2.929474926E-3,-1.131842658E-2,9.321057238E-3
2.882053858E0,-5.060002208E-3,-1.238369010E-2,9.321057238E-3
2.884541826E0,-7.190529723E-3,-1.344895363E-2,9.321057238E-3
2.887029795E0,-9.321057238E-3,-1.451421715E-2,9.321057238E-3
2.889517764E0,-1.251684781E-2,-1.344895363E-2,7.190529723E-3
2.892005733E0,-1.358211134E-2,-1.238369010E-2,7.190529723E-3
2.894493701E0,-1.571263932E-2,-1.131842658E-2,6.125265732E-3
2.896981670E0,-1.784316637E-2,-9.187898599E-3,6.125265732E-3
2.899469639E0,-1.890842989E-2,-7.057371549E-3,5.060002208E-3
2.901957608E0,-1.890842989E-2,-5.992108025E-3,3.994738683E-3
2.904445576E0,-1.890842989E-2,-5.992108025E-3,2.929474926E-3
2.906933545E0,-1.890842989E-2,-4.926844500E-3,2.929474926E-3
2.909421514E0,-1.784316637E-2,-5.992108025E-3,2.929474926E-3
2.911909483E0,-1.677790284E-2,-5.992108025E-3,3.994738683E-3
2.914397451E0,-1.464737486E-2,-7.057371549E-3,5.060002208E-3
2.916885420E0,-1.358211134E-2,-9.187898599E-3,5.060002208E-3
2.919373389E0,-1.038632076E-2,-1.025316212E-2,6.125265732E-3
2.921861358E0,-7.190529723E-3,-1.131842658E-2,7.190529723E-3
2.924349326E0,-2.929474926E-3,-1.238369010E-2,8.255792782E-3
2.926837295E0,-7.989477599E-4,-1.238369010E-2,8.255792782E-3
2.929325264E0,2.396843163E-3,-1.131842658E-2,9.321057238E-3
2.931813233E0,5.592633970E-3,-1.025316212E-2,9.321057238E-3
2.934301201E0,8.788425475E-3,-8.122635074E-3,8.255792782E-3
2.936789170E0,1.091895252E-2,-4.926844500E-3,8.255792782E-3
2.939277139E0,1.198421605E-2,-1.731053460E-3,8.255792782E-3
2.941765108E0,1.411474310E-2,3.994738800E-4,7.190529723E-3
2.944253076E0,1.518000662E-2,3.595264861E-3,7.190529723E-3
2.946741045E0,1.624527015E-2,6.791055668E-3,6.125265732E-3
2.949229014E0,1.731053367E-2,8.921583183E-3,5.060002208E-3
2.951716930E0,1.837579720E-2,1.211737376E-2,5.060002208E-3
2.954204847E0,1.837579720E-2,1.211737376E-2,3.994738683E-3
2.956692764E0,1.944106072E-2,1.211737376E-2,3.994738683E-3
2.959180680E0,2.050632425E-2,1.318263728E-2,3.994738683E-3
2.961668597E0,2.050632425E-2,1.211737376E-2,5.060002208E-3
2.964156514E0,2.157158963E-2,1.105211023E-2,5.060002208E-3
2.966644430E0,2.157158963E-2,9.986846708E-3,5.060002208E-3
2.969132347E0,2.263685316E-2,9.986846708E-3,5.060002208E-3
2.971620264E0,2.263685316E-2,8.921583183E-3,5.060002208E-3
2.974108180E0,2.370211668E-2,7.856319658E-3,5.060002208E-3
2.976596097E0,2.476738021E-2,6.791055668E-3,5.060002208E-3
2.979084014E0,2.583264373E-2,6.791055668E-3,3.994738683E-3
2.981571930E0,2.689790726E-2,6.791055668E-3,3.994738683E-3
2.984059847E0,2.796317078E-2,5.725792143E-3,3.994738683E-3
2.986547764E0,3.009369783E-2,5.725792143E-3,3.994738683E-3
2.989035680E0,3.115896136E-2,5.725792143E-3,5.060002208E-3
2.991523597E0,3.222422674E-2,4.660528619E-3,3.994738683E-3
2.994011514E0,3.435475379E-2,3.595264861E-3,3.994738683E-3
2.996499430E0,3.542001545E-2,2.530001104E-3,3.994738683E-3
2.998987347E0,3.648528084E-2,2.530001104E-3,3.994738683E-3
3.001475264E0,3.648528084E-2,3.994738800E-4,1.864211401E-3
3.003963180E0,3.648528084E-2,-1.731053460E-3,7.989477599E-4
3.006451097E0,3.542001545E-2,-3.861580743E-3,7.989477599E-4
3.008939014E0,3.435475379E-2,-7.057371549E-3,-2.663159103E-4
3.011426930E0,3.328948840E-2,-1.131842658E-2,-2.663159103E-4
3.013914847E0,3.115896136E-2,-1.451421715E-2,-1.331579522E-3
3.016402764E0,2.902843431E-2,-1.771000773E-2,-2.396843163E-3
3.018890680E0,2.689790726E-2,-2.197106183E-2,-4.527370445E-3
3.021378597E0,2.370211668E-2,-2.516685426E-2,-5.592633970E-3
3.023866514E0,2.157158963E-2,-2.942790836E-2,-6.657897960E-3
3.026354430E0,1.731053367E-2,-3.155843541E-2,-8.788425475E-3
3.028842347E0,1.411474310E-2,-3.368896246E-2,-9.853689000E-3
3.031330316E0,1.091895252E-2,-3.581948951E-2,-1.198421605E-2
3.033818285E0,7.723161485E-3,-3.581948951E-2,-1.198421605E-2
3.036306253E0,3.462106921E-3,-3.688475490E-2,-1.304947957E-2
3.038794222E0,2.663159103E-4,-3.795001656E-2,-1.411474310E-2
3.041282191E0,-2.929474926E-3,-3.795001656E-2,-1.518000662E-2
3.043770160E0,-6.125265732E-3,-3.795001656E-2,-1.518000662E-2
3.046258128E0,-8.255792782E-3,-3.795001656E-2,-1.518000662E-2
3.048746097E0,-1.038632076E-2,-3.688475490E-2,-1.518000662E-2
3.051234066E0,-1.251684781E-2,-3.581948951E-2,-1.518000662E-2
3.053722035E0,-1.251684781E-2,-3.581948951E-2,-1.624527015E-2
3.056210003E0,-1.358211134E-2,-3.688475490E-2,-1.624527015E-2
3.058697972E0,-1.358211134E-2,-3.688475490E-2,-1.518000662E-2
3.061185941E0,-1.358211134E-2,-3.688475490E-2,-1.518000662E-2
3.063673910E0,-1.251684781E-2,-3.688475490E-2,-1.518000662E-2
3.066161878E0,-1.145158429E-2,-3.795001656E-2,-1.518000662E-2
3.068649847E0,-1.038632076E-2,-3.795001656E-2,-1.411474310E-2
3.071137816E0,-9.321057238E-3,-3.795001656E-2,-1.411474310E-2
3.073625785E0,-8.255792782E-3,-3.581948951E-2,-1.411474310E-2
3.076113753E0,-7.190529723E-3,-3.475422785E-2,-1.411474310E-2
3.078601722E0,-5.060002208E-3,-3.155843541E-2,-1.411474310E-2
3.081089691E0,-2.929474926E-3,-2.836264484E-2,-1.411474310E-2
3.083577660E0,-7.989477599E-4,-2.516685426E-2,-1.411474310E-2
3.086065628E0,1.331579522E-3,-2.090579830E-2,-1.411474310E-2
3.088553597E0,3.462106921E-3,-1.557948068E-2,-1.411474310E-2
3.091041566E0,5.592633970E-3,-1.025316212E-2,-1.304947957E-2
3.093529535E0,6.657897960E-3,-5.992108025E-3,-1.304947957E-2
3.096017503E0,8.788425475E-3,-1.731053460E-3,-1.304947957E-2
3.098505472E0,1.091895252E-2,2.530001104E-3,-1.411474310E-2
3.100993441E0,1.304947957E-2,5.725792143E-3,-1.304947957E-2
3.103481410E0,1.518000662E-2,9.986846708E-3,-1.411474310E-2
3.105969378E0,1.624527015E-2,1.318263728E-2,-1.411474310E-2
3.108457347E0,1.837579720E-2,1.637842879E-2,-1.411474310E-2
3.110945316E0,1.837579720E-2,1.850895584E-2,-1.411474310E-2
3.113433285E0,2.050632425E-2,2.063948289E-2,-1.411474310E-2
3.115921253E0,2.050632425E-2,2.277000993E-2,-1.411474310E-2
3.118409222E0,2.050632425E-2,2.490053698E-2,-1.411474310E-2
3.120897191E0,2.157158963E-2,2.703106403E-2,-1.411474310E-2
3.123385160E0,2.157158963E-2,2.809632942E-2,-1.411474310E-2
3.125873128E0,2.050632425E-2,2.916159295E-2,-1.518000662E-2
3.128361097E0,2.050632425E-2,3.022685647E-2,-1.518000662E-2
3.130849066E0,1.944106072E-2,3.129211813E-2,-1.518000662E-2
3.133337035E0,1.837579720E-2,3.022685647E-2,-1.518000662E-2
3.135825003E0,1.624527015E-2,3.129211813E-2,-1.624527015E-2
3.138312972E0,1.518000662E-2,3.022685647E-2,-1.731053367E-2
3.140800941E0,1.304947957E-2,3.022685647E-2,-1.731053367E-2
3.143288910E0,1.198421605E-2,3.022685647E-2,-1.837579720E-2
3.145776878E0,9.853689000E-3,3.022685647E-2,-1.837579720E-2
3.148264847E0,8.788425475E-3,2.916159295E-2,-1.944106072E-2
3.150752816E0,7.723161485E-3,2.916159295E-2,-1.944106072E-2
3.153240785E0,6.657897960E-3,2.809632942E-2,-1.837579720E-2
3.155728753E0,5.592633970E-3,2.703106403E-2,-1.837579720E-2
3.158216722E0,4.527370445E-3,2.490053698E-2,-1.944106072E-2
3.160704691E0,4.527370445E-3,2.277000993E-2,-1.944106072E-2
3.163192660E0,4.527370445E-3,2.063948289E-2,-1.837579720E-2
3.165680628E0,4.527370445E-3,1.744369231E-2,-1.837579720E-2
3.168168597E0,4.527370445E-3,1.424790081E-2,-1.837579720E-2
3.170656566E0,4.527370445E-3,1.211737376E-2,-1.731053367E-2
3.173144535E0,4.527370445E-3,8.921583183E-3,-1.731053367E-2
3.175632503E0,5.592633970E-3,5.725792143E-3,-1.624527015E-2
3.178120472E0,5.592633970E-3,3.595264861E-3,-1.731053367E-2
3.180608441E0,5.592633970E-3,1.464737463E-3,-1.731053367E-2
3.183096410E0,6.657897960E-3,-1.731053460E-3,-1.731053367E-2
3.185584378E0,6.657897960E-3,-4.926844500E-3,-1.731053367E-2
3.188072347E0,6.657897960E-3,-7.057371549E-3,-1.731053367E-2
3.190560316E0,6.657897960E-3,-1.025316212E-2,-1.624527015E-2
3.193048285E0,6.657897960E-3,-1.131842658E-2,-1.731053367E-2
3.195536253E0,7.723161485E-3,-1.344895363E-2,-1.731053367E-2
3.198024222E0,7.723161485E-3,-1.451421715E-2,-1.731053367E-2
3.200512191E0,7.723161485E-3,-1.451421715E-2,-1.837579720E-2
3.203000160E0,6.657897960E-3,-1.451421715E-2,-1.837579720E-2
3.205488128E0,6.657897960E-3,-1.451421715E-2,-1.837579720E-2
3.207976097E0,7.723161485E-3,-1.451421715E-2,-1.944106072E-2
3.210464066E0,7.723161485E-3,-1.344895363E-2,-1.944106072E-2
3.212952035E0,7.723161485E-3,-1.238369010E-2,-1.944106072E-2
3.215440003E0,7.723161485E-3,-1.131842658E-2,-1.837579720E-2
3.217927972E0,7.723161485E-3,-1.025316212E-2,-1.837579720E-2
3.220415941E0,7.723161485E-3,-8.122635074E-3,-1.837579720E-2
3.222903910E0,7.723161485E-3,-7.057371549E-3,-1.731053367E-2
3.225391878E0,8.788425475E-3,-4.926844500E-3,-1.731053367E-2
3.227879847E0,8.788425475E-3,-2.796316985E-3,-1.731053367E-2
3.230367816E0,9.853689000E-3,-6.657897611E-4,-1.624527015E-2
3.232855785E0,9.853689000E-3,1.464737463E-3,-1.518000662E-2
3.235343753E0,1.091895252E-2,4.660528619E-3,-1.411474310E-2
3.237831722E0,1.091895252E-2,8.921583183E-3,-1.198421605E-2
3.240319691E0,1.091895252E-2,1.318263728E-2,-1.091895252E-2
3.242807660E0,1.304947957E-2,1.744369231E-2,-8.788425475E-3
3.245295628E0,1.411474310E-2,2.063948289E-2,-6.657897960E-3
3.247783597E0,1.518000662E-2,2.383527346E-2,-4.527370445E-3
3.250271566E0,1.624527015E-2,2.703106403E-2,-1.331579522E-3
3.252759535E0,1.837579720E-2,2.916159295E-2,-2.663159103E-4
3.255247451E0,1.944106072E-2,3.022685647E-2,7.989477599E-4
3.257735368E0,2.050632425E-2,3.235738352E-2,2.929474926E-3
3.260223285E0,2.263685316E-2,3.235738352E-2,5.060002208E-3
3.262711201E0,2.370211668E-2,3.129211813E-2,6.125265732E-3
3.265199118E0,2.370211668E-2,3.022685647E-2,7.190529723E-3
3.267687035E0,2.476738021E-2,2.809632942E-2,1.038632076E-2
3.270174951E0,2.476738021E-2,2.490053698E-2,1.145158429E-2
3.272662868E0,2.370211668E-2,2.063948289E-2,1.251684781E-2
3.275150785E0,2.263685316E-2,1.637842879E-2,1.464737486E-2
3.277638701E0,2.263685316E-2,1.424790081E-2,1.571263932E-2
3.280126618E0,2.050632425E-2,1.105211023E-2,1.571263932E-2
3.282614535E0,1.837579720E-2,7.856319658E-3,1.571263932E-2
3.285102451E0,1.518000662E-2,4.660528619E-3,1.571263932E-2
3.287590368E0,1.091895252E-2,1.464737463E-3,1.571263932E-2
3.290078285E0,6.657897960E-3,-6.657897611E-4,1.464737486E-2
3.292566201E0,2.396843163E-3,-2.796316985E-3,1.358211134E-2
3.295054118E0,-3.994738683E-3,-3.861580743E-3,1.358211134E-2
3.297542035E0,-8.255792782E-3,-5.992108025E-3,1.251684781E-2
3.300029951E0,-1.251684781E-2,-8.122635074E-3,1.145158429E-2
3.302517868E0,-1.677790284E-2,-1.025316212E-2,1.038632076E-2
3.305005785E0,-1.997369342E-2,-1.238369010E-2,9.321057238E-3
3.307493701E0,-2.423474751E-2,-1.557948068E-2,9.321057238E-3
3.309981618E0,-2.636527456E-2,-1.877527125E-2,9.321057238E-3
3.312469535E0,-2.956106514E-2,-2.303632535E-2,9.321057238E-3
3.314957451E0,-3.062633052E-2,-2.623211779E-2,9.321057238E-3
3.317445368E0,-3.169159219E-2,-3.049317189E-2,9.321057238E-3
3.319933285E0,-3.062633052E-2,-3.368896246E-2,9.321057238E-3
3.322421201E0,-2.956106514E-2,-3.581948951E-2,1.038632076E-2
3.324909118E0,-2.849580161E-2,-3.688475490E-2,1.038632076E-2
3.327397035E0,-2.743053809E-2,-3.688475490E-2,1.145158429E-2
3.329884951E0,-2.530001104E-2,-3.581948951E-2,1.145158429E-2
3.332372868E0,-2.210422046E-2,-3.581948951E-2,1.145158429E-2
3.334860785E0,-1.890842989E-2,-3.368896246E-2,1.145158429E-2
3.337348701E0,-1.571263932E-2,-3.155843541E-2,1.145158429E-2
3.339836618E0,-1.251684781E-2,-2.942790836E-2,1.251684781E-2
3.342324535E0,-8.255792782E-3,-2.516685426E-2,1.145158429E-2
3.344812503E0,-3.994738683E-3,-2.090579830E-2,1.145158429E-2
3.347300472E0,-7.989477599E-4,-1.664474420E-2,1.251684781E-2
3.349788441E0,3.462106921E-3,-1.238369010E-2,1.358211134E-2
3.352276410E0,5.592633970E-3,-9.187898599E-3,1.464737486E-2
3.354764378E0,8.788425475E-3,-4.926844500E-3,1.571263932E-2
3.357252347E0,1.091895252E-2,-1.731053460E-3,1.677790284E-2
3.359740316E0,1.198421605E-2,3.994738800E-4,1.784316637E-2
3.362228285E0,1.304947957E-2,2.530001104E-3,1.890842989E-2
3.364716253E0,1.304947957E-2,5.725792143E-3,2.103895694E-2
3.367204222E0,1.304947957E-2,7.856319658E-3,2.103895694E-2
3.369692191E0,1.198421605E-2,1.105211023E-2,2.210422046E-2
3.372180160E0,1.198421605E-2,1.318263728E-2,2.103895694E-2
3.374668128E0,9.853689000E-3,1.531316526E-2,2.103895694E-2
3.377156097E0,8.788425475E-3,1.744369231E-2,2.103895694E-2
3.379644066E0,6.657897960E-3,1.850895584E-2,1.997369342E-2
3.382132035E0,4.527370445E-3,1.957421936E-2,1.890842989E-2
3.384620003E0,2.396843163E-3,1.957421936E-2,1.784316637E-2
3.387107972E0,2.663159103E-4,1.957421936E-2,1.677790284E-2
3.389595941E0,-1.864211401E-3,1.957421936E-2,1.571263932E-2
3.392083910E0,-3.994738683E-3,1.850895584E-2,1.358211134E-2
3.394571878E0,-6.125265732E-3,1.637842879E-2,1.251684781E-2
3.397059847E0,-8.255792782E-3,1.424790081E-2,9.321057238E-3
3.399547816E0,-9.321057238E-3,1.211737376E-2,8.255792782E-3
3.402035785E0,-1.038632076E-2,8.921583183E-3,5.060002208E-3
3.404523753E0,-1.038632076E-2,5.725792143E-3,5.060002208E-3
3.407011722E0,-9.321057238E-3,2.530001104E-3,2.929474926E-3
3.409499691E0,-1.038632076E-2,-6.657897611E-4,1.864211401E-3
3.411987660E0,-1.038632076E-2,-4.926844500E-3,7.989477599E-4
3.414475628E0,-9.321057238E-3,-9.187898599E-3,-2.663159103E-4
3.416963597E0,-8.255792782E-3,-1.238369010E-2,-1.331579522E-3
3.419451566E0,-8.255792782E-3,-1.557948068E-2,-1.331579522E-3
3.421939535E0,-7.190529723E-3,-1.771000773E-2,-2.396843163E-3
3.424427503E0,-6.125265732E-3,-1.984053478E-2,-3.462106921E-3
3.426915472E0,-5.060002208E-3,-1.984053478E-2,-3.462106921E-3
3.429403441E0,-3.994738683E-3,-1.984053478E-2,-4.527370445E-3
3.431891410E0,-2.929474926E-3,-1.877527125E-2,-3.462106921E-3
3.434379378E0,-1.864211401E-3,-1.771000773E-2,-3.462106921E-3
3.436867347E0,-7.989477599E-4,-1.557948068E-2,-3.462106921E-3
3.439355316E0,2.663159103E-4,-1.238369010E-2,-3.462106921E-3
3.441843285E0,1.331579522E-3,-9.187898599E-3,-2.396843163E-3
3.444331253E0,2.396843163E-3,-5.992108025E-3,-2.663159103E-4
3.446819222E0,2.396843163E-3,-1.731053460E-3,7.989477599E-4
3.449307191E0,2.396843163E-3,1.464737463E-3,1.864211401E-3
3.451795160E0,3.462106921E-3,5.725792143E-3,2.929474926E-3
3.454283128E0,3.462106921E-3,9.986846708E-3,3.994738683E-3
3.456771097E0,3.462106921E-3,1.424790081E-2,5.060002208E-3
3.459259066E0,4.527370445E-3,1.744369231E-2,6.125265732E-3
3.461747035E0,4.527370445E-3,2.170474641E-2,6.125265732E-3
3.464235003E0,5.592633970E-3,2.490053698E-2,6.125265732E-3
3.466722972E0,6.657897960E-3,2.809632942E-2,6.125265732E-3
3.469210941E0,8.788425475E-3,3.022685647E-2,6.125265732E-3
3.471698910E0,9.853689000E-3,3.235738352E-2,5.060002208E-3
3.474186878E0,1.198421605E-2,3.235738352E-2,3.994738683E-3
3.476674847E0,1.411474310E-2,3.235738352E-2,1.864211401E-3
3.479162816E0,1.518000662E-2,3.235738352E-2,7.989477599E-4
3.481650785E0,1.731053367E-2,3.129211813E-2,-2.663159103E-4
3.484138753E0,1.837579720E-2,2.916159295E-2,-1.331579522E-3
3.486626722E0,2.050632425E-2,2.809632942E-2,-3.462106921E-3
3.489114691E0,2.157158963E-2,2.703106403E-2,-3.462106921E-3
3.491602660E0,2.263685316E-2,2.490053698E-2,-5.592633970E-3
3.494090628E0,2.263685316E-2,2.383527346E-2,-7.723161485E-3
3.496578597E0,2.370211668E-2,2.170474641E-2,-8.788425475E-3
3.499066566E0,2.476738021E-2,1.957421936E-2,-9.853689000E-3
3.501554535E0,2.476738021E-2,1.744369231E-2,-1.198421605E-2
3.504042503E0,2.583264373E-2,1.424790081E-2,-1.304947957E-2
3.506530472E0,2.583264373E-2,1.318263728E-2,-1.411474310E-2
3.509018441E0,2.476738021E-2,1.105211023E-2,-1.518000662E-2
3.511506410E0,2.476738021E-2,7.856319658E-3,-1.624527015E-2
3.513994326E0,2.370211668E-2,5.725792143E-3,-1.731053367E-2
3.516482243E0,2.263685316E-2,2.530001104E-3,-1.944106072E-2
3.518970160E0,2.157158963E-2,1.464737463E-3,-2.050632425E-2
3.521458076E0,1.944106072E-2,-6.657897611E-4,-2.157158963E-2
3.523945993E0,1.731053367E-2,-1.731053460E-3,-2.157158963E-2
3.526433910E0,1.624527015E-2,-1.731053460E-3,-2.263685316E-2
3.528921826E0,1.411474310E-2,-2.796316985E-3,-2.370211668E-2
3.531409743E0,1.304947957E-2,-2.796316985E-3,-2.370211668E-2
3.533897660E0,1.091895252E-2,-1.731053460E-3,-2.476738021E-2
3.536385576E0,8.788425475E-3,-1.731053460E-3,-2.583264373E-2
3.538873493E0,8.788425475E-3,-6.657897611E-4,-2.583264373E-2
3.541361410E0,7.723161485E-3,3.994738800E-4,-2.583264373E-2
3.543849326E0,7.723161485E-3,3.994738800E-4,-2.583264373E-2
3.546337243E0,6.657897960E-3,1.464737463E-3,-2.583264373E-2
3.548825160E0,6.657897960E-3,1.464737463E-3,-2.583264373E-2
3.551313076E0,6.657897960E-3,3.994738800E-4,-2.476738021E-2
3.553800993E0,7.723161485E-3,3.994738800E-4,-2.370211668E-2
3.556288910E0,8.788425475E-3,3.994738800E-4,-2.263685316E-2
3.558776826E0,8.788425475E-3,-6.657897611E-4,-2.157158963E-2
3.561264743E0,9.853689000E-3,-1.731053460E-3,-2.157158963E-2
3.563752660E0,1.198421605E-2,-1.731053460E-3,-2.050632425E-2
3.566240576E0,1.304947957E-2,-1.731053460E-3,-1.944106072E-2
3.568728493E0,1.518000662E-2,-1.731053460E-3,-1.837579720E-2
3.571216410E0,1.624527015E-2,-1.731053460E-3,-1.731053367E-2
3.573704326E0,1.731053367E-2,-6.657897611E-4,-1.731053367E-2
3.576192243E0,1.837579720E-2,-6.657897611E-4,-1.731053367E-2
3.578680160E0,1.944106072E-2,3.994738800E-4,-1.731053367E-2
3.581168076E0,1.944106072E-2,3.994738800E-4,-1.624527015E-2
3.583655993E0,2.050632425E-2,3.994738800E-4,-1.518000662E-2
3.586143910E0,2.050632425E-2,1.464737463E-3,-1.411474310E-2
3.588631826E0,2.050632425E-2,1.464737463E-3,-1.304947957E-2
3.591119743E0,2.050632425E-2,3.994738800E-4,-1.198421605E-2
3.593607660E0,1.944106072E-2,3.994738800E-4,-1.091895252E-2
3.596095576E0,1.944106072E-2,3.994738800E-4,-9.853689000E-3
3.598583493E0,1.944106072E-2,-6.657897611E-4,-9.853689000E-3
3.601071410E0,1.837579720E-2,-6.657897611E-4,-8.788425475E-3
3.603559326E0,1.731053367E-2,-6.657897611E-4,-7.723161485E-3
3.606047243E0,1.731053367E-2,-6.657897611E-4,-7.723161485E-3
3.608535160E0,1.624527015E-2,-6.657897611E-4,-6.657897960E-3
3.611023076E0,1.624527015E-2,-6.657897611E-4,-5.592633970E-3
3.613510993E0,1.624527015E-2,3.994738800E-4,-5.592633970E-3
3.615998910E0,1.624527015E-2,3.994738800E-4,-5.592633970E-3
3.618486878E0,1.518000662E-2,1.464737463E-3,-4.527370445E-3
3.620974847E0,1.411474310E-2,1.464737463E-3,-4.527370445E-3
3.623462816E0,1.411474310E-2,2.530001104E-3,-3.462106921E-3
3.625950785E0,1.304947957E-2,2.530001104E-3,-3.462106921E-3
3.628438753E0,1.411474310E-2,3.595264861E-3,-3.462106921E-3
3.630926722E0,1.304947957E-2,4.660528619E-3,-3.462106921E-3
3.633414691E0,1.198421605E-2,5.725792143E-3,-2.396843163E-3
3.635902660E0,1.198421605E-2,7.856319658E-3,-2.396843163E-3
3.638390628E0,1.304947957E-2,8.921583183E-3,-2.396843163E-3
3.640878597E0,1.304947957E-2,1.105211023E-2,-1.331579522E-3
3.643366566E0,1.304947957E-2,1.211737376E-2,-2.663159103E-4
3.645854535E0,1.411474310E-2,1.318263728E-2,-2.663159103E-4
3.648342503E0,1.518000662E-2,1.424790081E-2,7.989477599E-4
3.650830472E0,1.518000662E-2,1.531316526E-2,1.864211401E-3
3.653318441E0,1.624527015E-2,1.637842879E-2,1.864211401E-3
3.655806410E0,1.731053367E-2,1.744369231E-2,2.929474926E-3
3.658294378E0,1.837579720E-2,1.850895584E-2,2.929474926E-3
3.660782347E0,1.944106072E-2,1.850895584E-2,3.994738683E-3
3.663270316E0,2.050632425E-2,1.850895584E-2,2.929474926E-3
3.665758285E0,2.157158963E-2,1.744369231E-2,2.929474926E-3
3.668246253E0,2.263685316E-2,1.637842879E-2,3.994738683E-3
3.670734222E0,2.370211668E-2,1.531316526E-2,3.994738683E-3
3.673222191E0,2.476738021E-2,1.318263728E-2,3.994738683E-3
3.675710160E0,2.583264373E-2,9.986846708E-3,2.929474926E-3
3.678198128E0,2.689790726E-2,7.856319658E-3,2.929474926E-3
3.680686097E0,2.796317078E-2,5.725792143E-3,2.929474926E-3
3.683174066E0,2.902843431E-2,2.530001104E-3,2.929474926E-3
3.685662035E0,2.902843431E-2,3.994738800E-4,2.929474926E-3
3.688150003E0,2.796317078E-2,-6.657897611E-4,2.929474926E-3
3.690637972E0,2.796317078E-2,-2.796316985E-3,2.929474926E-3
3.693125941E0,2.689790726E-2,-3.861580743E-3,1.864211401E-3
3.695613910E0,2.583264373E-2,-4.926844500E-3,7.989477599E-4
3.698101878E0,2.476738021E-2,-4.926844500E-3,7.989477599E-4
3.700589847E0,2.370211668E-2,-5.992108025E-3,7.989477599E-4
3.703077816E0,2.263685316E-2,-5.992108025E-3,-2.663159103E-4
3.705565785E0,2.157158963E-2,-5.992108025E-3,-2.663159103E-4
3.708053753E0,1.944106072E-2,-7.057371549E-3,-1.331579522E-3
3.710541722E0,1.731053367E-2,-7.057371549E-3,-1.331579522E-3
3.713029691E0,1.624527015E-2,-7.057371549E-3,-1.331579522E-3
3.715517660E0,1.411474310E-2,-7.057371549E-3,-2.396843163E-3
3.718005628E0,1.304947957E-2,-7.057371549E-3,-2.396843163E-3
3.720493597E0,1.198421605E-2,-7.057371549E-3,-1.331579522E-3
3.722981566E0,1.091895252E-2,-7.057371549E-3,-2.663159103E-4
3.725469535E0,9.853689000E-3,-7.057371549E-3,7.989477599E-4
3.727957503E0,8.788425475E-3,-5.992108025E-3,1.864211401E-3
3.730445472E0,7.723161485E-3,-5.992108025E-3,3.994738683E-3
3.732933441E0,7.723161485E-3,-5.992108025E-3,5.060002208E-3
3.735421410E0,7.723161485E-3,-4.926844500E-3,7.190529723E-3
3.737909378E0,8.788425475E-3,-3.861580743E-3,8.255792782E-3
3.740397347E0,9.853689000E-3,-2.796316985E-3,9.321057238E-3
3.742885316E0,1.091895252E-2,-1.731053460E-3,1.038632076E-2
3.745373285E0,1.091895252E-2,3.994738800E-4,1.251684781E-2
3.747861253E0,1.198421605E-2,1.464737463E-3,1.358211134E-2
3.750349222E0,1.304947957E-2,2.530001104E-3,1.358211134E-2
3.752837191E0,1.304947957E-2,2.530001104E-3,1.358211134E-2
3.755325108E0,1.411474310E-2,3.595264861E-3,1.358211134E-2
3.757813024E0,1.411474310E-2,3.595264861E-3,1.358211134E-2
3.760300941E0,1.411474310E-2,3.595264861E-3,1.251684781E-2
3.762788858E0,1.411474310E-2,3.595264861E-3,1.251684781E-2
3.765276774E0,1.411474310E-2,2.530001104E-3,1.145158429E-2
3.767764691E0,1.304947957E-2,1.464737463E-3,9.321057238E-3
3.770252608E0,1.198421605E-2,3.994738800E-4,8.255792782E-3
3.772740524E0,1.091895252E-2,-6.657897611E-4,7.190529723E-3
3.775228441E0,8.788425475E-3,-1.731053460E-3,5.060002208E-3
3.777716358E0,6.657897960E-3,-1.731053460E-3,5.060002208E-3
3.780204274E0,5.592633970E-3,-2.796316985E-3,3.994738683E-3
3.782692191E0,3.462106921E-3,-3.861580743E-3,2.929474926E-3
3.785180108E0,2.396843163E-3,-3.861580743E-3,2.929474926E-3
3.787668024E0,1.331579522E-3,-3.861580743E-3,3.994738683E-3
3.790155941E0,2.663159103E-4,-3.861580743E-3,2.929474926E-3
3.792643858E0,-7.989477599E-4,-3.861580743E-3,2.929474926E-3
3.795131774E0,-1.864211401E-3,-3.861580743E-3,2.929474926E-3
3.797619691E0,-2.929474926E-3,-2.796316985E-3,2.929474926E-3
3.800107608E0,-2.929474926E-3,-2.796316985E-3,3.994738683E-3
3.802595524E0,-2.929474926E-3,-2.796316985E-3,3.994738683E-3
3.805083441E0,-1.864211401E-3,-1.731053460E-3,5.060002208E-3
3.807571358E0,-7.989477599E-4,-6.657897611E-4,6.125265732E-3
3.810059274E0,1.331579522E-3,3.994738800E-4,7.190529723E-3
3.812547191E0,2.396843163E-3,1.464737463E-3,7.190529723E-3
3.815035108E0,4.527370445E-3,2.530001104E-3,8.255792782E-3
3.817523024E0,6.657897960E-3,3.595264861E-3,8.255792782E-3
3.820010941E0,9.853689000E-3,5.725792143E-3,9.321057238E-3
3.822498858E0,1.304947957E-2,8.921583183E-3,8.255792782E-3
3.824986774E0,1.624527015E-2,1.105211023E-2,8.255792782E-3
3.827474691E0,1.944106072E-2,1.318263728E-2,9.321057238E-3
3.829962608E0,2.370211668E-2,1.531316526E-2,9.321057238E-3
3.832450524E0,2.689790726E-2,1.744369231E-2,9.321057238E-3
3.834938441E0,3.115896136E-2,1.850895584E-2,9.321057238E-3
3.837426358E0,3.435475379E-2,1.957421936E-2,8.255792782E-3
3.839914274E0,3.755054250E-2,2.063948289E-2,8.255792782E-3
3.842402191E0,4.074633494E-2,1.957421936E-2,7.190529723E-3
3.844890108E0,4.394212365E-2,1.957421936E-2,7.190529723E-3
3.847378024E0,4.500738904E-2,1.850895584E-2,7.190529723E-3
3.849865941E0,4.713791609E-2,1.744369231E-2,8.255792782E-3
3.852353858E0,4.820318148E-2,1.637842879E-2,8.255792782E-3
3.854841774E0,4.820318148E-2,1.424790081E-2,8.255792782E-3
3.857329691E0,4.820318148E-2,1.105211023E-2,8.255792782E-3
3.859817608E0,4.713791609E-2,8.921583183E-3,7.190529723E-3
3.862305524E0,4.500738904E-2,6.791055668E-3,7.190529723E-3
3.864793441E0,4.287686199E-2,3.595264861E-3,6.125265732E-3
3.867281358E0,3.968106955E-2,1.464737463E-3,5.060002208E-3
3.869769274E0,3.755054250E-2,-1.731053460E-3,5.060002208E-3
3.872257191E0,3.328948840E-2,-5.992108025E-3,3.994738683E-3
3.874745108E0,2.902843431E-2,-1.025316212E-2,2.929474926E-3
3.877233076E0,2.476738021E-2,-1.451421715E-2,1.864211401E-3
3.879721045E0,2.050632425E-2,-1.877527125E-2,7.989477599E-4
3.882209014E0,1.731053367E-2,-2.303632535E-2,-2.663159103E-4
3.884696983E0,1.304947957E-2,-2.623211779E-2,-1.331579522E-3
3.887184951E0,9.853689000E-3,-3.049317189E-2,-3.462106921E-3
3.889672920E0,6.657897960E-3,-3.368896246E-2,-4.527370445E-3
3.892160889E0,2.396843163E-3,-3.581948951E-2,-5.592633970E-3
3.894648858E0,2.663159103E-4,-3.795001656E-2,-5.592633970E-3
3.897136826E0,-2.929474926E-3,-4.008054361E-2,-6.657897960E-3
3.899624795E0,-3.994738683E-3,-4.008054361E-2,-7.723161485E-3
3.902112764E0,-6.125265732E-3,-4.008054361E-2,-7.723161485E-3
3.904600733E0,-7.190529723E-3,-3.901528195E-2,-7.723161485E-3
3.907088701E0,-7.190529723E-3,-3.688475490E-2,-7.723161485E-3
3.909576670E0,-7.190529723E-3,-3.475422785E-2,-7.723161485E-3
3.912064639E0,-5.060002208E-3,-3.155843541E-2,-7.723161485E-3
3.914552608E0,-3.994738683E-3,-2.729738131E-2,-5.592633970E-3
3.917040576E0,-7.989477599E-4,-2.516685426E-2,-5.592633970E-3
3.919528545E0,2.396843163E-3,-2.090579830E-2,-4.527370445E-3
3.922016514E0,5.592633970E-3,-1.771000773E-2,-2.396843163E-3
3.924504483E0,9.853689000E-3,-1.451421715E-2,-1.331579522E-3
3.926992451E0,1.411474310E-2,-1.131842658E-2,7.989477599E-4
3.929480420E0,1.944106072E-2,-8.122635074E-3,2.929474926E-3
3.931968389E0,2.263685316E-2,-4.926844500E-3,3.994738683E-3
3.934456358E0,2.689790726E-2,-6.657897611E-4,6.125265732E-3
3.936944326E0,3.009369783E-2,1.464737463E-3,8.255792782E-3
3.939432295E0,3.328948840E-2,5.725792143E-3,9.321057238E-3
3.941920264E0,3.648528084E-2,7.856319658E-3,9.321057238E-3
3.944408233E0,3.861580789E-2,9.986846708E-3,1.038632076E-2
3.946896201E0,4.074633494E-2,1.211737376E-2,1.145158429E-2
3.949384170E0,4.181159660E-2,1.318263728E-2,1.145158429E-2
3.951872139E0,4.074633494E-2,1.424790081E-2,1.251684781E-2
3.954360108E0,4.074633494E-2,1.424790081E-2,1.251684781E-2
3.956848076E0,3.968106955E-2,1.531316526E-2,1.251684781E-2
3.959336045E0,3.755054250E-2,1.531316526E-2,1.145158429E-2
3.961824014E0,3.328948840E-2,1.531316526E-2,1.145158429E-2
3.964311983E0,3.009369783E-2,1.531316526E-2,9.321057238E-3
3.966799951E0,2.689790726E-2,1.424790081E-2,8.255792782E-3
3.969287920E0,2.263685316E-2,1.318263728E-2,7.190529723E-3
3.971775889E0,1.837579720E-2,1.211737376E-2,6.125265732E-3
3.974263858E0,1.411474310E-2,8.921583183E-3,3.994738683E-3
3.976751826E0,1.091895252E-2,6.791055668E-3,2.929474926E-3
3.979239795E0,7.723161485E-3,3.595264861E-3,7.989477599E-4
3.981727764E0,3.462106921E-3,1.464737463E-3,-1.331579522E-3
3.984215733E0,2.663159103E-4,-1.731053460E-3,-3.462106921E-3
3.986703701E0,-2.929474926E-3,-5.992108025E-3,-5.592633970E-3
3.989191670E0,-6.125265732E-3,-9.187898599E-3,-7.723161485E-3
3.991679587E0,-8.255792782E-3,-1.238369010E-2,-9.853689000E-3
3.994167503E0,-1.038632076E-2,-1.557948068E-2,-1.091895252E-2
3.996655420E0,-1.251684781E-2,-1.771000773E-2,-1.091895252E-2
3.999143337E0,-1.358211134E-2,-1.877527125E-2,-1.198421605E-2
4.001631253E0,-1.464737486E-2,-1.984053478E-2,-1.198421605E-2
4.004119170E0,-1.464737486E-2,-1.877527125E-2,-1.198421605E-2
4.006607087E0,-1.464737486E-2,-1.877527125E-2,-1.304947957E-2
4.009095003E0,-1.358211134E-2,-1.771000773E-2,-1.198421605E-2
4.011582920E0,-1.145158429E-2,-1.557948068E-2,-1.198421605E-2
4.014070837E0,-1.145158429E-2,-1.238369010E-2,-1.091895252E-2
4.016558753E0,-1.038632076E-2,-9.187898599E-3,-9.853689000E-3
4.019046670E0,-8.255792782E-3,-7.057371549E-3,-8.788425475E-3
4.021534587E0,-6.125265732E-3,-4.926844500E-3,-7.723161485E-3
4.024022503E0,-3.994738683E-3,-6.657897611E-4,-6.657897960E-3
4.026510420E0,-1.864211401E-3,1.464737463E-3,-6.657897960E-3
4.028998337E0,2.663159103E-4,3.595264861E-3,-5.592633970E-3
4.031486253E0,2.396843163E-3,5.725792143E-3,-4.527370445E-3
4.033974170E0,4.527370445E-3,7.856319658E-3,-3.462106921E-3
4.036462087E0,5.592633970E-3,9.986846708E-3,-3.462106921E-3
4.038950003E0,6.657897960E-3,1.211737376E-2,-2.396843163E-3
4.041437920E0,7.723161485E-3,1.318263728E-2,-2.396843163E-3
4.043925837E0,8.788425475E-3,1.424790081E-2,-2.396843163E-3
4.046413753E0,8.788425475E-3,1.531316526E-2,-1.331579522E-3
4.048901670E0,8.788425475E-3,1.531316526E-2,-2.396843163E-3
4.051389587E0,9.853689000E-3,1.637842879E-2,-3.462106921E-3
4.053877503E0,9.853689000E-3,1.637842879E-2,-3.462106921E-3
4.056365420E0,9.853689000E-3,1.744369231E-2,-3.462106921E-3
4.058853337E0,9.853689000E-3,1.744369231E-2,-3.462106921E-3
4.061341253E0,9.853689000E-3,1.850895584E-2,-4.527370445E-3
4.063829170E0,9.853689000E-3,1.957421936E-2,-4.527370445E-3
4.066317087E0,9.853689000E-3,1.957421936E-2,-6.657897960E-3
4.068805003E0,9.853689000E-3,1.957421936E-2,-6.657897960E-3
4.071292920E0,1.091895252E-2,1.850895584E-2,-8.788425475E-3
4.073780837E0,1.091895252E-2,1.744369231E-2,-8.788425475E-3
4.076268753E0,1.091895252E-2,1.531316526E-2,-9.853689000E-3
4.078756670E0,1.091895252E-2,1.211737376E-2,-1.091895252E-2
4.081244587E0,1.091895252E-2,8.921583183E-3,-1.304947957E-2
4.083732503E0,1.091895252E-2,5.725792143E-3,-1.304947957E-2
4.086220420E0,1.091895252E-2,1.464737463E-3,-1.411474310E-2
4.088708337E0,1.091895252E-2,-1.731053460E-3,-1.518000662E-2
4.091196253E0,1.091895252E-2,-5.992108025E-3,-1.518000662E-2
4.093684170E0,9.853689000E-3,-9.187898599E-3,-1.518000662E-2
4.096172087E0,9.853689000E-3,-1.131842658E-2,-1.518000662E-2
4.098660003E0,8.788425475E-3,-1.344895363E-2,-1.624527015E-2
4.101147920E0,7.723161485E-3,-1.344895363E-2,-1.624527015E-2
4.103635837E0,6.657897960E-3,-1.451421715E-2,-1.731053367E-2
4.106123753E0,5.592633970E-3,-1.451421715E-2,-1.731053367E-2
4.108611670E0,4.527370445E-3,-1.451421715E-2,-1.731053367E-2
4.111099587E0,2.396843163E-3,-1.344895363E-2,-1.731053367E-2
4.113587503E0,1.331579522E-3,-1.451421715E-2,-1.731053367E-2
4.116075420E0,-7.989477599E-4,-1.344895363E-2,-1.624527015E-2
4.118563337E0,-1.864211401E-3,-1.451421715E-2,-1.624527015E-2
4.121051253E0,-2.929474926E-3,-1.451421715E-2,-1.518000662E-2
4.123539170E0,-3.994738683E-3,-1.344895363E-2,-1.411474310E-2
4.126027087E0,-5.060002208E-3,-1.451421715E-2,-1.304947957E-2
4.128515003E0,-6.125265732E-3,-1.344895363E-2,-1.091895252E-2
4.131002920E0,-6.125265732E-3,-1.344895363E-2,-9.853689000E-3
4.133490837E0,-7.190529723E-3,-1.238369010E-2,-7.723161485E-3
4.135978753E0,-8.255792782E-3,-1.025316212E-2,-5.592633970E-3
4.138466670E0,-7.190529723E-3,-8.122635074E-3,-3.462106921E-3
4.140954639E0,-7.190529723E-3,-5.992108025E-3,-2.396843163E-3
4.143442608E0,-7.190529723E-3,-2.796316985E-3,-2.663159103E-4
4.145930576E0,-6.125265732E-3,3.994738800E-4,-2.663159103E-4
4.148418545E0,-5.060002208E-3,4.660528619E-3,7.989477599E-4
4.150906514E0,-3.994738683E-3,6.791055668E-3,7.989477599E-4
4.153394483E0,-2.929474926E-3,9.986846708E-3,1.864211401E-3
4.155882451E0,-1.864211401E-3,1.211737376E-2,2.929474926E-3
4.158370420E0,-7.989477599E-4,1.318263728E-2,2.929474926E-3
4.160858389E0,2.663159103E-4,1.424790081E-2,2.929474926E-3
4.163346358E0,2.663159103E-4,1.531316526E-2,3.994738683E-3
4.165834326E0,1.331579522E-3,1.637842879E-2,3.994738683E-3
4.168322295E0,1.331579522E-3,1.744369231E-2,3.994738683E-3
4.170810264E0,1.331579522E-3,1.744369231E-2,3.994738683E-3
4.173298233E0,2.396843163E-3,1.637842879E-2,2.929474926E-3
4.175786201E0,3.462106921E-3,1.424790081E-2,2.929474926E-3
4.178274170E0,3.462106921E-3,1.318263728E-2,1.864211401E-3
4.180762139E0,3.462106921E-3,1.105211023E-2,1.864211401E-3
4.183250108E0,3.462106921E-3,8.921583183E-3,7.989477599E-4
4.185738076E0,3.462106921E-3,6.791055668E-3,-2.663159103E-4
4.188226045E0,2.396843163E-3,5.725792143E-3,-1.331579522E-3
4.190714014E0,1.331579522E-3,4.660528619E-3,-3.462106921E-3
4.193201983E0,1.331579522E-3,2.530001104E-3,-4.527370445E-3
4.195689951E0,2.663159103E-4,2.530001104E-3,-6.657897960E-3
4.198177920E0,-7.989477599E-4,1.464737463E-3,-7.723161485E-3
4.200665889E0,-2.929474926E-3,3.994738800E-4,-8.788425475E-3
4.203153858E0,-3.994738683E-3,-6.657897611E-4,-1.091895252E-2
4.205641826E0,-5.060002208E-3,-2.796316985E-3,-1.198421605E-2
4.208129795E0,-7.190529723E-3,-2.796316985E-3,-1.304947957E-2
4.210617764E0,-8.255792782E-3,-4.926844500E-3,-1.304947957E-2
4.213105733E0,-9.321057238E-3,-7.057371549E-3,-1.304947957E-2
4.215593701E0,-1.038632076E-2,-8.122635074E-3,-1.304947957E-2
4.218081670E0,-1.145158429E-2,-1.025316212E-2,-1.304947957E-2
4.220569639E0,-1.251684781E-2,-1.131842658E-2,-1.304947957E-2
4.223057608E0,-1.358211134E-2,-1.025316212E-2,-1.304947957E-2
4.225545576E0,-1.358211134E-2,-1.025316212E-2,-1.198421605E-2
4.228033545E0,-1.464737486E-2,-9.187898599E-3,-1.198421605E-2
4.230521514E0,-1.464737486E-2,-8.122635074E-3,-1.091895252E-2
4.233009483E0,-1.464737486E-2,-4.926844500E-3,-9.853689000E-3
4.235497451E0,-1.464737486E-2,-1.731053460E-3,-9.853689000E-3
4.237985420E0,-1.464737486E-2,1.464737463E-3,-8.788425475E-3
4.240473337E0,-1.464737486E-2,5.725792143E-3,-7.723161485E-3
4.242961253E0,-1.358211134E-2,8.921583183E-3,-6.657897960E-3
4.245449170E0,-1.358211134E-2,1.211737376E-2,-4.527370445E-3
4.247937087E0,-1.251684781E-2,1.424790081E-2,-3.462106921E-3
4.250425003E0,-1.251684781E-2,1.744369231E-2,-1.331579522E-3
4.252912920E0,-1.145158429E-2,1.957421936E-2,-2.663159103E-4
4.255400837E0,-1.038632076E-2,2.170474641E-2,1.864211401E-3
4.257888753E0,-1.038632076E-2,2.383527346E-2,2.929474926E-3
4.260376670E0,-9.321057238E-3,2.596580051E-2,3.994738683E-3
4.262864587E0,-9.321057238E-3,2.916159295E-2,3.994738683E-3
4.265352503E0,-8.255792782E-3,3.235738352E-2,6.125265732E-3
4.267840420E0,-8.255792782E-3,3.555317223E-2,6.125265732E-3
4.270328337E0,-7.190529723E-3,3.874896467E-2,6.125265732E-3
4.272816253E0,-7.190529723E-3,4.194475710E-2,3.994738683E-3
4.275304170E0,-7.190529723E-3,4.407528415E-2,3.994738683E-3
4.277792087E0,-6.125265732E-3,4.407528415E-2,2.929474926E-3
4.280280003E0,-6.125265732E-3,4.407528415E-2,7.989477599E-4
4.282767920E0,-5.060002208E-3,4.194475710E-2,-2.663159103E-4
4.285255837E0,-3.994738683E-3,3.981423005E-2,-1.331579522E-3
4.287743753E0,-3.994738683E-3,3.661843762E-2,-3.462106921E-3
4.290231670E0,-2.929474926E-3,3.235738352E-2,-5.592633970E-3
4.292719587E0,-1.864211401E-3,2.809632942E-2,-6.657897960E-3
4.295207503E0,-7.989477599E-4,2.277000993E-2,-8.788425475E-3
4.297695420E0,-7.989477599E-4,1.744369231E-2,-1.091895252E-2
4.300183337E0,-7.989477599E-4,1.318263728E-2,-1.198421605E-2
4.302671253E0,2.663159103E-4,7.856319658E-3,-1.304947957E-2
4.305159170E0,1.331579522E-3,3.595264861E-3,-1.304947957E-2
4.307647087E0,2.396843163E-3,3.994738800E-4,-1.411474310E-2
4.310135003E0,2.396843163E-3,-3.861580743E-3,-1.518000662E-2
4.312622920E0,3.462106921E-3,-7.057371549E-3,-1.624527015E-2
4.315110837E0,3.462106921E-3,-1.025316212E-2,-1.731053367E-2
4.317598753E0,3.462106921E-3,-1.238369010E-2,-1.837579720E-2
4.320086670E0,3.462106921E-3,-1.451421715E-2,-1.837579720E-2
4.322574587E0,4.527370445E-3,-1.557948068E-2,-1.944106072E-2
4.325062503E0,4.527370445E-3,-1.771000773E-2,-1.944106072E-2
4.327550420E0,4.527370445E-3,-1.877527125E-2,-1.944106072E-2
4.330038337E0,4.527370445E-3,-1.984053478E-2,-1.837579720E-2
4.332526253E0,5.592633970E-3,-2.197106183E-2,-1.837579720E-2
4.335014170E0,5.592633970E-3,-2.090579830E-2,-1.731053367E-2
4.337502087E0,6.657897960E-3,-1.984053478E-2,-1.624527015E-2
4.339990003E0,6.657897960E-3,-1.877527125E-2,-1.518000662E-2
4.342477920E0,6.657897960E-3,-1.771000773E-2,-1.518000662E-2
4.344965837E0,6.657897960E-3,-1.451421715E-2,-1.411474310E-2
4.347453753E0,5.592633970E-3,-1.344895363E-2,-1.304947957E-2
4.349941670E0,5.592633970E-3,-1.131842658E-2,-1.198421605E-2
4.352429587E0,4.527370445E-3,-9.187898599E-3,-9.853689000E-3
4.354917503E0,3.462106921E-3,-8.122635074E-3,-9.853689000E-3
4.357405420E0,2.396843163E-3,-7.057371549E-3,-8.788425475E-3
4.359893337E0,1.331579522E-3,-5.992108025E-3,-7.723161485E-3
4.362381253E0,1.331579522E-3,-3.861580743E-3,-6.657897960E-3
4.364869170E0,1.331579522E-3,-1.731053460E-3,-6.657897960E-3
4.367357087E0,2.663159103E-4,3.994738800E-4,-6.657897960E-3
4.369845003E0,2.663159103E-4,1.464737463E-3,-5.592633970E-3
4.372332920E0,2.663159103E-4,3.595264861E-3,-4.527370445E-3
4.374820837E0,2.663159103E-4,4.660528619E-3,-4.527370445E-3
4.377308753E0,2.663159103E-4,5.725792143E-3,-4.527370445E-3
4.379796670E0,1.331579522E-3,5.725792143E-3,-4.527370445E-3
4.382284587E0,1.331579522E-3,7.856319658E-3,-4.527370445E-3
4.384772503E0,2.396843163E-3,7.856319658E-3,-4.527370445E-3
4.387260420E0,3.462106921E-3,8.921583183E-3,-4.527370445E-3
4.389748337E0,3.462106921E-3,1.105211023E-2,-5.592633970E-3
4.392236253E0,5.592633970E-3,1.105211023E-2,-5.592633970E-3
4.394724170E0,6.657897960E-3,1.105211023E-2,-5.592633970E-3
4.397212087E0,7.723161485E-3,1.105211023E-2,-5.592633970E-3
4.399700003E0,9.853689000E-3,1.105211023E-2,-5.592633970E-3
4.402187920E0,9.853689000E-3,1.105211023E-2,-5.592633970E-3
4.404675837E0,1.091895252E-2,1.105211023E-2,-5.592633970E-3
4.407163753E0,1.091895252E-2,1.105211023E-2,-5.592633970E-3
4.409651670E0,1.198421605E-2,1.105211023E-2,-4.527370445E-3
4.412139587E0,1.304947957E-2,9.986846708E-3,-4.527370445E-3
4.414627503E0,1.411474310E-2,8.921583183E-3,-3.462106921E-3
4.417115420E0,1.411474310E-2,7.856319658E-3,-2.396843163E-3
4.419603337E0,1.411474310E-2,4.660528619E-3,-2.396843163E-3
4.422091253E0,1.411474310E-2,2.530001104E-3,-1.331579522E-3
4.424579170E0,1.411474310E-2,-6.657897611E-4,-2.663159103E-4
4.427067087E0,1.304947957E-2,-3.861580743E-3,-2.663159103E-4
4.429555055E0,1.304947957E-2,-7.057371549E-3,7.989477599E-4
4.432043024E0,1.304947957E-2,-1.025316212E-2,7.989477599E-4
4.434530993E0,1.198421605E-2,-1.238369010E-2,1.864211401E-3
4.437018962E0,1.091895252E-2,-1.664474420E-2,1.864211401E-3
4.439506930E0,1.091895252E-2,-1.877527125E-2,2.929474926E-3
4.441994899E0,9.853689000E-3,-2.090579830E-2,3.994738683E-3
4.444482868E0,9.853689000E-3,-2.410159074E-2,5.060002208E-3
4.446970837E0,8.788425475E-3,-2.516685426E-2,5.060002208E-3
4.449458805E0,7.723161485E-3,-2.516685426E-2,6.125265732E-3
4.451946774E0,6.657897960E-3,-2.623211779E-2,6.125265732E-3
4.454434743E0,4.527370445E-3,-2.410159074E-2,6.125265732E-3
4.456922712E0,3.462106921E-3,-2.303632535E-2,6.125265732E-3
4.459410680E0,1.331579522E-3,-2.090579830E-2,5.060002208E-3
4.461898649E0,-7.989477599E-4,-1.771000773E-2,6.125265732E-3
4.464386618E0,-2.929474926E-3,-1.557948068E-2,6.125265732E-3
4.466874587E0,-5.060002208E-3,-1.238369010E-2,5.060002208E-3
4.469362555E0,-7.190529723E-3,-1.025316212E-2,5.060002208E-3
4.471850524E0,-8.255792782E-3,-8.122635074E-3,5.060002208E-3
4.474338493E0,-9.321057238E-3,-7.057371549E-3,5.060002208E-3
4.476826462E0,-1.145158429E-2,-4.926844500E-3,3.994738683E-3
4.479314430E0,-1.145158429E-2,-3.861580743E-3,3.994738683E-3
4.481802399E0,-1.251684781E-2,-2.796316985E-3,3.994738683E-3
4.484290368E0,-1.358211134E-2,-1.731053460E-3,3.994738683E-3
4.486778337E0,-1.464737486E-2,-6.657897611E-4,3.994738683E-3
4.489266305E0,-1.464737486E-2,3.994738800E-4,3.994738683E-3
4.491754274E0,-1.571263932E-2,1.464737463E-3,3.994738683E-3
4.494242243E0,-1.571263932E-2,2.530001104E-3,3.994738683E-3
4.496730212E0,-1.677790284E-2,3.595264861E-3,3.994738683E-3
4.499218180E0,-1.677790284E-2,4.660528619E-3,3.994738683E-3
4.501706149E0,-1.677790284E-2,5.725792143E-3,3.994738683E-3
4.504194118E0,-1.677790284E-2,6.791055668E-3,2.929474926E-3
4.506682087E0,-1.571263932E-2,6.791055668E-3,1.864211401E-3
4.509170055E0,-1.464737486E-2,7.856319658E-3,1.864211401E-3
4.511658024E0,-1.464737486E-2,7.856319658E-3,1.864211401E-3
4.514145941E0,-1.358211134E-2,7.856319658E-3,1.864211401E-3
4.516633858E0,-1.251684781E-2,7.856319658E-3,1.864211401E-3
4.519121774E0,-1.038632076E-2,7.856319658E-3,1.864211401E-3
4.521609691E0,-8.255792782E-3,6.791055668E-3,2.929474926E-3
4.524097608E0,-7.190529723E-3,5.725792143E-3,2.929474926E-3
4.526585524E0,-5.060002208E-3,3.595264861E-3,1.864211401E-3
4.529073441E0,-2.929474926E-3,2.530001104E-3,2.929474926E-3
4.531561358E0,-7.989477599E-4,3.994738800E-4,2.929474926E-3
4.534049274E0,1.331579522E-3,-1.731053460E-3,1.864211401E-3
4.536537191E0,2.396843163E-3,-3.861580743E-3,1.864211401E-3
4.539025108E0,4.527370445E-3,-5.992108025E-3,1.864211401E-3
4.541513024E0,5.592633970E-3,-9.187898599E-3,7.989477599E-4
4.544000941E0,7.723161485E-3,-1.131842658E-2,7.989477599E-4
4.546488858E0,8.788425475E-3,-1.344895363E-2,-2.663159103E-4
4.548976774E0,1.091895252E-2,-1.664474420E-2,-1.331579522E-3
4.551464691E0,1.198421605E-2,-1.877527125E-2,-1.331579522E-3
4.553952608E0,1.198421605E-2,-2.197106183E-2,-2.396843163E-3
4.556440524E0,1.411474310E-2,-2.303632535E-2,-3.462106921E-3
4.558928441E0,1.518000662E-2,-2.303632535E-2,-3.462106921E-3
4.561416358E0,1.624527015E-2,-2.303632535E-2,-3.462106921E-3
4.563904274E0,1.731053367E-2,-2.197106183E-2,-3.462106921E-3
4.566392191E0,1.837579720E-2,-1.877527125E-2,-3.462106921E-3
4.568880108E0,1.837579720E-2,-1.557948068E-2,-2.396843163E-3
4.571368024E0,1.944106072E-2,-1.131842658E-2,-2.396843163E-3
4.573855941E0,1.944106072E-2,-7.057371549E-3,-1.331579522E-3
4.576343858E0,1.944106072E-2,-2.796316985E-3,-2.663159103E-4
4.578831774E0,2.050632425E-2,3.994738800E-4,7.989477599E-4
4.581319691E0,2.050632425E-2,2.530001104E-3,1.864211401E-3
4.583807608E0,2.157158963E-2,5.725792143E-3,2.929474926E-3
4.586295524E0,2.157158963E-2,8.921583183E-3,3.994738683E-3
4.588783441E0,2.157158963E-2,1.105211023E-2,5.060002208E-3
4.591271358E0,2.157158963E-2,1.318263728E-2,6.125265732E-3
4.593759274E0,2.157158963E-2,1.531316526E-2,7.190529723E-3
4.596247191E0,2.050632425E-2,1.637842879E-2,8.255792782E-3
4.598735108E0,2.050632425E-2,1.744369231E-2,8.255792782E-3
4.601223024E0,1.944106072E-2,1.744369231E-2,8.255792782E-3
4.603710941E0,1.837579720E-2,1.850895584E-2,8.255792782E-3
4.606198858E0,1.837579720E-2,1.850895584E-2,7.190529723E-3
4.608686774E0,1.624527015E-2,1.850895584E-2,7.190529723E-3
4.611174691E0,1.624527015E-2,1.744369231E-2,7.190529723E-3
4.613662608E0,1.411474310E-2,1.637842879E-2,6.125265732E-3
4.616150524E0,1.304947957E-2,1.424790081E-2,5.060002208E-3
4.618638441E0,1.198421605E-2,1.105211023E-2,3.994738683E-3
4.621126358E0,1.091895252E-2,7.856319658E-3,2.929474926E-3
4.623614274E0,9.853689000E-3,4.660528619E-3,7.989477599E-4
4.626102191E0,8.788425475E-3,3.994738800E-4,-1.331579522E-3
4.628590108E0,7.723161485E-3,-1.731053460E-3,-2.396843163E-3
4.631078024E0,5.592633970E-3,-3.861580743E-3,-3.462106921E-3
4.633565941E0,3.462106921E-3,-4.926844500E-3,-4.527370445E-3
4.636053858E0,3.462106921E-3,-4.926844500E-3,-6.657897960E-3
4.638541774E0,2.396843163E-3,-4.926844500E-3,-7.723161485E-3
4.641029691E0,1.331579522E-3,-4.926844500E-3,-9.853689000E-3
4.643517608E0,2.663159103E-4,-4.926844500E-3,-1.091895252E-2
4.646005524E0,-7.989477599E-4,-3.861580743E-3,-9.853689000E-3
4.648493441E0,-7.989477599E-4,-3.861580743E-3,-1.091895252E-2
4.650981358E0,-7.989477599E-4,-3.861580743E-3,-1.091895252E-2
4.653469274E0,-1.864211401E-3,-3.861580743E-3,-1.091895252E-2
4.655957191E0,-7.989477599E-4,-2.796316985E-3,-9.853689000E-3
4.658445108E0,-7.989477599E-4,-2.796316985E-3,-9.853689000E-3
4.660933024E0,-7.989477599E-4,-2.796316985E-3,-7.723161485E-3
4.663420941E0,2.663159103E-4,-2.796316985E-3,-6.657897960E-3
4.665908858E0,1.331579522E-3,-3.861580743E-3,-5.592633970E-3
4.668396774E0,2.396843163E-3,-3.861580743E-3,-4.527370445E-3
4.670884691E0,2.396843163E-3,-3.861580743E-3,-2.396843163E-3
4.673372608E0,4.527370445E-3,-3.861580743E-3,-1.331579522E-3
4.675860524E0,5.592633970E-3,-4.926844500E-3,-1.331579522E-3
4.678348441E0,6.657897960E-3,-4.926844500E-3,7.989477599E-4
4.680836358E0,7.723161485E-3,-5.992108025E-3,7.989477599E-4
4.683324274E0,7.723161485E-3,-7.057371549E-3,2.929474926E-3
4.685812191E0,8.788425475E-3,-7.057371549E-3,1.864211401E-3
4.688300108E0,9.853689000E-3,-7.057371549E-3,2.929474926E-3
4.690788024E0,9.853689000E-3,-7.057371549E-3,2.929474926E-3
4.693275941E0,9.853689000E-3,-8.122635074E-3,3.994738683E-3
4.695763858E0,9.853689000E-3,-8.122635074E-3,5.060002208E-3
4.698251774E0,9.853689000E-3,-9.187898599E-3,5.060002208E-3
4.700739691E0,9.853689000E-3,-8.122635074E-3,6.125265732E-3
4.703227608E0,8.788425475E-3,-9.187898599E-3,5.060002208E-3
4.705715524E0,8.788425475E-3,-9.187898599E-3,5.060002208E-3
4.708203441E0,7.723161485E-3,-9.187898599E-3,5.060002208E-3
4.710691358E0,6.657897960E-3,-9.187898599E-3,5.060002208E-3
4.713179274E0,5.592633970E-3,-9.187898599E-3,3.994738683E-3
4.715667191E0,4.527370445E-3,-9.187898599E-3,3.994738683E-3
4.718155108E0,2.396843163E-3,-9.187898599E-3,2.929474926E-3
4.720643024E0,1.331579522E-3,-9.187898599E-3,2.929474926E-3
4.723130941E0,2.663159103E-4,-9.187898599E-3,2.929474926E-3
4.725618858E0,-1.864211401E-3,-9.187898599E-3,1.864211401E-3
4.728106774E0,-2.929474926E-3,-9.187898599E-3,1.864211401E-3
4.730594691E0,-3.994738683E-3,-1.025316212E-2,2.929474926E-3
4.733082608E0,-5.060002208E-3,-1.025316212E-2,1.864211401E-3
4.735570524E0,-6.125265732E-3,-1.025316212E-2,1.864211401E-3
4.738058441E0,-7.190529723E-3,-1.131842658E-2,7.989477599E-4
4.740546358E0,-7.190529723E-3,-1.238369010E-2,7.989477599E-4
4.743034274E0,-7.190529723E-3,-1.238369010E-2,7.989477599E-4
4.745522191E0,-7.190529723E-3,-1.238369010E-2,7.989477599E-4
4.748010108E0,-6.125265732E-3,-1.344895363E-2,-2.663159103E-4
4.750498024E0,-5.060002208E-3,-1.344895363E-2,-2.663159103E-4
4.752985941E0,-3.994738683E-3,-1.344895363E-2,-1.331579522E-3
4.755473858E0,-2.929474926E-3,-1.238369010E-2,-1.331579522E-3
4.757961774E0,-1.864211401E-3,-1.131842658E-2,-1.331579522E-3
4.760449691E0,-7.989477599E-4,-1.025316212E-2,-1.331579522E-3
4.762937608E0,2.663159103E-4,-8.122635074E-3,-1.331579522E-3
4.765425524E0,2.396843163E-3,-4.926844500E-3,-1.331579522E-3
4.767913441E0,3.462106921E-3,-1.731053460E-3,-2.663159103E-4
4.770401358E0,4.527370445E-3,3.994738800E-4,-2.663159103E-4
4.772889274E0,5.592633970E-3,2.530001104E-3,-2.663159103E-4
4.775377191E0,5.592633970E-3,4.660528619E-3,-2.663159103E-4
4.777865108E0,6.657897960E-3,5.725792143E-3,7.989477599E-4
4.780353024E0,5.592633970E-3,5.725792143E-3,7.989477599E-4
4.782840941E0,5.592633970E-3,5.725792143E-3,7.989477599E-4
4.785328858E0,4.527370445E-3,5.725792143E-3,7.989477599E-4
4.787816774E0,3.462106921E-3,4.660528619E-3,7.989477599E-4
4.790304691E0,3.462106921E-3,3.595264861E-3,-2.663159103E-4
4.792792608E0,3.462106921E-3,3.595264861E-3,-2.663159103E-4
4.795280524E0,2.396843163E-3,3.595264861E-3,-2.663159103E-4
4.797768441E0,2.396843163E-3,2.530001104E-3,-1.331579522E-3
4.800256358E0,1.331579522E-3,1.464737463E-3,-3.462106921E-3
4.802744274E0,1.331579522E-3,1.464737463E-3,-3.462106921E-3
4.805232191E0,2.663159103E-4,3.994738800E-4,-4.527370445E-3
4.807720108E0,-7.989477599E-4,-6.657897611E-4,-4.527370445E-3
4.810208024E0,2.663159103E-4,-2.796316985E-3,-4.527370445E-3
4.812695941E0,-7.989477599E-4,-4.926844500E-3,-5.592633970E-3
4.815183858E0,-7.989477599E-4,-7.057371549E-3,-5.592633970E-3
4.817671774E0,-7.989477599E-4,-8.122635074E-3,-4.527370445E-3
4.820159743E0,-7.989477599E-4,-1.025316212E-2,-4.527370445E-3
4.822647712E0,-7.989477599E-4,-1.025316212E-2,-3.462106921E-3
4.825135680E0,-7.989477599E-4,-1.131842658E-2,-3.462106921E-3
4.827623649E0,-7.989477599E-4,-1.131842658E-2,-1.331579522E-3
4.830111618E0,-7.989477599E-4,-1.131842658E-2,-1.331579522E-3
4.832599587E0,-7.989477599E-4,-1.025316212E-2,-2.663159103E-4
4.835087555E0,-7.989477599E-4,-9.187898599E-3,7.989477599E-4
4.837575524E0,-1.864211401E-3,-8.122635074E-3,1.864211401E-3
4.840063493E0,-1.864211401E-3,-7.057371549E-3,1.864211401E-3
4.842551462E0,-2.929474926E-3,-5.992108025E-3,2.929474926E-3
4.845039430E0,-2.929474926E-3,-3.861580743E-3,3.994738683E-3
4.847527399E0,-3.994738683E-3,-2.796316985E-3,3.994738683E-3
4.850015368E0,-5.060002208E-3,-1.731053460E-3,3.994738683E-3
4.852503337E0,-6.125265732E-3,-6.657897611E-4,5.060002208E-3
4.854991305E0,-7.190529723E-3,-1.731053460E-3,6.125265732E-3
4.857479274E0,-7.190529723E-3,-1.731053460E-3,6.125265732E-3
4.859967243E0,-9.321057238E-3,-2.796316985E-3,6.125265732E-3
4.862455212E0,-9.321057238E-3,-2.796316985E-3,6.125265732E-3
4.864943180E0,-9.321057238E-3,-3.861580743E-3,6.125265732E-3
4.867431149E0,-1.038632076E-2,-3.861580743E-3,6.125265732E-3
4.869919118E0,-1.145158429E-2,-4.926844500E-3,6.125265732E-3
4.872407087E0,-1.251684781E-2,-5.992108025E-3,5.060002208E-3
4.874895055E0,-1.251684781E-2,-5.992108025E-3,3.994738683E-3
4.877383024E0,-1.251684781E-2,-5.992108025E-3,2.929474926E-3
4.879870993E0,-1.145158429E-2,-5.992108025E-3,1.864211401E-3
4.882358962E0,-1.145158429E-2,-5.992108025E-3,7.989477599E-4
4.884846930E0,-1.145158429E-2,-5.992108025E-3,7.989477599E-4
4.887334899E0,-1.038632076E-2,-5.992108025E-3,-2.663159103E-4
4.889822816E0,-9.321057238E-3,-7.057371549E-3,-1.331579522E-3
4.892310733E0,-8.255792782E-3,-7.057371549E-3,-1.331579522E-3
4.894798649E0,-6.125265732E-3,-8.122635074E-3,-2.396843163E-3
4.897286566E0,-3.994738683E-3,-9.187898599E-3,-3.462106921E-3
4.899774483E0,-2.929474926E-3,-9.187898599E-3,-3.462106921E-3
4.902262399E0,-7.989477599E-4,-9.187898599E-3,-3.462106921E-3
4.904750316E0,1.331579522E-3,-8.122635074E-3,-3.462106921E-3
4.907238233E0,3.462106921E-3,-7.057371549E-3,-4.527370445E-3
4.909726149E0,6.657897960E-3,-4.926844500E-3,-4.527370445E-3
4.912214066E0,8.788425475E-3,-3.861580743E-3,-4.527370445E-3
4.914701983E0,1.091895252E-2,-1.731053460E-3,-4.527370445E-3
4.917189899E0,1.304947957E-2,-6.657897611E-4,-4.527370445E-3
4.919677816E0,1.518000662E-2,1.464737463E-3,-3.462106921E-3
4.922165733E0,1.837579720E-2,3.595264861E-3,-3.462106921E-3
4.924653649E0,2.050632425E-2,4.660528619E-3,-2.396843163E-3
4.927141566E0,2.157158963E-2,5.725792143E-3,-1.331579522E-3
4.929629483E0,2.370211668E-2,6.791055668E-3,-1.331579522E-3
4.932117399E0,2.476738021E-2,6.791055668E-3,-1.331579522E-3
4.934605316E0,2.583264373E-2,8.921583183E-3,-1.331579522E-3
4.937093233E0,2.583264373E-2,1.105211023E-2,-2.396843163E-3
4.939581149E0,2.583264373E-2,1.105211023E-2,-2.396843163E-3
4.942069066E0,2.583264373E-2,1.318263728E-2,-3.462106921E-3
4.944556983E0,2.476738021E-2,1.424790081E-2,-3.462106921E-3
4.947044899E0,2.476738021E-2,1.637842879E-2,-4.527370445E-3
4.949532816E0,2.370211668E-2,1.637842879E-2,-5.592633970E-3
4.952020733E0,2.263685316E-2,1.531316526E-2,-6.657897960E-3
4.954508649E0,2.157158963E-2,1.424790081E-2,-7.723161485E-3
4.956996566E0,1.944106072E-2,1.318263728E-2,-8.788425475E-3
4.959484483E0,1.731053367E-2,1.105211023E-2,-9.853689000E-3
4.961972399E0,1.518000662E-2,7.856319658E-3,-9.853689000E-3
4.964460316E0,1.198421605E-2,4.660528619E-3,-1.091895252E-2
4.966948233E0,9.853689000E-3,3.994738800E-4,-1.091895252E-2
4.969436149E0,6.657897960E-3,-3.861580743E-3,-1.091895252E-2
4.971924066E0,5.592633970E-3,-8.122635074E-3,-1.091895252E-2
4.974411983E0,2.396843163E-3,-1.131842658E-2,-9.853689000E-3
4.976899899E0,2.663159103E-4,-1.557948068E-2,-9.853689000E-3
4.979387816E0,-1.864211401E-3,-1.771000773E-2,-9.853689000E-3
4.981875733E0,-3.994738683E-3,-2.090579830E-2,-8.788425475E-3
4.984363649E0,-5.060002208E-3,-2.303632535E-2,-7.723161485E-3
4.986851566E0,-7.190529723E-3,-2.516685426E-2,-5.592633970E-3
4.989339483E0,-8.255792782E-3,-2.623211779E-2,-4.527370445E-3
4.991827399E0,-9.321057238E-3,-2.836264484E-2,-3.462106921E-3
4.994315316E0,-1.038632076E-2,-2.942790836E-2,-2.396843163E-3
4.996803233E0,-1.145158429E-2,-3.049317189E-2,-2.396843163E-3
4.999291149E0,-1.145158429E-2,-3.049317189E-2,-1.331579522E-3
5.001779066E0,-1.145158429E-2,-3.049317189E-2,-1.331579522E-3
5.004266983E0,-1.145158429E-2,-2.942790836E-2,-1.331579522E-3
5.006754899E0,-1.038632076E-2,-2.836264484E-2,-2.663159103E-4
5.009242816E0,-9.321057238E-3,-2.729738131E-2,7.989477599E-4
5.011730733E0,-7.190529723E-3,-2.623211779E-2,7.989477599E-4
5.014218649E0,-6.125265732E-3,-2.516685426E-2,7.989477599E-4
5.016706566E0,-5.060002208E-3,-2.303632535E-2,7.989477599E-4
