"Time (s)","Acceleration x (m/s^2)","Acceleration y (m/s^2)","Acceleration z (m/s^2)"
2.252391400E-2,7.155071735E0,4.603451252E0,-4.229955673E0
2.499568400E-2,7.145494938E0,4.613028049E0,-4.234744072E0
2.746870500E-2,7.126341343E0,4.608239651E0,-4.201225281E0
2.994349700E-2,7.097610950E0,4.617816448E0,-4.201225281E0
3.242047600E-2,7.068880558E0,4.617816448E0,-4.186860085E0
3.490000700E-2,7.054515362E0,4.613028049E0,-4.186860085E0
3.738229900E-2,7.064092159E0,4.593874454E0,-4.177283287E0
3.986610100E-2,7.083245754E0,4.589086056E0,-4.167706490E0
4.235287200E-2,7.088034153E0,4.569932461E0,-4.167706490E0
4.484250700E-2,7.116764545E0,4.550778866E0,-4.177283287E0
4.733479900E-2,7.145494938E0,4.512471676E0,-4.182071686E0
4.982818400E-2,7.174225330E0,4.488529682E0,-4.162918091E0
5.232157000E-2,7.212532520E0,4.469376087E0,-4.124610901E0
5.481573700E-2,7.236474514E0,4.435857296E0,-4.115034103E0
5.730990300E-2,7.269993305E0,4.407126904E0,-4.062361717E0
5.980537200E-2,7.313088894E0,4.397550106E0,-4.004900932E0
6.230177800E-2,7.365761757E0,4.383184910E0,-3.957016945E0
6.479875700E-2,7.408857346E0,4.368819714E0,-3.894767523E0
6.729589300E-2,7.447164536E0,4.349666119E0,-3.851671934E0
6.978782000E-2,7.485471725E0,4.330512524E0,-3.818153143E0
7.227542400E-2,7.499836922E0,4.296993732E0,-3.760692358E0
7.476297600E-2,7.514202118E0,4.287416458E0,-3.698443174E0
7.725052800E-2,7.542932510E0,4.296993732E0,-3.636193752E0
7.973808000E-2,7.557297707E0,4.301782131E0,-3.593098164E0
8.222563200E-2,7.590816498E0,4.292205334E0,-3.564367771E0
8.471318400E-2,7.614758492E0,4.277839661E0,-3.516483784E0
8.720073700E-2,7.609970093E0,4.287416458E0,-3.478176594E0
8.968828900E-2,7.624335289E0,4.287416458E0,-3.478176594E0
9.217584100E-2,7.619546890E0,4.282628059E0,-3.463811398E0
9.466339300E-2,7.590816498E0,4.292205334E0,-3.463811398E0
9.715094500E-2,7.571662903E0,4.301782131E0,-3.463811398E0
9.963849700E-2,7.552509308E0,4.320935726E0,-3.459022999E0
1.021260490E-1,7.562086105E0,4.364031315E0,-3.468599796E0
1.046136010E-1,7.542932510E0,4.392761707E0,-3.454234600E0
1.071011530E-1,7.533355713E0,4.440645695E0,-3.478176594E0
1.095887050E-1,7.509413719E0,4.455010891E0,-3.487753391E0
1.120762570E-1,7.514202118E0,4.478952885E0,-3.526060581E0
1.145638090E-1,7.518990517E0,4.507683277E0,-3.578732967E0
1.170513620E-1,7.504625320E0,4.517260075E0,-3.617040157E0
1.195389140E-1,7.499836922E0,4.531625271E0,-3.674500942E0
1.220264660E-1,7.509413719E0,4.522048473E0,-3.751115561E0
1.245140180E-1,7.514202118E0,4.512471676E0,-3.803787947E0
1.270015700E-1,7.518990517E0,4.526836872E0,-3.866037130E0
1.294891220E-1,7.538144112E0,4.536413670E0,-3.923498154E0
1.319766740E-1,7.552509308E0,4.531625271E0,-3.957016945E0
1.344642260E-1,7.566874504E0,4.541202068E0,-3.995324135E0
1.369517780E-1,7.571662903E0,4.560355663E0,-4.038419724E0
1.394393300E-1,7.586028099E0,4.531625271E0,-4.038419724E0
1.419268820E-1,7.595604897E0,4.522048473E0,-4.043208122E0
1.444144340E-1,7.581239700E0,4.522048473E0,-4.038419724E0
1.469019870E-1,7.571662903E0,4.536413670E0,-4.033631325E0
1.493895390E-1,7.566874504E0,4.522048473E0,-4.028842926E0
1.518770910E-1,7.557297707E0,4.517260075E0,-4.009689331E0
1.543646430E-1,7.576451302E0,4.536413670E0,-3.995324135E0
1.568521950E-1,7.576451302E0,4.541202068E0,-4.000112534E0
1.593397470E-1,7.586028099E0,4.555567265E0,-4.028842926E0
1.618272990E-1,7.586028099E0,4.569932461E0,-4.062361717E0
1.643148510E-1,7.590816498E0,4.565144062E0,-4.076726913E0
1.668024030E-1,7.576451302E0,4.555567265E0,-4.110245705E0
1.692899550E-1,7.576451302E0,4.560355663E0,-4.148552895E0
1.717775070E-1,7.557297707E0,4.550778866E0,-4.177283287E0
1.742650590E-1,7.547720909E0,4.545990467E0,-4.182071686E0
1.767526120E-1,7.547720909E0,4.541202068E0,-4.201225281E0
1.792401640E-1,7.542932510E0,4.550778866E0,-4.201225281E0
1.817277160E-1,7.538144112E0,4.555567265E0,-4.210802078E0
1.842152680E-1,7.528567314E0,4.555567265E0,-4.229955673E0
1.867028200E-1,7.523778915E0,4.555567265E0,-4.268262863E0
1.891903720E-1,7.533355713E0,4.545990467E0,-4.292205334E0
1.916779240E-1,7.514202118E0,4.565144062E0,-4.335300922E0
1.941654760E-1,7.480683327E0,4.579509258E0,-4.344877720E0
1.966530280E-1,7.461529732E0,4.584297657E0,-4.368819714E0
1.991405800E-1,7.456741333E0,4.574720860E0,-4.387973309E0
2.016281320E-1,7.428010941E0,4.560355663E0,-4.402338505E0
2.041156840E-1,7.389703751E0,4.541202068E0,-4.407126904E0
2.066032370E-1,7.399280548E0,4.526836872E0,-4.407126904E0
2.090908410E-1,7.404068947E0,4.517260075E0,-4.387973309E0
2.115784450E-1,7.399280548E0,4.517260075E0,-4.359242916E0
2.140660490E-1,7.389703751E0,4.507683277E0,-4.359242916E0
2.165536530E-1,7.394492149E0,4.502894878E0,-4.344877720E0
2.190412570E-1,7.365761757E0,4.512471676E0,-4.325724125E0
2.215288620E-1,7.341819286E0,4.522048473E0,-4.306570530E0
2.240164660E-1,7.322665691E0,4.498106480E0,-4.301782131E0
2.265040700E-1,7.298723698E0,4.498106480E0,-4.316147327E0
2.289916740E-1,7.284358501E0,4.522048473E0,-4.335300922E0
2.314792780E-1,7.274781704E0,4.517260075E0,-4.359242916E0
2.339668820E-1,7.241262913E0,4.512471676E0,-4.392761707E0
2.364544870E-1,7.202955723E0,4.512471676E0,-4.426280499E0
2.389420910E-1,7.188590527E0,4.522048473E0,-4.435857296E0
2.414296950E-1,7.188590527E0,4.517260075E0,-4.450222492E0
2.439172990E-1,7.188590527E0,4.517260075E0,-4.459799290E0
2.464049030E-1,7.169436932E0,4.502894878E0,-4.459799290E0
2.488925070E-1,7.135918140E0,4.502894878E0,-4.431068897E0
2.513801120E-1,7.111976147E0,4.488529682E0,-4.426280499E0
2.538677160E-1,7.068880558E0,4.498106480E0,-4.392761707E0
2.563553200E-1,7.025784969E0,4.488529682E0,-4.378396511E0
2.588429240E-1,6.987477779E0,4.512471676E0,-4.387973309E0
2.613305280E-1,6.939593792E0,4.526836872E0,-4.387973309E0
2.638181320E-1,6.915651798E0,4.536413670E0,-4.383184910E0
2.663057370E-1,6.862978935E0,4.522048473E0,-4.397550106E0
2.687933410E-1,6.824671745E0,4.531625271E0,-4.402338505E0
2.712809450E-1,6.795941353E0,4.531625271E0,-4.407126904E0
2.737685490E-1,6.762422562E0,4.517260075E0,-4.416703701E0
2.762561530E-1,6.685808182E0,4.512471676E0,-4.407126904E0
2.787437570E-1,6.613982201E0,4.498106480E0,-4.378396511E0
2.812313620E-1,6.570886612E0,4.488529682E0,-4.387973309E0
2.837189660E-1,6.518214226E0,4.488529682E0,-4.383184910E0
2.862065700E-1,6.475118637E0,4.502894878E0,-4.387973309E0
2.886941740E-1,6.441599846E0,4.522048473E0,-4.407126904E0
2.911817780E-1,6.398504257E0,4.502894878E0,-4.411915302E0
2.936693820E-1,6.364984989E0,4.483741283E0,-4.407126904E0
2.961569870E-1,6.341042995E0,4.459799290E0,-4.383184910E0
2.986445910E-1,6.331466198E0,4.445434093E0,-4.364031315E0
3.011321950E-1,6.326677799E0,4.421492100E0,-4.335300922E0
3.036197990E-1,6.307524204E0,4.402338505E0,-4.296993732E0
3.061074030E-1,6.288370609E0,4.373608112E0,-4.258686066E0
3.085950070E-1,6.264428616E0,4.344877720E0,-4.206013680E0
3.110826120E-1,6.250063419E0,4.320935726E0,-4.158129692E0
3.135702160E-1,6.216544628E0,4.306570530E0,-4.105457306E0
3.160578200E-1,6.187814236E0,4.296993732E0,-4.033631325E0
3.185454240E-1,6.135141850E0,4.282628059E0,-3.966593742E0
3.210330280E-1,6.096834660E0,4.287416458E0,-3.923498154E0
3.235206320E-1,6.034585476E0,4.273051262E0,-3.880402327E0
3.260081840E-1,5.991489887E0,4.268262863E0,-3.846883535E0
3.284957370E-1,5.934029102E0,4.253897667E0,-3.808576345E0
3.309832890E-1,5.895721912E0,4.234744072E0,-3.789422750E0
3.334708410E-1,5.833472252E0,4.210802078E0,-3.770269156E0
3.359583930E-1,5.804741859E0,4.196436882E0,-3.751115561E0
3.384459450E-1,5.737704277E0,4.162918091E0,-3.727173567E0
3.409334970E-1,5.689820290E0,4.124610901E0,-3.684077978E0
3.434210490E-1,5.661089897E0,4.095880508E0,-3.636193752E0
3.459086010E-1,5.622782707E0,4.052784920E0,-3.626616955E0
3.483961530E-1,5.589263916E0,4.024054527E0,-3.597886562E0
3.508837050E-1,5.565321922E0,4.000112534E0,-3.578732967E0
3.533712570E-1,5.517437935E0,3.980958939E0,-3.550002575E0
3.558588090E-1,5.483919144E0,3.961805344E0,-3.550002575E0
3.583463620E-1,5.440823555E0,3.937863350E0,-3.530848980E0
3.608339140E-1,5.416881561E0,3.937863350E0,-3.535637379E0
3.633214660E-1,5.368997097E0,3.928286552E0,-3.530848980E0
3.658090180E-1,5.330689907E0,3.899555922E0,-3.506906986E0
3.682965700E-1,5.282805920E0,3.856460333E0,-3.482964993E0
3.707841220E-1,5.287594318E0,3.798999548E0,-3.468599796E0
3.732716740E-1,5.268440723E0,3.760692358E0,-3.459022999E0
3.757592260E-1,5.239710331E0,3.731961966E0,-3.449446201E0
3.782467780E-1,5.172672749E0,3.703231573E0,-3.449446201E0
3.807343300E-1,5.129577160E0,3.693654776E0,-3.425503969E0
3.832218820E-1,5.091269970E0,3.674500942E0,-3.411138773E0
3.857094340E-1,5.038597584E0,3.655347347E0,-3.391985178E0
3.881969870E-1,5.024232388E0,3.640982151E0,-3.387196779E0
3.906845390E-1,4.995501995E0,3.621828556E0,-3.377619982E0
3.931720910E-1,4.971560001E0,3.617040157E0,-3.368043184E0
3.956596430E-1,4.981136799E0,3.617040157E0,-3.344101191E0
3.981471950E-1,4.995501995E0,3.588309765E0,-3.339312792E0
4.006347470E-1,4.990713596E0,3.588309765E0,-3.315370798E0
4.031222990E-1,4.985925198E0,3.573944569E0,-3.272275209E0
4.056098510E-1,4.995501995E0,3.569156170E0,-3.214814425E0
4.080974030E-1,4.985925198E0,3.559579372E0,-3.162141800E0
4.105849550E-1,5.009867191E0,3.550002575E0,-3.109469414E0
4.130725070E-1,5.005078793E0,3.545214176E0,-3.047220230E0
4.155600590E-1,5.009867191E0,3.550002575E0,-3.028066635E0
4.180476120E-1,5.005078793E0,3.554790974E0,-2.984971046E0
4.205351640E-1,4.990713596E0,3.569156170E0,-2.970605850E0
4.230227160E-1,4.990713596E0,3.545214176E0,-2.951452255E0
4.255102680E-1,4.971560001E0,3.540425777E0,-2.975394249E0
4.279978200E-1,4.942829609E0,3.530848980E0,-3.037643433E0
4.304853720E-1,4.933252811E0,3.521272182E0,-3.114257812E0
4.329729240E-1,4.890156746E0,3.516483784E0,-3.214814425E0
4.354604760E-1,4.842272758E0,3.506906986E0,-3.310582399E0
4.379480280E-1,4.813542366E0,3.482964993E0,-3.396773577E0
4.404355800E-1,4.808753967E0,3.473388195E0,-3.482964993E0
4.429231320E-1,4.803965569E0,3.468599796E0,-3.521272182E0
4.454106840E-1,4.808753967E0,3.444657803E0,-3.588309765E0
4.478982890E-1,4.847061157E0,3.411138773E0,-3.669712543E0
4.503858930E-1,4.899733543E0,3.377619982E0,-3.741538763E0
4.528734970E-1,5.009867191E0,3.329735994E0,-3.846883535E0
4.553611010E-1,5.124788761E0,3.277063608E0,-3.942651749E0
4.578487050E-1,5.225345135E0,3.219602823E0,-4.004900932E0
4.603363090E-1,5.335478306E0,3.157353401E0,-4.076726913E0
4.628239140E-1,5.440823555E0,3.090315819E0,-4.143764496E0
4.653115180E-1,5.546168327E0,3.023278236E0,-4.177283287E0
4.677991220E-1,5.646724701E0,2.961029053E0,-4.206013680E0
4.702867260E-1,5.780799866E0,2.932298422E0,-4.244320869E0
4.727750590E-1,5.910087109E0,2.879626036E0,-4.292205334E0
4.752628720E-1,6.010643482E0,2.831742048E0,-4.354454517E0
4.777504760E-1,6.115988255E0,2.807800055E0,-4.397550106E0
4.802380280E-1,6.202179432E0,2.783858061E0,-4.431068897E0
4.827255800E-1,6.283582211E0,2.779069662E0,-4.435857296E0
4.852131320E-1,6.369773388E0,2.783858061E0,-4.435857296E0
4.877006840E-1,6.422446251E0,2.774281263E0,-4.426280499E0
4.901882370E-1,6.460753441E0,2.769492865E0,-4.402338505E0
4.926757890E-1,6.479907036E0,2.779069662E0,-4.373608112E0
4.951633410E-1,6.470330238E0,2.779069662E0,-4.349666119E0
4.976508930E-1,6.460753441E0,2.807800055E0,-4.320935726E0
5.001384450E-1,6.470330238E0,2.822165251E0,-4.268262863E0
5.026259970E-1,6.479907036E0,2.836530447E0,-4.201225281E0
5.051135490E-1,6.465541840E0,2.855684042E0,-4.138976097E0
5.076011010E-1,6.460753441E0,2.893991232E0,-4.052784920E0
5.100886530E-1,6.441599846E0,2.913144827E0,-3.995324135E0
5.125762050E-1,6.432023048E0,2.917933226E0,-3.937863350E0
5.150637570E-1,6.412869453E0,2.917933226E0,-3.851671934E0
5.175513090E-1,6.403292656E0,2.946663857E0,-3.818153143E0
5.200388620E-1,6.384139061E0,2.941875219E0,-3.760692358E0
5.225264140E-1,6.364984989E0,2.956240654E0,-3.688866377E0
5.250139660E-1,6.297947407E0,2.961029053E0,-3.621828556E0
5.275015180E-1,6.259640217E0,3.004124641E0,-3.540425777E0
5.299890700E-1,6.226121426E0,3.028066635E0,-3.468599796E0
5.324766220E-1,6.211756229E0,3.052008629E0,-3.382408381E0
5.349641740E-1,6.183025837E0,3.080739021E0,-3.339312792E0
5.374517260E-1,6.149507046E0,3.114257812E0,-3.324947596E0
5.399392780E-1,6.139930248E0,3.119046211E0,-3.281852007E0
5.424268300E-1,6.139930248E0,3.123834610E0,-3.291428804E0
5.449143820E-1,6.130353451E0,3.109469414E0,-3.257910013E0
5.474019340E-1,6.154295444E0,3.095104218E0,-3.238756418E0
5.498894870E-1,6.183025837E0,3.071162224E0,-3.210026026E0
5.523770390E-1,6.206967831E0,3.047220230E0,-3.166930199E0
5.548645910E-1,6.245275021E0,3.008913040E0,-3.114257812E0
5.573521430E-1,6.269217014E0,2.980182648E0,-3.080739021E0
5.598396950E-1,6.312312603E0,2.946663857E0,-3.052008629E0
5.623272470E-1,6.369773388E0,2.908356428E0,-3.018489838E0
5.648147990E-1,6.436811447E0,2.874837637E0,-2.994547844E0
5.673023510E-1,6.518214226E0,2.855684042E0,-2.965817451E0
5.697899030E-1,6.590040207E0,2.812588453E0,-2.961029053E0
5.722774550E-1,6.652289391E0,2.783858061E0,-2.965817451E0
5.747650070E-1,6.724115372E0,2.735974073E0,-2.970605850E0
5.772525590E-1,6.791152954E0,2.702455282E0,-2.999336243E0
5.797401120E-1,6.886921406E0,2.683301449E0,-3.042431831E0
5.822276640E-1,6.992266178E0,2.635417461E0,-3.109469414E0
5.847152160E-1,7.064092159E0,2.592321873E0,-3.157353401E0
5.872027680E-1,7.135918140E0,2.568379879E0,-3.195660830E0
5.896903200E-1,7.193378925E0,2.549226284E0,-3.224391222E0
5.921779240E-1,7.246051311E0,2.530072689E0,-3.243544817E0
5.946655280E-1,7.269993305E0,2.525284290E0,-3.286640406E0
5.971531320E-1,7.317877293E0,2.530072689E0,-3.291428804E0
5.996407370E-1,7.360973358E0,2.534861088E0,-3.291428804E0
6.021283410E-1,7.384915352E0,2.544437885E0,-3.310582399E0
6.046159450E-1,7.432799339E0,2.549226284E0,-3.329735994E0
6.071035490E-1,7.456741333E0,2.554014683E0,-3.363254786E0
6.095911530E-1,7.480683327E0,2.558803082E0,-3.372831583E0
6.120787570E-1,7.480683327E0,2.577956676E0,-3.387196779E0
6.145663620E-1,7.490260124E0,2.587533474E0,-3.401561975E0
6.170539660E-1,7.499836922E0,2.611475468E0,-3.415927172E0
6.195415700E-1,7.509413719E0,2.654571056E0,-3.435081005E0
6.220291740E-1,7.514202118E0,2.688089848E0,-3.439869404E0
6.245167780E-1,7.528567314E0,2.731185675E0,-3.463811398E0
6.270043820E-1,7.533355713E0,2.793434858E0,-3.497330189E0
6.294919870E-1,7.557297707E0,2.841318846E0,-3.516483784E0
6.319795910E-1,7.552509308E0,2.903568029E0,-3.554790974E0
6.344671950E-1,7.542932510E0,2.961029053E0,-3.602674961E0
6.369547990E-1,7.566874504E0,2.999336243E0,-3.664924145E0
6.394424030E-1,7.590816498E0,3.042431831E0,-3.736750364E0
6.419300070E-1,7.619546890E0,3.080739021E0,-3.803787947E0
6.444176120E-1,7.643488884E0,3.114257812E0,-3.856460333E0
6.469052160E-1,7.681796074E0,3.142988205E0,-3.880402327E0
6.493928200E-1,7.710526466E0,3.171718597E0,-3.889979124E0
6.518804240E-1,7.744045258E0,3.200449228E0,-3.894767523E0
6.543680280E-1,7.758410454E0,3.233968019E0,-3.885190725E0
6.568556320E-1,7.782352448E0,3.253121614E0,-3.861248732E0
6.593432370E-1,7.796717644E0,3.291428804E0,-3.837306738E0
6.618308410E-1,7.820659637E0,3.310582399E0,-3.813364744E0
6.643184450E-1,7.854178905E0,3.320159197E0,-3.789422750E0
6.668060490E-1,7.887697697E0,3.320159197E0,-3.770269156E0
6.692936530E-1,7.926004887E0,3.305794001E0,-3.736750364E0
6.717812570E-1,7.988254070E0,3.277063608E0,-3.698443174E0
6.742688620E-1,8.060079575E0,3.243544817E0,-3.664924145E0
6.767564660E-1,8.155848503E0,3.243544817E0,-3.617040157E0
6.792440700E-1,8.246828079E0,3.229179621E0,-3.550002575E0
6.817316740E-1,8.342596054E0,3.224391222E0,-3.516483784E0
6.842192780E-1,8.447940826E0,3.243544817E0,-3.459022999E0
6.867068820E-1,8.529343605E0,3.248333216E0,-3.406350374E0
6.891944870E-1,8.605957985E0,3.262698412E0,-3.368043184E0
6.916820910E-1,8.711302757E0,3.257910013E0,-3.344101191E0
6.941696950E-1,8.811859131E0,3.262698412E0,-3.329735994E0
6.966572990E-1,8.912415504E0,3.248333216E0,-3.324947596E0
6.991449030E-1,9.012971878E0,3.214814425E0,-3.324947596E0
7.016325070E-1,9.118317604E0,3.162141800E0,-3.348889589E0
7.041201120E-1,9.204508781E0,3.119046211E0,-3.377619982E0
7.066077160E-1,9.290699959E0,3.080739021E0,-3.377619982E0
7.090953200E-1,9.329007149E0,3.090315819E0,-3.358466387E0
7.115829240E-1,9.391256332E0,3.071162224E0,-3.363254786E0
7.140705280E-1,9.434351921E0,3.085527420E0,-3.344101191E0
7.165581320E-1,9.443928719E0,3.085527420E0,-3.334524393E0
7.190457370E-1,9.453505516E0,3.075950623E0,-3.315370798E0
7.215333410E-1,9.467870712E0,3.071162224E0,-3.344101191E0
7.240209450E-1,9.487024307E0,3.061585426E0,-3.339312792E0
7.265085490E-1,9.501389503E0,3.052008629E0,-3.377619982E0
7.289961530E-1,9.506177902E0,3.032855034E0,-3.391985178E0
7.314837050E-1,9.520543098E0,3.047220230E0,-3.406350374E0
7.339712570E-1,9.539696693E0,3.061585426E0,-3.387196779E0
7.364588090E-1,9.534908295E0,3.080739021E0,-3.368043184E0
7.389463620E-1,9.554061890E0,3.080739021E0,-3.339312792E0
7.414339140E-1,9.558850288E0,3.066373825E0,-3.310582399E0
7.439214660E-1,9.544485092E0,3.037643433E0,-3.248333216E0
7.464090180E-1,9.539696693E0,3.013701439E0,-3.210026026E0
7.488965700E-1,9.534908295E0,3.004124641E0,-3.171718597E0
7.513841220E-1,9.539696693E0,2.965817451E0,-3.152565002E0
7.538716740E-1,9.525331497E0,2.946663857E0,-3.128623009E0
7.563592260E-1,9.534908295E0,2.917933226E0,-3.095104218E0
7.588467780E-1,9.549273491E0,2.898779631E0,-3.066373825E0
7.613343300E-1,9.573215485E0,2.870049238E0,-3.056797028E0
7.638218820E-1,9.582792282E0,2.826953650E0,-3.018489838E0
7.663094340E-1,9.611522675E0,2.803011656E0,-2.965817451E0
7.687969870E-1,9.649829865E0,2.769492865E0,-2.922721624E0
7.712845390E-1,9.707290649E0,2.745550871E0,-2.860472441E0
7.737720910E-1,9.774328232E0,2.721608877E0,-2.807800055E0
7.762596430E-1,9.807847023E0,2.716820478E0,-2.759916067E0
7.787471950E-1,9.850942612E0,2.702455282E0,-2.731185675E0
7.812347470E-1,9.884461403E0,2.664147854E0,-2.692878246E0
7.837222990E-1,9.917980194E0,2.635417461E0,-2.697666883E0
7.862098510E-1,9.985017776E0,2.621052265E0,-2.716820478E0
7.886974030E-1,1.001374817E1,2.597110271E0,-2.721608877E0
7.911849550E-1,1.006163311E1,2.597110271E0,-2.764704466E0
7.936725070E-1,1.007120991E1,2.597110271E0,-2.817376852E0
7.961600590E-1,1.007599831E1,2.611475468E0,-2.874837637E0
7.986476120E-1,1.007599831E1,2.635417461E0,-2.946663857E0
8.011351640E-1,1.006642151E1,2.673724651E0,-2.994547844E0
8.036227160E-1,1.004726696E1,2.697666883E0,-3.023278236E0
8.061102680E-1,1.002332497E1,2.721608877E0,-3.032855034E0
8.085978200E-1,9.965864182E0,2.759916067E0,-3.037643433E0
8.110853720E-1,9.917980194E0,2.798223257E0,-3.047220230E0
8.135729240E-1,9.884461403E0,2.803011656E0,-3.080739021E0
8.160604760E-1,9.865307808E0,2.812588453E0,-3.080739021E0
8.185480280E-1,9.841365814E0,2.836530447E0,-3.095104218E0
8.210355800E-1,9.822212219E0,2.836530447E0,-3.109469414E0
8.235231320E-1,9.822212219E0,2.836530447E0,-3.123834610E0
8.260106840E-1,9.817423820E0,2.817376852E0,-3.133411407E0
8.284982370E-1,9.817423820E0,2.817376852E0,-3.133411407E0
8.309857890E-1,9.822212219E0,2.807800055E0,-3.119046211E0
8.334733930E-1,9.846154213E0,2.793434858E0,-3.114257812E0
8.359609970E-1,9.874884605E0,2.783858061E0,-3.109469414E0
8.384486010E-1,9.894038200E0,2.779069662E0,-3.085527420E0
8.409362050E-1,9.937133789E0,2.740762472E0,-3.056797028E0
8.434238090E-1,9.975440979E0,2.707243681E0,-3.047220230E0
8.459114140E-1,1.000417137E1,2.702455282E0,-3.028066635E0
8.483990180E-1,1.001374817E1,2.678513050E0,-3.028066635E0
8.508866220E-1,1.002811337E1,2.664147854E0,-3.032855034E0
8.533742260E-1,1.002811337E1,2.649782658E0,-2.989759445E0
8.558618300E-1,1.003769016E1,2.606687069E0,-2.941875219E0
8.583494340E-1,1.004726696E1,2.573168278E0,-2.884414434E0
8.608370390E-1,1.006163311E1,2.568379879E0,-2.860472441E0
8.633246430E-1,1.008557510E1,2.544437885E0,-2.817376852E0
8.658122470E-1,1.009036350E1,2.515707493E0,-2.783858061E0
8.682998510E-1,1.009036350E1,2.501342297E0,-2.755127668E0
8.707874550E-1,1.007599831E1,2.482188702E0,-2.750339270E0
8.732750590E-1,1.007120991E1,2.453458309E0,-2.769492865E0
8.757626640E-1,1.007599831E1,2.424727678E0,-2.783858061E0
8.782502680E-1,1.011909389E1,2.410362482E0,-2.798223257E0
8.807378720E-1,1.014782429E1,2.386420488E0,-2.826953650E0
8.832254760E-1,1.018134308E1,2.376843691E0,-2.860472441E0
8.857130800E-1,1.021486187E1,2.352901697E0,-2.922721624E0
8.882006840E-1,1.023880386E1,2.333748102E0,-3.004124641E0
8.906882890E-1,1.023880386E1,2.314594507E0,-3.028066635E0
8.931758930E-1,1.024359226E1,2.305017710E0,-3.056797028E0
8.956634970E-1,1.024359226E1,2.305017710E0,-3.071162224E0
8.981511010E-1,1.022922707E1,2.295440912E0,-3.080739021E0
9.006387050E-1,1.023401546E1,2.305017710E0,-3.056797028E0
9.031263090E-1,1.022443867E1,2.295440912E0,-3.032855034E0
9.056139140E-1,1.021486187E1,2.314594507E0,-3.032855034E0
9.081015180E-1,1.022443867E1,2.314594507E0,-3.008913040E0
9.105891220E-1,1.023401546E1,2.348113298E0,-2.970605850E0
9.130767260E-1,1.023401546E1,2.357690096E0,-2.951452255E0
9.155643300E-1,1.023401546E1,2.348113298E0,-2.937086821E0
9.180519340E-1,1.021007347E1,2.362478495E0,-2.927510023E0
9.205395390E-1,1.021965027E1,2.381632090E0,-2.903568029E0
9.230271430E-1,1.023401546E1,2.400785685E0,-2.865260839E0
9.255147470E-1,1.019570827E1,2.395997286E0,-2.812588453E0
9.280023510E-1,1.014782429E1,2.405574083E0,-2.764704466E0
9.304899550E-1,1.012867069E1,2.410362482E0,-2.726397276E0
9.329775590E-1,1.008078671E1,2.419939280E0,-2.683301449E0
9.354651640E-1,9.999382973E0,2.434304476E0,-2.654571056E0
9.379527680E-1,9.937133789E0,2.458246708E0,-2.611475468E0
9.404403720E-1,9.884461403E0,2.482188702E0,-2.568379879E0
9.429279760E-1,9.846154213E0,2.496553898E0,-2.539649487E0
9.454155800E-1,9.822212219E0,2.491765499E0,-2.525284290E0
9.479031840E-1,9.803058624E0,2.510919094E0,-2.520495892E0
9.503907890E-1,9.788693428E0,2.520495892E0,-2.510919094E0
9.528783930E-1,9.769539833E0,2.520495892E0,-2.530072689E0
9.553659970E-1,9.750386238E0,2.515707493E0,-2.534861088E0
9.578536010E-1,9.740809441E0,2.534861088E0,-2.525284290E0
9.603412050E-1,9.712079048E0,2.530072689E0,-2.534861088E0
9.628288090E-1,9.707290649E0,2.534861088E0,-2.549226284E0
9.653164140E-1,9.726444244E0,2.510919094E0,-2.558803082E0
9.678040180E-1,9.764751434E0,2.486977100E0,-2.568379879E0
9.702916220E-1,9.793481827E0,2.448669672E0,-2.616263866E0
9.727799550E-1,9.827000618E0,2.415150881E0,-2.640205860E0
9.752669870E-1,9.870096207E0,2.372055292E0,-2.716820478E0
9.777540180E-1,9.927556992E0,2.319382906E0,-2.788646460E0
9.802410490E-1,9.999382973E0,2.305017710E0,-2.860472441E0
9.827281320E-1,1.006163311E1,2.290652514E0,-2.917933226E0
9.852152680E-1,1.009515190E1,2.261922121E0,-3.004124641E0
9.877024550E-1,1.010951710E1,2.228403330E0,-3.095104218E0
9.901897470E-1,1.009994030E1,2.214038134E0,-3.186083794E0
9.926771430E-1,1.010951710E1,2.185307503E0,-3.286640406E0
9.951646430E-1,1.010951710E1,2.142211914E0,-3.382408381E0
9.976522470E-1,1.010472870E1,2.108693123E0,-3.459022999E0
1.000139955E0,1.010951710E1,2.089539528E0,-3.535637379E0
1.002627768E0,1.008557510E1,2.065597534E0,-3.617040157E0
1.005115632E0,1.006163311E1,2.060809135E0,-3.693654776E0
1.007603549E0,1.005684471E1,2.056020737E0,-3.760692358E0
1.010091518E0,1.002811337E1,2.060809135E0,-3.822941542E0
1.012579539E0,1.001853657E1,2.022501945E0,-3.870825529E0
1.015067559E0,9.994594574E0,1.998559833E0,-3.928286552E0
1.017555580E0,9.999382973E0,1.969829440E0,-3.995324135E0
1.020043549E0,9.980229378E0,1.960252643E0,-4.038419724E0
1.022531153E0,9.994594574E0,1.945887446E0,-4.095880508E0
1.025018757E0,9.985017776E0,1.945887446E0,-4.124610901E0
1.027506309E0,9.989806175E0,1.931522250E0,-4.115034103E0
1.029993862E0,9.985017776E0,1.907580256E0,-4.148552895E0
1.032481414E0,9.985017776E0,1.907580256E0,-4.124610901E0
1.034968966E0,9.985017776E0,1.902791858E0,-4.110245705E0
1.037456518E0,9.975440979E0,1.902791858E0,-4.081515312E0
1.039944070E0,9.961075783E0,1.926733851E0,-4.043208122E0
1.042431622E0,9.951498985E0,1.936310649E0,-3.995324135E0
1.044919174E0,9.951498985E0,1.955464244E0,-3.937863350E0
1.047406726E0,9.980229378E0,1.960252643E0,-3.894767523E0
1.049894278E0,9.970652580E0,1.965041041E0,-3.846883535E0
1.052381830E0,9.985017776E0,1.955464244E0,-3.813364744E0
1.054869382E0,9.989806175E0,1.974617839E0,-3.775057554E0
1.057356934E0,1.001853657E1,1.965041041E0,-3.712808371E0
1.059844487E0,1.004247856E1,1.960252643E0,-3.664924145E0
1.062332039E0,1.006163311E1,1.974617839E0,-3.588309765E0
1.064819591E0,1.008557510E1,1.998559833E0,-3.526060581E0
1.067307143E0,1.010472870E1,2.008136749E0,-3.482964993E0
1.069794695E0,1.011909389E1,1.998559833E0,-3.430292368E0
1.072282247E0,1.014303589E1,2.003348351E0,-3.372831583E0
1.074769799E0,1.017655468E1,1.998559833E0,-3.324947596E0
1.077257351E0,1.021007347E1,1.988983035E0,-3.281852007E0
1.079744903E0,1.024838066E1,1.974617839E0,-3.248333216E0
1.082232455E0,1.027711105E1,1.974617839E0,-3.205237627E0
1.084720007E0,1.028189945E1,1.955464244E0,-3.157353401E0
1.087207559E0,1.029147625E1,1.936310649E0,-3.133411407E0
1.089695112E0,1.031062984E1,1.907580256E0,-3.114257812E0
1.092182664E0,1.033457184E1,1.883638144E0,-3.128623009E0
1.094670216E0,1.033936024E1,1.854907751E0,-3.138199806E0
1.097157768E0,1.034414864E1,1.811812162E0,-3.190872431E0
1.099645320E0,1.037287903E1,1.759139657E0,-3.257910013E0
1.102132872E0,1.039203262E1,1.735197663E0,-3.310582399E0
1.104620424E0,1.039203262E1,1.706467271E0,-3.377619982E0
1.107107976E0,1.039203262E1,1.677736878E0,-3.420715570E0
1.109595528E0,1.040639782E1,1.634641171E0,-3.482964993E0
1.112083080E0,1.039203262E1,1.615487576E0,-3.521272182E0
1.114570632E0,1.036330223E1,1.581968784E0,-3.564367771E0
1.117058237E0,1.032499504E1,1.567603588E0,-3.636193752E0
1.119545841E0,1.028189945E1,1.567603588E0,-3.717596769E0
1.122033445E0,1.022922707E1,1.567603588E0,-3.779845953E0
1.124521049E0,1.018613148E1,1.596333981E0,-3.861248732E0
1.127008653E0,1.013824749E1,1.615487576E0,-3.937863350E0
1.129496257E0,1.009036350E1,1.639429569E0,-4.000112534E0
1.131983862E0,1.007599831E1,1.653794765E0,-4.047996521E0
1.134471466E0,1.006642151E1,1.672948480E0,-4.119822502E0
1.136959070E0,1.004247856E1,1.658583283E0,-4.186860085E0
1.139446674E0,1.001374817E1,1.658583283E0,-4.229955673E0
1.141934278E0,9.999382973E0,1.653794765E0,-4.239532471E0
1.144421882E0,9.999382973E0,1.644217968E0,-4.244320869E0
1.146909487E0,9.989806175E0,1.653794765E0,-4.215590477E0
1.149397091E0,1.000417137E1,1.634641171E0,-4.191648483E0
1.151884695E0,1.001853657E1,1.639429569E0,-4.158129692E0
1.154372299E0,1.003769016E1,1.668160081E0,-4.105457306E0
1.156859903E0,1.007120991E1,1.658583283E0,-4.067150116E0
1.159347507E0,1.009515190E1,1.644217968E0,-4.024054527E0
1.161835112E0,1.012388229E1,1.629852772E0,-3.957016945E0
1.164322716E0,1.015740108E1,1.620275974E0,-3.889979124E0
1.166810320E0,1.019091988E1,1.610699177E0,-3.803787947E0
1.169297924E0,1.024359226E1,1.596333981E0,-3.731961966E0
1.171785528E0,1.026753426E1,1.581968784E0,-3.655347347E0
1.174273132E0,1.029626465E1,1.562815189E0,-3.573944569E0
1.176760737E0,1.032978344E1,1.538873196E0,-3.497330189E0
1.179248341E0,1.035851383E1,1.519719481E0,-3.439869404E0
1.181735945E0,1.040160942E1,1.471835494E0,-3.411138773E0
1.184223549E0,1.045907021E1,1.447893500E0,-3.377619982E0
1.186711153E0,1.052610779E1,1.404797792E0,-3.363254786E0
1.189198757E0,1.057399178E1,1.371279001E0,-3.348889589E0
1.191686362E0,1.061229897E1,1.347337008E0,-3.358466387E0
1.194173966E0,1.063145256E1,1.328183413E0,-3.348889589E0
1.196661570E0,1.065060616E1,1.289876223E0,-3.368043184E0
1.199149174E0,1.066975975E1,1.256357312E0,-3.411138773E0
1.201636778E0,1.066018295E1,1.218050122E0,-3.439869404E0
1.204124382E0,1.070327854E1,1.184531331E0,-3.459022999E0
1.206611987E0,1.074637413E1,1.155800819E0,-3.511695385E0
1.209099591E0,1.077989292E1,1.103128433E0,-3.530848980E0
1.211587195E0,1.078946972E1,1.088763237E0,-3.569156170E0
1.214074799E0,1.077989292E1,1.064821243E0,-3.597886562E0
1.216562403E0,1.076073933E1,1.055244446E0,-3.617040157E0
1.219050007E0,1.076073933E1,1.060032845E0,-3.636193752E0
1.221537612E0,1.074158573E1,1.079186440E0,-3.640982151E0
1.224025216E0,1.069849014E1,1.112705231E0,-3.650558949E0
1.226512820E0,1.064581776E1,1.131858826E0,-3.669712543E0
1.229000424E0,1.060751057E1,1.151012421E0,-3.664924145E0
1.231488028E0,1.056441498E1,1.174954534E0,-3.679289579E0
1.233975632E0,1.051653099E1,1.203684926E0,-3.679289579E0
1.236463237E0,1.045907021E1,1.222838521E0,-3.669712543E0
1.238950841E0,1.041597462E1,1.241992116E0,-3.640982151E0
1.241438445E0,1.034893703E1,1.256357312E0,-3.597886562E0
1.243926049E0,1.029147625E1,1.304241419E0,-3.554790974E0
1.246413653E0,1.024838066E1,1.342548609E0,-3.526060581E0
1.248901257E0,1.020528507E1,1.385644197E0,-3.487753391E0
1.251388862E0,1.019091988E1,1.438316703E0,-3.444657803E0
1.253876466E0,1.020528507E1,1.476623893E0,-3.401561975E0
1.256364070E0,1.019570827E1,1.495777488E0,-3.372831583E0
1.258851674E0,1.018613148E1,1.510142684E0,-3.348889589E0
1.261339278E0,1.017176628E1,1.529296279E0,-3.334524393E0
1.263826882E0,1.014782429E1,1.534084797E0,-3.286640406E0
1.266314487E0,1.014303589E1,1.538873196E0,-3.257910013E0
1.268802091E0,1.015261269E1,1.524507880E0,-3.205237627E0
1.271289695E0,1.013824749E1,1.524507880E0,-3.157353401E0
1.273777299E0,1.011909389E1,1.538873196E0,-3.142988205E0
1.276264903E0,1.012867069E1,1.538873196E0,-3.138199806E0
1.278752507E0,1.013824749E1,1.548449993E0,-3.133411407E0
1.281240112E0,1.016697788E1,1.548449993E0,-3.123834610E0
1.283727716E0,1.019570827E1,1.543661594E0,-3.119046211E0
1.286215320E0,1.021486187E1,1.538873196E0,-3.123834610E0
1.288702924E0,1.024838066E1,1.500565886E0,-3.123834610E0
1.291190528E0,1.027711105E1,1.476623893E0,-3.128623009E0
1.293678132E0,1.032020664E1,1.457470298E0,-3.133411407E0
1.296165737E0,1.036330223E1,1.438316703E0,-3.166930199E0
1.298653341E0,1.036809063E1,1.433528304E0,-3.166930199E0
1.301140945E0,1.037287903E1,1.419163108E0,-3.176506996E0
1.303628549E0,1.038724422E1,1.423951507E0,-3.171718597E0
1.306116153E0,1.042076302E1,1.438316703E0,-3.176506996E0
1.308603757E0,1.043991661E1,1.419163108E0,-3.147776604E0
1.311091362E0,1.046385860E1,1.409586191E0,-3.147776604E0
1.313578966E0,1.047822380E1,1.380855799E0,-3.142988205E0
1.316066570E0,1.051174259E1,1.361702204E0,-3.142988205E0
1.318554174E0,1.053089619E1,1.323395014E0,-3.128623009E0
1.321041778E0,1.055004978E1,1.323395014E0,-3.128623009E0
1.323529382E0,1.057878017E1,1.323395014E0,-3.099892616E0
1.326016987E0,1.060751057E1,1.323395014E0,-3.080739021E0
1.328504591E0,1.063145256E1,1.328183413E0,-3.052008629E0
1.330992195E0,1.064102936E1,1.347337008E0,-3.023278236E0
1.333479799E0,1.067454815E1,1.356913805E0,-3.018489838E0
1.335967351E0,1.066497135E1,1.332971811E0,-2.999336243E0
1.338454903E0,1.067933655E1,1.309029818E0,-3.018489838E0
1.340942455E0,1.068412495E1,1.275510907E0,-3.004124641E0
1.343430007E0,1.067454815E1,1.265934110E0,-2.961029053E0
1.345917559E0,1.067933655E1,1.237203717E0,-2.898779631E0
1.348405112E0,1.065539455E1,1.218050122E0,-2.846107244E0
1.350892664E0,1.063624096E1,1.237203717E0,-2.822165251E0
1.353380216E0,1.061708736E1,1.256357312E0,-2.779069662E0
1.355867768E0,1.059793377E1,1.270722508E0,-2.731185675E0
1.358355320E0,1.056920338E1,1.304241419E0,-2.712032080E0
1.360842872E0,1.050695419E1,1.313818216E0,-2.726397276E0
1.363330424E0,1.043991661E1,1.342548609E0,-2.731185675E0
1.365817976E0,1.035372543E1,1.376067400E0,-2.731185675E0
1.368305528E0,1.027711105E1,1.419163108E0,-2.755127668E0
1.370793080E0,1.021486187E1,1.447893500E0,-2.793434858E0
1.373280632E0,1.015261269E1,1.471835494E0,-2.812588453E0
1.375768184E0,1.007120991E1,1.476623893E0,-2.841318846E0
1.378255737E0,1.000417137E1,1.490989089E0,-2.865260839E0
1.380743289E0,9.917980194E0,1.519719481E0,-2.884414434E0
1.383230841E0,9.850942612E0,1.524507880E0,-2.889202833E0
1.385718393E0,9.798270226E0,1.562815189E0,-2.908356428E0
1.388205945E0,9.755174637E0,1.577180386E0,-2.922721624E0
1.390693497E0,9.726444244E0,1.577180386E0,-2.937086821E0
1.393181049E0,9.707290649E0,1.558026791E0,-2.984971046E0
1.395668601E0,9.726444244E0,1.543661594E0,-3.018489838E0
1.398156153E0,9.740809441E0,1.510142684E0,-3.042431831E0
1.400643705E0,9.774328232E0,1.481412292E0,-3.066373825E0
1.403131257E0,9.812635422E0,1.433528304E0,-3.066373825E0
1.405618809E0,9.860519409E0,1.395220995E0,-3.052008629E0
1.408106362E0,9.922768593E0,1.332971811E0,-3.037643433E0
1.410593914E0,9.980229378E0,1.280299306E0,-3.023278236E0
1.413081466E0,1.002332497E1,1.227626920E0,-2.994547844E0
1.415569070E0,1.009994030E1,1.189319730E0,-2.989759445E0
1.418056674E0,1.017176628E1,1.155800819E0,-2.984971046E0
1.420544278E0,1.025316906E1,1.112705231E0,-2.975394249E0
1.423031882E0,1.032499504E1,1.064821243E0,-2.980182648E0
1.425519487E0,1.038245583E1,1.031302333E0,-3.013701439E0
1.428007091E0,1.043033981E1,9.882067442E-1,-3.042431831E0
1.430494695E0,1.047822380E1,9.307458997E-1,-3.080739021E0
1.432982924E0,1.054526138E1,8.876502514E-1,-3.133411407E0
1.435471049E0,1.060272217E1,8.349778652E-1,-3.166930199E0
1.437958653E0,1.066975975E1,7.966706157E-1,-3.210026026E0
1.440446257E0,1.073200893E1,7.535749674E-1,-3.257910013E0
1.442933862E0,1.079904652E1,7.248445749E-1,-3.305794001E0
1.445421414E0,1.085650730E1,6.769605279E-1,-3.344101191E0
1.447908966E0,1.090439129E1,6.290764809E-1,-3.387196779E0
1.450396518E0,1.094269848E1,5.859808922E-1,-3.401561975E0
1.452884070E0,1.097621727E1,5.620388389E-1,-3.382408381E0
1.455371622E0,1.099537086E1,5.237316489E-1,-3.372831583E0
1.457859174E0,1.102888966E1,5.141547918E-1,-3.334524393E0
1.460346726E0,1.107677460E1,4.950011969E-1,-3.344101191E0
1.462834278E0,1.110071659E1,4.902127981E-1,-3.324947596E0
1.465321830E0,1.108156300E1,4.997895956E-1,-3.291428804E0
1.467809382E0,1.105762100E1,5.093663931E-1,-3.286640406E0
1.470296934E0,1.101452446E1,4.854243994E-1,-3.277063608E0
1.472785112E0,1.095706367E1,4.902127981E-1,-3.253121614E0
1.475272559E0,1.089960289E1,4.950011969E-1,-3.214814425E0
1.477760007E0,1.083256531E1,5.045779943E-1,-3.200449228E0
1.480247455E0,1.078946972E1,5.141547918E-1,-3.181295395E0
1.482734903E0,1.071764374E1,5.333084464E-1,-3.166930199E0
1.485222351E0,1.064581776E1,5.716156363E-1,-3.152565002E0
1.487709799E0,1.057399178E1,6.194996834E-1,-3.138199806E0
1.490197247E0,1.049737740E1,6.721721292E-1,-3.157353401E0
1.492684695E0,1.044470501E1,7.104793787E-1,-3.157353401E0
1.495172143E0,1.040639782E1,7.583633661E-1,-3.162141800E0
1.497659643E0,1.035851383E1,8.014590144E-1,-3.157353401E0
1.500147195E0,1.032978344E1,8.493430614E-1,-3.152565002E0
1.502634799E0,1.031541824E1,8.637082577E-1,-3.157353401E0
1.505122403E0,1.032020664E1,8.972271085E-1,-3.181295395E0
1.507610007E0,1.033457184E1,9.211691022E-1,-3.200449228E0
1.510097612E0,1.038245583E1,9.307458997E-1,-3.205237627E0
1.512585216E0,1.044470501E1,9.307458997E-1,-3.229179621E0
1.515072820E0,1.051653099E1,9.307458997E-1,-3.286640406E0
1.517560424E0,1.058835697E1,9.020155072E-1,-3.334524393E0
1.520048028E0,1.068891335E1,8.828618526E-1,-3.382408381E0
1.522535632E0,1.080862331E1,8.780734539E-1,-3.463811398E0
1.525023237E0,1.096185207E1,8.637082577E-1,-3.516483784E0
1.527510841E0,1.113423538E1,8.445546627E-1,-3.593098164E0
1.529998445E0,1.129704094E1,7.966706157E-1,-3.688866377E0
1.532486049E0,1.145984650E1,7.152677774E-1,-3.794211149E0
1.534973653E0,1.160828686E1,6.482301354E-1,-3.899555922E0
1.537461257E0,1.178066921E1,5.811924338E-1,-4.014477730E0
1.539948862E0,1.195783997E1,5.093663931E-1,-4.134187698E0
1.542436466E0,1.216853046E1,4.566939771E-1,-4.268262863E0
1.544924070E0,1.235527802E1,4.183867574E-1,-4.416703701E0
1.547411674E0,1.249892998E1,3.848679364E-1,-4.589086056E0
1.549899278E0,1.262821674E1,3.513490856E-1,-4.727949619E0
1.552386882E0,1.272398472E1,3.417722881E-1,-4.876390457E0
1.554874487E0,1.278144550E1,3.705027103E-1,-5.010465622E0
1.557362091E0,1.282932949E1,4.183867574E-1,-5.101445198E0
1.559849695E0,1.283890629E1,4.566939771E-1,-5.173271179E0
1.562337299E0,1.281975269E1,5.524620414E-1,-5.206789970E0
1.564824903E0,1.277665710E1,6.530185342E-1,-5.202001572E0
1.567312507E0,1.270004272E1,7.583633661E-1,-5.158905983E0
1.569800112E0,1.261385155E1,8.637082577E-1,-5.120598793E0
1.572287716E0,1.248456478E1,9.977835417E-1,-5.039196014E0
1.574775320E0,1.231218243E1,1.141435623E0,-4.924274445E0
1.577262924E0,1.213980007E1,1.304241419E0,-4.785410881E0
1.579750528E0,1.197699356E1,1.447893500E0,-4.617816448E0
1.582238132E0,1.181897640E1,1.610699177E0,-4.440645695E0
1.584725737E0,1.163701725E1,1.763928056E0,-4.229955673E0
1.587213341E0,1.148857689E1,1.874061346E0,-4.043208122E0
1.589700945E0,1.135450172E1,1.998559833E0,-3.846883535E0
1.592188549E0,1.122521496E1,2.103904724E0,-3.645770550E0
1.594676153E0,1.110550499E1,2.237980127E0,-3.459022999E0
1.597163757E0,1.097142887E1,2.357690096E0,-3.286640406E0
1.599651362E0,1.087566090E1,2.467823505E0,-3.133411407E0
1.602138966E0,1.076552773E1,2.587533474E0,-2.984971046E0
1.604626570E0,1.066018295E1,2.697666883E0,-2.874837637E0
1.607114174E0,1.056920338E1,2.783858061E0,-2.759916067E0
1.609601778E0,1.046864700E1,2.855684042E0,-2.683301449E0
1.612089382E0,1.039682102E1,2.913144827E0,-2.592321873E0
1.614576987E0,1.030105305E1,2.961029053E0,-2.520495892E0
1.617064591E0,1.023880386E1,2.994547844E0,-2.472611904E0
1.619552195E0,1.018613148E1,3.013701439E0,-2.424727678E0
1.622039799E0,1.013824749E1,3.047220230E0,-2.372055292E0
1.624527403E0,1.010472870E1,3.090315819E0,-2.328959703E0
1.627015007E0,1.009036350E1,3.114257812E0,-2.290652514E0
1.629502612E0,1.009036350E1,3.138199806E0,-2.276287317E0
1.631990216E0,1.009036350E1,3.133411407E0,-2.281075716E0
1.634477820E0,1.011909389E1,3.114257812E0,-2.276287317E0
1.636965424E0,1.014782429E1,3.085527420E0,-2.257133722E0
1.639453028E0,1.019570827E1,3.061585426E0,-2.276287317E0
1.641940632E0,1.026274586E1,3.032855034E0,-2.276287317E0
1.644428237E0,1.032020664E1,2.989759445E0,-2.266710520E0
1.646915841E0,1.035851383E1,2.956240654E0,-2.242768526E0
1.649403445E0,1.041597462E1,2.932298422E0,-2.247556925E0
1.651891049E0,1.045428181E1,2.917933226E0,-2.214038134E0
1.654378653E0,1.050695419E1,2.884414434E0,-2.214038134E0
1.656866257E0,1.055962658E1,2.865260839E0,-2.218826532E0
1.659353862E0,1.060272217E1,2.850895643E0,-2.209249735E0
1.661841466E0,1.064102936E1,2.846107244E0,-2.190095901E0
1.664329070E0,1.067933655E1,2.817376852E0,-2.194884300E0
1.666816674E0,1.072243214E1,2.798223257E0,-2.228403330E0
1.669304278E0,1.076552773E1,2.755127668E0,-2.271498919E0
1.671791882E0,1.083256531E1,2.716820478E0,-2.309806108E0
1.674279487E0,1.086608410E1,2.664147854E0,-2.367266893E0
1.676767091E0,1.092354488E1,2.630629063E0,-2.410362482E0
1.679254695E0,1.097621727E1,2.601898670E0,-2.467823505E0
1.681742299E0,1.100973606E1,2.582745075E0,-2.534861088E0
1.684229903E0,1.102410126E1,2.573168278E0,-2.597110271E0
1.686717507E0,1.107677460E1,2.582745075E0,-2.692878246E0
1.689205112E0,1.111029339E1,2.573168278E0,-2.779069662E0
1.691692716E0,1.114381218E1,2.592321873E0,-2.865260839E0
1.694180320E0,1.113902378E1,2.601898670E0,-2.984971046E0
1.696667924E0,1.112465858E1,2.597110271E0,-3.099892616E0
1.699155528E0,1.111508179E1,2.587533474E0,-3.214814425E0
1.701643132E0,1.110071659E1,2.582745075E0,-3.310582399E0
1.704130737E0,1.108156300E1,2.582745075E0,-3.444657803E0
1.706618341E0,1.103846741E1,2.587533474E0,-3.550002575E0
1.709105945E0,1.100494766E1,2.582745075E0,-3.669712543E0
1.711593549E0,1.096185207E1,2.587533474E0,-3.760692358E0
1.714081153E0,1.089960289E1,2.587533474E0,-3.866037130E0
1.716568757E0,1.087087250E1,2.625840664E0,-3.957016945E0
1.719056362E0,1.081820011E1,2.616263866E0,-4.024054527E0
1.721543966E0,1.077031612E1,2.616263866E0,-4.081515312E0
1.724031570E0,1.073679733E1,2.601898670E0,-4.115034103E0
1.726519174E0,1.067933655E1,2.597110271E0,-4.138976097E0
1.729006778E0,1.061708736E1,2.582745075E0,-4.129399300E0
1.731494382E0,1.056920338E1,2.549226284E0,-4.143764496E0
1.733981987E0,1.051653099E1,2.534861088E0,-4.138976097E0
1.736469591E0,1.048301220E1,2.506130695E0,-4.110245705E0
1.738957195E0,1.046385860E1,2.477400303E0,-4.067150116E0
1.741444799E0,1.042555141E1,2.448669672E0,-3.990535736E0
1.743932403E0,1.043512821E1,2.443881273E0,-3.909132719E0
1.746420007E0,1.041597462E1,2.424727678E0,-3.794211149E0
1.748907612E0,1.040639782E1,2.395997286E0,-3.703231573E0
1.751395216E0,1.040160942E1,2.357690096E0,-3.621828556E0
1.753882820E0,1.039203262E1,2.300229311E0,-3.521272182E0
1.756370424E0,1.040639782E1,2.247556925E0,-3.415927172E0
1.758858028E0,1.040160942E1,2.185307503E0,-3.329735994E0
1.761345632E0,1.041118622E1,2.127846718E0,-3.238756418E0
1.763833237E0,1.040639782E1,2.084751129E0,-3.133411407E0
1.766320841E0,1.040160942E1,2.036867142E0,-3.047220230E0
1.768808445E0,1.040639782E1,2.008136749E0,-2.980182648E0
1.771296049E0,1.042076302E1,1.979406238E0,-2.884414434E0
1.773783653E0,1.043033981E1,1.941099048E0,-2.783858061E0
1.776271257E0,1.044949341E1,1.936310649E0,-2.716820478E0
1.778758862E0,1.048301220E1,1.917157054E0,-2.668936253E0
1.781246466E0,1.050216579E1,1.883638144E0,-2.635417461E0
1.783734070E0,1.051653099E1,1.859696150E0,-2.611475468E0
1.786221674E0,1.054047298E1,1.821388960E0,-2.601898670E0
1.788709278E0,1.055004978E1,1.787870169E0,-2.573168278E0
1.791196882E0,1.055004978E1,1.773504853E0,-2.568379879E0
1.793684487E0,1.055483818E1,1.763928056E0,-2.573168278E0
1.796172091E0,1.055962658E1,1.754351258E0,-2.558803082E0
1.798659695E0,1.058356857E1,1.739986062E0,-2.558803082E0
1.801147299E0,1.060272217E1,1.720832467E0,-2.597110271E0
1.803634903E0,1.061708736E1,1.692102075E0,-2.635417461E0
1.806122507E0,1.064102936E1,1.658583283E0,-2.673724651E0
1.808610112E0,1.065539455E1,1.644217968E0,-2.721608877E0
1.811097716E0,1.067933655E1,1.605910778E0,-2.759916067E0
1.813585320E0,1.070327854E1,1.581968784E0,-2.826953650E0
1.816072924E0,1.073200893E1,1.562815189E0,-2.855684042E0
1.818560528E0,1.076073933E1,1.548449993E0,-2.908356428E0
1.821048132E0,1.078946972E1,1.534084797E0,-2.946663857E0
1.823535737E0,1.082298851E1,1.529296279E0,-2.999336243E0
1.826023341E0,1.087087250E1,1.500565886E0,-3.056797028E0
1.828510945E0,1.089481449E1,1.490989089E0,-3.109469414E0
1.830998549E0,1.094269848E1,1.471835494E0,-3.171718597E0
1.833486153E0,1.098100567E1,1.467047095E0,-3.219602823E0
1.835973757E0,1.101931286E1,1.476623893E0,-3.291428804E0
1.838461362E0,1.104804420E1,1.471835494E0,-3.358466387E0
1.840948966E0,1.105762100E1,1.467047095E0,-3.430292368E0
1.843436570E0,1.105762100E1,1.452681899E0,-3.473388195E0
1.845924174E0,1.106719780E1,1.428739905E0,-3.530848980E0
1.848411778E0,1.107198620E1,1.428739905E0,-3.573944569E0
1.850899382E0,1.106719780E1,1.443105102E0,-3.617040157E0
1.853386987E0,1.105283260E1,1.443105102E0,-3.645770550E0
1.855874591E0,1.102888966E1,1.447893500E0,-3.664924145E0
1.858362195E0,1.100015926E1,1.462258697E0,-3.693654776E0
1.860849799E0,1.096185207E1,1.462258697E0,-3.722385168E0
1.863337403E0,1.092833328E1,1.433528304E0,-3.770269156E0
1.865825007E0,1.090439129E1,1.423951507E0,-3.813364744E0
1.868312612E0,1.088523769E1,1.409586191E0,-3.832518339E0
1.870800216E0,1.085171890E1,1.371279001E0,-3.827729940E0
1.873287820E0,1.080862331E1,1.337760210E0,-3.842095137E0
1.875775424E0,1.075595093E1,1.304241419E0,-3.837306738E0
1.878263028E0,1.071764374E1,1.285087705E0,-3.813364744E0
1.880750632E0,1.067454815E1,1.261145711E0,-3.789422750E0
1.883238237E0,1.065060616E1,1.251568913E0,-3.751115561E0
1.885725841E0,1.061708736E1,1.232415318E0,-3.698443174E0
1.888213445E0,1.056441498E1,1.203684926E0,-3.660135746E0
1.890701049E0,1.049258900E1,1.198896527E0,-3.626616955E0
1.893188653E0,1.044949341E1,1.151012421E0,-3.602674961E0
1.895676257E0,1.040160942E1,1.141435623E0,-3.578732967E0
1.898163862E0,1.036330223E1,1.107916832E0,-3.535637379E0
1.900651466E0,1.032978344E1,1.050456047E0,-3.521272182E0
1.903139070E0,1.027232265E1,1.016937137E0,-3.487753391E0
1.905626674E0,1.021007347E1,9.834183455E-1,-3.444657803E0
1.908114278E0,1.016697788E1,9.546879530E-1,-3.415927172E0
1.910601882E0,1.013824749E1,9.451110959E-1,-3.363254786E0
1.913089487E0,1.010951710E1,9.451110959E-1,-3.310582399E0
1.915577091E0,1.008557510E1,9.498994946E-1,-3.262698412E0
1.918064695E0,1.007599831E1,9.451110959E-1,-3.214814425E0
1.920552299E0,1.004247856E1,9.451110959E-1,-3.128623009E0
1.923039903E0,1.001853657E1,9.355342984E-1,-3.061585426E0
1.925527507E0,1.000417137E1,9.068039060E-1,-3.013701439E0
1.928015112E0,9.999382973E0,8.828618526E-1,-2.975394249E0
1.930502716E0,9.989806175E0,8.876502514E-1,-2.937086821E0
1.932990684E0,9.994594574E0,8.780734539E-1,-2.932298422E0
1.935477924E0,9.989806175E0,8.589198589E-1,-2.922721624E0
1.937965164E0,9.999382973E0,8.732850552E-1,-2.927510023E0
1.940452403E0,1.000417137E1,9.115923047E-1,-2.937086821E0
1.942939643E0,9.985017776E0,9.498994946E-1,-2.961029053E0
1.945426934E0,9.970652580E0,9.642647505E-1,-3.004124641E0
1.947914278E0,9.927556992E0,9.834183455E-1,-3.056797028E0
1.950401674E0,9.913191795E0,9.882067442E-1,-3.099892616E0
1.952889122E0,9.855731010E0,9.977835417E-1,-3.128623009E0
1.955376622E0,9.793481827E0,1.002571940E0,-3.123834610E0
1.957864174E0,9.721655846E0,1.016937137E0,-3.128623009E0
1.960351778E0,9.649829865E0,1.045667648E0,-3.138199806E0
1.962839434E0,9.606734276E0,1.064821243E0,-3.152565002E0
1.965327143E0,9.568427086E0,1.103128433E0,-3.152565002E0
1.967814903E0,9.510966301E0,1.131858826E0,-3.157353401E0
1.970302716E0,9.482235909E0,1.165377736E0,-3.181295395E0
1.972790789E0,9.458293915E0,1.208473325E0,-3.195660830E0
1.975278862E0,9.434351921E0,1.241992116E0,-3.210026026E0
1.977766934E0,9.400833130E0,1.289876223E0,-3.229179621E0
1.980254695E0,9.343372345E0,1.342548609E0,-3.243544817E0
1.982742299E0,9.314641953E0,1.404797792E0,-3.219602823E0
1.985229903E0,9.290699959E0,1.452681899E0,-3.205237627E0
1.987717507E0,9.261969566E0,1.500565886E0,-3.166930199E0
1.990205112E0,9.266757965E0,1.553238392E0,-3.123834610E0
1.992692716E0,9.281123161E0,1.577180386E0,-3.080739021E0
1.995180320E0,9.276334763E0,1.601122379E0,-3.047220230E0
1.997667924E0,9.285911560E0,1.615487576E0,-3.023278236E0
2.000155528E0,9.324218750E0,1.639429569E0,-3.023278236E0
2.002643080E0,9.362525940E0,1.663371682E0,-3.013701439E0
2.005130632E0,9.405621529E0,1.677736878E0,-3.004124641E0
2.007618184E0,9.429563522E0,1.687313676E0,-2.989759445E0
2.010105737E0,9.453505516E0,1.711255670E0,-2.965817451E0
2.012593289E0,9.458293915E0,1.701678872E0,-2.937086821E0
2.015080841E0,9.463082314E0,1.716044068E0,-2.893991232E0
2.017568393E0,9.472659111E0,1.730409265E0,-2.860472441E0
2.020055945E0,9.453505516E0,1.730409265E0,-2.783858061E0
2.022543497E0,9.434351921E0,1.730409265E0,-2.697666883E0
2.025031049E0,9.439140320E0,1.730409265E0,-2.635417461E0
2.027518601E0,9.453505516E0,1.730409265E0,-2.582745075E0
2.030006153E0,9.434351921E0,1.730409265E0,-2.539649487E0
2.032493705E0,9.434351921E0,1.735197663E0,-2.501342297E0
2.034981257E0,9.429563522E0,1.768716455E0,-2.467823505E0
2.037468809E0,9.419986725E0,1.802235365E0,-2.443881273E0
2.039956362E0,9.419986725E0,1.807023764E0,-2.400785685E0
2.042443914E0,9.410409927E0,1.807023764E0,-2.376843691E0
2.044931466E0,9.415198326E0,1.811812162E0,-2.333748102E0
2.047419018E0,9.415198326E0,1.816600561E0,-2.300229311E0
2.049906570E0,9.400833130E0,1.816600561E0,-2.271498919E0
2.052394122E0,9.386467934E0,1.840542555E0,-2.266710520E0
2.054881674E0,9.372102737E0,1.850119352E0,-2.218826532E0
2.057369226E0,9.367314339E0,1.869272947E0,-2.204461098E0
2.059856778E0,9.338583946E0,1.878849745E0,-2.204461098E0
2.062344330E0,9.305065155E0,1.898003340E0,-2.233191729E0
2.064831882E0,9.271546364E0,1.917157054E0,-2.252345324E0
2.067319487E0,9.228450775E0,1.945887446E0,-2.295440912E0
2.069807091E0,9.199720383E0,1.945887446E0,-2.367266893E0
2.072294695E0,9.175778389E0,1.950675845E0,-2.410362482E0
2.074782299E0,9.132682800E0,1.950675845E0,-2.501342297E0
2.077269903E0,9.084798813E0,1.936310649E0,-2.587533474E0
2.079757507E0,9.046490669E0,1.917157054E0,-2.668936253E0
2.082245112E0,9.022548676E0,1.898003340E0,-2.721608877E0
2.084732716E0,8.974664688E0,1.888426542E0,-2.788646460E0
2.087220320E0,8.941145897E0,1.850119352E0,-2.846107244E0
2.089707924E0,8.917203903E0,1.830965757E0,-2.922721624E0
2.092195528E0,8.878896713E0,1.792658567E0,-2.961029053E0
2.094683132E0,8.821435928E0,1.768716455E0,-2.989759445E0
2.097170737E0,8.773551941E0,1.749562860E0,-3.008913040E0
2.099658341E0,8.740033150E0,1.744774461E0,-3.037643433E0
2.102145945E0,8.692149162E0,1.720832467E0,-3.028066635E0
2.104633549E0,8.672995567E0,1.701678872E0,-2.984971046E0
2.107121153E0,8.653841972E0,1.696890473E0,-2.927510023E0
2.109608757E0,8.639476776E0,1.687313676E0,-2.855684042E0
2.112096362E0,8.644265175E0,1.696890473E0,-2.769492865E0
2.114583966E0,8.629899979E0,1.677736878E0,-2.673724651E0
2.117071570E0,8.620323181E0,1.649006367E0,-2.554014683E0
2.119559174E0,8.629899979E0,1.620275974E0,-2.429516077E0
2.122046778E0,8.634688377E0,1.601122379E0,-2.305017710E0
2.124534382E0,8.625111580E0,1.577180386E0,-2.156577110E0
2.127021987E0,8.644265175E0,1.572391987E0,-2.046443939E0
2.129509591E0,8.658630371E0,1.543661594E0,-1.912368655E0
2.131997195E0,8.653841972E0,1.524507880E0,-1.802235365E0
2.134484799E0,8.663418770E0,1.510142684E0,-1.735197663E0
2.136972403E0,8.668207169E0,1.495777488E0,-1.639429569E0
2.139460007E0,8.663418770E0,1.476623893E0,-1.558026791E0
2.141947612E0,8.649053574E0,1.476623893E0,-1.495777488E0
2.144435216E0,8.610746384E0,1.471835494E0,-1.447893500E0
2.146922820E0,8.558073997E0,1.457470298E0,-1.404797792E0
2.149410424E0,8.510190010E0,1.457470298E0,-1.385644197E0
2.151898028E0,8.471882820E0,1.452681899E0,-1.371279001E0
2.154385632E0,8.380903244E0,1.433528304E0,-1.376067400E0
2.156873237E0,8.265981674E0,1.414374709E0,-1.376067400E0
2.159360841E0,8.160636902E0,1.414374709E0,-1.395220995E0
2.161848445E0,8.055291176E0,1.400009394E0,-1.428739905E0
2.164336049E0,7.940370083E0,1.380855799E0,-1.467047095E0
2.166823653E0,7.791929245E0,1.376067400E0,-1.538873196E0
2.169311257E0,7.672219276E0,1.376067400E0,-1.629852772E0
2.171798862E0,7.518990517E0,1.371279001E0,-1.701678872E0
2.174286466E0,7.351396084E0,1.366490602E0,-1.792658567E0
2.176774070E0,7.212532520E0,1.371279001E0,-1.898003340E0
2.179261674E0,7.088034153E0,1.385644197E0,-1.984194636E0
2.181749278E0,6.958747387E0,1.385644197E0,-2.056020737E0
2.184236882E0,6.867767811E0,1.385644197E0,-2.137423515E0
2.186724487E0,6.757634163E0,1.371279001E0,-2.214038134E0
2.189212091E0,6.652289391E0,1.352125406E0,-2.218826532E0
2.191699695E0,6.546944618E0,1.332971811E0,-2.242768526E0
2.194187299E0,6.465541840E0,1.318606615E0,-2.242768526E0
2.196674903E0,6.379350662E0,1.318606615E0,-2.257133722E0
2.199162507E0,6.317101002E0,1.332971811E0,-2.252345324E0
2.201650112E0,6.245275021E0,1.309029818E0,-2.247556925E0
2.204137716E0,6.168660641E0,1.294664621E0,-2.233191729E0
2.206625320E0,6.101623058E0,1.294664621E0,-2.242768526E0
2.209112924E0,6.058527470E0,1.270722508E0,-2.209249735E0
2.211600528E0,6.015431881E0,1.241992116E0,-2.180519104E0
2.214088132E0,5.981913090E0,1.198896527E0,-2.156577110E0
2.216575737E0,5.967547894E0,1.165377736E0,-2.103904724E0
2.219063341E0,5.938817501E0,1.155800819E0,-2.056020737E0
2.221550945E0,5.910087109E0,1.127070427E0,-1.988983035E0
2.224038549E0,5.876567841E0,1.122282028E0,-1.888426542E0
2.226526153E0,5.852625847E0,1.103128433E0,-1.792658567E0
2.229013757E0,5.819107056E0,1.088763237E0,-1.687313676E0
2.231501362E0,5.799953461E0,1.060032845E0,-1.591545582E0
2.233988966E0,5.771223068E0,1.064821243E0,-1.490989089E0
2.236476570E0,5.756857872E0,1.074398041E0,-1.380855799E0
2.238964174E0,5.728127480E0,1.079186440E0,-1.304241419E0
2.241451778E0,5.689820290E0,1.083974838E0,-1.208473325E0
2.243939382E0,5.641936302E0,1.112705231E0,-1.107916832E0
2.246426987E0,5.603629112E0,1.127070427E0,-1.050456047E0
2.248914591E0,5.560533524E0,1.174954534E0,-9.738415480E-1
2.251402195E0,5.536591530E0,1.213261724E0,-9.115923047E-1
2.253889799E0,5.503072739E0,1.237203717E0,-8.637082577E-1
2.256377403E0,5.455188751E0,1.280299306E0,-8.206126094E-1
2.258865007E0,5.436035156E0,1.342548609E0,-7.631517649E-1
2.261352612E0,5.392939091E0,1.419163108E0,-7.439981699E-1
2.263840216E0,5.306747913E0,1.490989089E0,-7.248445749E-1
2.266327820E0,5.239710331E0,1.538873196E0,-7.535749674E-1
2.268815424E0,5.177461147E0,1.586757183E0,-7.966706157E-1
2.271303028E0,5.129577160E0,1.653794765E0,-8.206126094E-1
2.273790632E0,5.086481571E0,1.687313676E0,-8.589198589E-1
2.276278237E0,5.057751179E0,1.725620866E0,-9.163807034E-1
2.278765841E0,5.052962780E0,1.759139657E0,-9.929951429E-1
2.281253445E0,5.043385983E0,1.802235365E0,-1.079186440E0
2.283741049E0,5.043385983E0,1.830965757E0,-1.174954534E0
2.286228653E0,5.048174381E0,1.859696150E0,-1.270722508E0
2.288716257E0,5.052962780E0,1.888426542E0,-1.356913805E0
2.291203862E0,5.052962780E0,1.926733851E0,-1.447893500E0
2.293691466E0,5.038597584E0,1.955464244E0,-1.553238392E0
2.296179070E0,5.057751179E0,1.988983035E0,-1.639429569E0
2.298666674E0,5.062539577E0,2.017713547E0,-1.744774461E0
2.301154278E0,5.072116375E0,2.041655540E0,-1.845330954E0
2.303641882E0,5.091269970E0,2.060809135E0,-1.931522250E0
2.306129487E0,5.076904774E0,2.089539528E0,-2.022501945E0
2.308617091E0,5.081693172E0,2.089539528E0,-2.127846718E0
2.311104695E0,5.052962780E0,2.094327927E0,-2.237980127E0
2.313592299E0,5.033809185E0,2.079962730E0,-2.348113298E0
2.316079903E0,5.024232388E0,2.075174332E0,-2.472611904E0
2.318567507E0,5.014655590E0,2.051232338E0,-2.592321873E0
2.321055112E0,4.995501995E0,2.027290344E0,-2.721608877E0
2.323542716E0,4.966771603E0,1.984194636E0,-2.831742048E0
2.326030320E0,4.971560001E0,1.950675845E0,-2.956240654E0
2.328517924E0,4.981136799E0,1.888426542E0,-3.056797028E0
2.331005528E0,4.985925198E0,1.845330954E0,-3.123834610E0
2.333493132E0,5.019443989E0,1.821388960E0,-3.171718597E0
2.335980737E0,5.076904774E0,1.792658567E0,-3.186083794E0
2.338468341E0,5.134365559E0,1.768716455E0,-3.205237627E0
2.340955945E0,5.201403141E0,1.725620866E0,-3.186083794E0
2.343443549E0,5.287594318E0,1.701678872E0,-3.128623009E0
2.345931153E0,5.402516365E0,1.677736878E0,-3.075950623E0
2.348418757E0,5.503072739E0,1.634641171E0,-2.980182648E0
2.350906362E0,5.613205910E0,1.596333981E0,-2.898779631E0
2.353393966E0,5.723339081E0,1.553238392E0,-2.783858061E0
2.355881570E0,5.833472252E0,1.514931083E0,-2.649782658E0
2.358369174E0,5.967547894E0,1.462258697E0,-2.520495892E0
2.360856778E0,6.101623058E0,1.414374709E0,-2.386420488E0
2.363344382E0,6.254851818E0,1.366490602E0,-2.252345324E0
2.365831987E0,6.398504257E0,1.337760210E0,-2.099116325E0
2.368319591E0,6.503849030E0,1.328183413E0,-1.955464244E0
2.370807195E0,6.628347397E0,1.304241419E0,-1.845330954E0
2.373294799E0,6.738480568E0,1.299453020E0,-1.725620866E0
2.375782403E0,6.843825340E0,1.285087705E0,-1.615487576E0
2.378270007E0,6.944382191E0,1.304241419E0,-1.510142684E0
2.380757612E0,7.020996571E0,1.313818216E0,-1.409586191E0
2.383245216E0,7.078457355E0,1.318606615E0,-1.328183413E0
2.385732820E0,7.145494938E0,1.337760210E0,-1.251568913E0
2.388220424E0,7.207744122E0,1.352125406E0,-1.198896527E0
2.390708028E0,7.269993305E0,1.376067400E0,-1.146224022E0
2.393195632E0,7.332242489E0,1.404797792E0,-1.093551636E0
2.395683237E0,7.380126953E0,1.409586191E0,-1.083974838E0
2.398170841E0,7.428010941E0,1.428739905E0,-1.045667648E0
2.400658445E0,7.451952934E0,1.447893500E0,-1.007360339E0
2.403146049E0,7.466318130E0,1.481412292E0,-9.977835417E-1
2.405633653E0,7.499836922E0,1.519719481E0,-9.834183455E-1
2.408121257E0,7.542932510E0,1.558026791E0,-9.929951429E-1
2.410608862E0,7.600393295E0,1.620275974E0,-9.977835417E-1
2.413096466E0,7.653065681E0,1.677736878E0,-9.882067442E-1
2.415584070E0,7.715314865E0,1.716044068E0,-1.016937137E0
2.418071674E0,7.772775650E0,1.773504853E0,-1.026513934E0
2.420559278E0,7.830236435E0,1.811812162E0,-1.026513934E0
2.423046882E0,7.878120899E0,1.845330954E0,-1.040879130E0
2.425534487E0,7.921216488E0,1.883638144E0,-1.055244446E0
2.428022091E0,7.964312077E0,1.936310649E0,-1.060032845E0
2.430509695E0,7.997830868E0,1.974617839E0,-1.055244446E0
2.432997507E0,8.040925980E0,1.998559833E0,-1.060032845E0
2.435485320E0,8.093599319E0,2.051232338E0,-1.083974838E0
2.437973132E0,8.146271706E0,2.094327927E0,-1.088763237E0
2.440460945E0,8.208520889E0,2.142211914E0,-1.093551636E0
2.442948757E0,8.294712067E0,2.190095901E0,-1.088763237E0
2.445436518E0,8.366538048E0,2.237980127E0,-1.112705231E0
2.447924122E0,8.443152428E0,2.285864115E0,-1.160589218E0
2.450411726E0,8.500613213E0,2.328959703E0,-1.184531331E0
2.452899330E0,8.601169586E0,2.372055292E0,-1.208473325E0
2.455386934E0,8.696937561E0,2.391208887E0,-1.256357312E0
2.457874539E0,8.763975143E0,2.443881273E0,-1.318606615E0
2.460362143E0,8.811859131E0,2.482188702E0,-1.376067400E0
2.462849747E0,8.874108315E0,2.544437885E0,-1.414374709E0
2.465337351E0,8.931569099E0,2.582745075E0,-1.481412292E0
2.467824955E0,9.022548676E0,2.611475468E0,-1.538873196E0
2.470312559E0,9.099164009E0,2.630629063E0,-1.610699177E0
2.472800164E0,9.170989990E0,2.640205860E0,-1.696890473E0
2.475287768E0,9.266757965E0,2.640205860E0,-1.773504853E0
2.477775372E0,9.376891136E0,2.649782658E0,-1.850119352E0
2.480262976E0,9.463082314E0,2.668936253E0,-1.950675845E0
2.482750580E0,9.573215485E0,2.678513050E0,-2.017713547E0
2.485238184E0,9.688137054E0,2.678513050E0,-2.065597534E0
2.487725789E0,9.817423820E0,2.673724651E0,-2.137423515E0
2.490213393E0,9.965864182E0,2.668936253E0,-2.209249735E0
2.492700997E0,1.009036350E1,2.659359455E0,-2.285864115E0
2.495188601E0,1.021007347E1,2.649782658E0,-2.343324900E0
2.497676205E0,1.032978344E1,2.635417461E0,-2.410362482E0
2.500163809E0,1.043512821E1,2.625840664E0,-2.491765499E0
2.502651414E0,1.053089619E1,2.616263866E0,-2.563591480E0
2.505139018E0,1.064102936E1,2.582745075E0,-2.630629063E0
2.507626622E0,1.074158573E1,2.554014683E0,-2.688089848E0
2.510114226E0,1.084693050E1,2.544437885E0,-2.759916067E0
2.512601830E0,1.094269848E1,2.515707493E0,-2.798223257E0
2.515089434E0,1.105283260E1,2.491765499E0,-2.831742048E0
2.517577039E0,1.117254257E1,2.453458309E0,-2.870049238E0
2.520064643E0,1.125394535E1,2.424727678E0,-2.884414434E0
2.522552247E0,1.134971333E1,2.410362482E0,-2.917933226E0
2.525039851E0,1.144548130E1,2.400785685E0,-2.941875219E0
2.527527455E0,1.155082607E1,2.386420488E0,-2.951452255E0
2.530015059E0,1.163701725E1,2.376843691E0,-2.965817451E0
2.532502664E0,1.173278522E1,2.357690096E0,-2.961029053E0
2.534990268E0,1.179982281E1,2.362478495E0,-2.956240654E0
2.537477872E0,1.186686039E1,2.362478495E0,-2.946663857E0
2.539965476E0,1.190037918E1,2.372055292E0,-2.893991232E0
2.542453080E0,1.193868637E1,2.376843691E0,-2.850895643E0
2.544940684E0,1.195783997E1,2.400785685E0,-2.812588453E0
2.547428289E0,1.197220516E1,2.405574083E0,-2.759916067E0
2.549915893E0,1.198178196E1,2.419939280E0,-2.750339270E0
2.552403497E0,1.193868637E1,2.443881273E0,-2.692878246E0
2.554891101E0,1.189559078E1,2.458246708E0,-2.678513050E0
2.557378705E0,1.184291840E1,2.482188702E0,-2.688089848E0
2.559866309E0,1.176630402E1,2.496553898E0,-2.678513050E0
2.562353914E0,1.166095924E1,2.525284290E0,-2.697666883E0
2.564841518E0,1.154603767E1,2.554014683E0,-2.702455282E0
2.567329122E0,1.143111610E1,2.597110271E0,-2.697666883E0
2.569816726E0,1.129704094E1,2.616263866E0,-2.712032080E0
2.572304330E0,1.115817738E1,2.625840664E0,-2.707243681E0
2.574791934E0,1.100494766E1,2.606687069E0,-2.764704466E0
2.577279539E0,1.086129570E1,2.597110271E0,-2.774281263E0
2.579767143E0,1.071764374E1,2.592321873E0,-2.793434858E0
2.582254747E0,1.057878017E1,2.573168278E0,-2.836530447E0
2.584742351E0,1.042555141E1,2.530072689E0,-2.860472441E0
2.587229955E0,1.028189945E1,2.501342297E0,-2.903568029E0
2.589717559E0,1.015740108E1,2.458246708E0,-2.946663857E0
2.592205164E0,1.004247856E1,2.419939280E0,-2.989759445E0
2.594692768E0,9.927556992E0,2.381632090E0,-3.023278236E0
2.597180372E0,9.817423820E0,2.362478495E0,-3.075950623E0
2.599667976E0,9.707290649E0,2.309806108E0,-3.109469414E0
2.602155580E0,9.592369080E0,2.247556925E0,-3.095104218E0
2.604643184E0,9.453505516E0,2.199672699E0,-3.109469414E0
2.607130789E0,9.348160744E0,2.147000313E0,-3.104681015E0
2.609618393E0,9.252392769E0,2.094327927E0,-3.071162224E0
2.612105997E0,9.137471199E0,2.046443939E0,-3.023278236E0
2.614593601E0,9.046490669E0,1.993771434E0,-2.970605850E0
2.617081205E0,8.945934296E0,1.931522250E0,-2.903568029E0
2.619568809E0,8.869319916E0,1.869272947E0,-2.822165251E0
2.622056414E0,8.802282333E0,1.811812162E0,-2.750339270E0
2.624544018E0,8.749609947E0,1.744774461E0,-2.678513050E0
2.627031622E0,8.706514359E0,1.677736878E0,-2.601898670E0
2.629519226E0,8.668207169E0,1.629852772E0,-2.539649487E0
2.632006830E0,8.653841972E0,1.572391987E0,-2.467823505E0
2.634494434E0,8.644265175E0,1.505354285E0,-2.391208887E0
2.636982039E0,8.629899979E0,1.447893500E0,-2.314594507E0
2.639469643E0,8.625111580E0,1.385644197E0,-2.252345324E0
2.641957247E0,8.625111580E0,1.337760210E0,-2.190095901E0
2.644444851E0,8.629899979E0,1.289876223E0,-2.099116325E0
2.646932455E0,8.629899979E0,1.218050122E0,-2.027290344E0
2.649420059E0,8.649053574E0,1.160589218E0,-1.965041041E0
2.651907664E0,8.682572365E0,1.117493629E0,-1.912368655E0
2.654395268E0,8.706514359E0,1.060032845E0,-1.864484549E0
2.656882872E0,8.725667953E0,1.026513934E0,-1.792658567E0
2.659370476E0,8.720879555E0,9.834183455E-1,-1.773504853E0
2.661858080E0,8.735244751E0,9.307458997E-1,-1.744774461E0
2.664345684E0,8.725667953E0,8.684966564E-1,-1.711255670E0
2.666833289E0,8.730456352E0,8.158242106E-1,-1.658583283E0
2.669320893E0,8.720879555E0,7.775170207E-1,-1.615487576E0
2.671808497E0,8.706514359E0,7.439981699E-1,-1.558026791E0
2.674296101E0,8.692149162E0,7.248445749E-1,-1.500565886E0
2.676783705E0,8.692149162E0,7.009025216E-1,-1.462258697E0
2.679271309E0,8.687360764E0,6.865373254E-1,-1.409586191E0
2.681758914E0,8.658630371E0,6.913257241E-1,-1.380855799E0
2.684246518E0,8.634688377E0,6.865373254E-1,-1.356913805E0
2.686734122E0,8.605957985E0,6.769605279E-1,-1.299453020E0
2.689221726E0,8.586804390E0,7.009025216E-1,-1.275510907E0
2.691709330E0,8.558073997E0,7.296329737E-1,-1.203684926E0
2.694196934E0,8.548497200E0,7.487865686E-1,-1.160589218E0
2.696684539E0,8.538920403E0,7.775170207E-1,-1.107916832E0
2.699172143E0,8.538920403E0,7.918822169E-1,-1.060032845E0
2.701659747E0,8.524555206E0,8.206126094E-1,-9.929951429E-1
2.704147351E0,8.524555206E0,8.445546627E-1,-9.451110959E-1
2.706634955E0,8.538920403E0,8.589198589E-1,-8.924387097E-1
2.709122559E0,8.534132004E0,8.972271085E-1,-8.684966564E-1
2.711610164E0,8.529343605E0,9.498994946E-1,-8.254010081E-1
2.714097768E0,8.534132004E0,1.012148738E0,-7.918822169E-1
2.716585372E0,8.534132004E0,1.050456047E0,-7.392097712E-1
2.719072976E0,8.524555206E0,1.117493629E0,-6.721721292E-1
2.721560580E0,8.534132004E0,1.160589218E0,-6.099228859E-1
2.724048184E0,8.558073997E0,1.208473325E0,-5.428852439E-1
2.726535789E0,8.591592789E0,1.251568913E0,-4.614823759E-1
2.729023393E0,8.610746384E0,1.294664621E0,-4.183867574E-1
2.731510997E0,8.639476776E0,1.323395014E0,-3.657143116E-1
2.733998601E0,8.682572365E0,1.342548609E0,-3.034650683E-1
2.736486205E0,8.744821548E0,1.361702204E0,-2.460042238E-1
2.738973809E0,8.802282333E0,1.390432596E0,-2.220622003E-1
2.741461414E0,8.850166321E0,1.428739905E0,-1.741781682E-1
2.743949018E0,8.898050308E0,1.443105102E0,-1.502361596E-1
2.746436622E0,8.955511093E0,1.476623893E0,-1.215057373E-1
2.748924226E0,9.032125473E0,1.510142684E0,-1.358709484E-1
2.751411830E0,9.103952408E0,1.529296279E0,-1.262941360E-1
2.753899434E0,9.161413193E0,1.553238392E0,-1.023521200E-1
2.756387039E0,9.218873978E0,1.586757183E0,-8.798690885E-2
2.758874643E0,9.276334763E0,1.644217968E0,-7.362170517E-2
2.761362247E0,9.338583946E0,1.677736878E0,-7.362170517E-2
2.763849851E0,9.396044731E0,1.706467271E0,-8.319851011E-2
2.766337455E0,9.458293915E0,1.754351258E0,-8.798690885E-2
2.768825059E0,9.506177902E0,1.797446966E0,-1.215057373E-1
2.771312664E0,9.563638687E0,1.840542555E0,-1.598129570E-1
2.773800268E0,9.625887871E0,1.864484549E0,-2.029085904E-1
2.776287872E0,9.688137054E0,1.874061346E0,-2.651578486E-1
2.778775476E0,9.736021042E0,1.907580256E0,-3.369838893E-1
2.781263080E0,9.774328232E0,1.931522250E0,-4.231751561E-1
2.783750684E0,9.831789017E0,1.955464244E0,-5.045779943E-1
2.786238289E0,9.879673004E0,1.965041041E0,-5.764040351E-1
2.788725893E0,9.922768593E0,1.993771434E0,-6.482301354E-1
2.791213497E0,9.965864182E0,2.022501945E0,-7.535749674E-1
2.793701101E0,9.999382973E0,2.036867142E0,-8.397662640E-1
2.796188705E0,1.001853657E1,2.041655540E0,-9.259575009E-1
2.798676309E0,1.006163311E1,2.060809135E0,-1.021725535E0
2.801163914E0,1.009994030E1,2.070385933E0,-1.107916832E0
2.803651518E0,1.011909389E1,2.084751129E0,-1.203684926E0
2.806139122E0,1.011909389E1,2.075174332E0,-1.299453020E0
2.808626726E0,1.014303589E1,2.065597534E0,-1.376067400E0
2.811114330E0,1.013345909E1,2.084751129E0,-1.471835494E0
2.813601934E0,1.014782429E1,2.094327927E0,-1.529296279E0
2.816089539E0,1.012867069E1,2.108693123E0,-1.605910778E0
2.818577143E0,1.012388229E1,2.127846718E0,-1.706467271E0
2.821064747E0,1.013345909E1,2.137423515E0,-1.811812162E0
2.823552351E0,1.013345909E1,2.170942307E0,-1.912368655E0
2.826039955E0,1.011430550E1,2.199672699E0,-1.974617839E0
2.828527559E0,1.008078671E1,2.223614931E0,-2.070385933E0
2.831015164E0,1.007120991E1,2.223614931E0,-2.147000313E0
2.833502768E0,1.005684471E1,2.237980127E0,-2.242768526E0
2.835990372E0,1.003769016E1,2.242768526E0,-2.309806108E0
2.838477976E0,1.002811337E1,2.242768526E0,-2.395997286E0
2.840965580E0,9.994594574E0,2.261922121E0,-2.482188702E0
2.843453184E0,9.970652580E0,2.233191729E0,-2.539649487E0
2.845940789E0,9.941922188E0,2.223614931E0,-2.582745075E0
2.848428393E0,9.922768593E0,2.257133722E0,-2.644994259E0
2.850915997E0,9.894038200E0,2.257133722E0,-2.678513050E0
2.853403601E0,9.898826599E0,2.257133722E0,-2.707243681E0
2.855891205E0,9.894038200E0,2.271498919E0,-2.755127668E0
2.858378809E0,9.894038200E0,2.257133722E0,-2.774281263E0
2.860866414E0,9.884461403E0,2.247556925E0,-2.793434858E0
2.863354018E0,9.879673004E0,2.242768526E0,-2.812588453E0
2.865841622E0,9.898826599E0,2.247556925E0,-2.803011656E0
2.868329226E0,9.894038200E0,2.237980127E0,-2.803011656E0
2.870816830E0,9.894038200E0,2.233191729E0,-2.774281263E0
2.873304434E0,9.898826599E0,2.223614931E0,-2.750339270E0
2.875792039E0,9.908403397E0,2.194884300E0,-2.740762472E0
2.878279643E0,9.903614998E0,2.190095901E0,-2.712032080E0
2.880767247E0,9.908403397E0,2.185307503E0,-2.683301449E0
2.883254851E0,9.898826599E0,2.175730705E0,-2.654571056E0
2.885742455E0,9.884461403E0,2.142211914E0,-2.621052265E0
2.888230059E0,9.889249802E0,2.127846718E0,-2.616263866E0
2.890717664E0,9.889249802E0,2.123058319E0,-2.573168278E0
2.893205268E0,9.879673004E0,2.113481522E0,-2.549226284E0
2.895692872E0,9.874884605E0,2.094327927E0,-2.549226284E0
2.898180476E0,9.850942612E0,2.079962730E0,-2.506130695E0
2.900668080E0,9.836577415E0,2.089539528E0,-2.486977100E0
2.903155684E0,9.817423820E0,2.075174332E0,-2.496553898E0
2.905643289E0,9.798270226E0,2.056020737E0,-2.496553898E0
2.908130893E0,9.764751434E0,2.041655540E0,-2.486977100E0
2.910618497E0,9.759963036E0,2.027290344E0,-2.491765499E0
2.913106101E0,9.721655846E0,2.003348351E0,-2.477400303E0
2.915593705E0,9.692925453E0,1.993771434E0,-2.472611904E0
2.918081309E0,9.645041466E0,2.008136749E0,-2.482188702E0
2.920568914E0,9.597157478E0,2.017713547E0,-2.458246708E0
2.923056518E0,9.568427086E0,2.003348351E0,-2.439092875E0
2.925544122E0,9.539696693E0,1.984194636E0,-2.434304476E0
2.928031726E0,9.506177902E0,1.969829440E0,-2.400785685E0
2.930519330E0,9.458293915E0,1.955464244E0,-2.395997286E0
2.933006934E0,9.419986725E0,1.936310649E0,-2.362478495E0
2.935494539E0,9.396044731E0,1.907580256E0,-2.324171305E0
2.937982143E0,9.357737541E0,1.917157054E0,-2.295440912E0
2.940469747E0,9.329007149E0,1.898003340E0,-2.242768526E0
2.942957351E0,9.290699959E0,1.893214941E0,-2.194884300E0
2.945444955E0,9.257181168E0,1.888426542E0,-2.132635117E0
2.947932559E0,9.252392769E0,1.883638144E0,-2.108693123E0
2.950420164E0,9.261969566E0,1.869272947E0,-2.065597534E0
2.952907768E0,9.261969566E0,1.859696150E0,-2.003348351E0
2.955395372E0,9.247604370E0,1.845330954E0,-1.945887446E0
2.957882976E0,9.247604370E0,1.807023764E0,-1.888426542E0
2.960370580E0,9.271546364E0,1.778293371E0,-1.840542555E0
2.962858184E0,9.290699959E0,1.749562860E0,-1.797446966E0
2.965345789E0,9.309853554E0,1.735197663E0,-1.744774461E0
2.967833393E0,9.319430351E0,1.701678872E0,-1.696890473E0
2.970320997E0,9.338583946E0,1.682525277E0,-1.653794765E0
2.972808601E0,9.348160744E0,1.668160081E0,-1.591545582E0
2.975296205E0,9.362525940E0,1.663371682E0,-1.543661594E0
2.977783809E0,9.381679535E0,1.658583283E0,-1.505354285E0
2.980271414E0,9.381679535E0,1.653794765E0,-1.471835494E0
2.982759018E0,9.405621529E0,1.634641171E0,-1.414374709E0
2.985246622E0,9.419986725E0,1.639429569E0,-1.400009394E0
2.987734226E0,9.429563522E0,1.634641171E0,-1.380855799E0
2.990221830E0,9.424775124E0,1.629852772E0,-1.361702204E0
2.992709434E0,9.429563522E0,1.610699177E0,-1.352125406E0
2.995197039E0,9.448717117E0,1.591545582E0,-1.352125406E0
2.997684643E0,9.443928719E0,1.586757183E0,-1.337760210E0
3.000172247E0,9.439140320E0,1.572391987E0,-1.328183413E0
3.002659851E0,9.439140320E0,1.572391987E0,-1.323395014E0
3.005147455E0,9.424775124E0,1.558026791E0,-1.318606615E0
3.007635059E0,9.424775124E0,1.562815189E0,-1.318606615E0
3.010122664E0,9.405621529E0,1.548449993E0,-1.328183413E0
3.012610268E0,9.410409927E0,1.543661594E0,-1.304241419E0
3.015097872E0,9.410409927E0,1.529296279E0,-1.309029818E0
3.017585476E0,9.405621529E0,1.514931083E0,-1.309029818E0
3.020073080E0,9.400833130E0,1.505354285E0,-1.323395014E0
3.022560684E0,9.391256332E0,1.467047095E0,-1.337760210E0
3.025048289E0,9.391256332E0,1.471835494E0,-1.337760210E0
3.027535893E0,9.400833130E0,1.467047095E0,-1.309029818E0
3.030023497E0,9.410409927E0,1.462258697E0,-1.299453020E0
3.032511101E0,9.424775124E0,1.462258697E0,-1.313818216E0
3.034998705E0,9.429563522E0,1.447893500E0,-1.313818216E0
3.037486309E0,9.410409927E0,1.438316703E0,-1.332971811E0
3.039973914E0,9.405621529E0,1.414374709E0,-1.309029818E0
3.042461518E0,9.386467934E0,1.390432596E0,-1.275510907E0
3.044949122E0,9.405621529E0,1.376067400E0,-1.270722508E0
3.047436726E0,9.419986725E0,1.366490602E0,-1.251568913E0
3.049924330E0,9.396044731E0,1.352125406E0,-1.227626920E0
3.052411934E0,9.391256332E0,1.337760210E0,-1.218050122E0
3.054899539E0,9.391256332E0,1.328183413E0,-1.184531331E0
3.057387143E0,9.410409927E0,1.323395014E0,-1.189319730E0
3.059874747E0,9.405621529E0,1.323395014E0,-1.179742932E0
3.062362351E0,9.391256332E0,1.304241419E0,-1.165377736E0
3.064849955E0,9.405621529E0,1.280299306E0,-1.160589218E0
3.067337559E0,9.434351921E0,1.275510907E0,-1.165377736E0
3.069825164E0,9.443928719E0,1.270722508E0,-1.141435623E0
3.072312768E0,9.472659111E0,1.265934110E0,-1.131858826E0
3.074800372E0,9.482235909E0,1.261145711E0,-1.117493629E0
3.077287976E0,9.501389503E0,1.241992116E0,-1.127070427E0
3.079775580E0,9.525331497E0,1.227626920E0,-1.136647224E0
3.082263184E0,9.534908295E0,1.218050122E0,-1.136647224E0
3.084750789E0,9.563638687E0,1.194108129E0,-1.151012421E0
3.087238393E0,9.573215485E0,1.194108129E0,-1.165377736E0
3.089725997E0,9.573215485E0,1.189319730E0,-1.189319730E0
3.092213601E0,9.597157478E0,1.170166135E0,-1.222838521E0
3.094701205E0,9.597157478E0,1.165377736E0,-1.241992116E0
3.097188809E0,9.616311073E0,1.174954534E0,-1.265934110E0
3.099676414E0,9.621099472E0,1.174954534E0,-1.299453020E0
3.102164070E0,9.621099472E0,1.179742932E0,-1.318606615E0
3.104651726E0,9.616311073E0,1.184531331E0,-1.347337008E0
3.107139382E0,9.616311073E0,1.194108129E0,-1.361702204E0
3.109627039E0,9.592369080E0,1.232415318E0,-1.404797792E0
3.112114695E0,9.563638687E0,1.256357312E0,-1.457470298E0
3.114602351E0,9.534908295E0,1.270722508E0,-1.476623893E0
3.117090007E0,9.525331497E0,1.280299306E0,-1.495777488E0
3.119577664E0,9.496601105E0,1.313818216E0,-1.524507880E0
3.122065320E0,9.467870712E0,1.328183413E0,-1.562815189E0
3.124552976E0,9.439140320E0,1.342548609E0,-1.596333981E0
3.127040632E0,9.410409927E0,1.342548609E0,-1.615487576E0
3.129528289E0,9.372102737E0,1.347337008E0,-1.639429569E0
3.132015945E0,9.381679535E0,1.366490602E0,-1.668160081E0
3.134503601E0,9.372102737E0,1.371279001E0,-1.716044068E0
3.136991257E0,9.376891136E0,1.380855799E0,-1.749562860E0
3.139478914E0,9.367314339E0,1.390432596E0,-1.759139657E0
3.141966570E0,9.352949142E0,1.385644197E0,-1.783081770E0
3.144454226E0,9.362525940E0,1.380855799E0,-1.816600561E0
3.146941882E0,9.352949142E0,1.390432596E0,-1.850119352E0
3.149429539E0,9.362525940E0,1.390432596E0,-1.869272947E0
3.151917195E0,9.386467934E0,1.390432596E0,-1.869272947E0
3.154404851E0,9.410409927E0,1.390432596E0,-1.888426542E0
3.156892507E0,9.410409927E0,1.400009394E0,-1.926733851E0
3.159380164E0,9.410409927E0,1.395220995E0,-1.926733851E0
3.161867820E0,9.429563522E0,1.371279001E0,-1.965041041E0
3.164355476E0,9.448717117E0,1.366490602E0,-1.974617839E0
3.166843132E0,9.472659111E0,1.352125406E0,-1.979406238E0
3.169330789E0,9.477447510E0,1.337760210E0,-1.979406238E0
3.171818393E0,9.496601105E0,1.347337008E0,-1.998559833E0
3.174305997E0,9.496601105E0,1.323395014E0,-1.993771434E0
3.176793601E0,9.501389503E0,1.304241419E0,-1.993771434E0
3.179281205E0,9.506177902E0,1.318606615E0,-1.988983035E0
3.181768809E0,9.525331497E0,1.337760210E0,-1.974617839E0
3.184256414E0,9.549273491E0,1.332971811E0,-1.955464244E0
3.186744018E0,9.563638687E0,1.347337008E0,-1.945887446E0
3.189231622E0,9.606734276E0,1.332971811E0,-1.921945453E0
3.191719226E0,9.630676270E0,1.313818216E0,-1.936310649E0
3.194206830E0,9.654618263E0,1.294664621E0,-1.931522250E0
3.196694434E0,9.697713852E0,1.256357312E0,-1.941099048E0
3.199182039E0,9.716867447E0,1.251568913E0,-1.945887446E0
3.201669643E0,9.721655846E0,1.256357312E0,-1.926733851E0
3.204157247E0,9.726444244E0,1.241992116E0,-1.931522250E0
3.206644851E0,9.745597839E0,1.246780515E0,-1.921945453E0
3.209132455E0,9.736021042E0,1.246780515E0,-1.888426542E0
3.211620059E0,9.736021042E0,1.265934110E0,-1.874061346E0
3.214107664E0,9.745597839E0,1.265934110E0,-1.840542555E0
3.216595268E0,9.745597839E0,1.275510907E0,-1.816600561E0
3.219082872E0,9.755174637E0,1.275510907E0,-1.811812162E0
3.221570476E0,9.731232643E0,1.275510907E0,-1.797446966E0
3.224058080E0,9.726444244E0,1.270722508E0,-1.763928056E0
3.226545684E0,9.716867447E0,1.289876223E0,-1.763928056E0
3.229033289E0,9.688137054E0,1.275510907E0,-1.749562860E0
3.231520893E0,9.668983459E0,1.304241419E0,-1.744774461E0
3.234008497E0,9.635464668E0,1.328183413E0,-1.754351258E0
3.236496101E0,9.592369080E0,1.342548609E0,-1.759139657E0
3.238983705E0,9.563638687E0,1.342548609E0,-1.754351258E0
3.241471309E0,9.534908295E0,1.361702204E0,-1.763928056E0
3.243958914E0,9.510966301E0,1.366490602E0,-1.768716455E0
3.246446518E0,9.482235909E0,1.366490602E0,-1.778293371E0
3.248934122E0,9.448717117E0,1.366490602E0,-1.768716455E0
3.251421726E0,9.419986725E0,1.356913805E0,-1.792658567E0
3.253909330E0,9.372102737E0,1.361702204E0,-1.811812162E0
3.256396934E0,9.343372345E0,1.366490602E0,-1.802235365E0
3.258884539E0,9.324218750E0,1.337760210E0,-1.792658567E0
3.261372143E0,9.290699959E0,1.337760210E0,-1.783081770E0
3.263859747E0,9.276334763E0,1.313818216E0,-1.778293371E0
3.266347351E0,9.266757965E0,1.304241419E0,-1.807023764E0
3.268834955E0,9.257181168E0,1.289876223E0,-1.807023764E0
3.271322559E0,9.257181168E0,1.265934110E0,-1.830965757E0
3.273810164E0,9.214085579E0,1.251568913E0,-1.826177359E0
3.276297768E0,9.170989990E0,1.232415318E0,-1.835754156E0
3.278785372E0,9.151836395E0,1.218050122E0,-1.854907751E0
3.281272976E0,9.137471199E0,1.218050122E0,-1.835754156E0
3.283760580E0,9.123106003E0,1.218050122E0,-1.821388960E0
3.286248184E0,9.118317604E0,1.218050122E0,-1.816600561E0
3.288735789E0,9.099164009E0,1.218050122E0,-1.816600561E0
3.291223393E0,9.089587212E0,1.227626920E0,-1.802235365E0
3.293710997E0,9.084798813E0,1.227626920E0,-1.783081770E0
3.296198601E0,9.075222015E0,1.203684926E0,-1.787870169E0
3.298686205E0,9.060855865E0,1.208473325E0,-1.783081770E0
3.301173809E0,9.051279068E0,1.198896527E0,-1.759139657E0
3.303661414E0,9.027337074E0,1.208473325E0,-1.763928056E0
3.306149018E0,9.012971878E0,1.198896527E0,-1.759139657E0
3.308636622E0,9.008183479E0,1.198896527E0,-1.720832467E0
3.311124226E0,8.984241486E0,1.232415318E0,-1.687313676E0
3.313611830E0,8.950722694E0,1.232415318E0,-1.672948480E0
3.316099434E0,8.926780701E0,1.246780515E0,-1.672948480E0
3.318587039E0,8.893261909E0,1.270722508E0,-1.672948480E0
3.321074643E0,8.850166321E0,1.280299306E0,-1.696890473E0
3.323562247E0,8.835801125E0,1.313818216E0,-1.692102075E0
3.326049851E0,8.807070732E0,1.304241419E0,-1.701678872E0
3.328537455E0,8.754398346E0,1.318606615E0,-1.668160081E0
3.331025059E0,8.730456352E0,1.323395014E0,-1.644217968E0
3.333512664E0,8.692149162E0,1.337760210E0,-1.629852772E0
3.336000268E0,8.668207169E0,1.347337008E0,-1.649006367E0
3.338487872E0,8.634688377E0,1.356913805E0,-1.677736878E0
3.340975476E0,8.605957985E0,1.356913805E0,-1.682525277E0
3.343463080E0,8.572439194E0,1.356913805E0,-1.682525277E0
3.345950684E0,8.534132004E0,1.352125406E0,-1.692102075E0
3.348438289E0,8.510190010E0,1.366490602E0,-1.677736878E0
3.350925893E0,8.471882820E0,1.376067400E0,-1.682525277E0
3.353413497E0,8.443152428E0,1.376067400E0,-1.692102075E0
3.355901101E0,8.395268440E0,1.390432596E0,-1.672948480E0
3.358388705E0,8.352172852E0,1.400009394E0,-1.649006367E0
3.360876309E0,8.318654060E0,1.390432596E0,-1.615487576E0
3.363363914E0,8.275558472E0,1.404797792E0,-1.601122379E0
3.365851518E0,8.246828079E0,1.419163108E0,-1.586757183E0
3.368339122E0,8.198944092E0,1.400009394E0,-1.567603588E0
3.370826726E0,8.136694908E0,1.404797792E0,-1.553238392E0
3.373314330E0,8.098387718E0,1.395220995E0,-1.538873196E0
3.375801934E0,8.040925980E0,1.409586191E0,-1.514931083E0
3.378289539E0,8.007407188E0,1.414374709E0,-1.471835494E0
3.380777143E0,7.949946880E0,1.419163108E0,-1.433528304E0
3.383264747E0,7.892486095E0,1.447893500E0,-1.409586191E0
3.385752351E0,7.825448036E0,1.462258697E0,-1.380855799E0
3.388239955E0,7.739256859E0,1.486200690E0,-1.356913805E0
3.390727559E0,7.686584473E0,1.486200690E0,-1.323395014E0
3.393215164E0,7.609970093E0,1.524507880E0,-1.299453020E0
3.395702768E0,7.557297707E0,1.538873196E0,-1.280299306E0
3.398190372E0,7.499836922E0,1.567603588E0,-1.251568913E0
3.400677976E0,7.451952934E0,1.601122379E0,-1.203684926E0
3.403165580E0,7.370550156E0,1.644217968E0,-1.165377736E0
3.405653184E0,7.317877293E0,1.711255670E0,-1.146224022E0
3.408140789E0,7.246051311E0,1.763928056E0,-1.093551636E0
3.410628393E0,7.159860134E0,1.821388960E0,-1.045667648E0
3.413115997E0,7.078457355E0,1.883638144E0,-1.026513934E0
3.415603601E0,7.001842976E0,1.955464244E0,-1.012148738E0
3.418091205E0,6.934805393E0,2.036867142E0,-9.929951429E-1
3.420578809E0,6.843825340E0,2.089539528E0,-9.594763517E-1
3.423066414E0,6.767210960E0,2.161365509E0,-9.498994946E-1
3.425554018E0,6.695384979E0,2.228403330E0,-9.115923047E-1
3.428041622E0,6.628347397E0,2.271498919E0,-9.020155072E-1
3.430529226E0,6.551733017E0,2.319382906E0,-8.924387097E-1
3.433017091E0,6.475118637E0,2.381632090E0,-8.828618526E-1
3.435504955E0,6.417657852E0,2.448669672E0,-8.637082577E-1
3.437992820E0,6.345831394E0,2.496553898E0,-8.589198589E-1
3.440480476E0,6.297947407E0,2.530072689E0,-8.349778652E-1
3.442968080E0,6.216544628E0,2.568379879E0,-8.349778652E-1
3.445455684E0,6.154295444E0,2.587533474E0,-8.206126094E-1
3.447943289E0,6.101623058E0,2.606687069E0,-8.062474132E-1
3.450430893E0,6.053739071E0,2.649782658E0,-7.918822169E-1
3.452918497E0,6.005855083E0,2.668936253E0,-7.823054194E-1
3.455406101E0,5.967547894E0,2.649782658E0,-7.535749674E-1
3.457893705E0,5.962759495E0,2.635417461E0,-7.296329737E-1
3.460381309E0,5.943605900E0,2.611475468E0,-6.961141229E-1
3.462868914E0,5.943605900E0,2.597110271E0,-6.721721292E-1
3.465356518E0,5.948394299E0,2.587533474E0,-6.769605279E-1
3.467844122E0,5.943605900E0,2.554014683E0,-6.913257241E-1
3.470331726E0,5.929240704E0,2.534861088E0,-6.817489266E-1
3.472819330E0,5.934029102E0,2.515707493E0,-6.817489266E-1
3.475306934E0,5.919663906E0,2.482188702E0,-6.817489266E-1
3.477794539E0,5.914875507E0,2.463035107E0,-6.769605279E-1
3.480282143E0,5.910087109E0,2.424727678E0,-6.769605279E-1
3.482769747E0,5.900510311E0,2.386420488E0,-6.769605279E-1
3.485257351E0,5.876567841E0,2.348113298E0,-7.104793787E-1
3.487744955E0,5.866991043E0,2.319382906E0,-6.961141229E-1
3.490232559E0,5.862202644E0,2.276287317E0,-7.056909800E-1
3.492720164E0,5.852625847E0,2.204461098E0,-7.152677774E-1
3.495207768E0,5.857414246E0,2.147000313E0,-7.248445749E-1
3.497695372E0,5.857414246E0,2.094327927E0,-8.014590144E-1
3.500182976E0,5.857414246E0,2.079962730E0,-8.445546627E-1
3.502670580E0,5.890933514E0,2.060809135E0,-8.254010081E-1
3.505158184E0,5.996278286E0,2.003348351E0,-8.637082577E-1
3.507645789E0,6.025008678E0,1.921945453E0,-9.546879530E-1
3.510133393E0,6.034585476E0,1.830965757E0,-1.026513934E0
3.512620997E0,6.087257862E0,1.744774461E0,-1.079186440E0
3.515108601E0,6.168660641E0,1.672948480E0,-1.131858826E0
3.517596205E0,6.259640217E0,1.620275974E0,-1.151012421E0
3.520083809E0,6.336254597E0,1.586757183E0,-1.208473325E0
3.522571414E0,6.403292656E0,1.567603588E0,-1.232415318E0
3.525059018E0,6.460753441E0,1.529296279E0,-1.299453020E0
3.527546622E0,6.523002625E0,1.495777488E0,-1.390432596E0
3.530034226E0,6.590040207E0,1.467047095E0,-1.505354285E0
3.532521830E0,6.647500992E0,1.428739905E0,-1.629852772E0
3.535009434E0,6.681019783E0,1.390432596E0,-1.763928056E0
3.537497039E0,6.738480568E0,1.337760210E0,-1.888426542E0
3.539984643E0,6.791152954E0,1.304241419E0,-2.003348351E0
3.542472247E0,6.848613739E0,1.270722508E0,-2.099116325E0
3.544959851E0,6.930016994E0,1.208473325E0,-2.204461098E0
3.547447455E0,7.001842976E0,1.174954534E0,-2.295440912E0
3.549935059E0,7.068880558E0,1.141435623E0,-2.415150881E0
3.552422664E0,7.155071735E0,1.117493629E0,-2.496553898E0
3.554910268E0,7.222109318E0,1.083974838E0,-2.587533474E0
3.557397872E0,7.274781704E0,1.055244446E0,-2.644994259E0
3.559885476E0,7.337030888E0,1.036090732E0,-2.673724651E0
3.562373080E0,7.399280548E0,1.007360339E0,-2.702455282E0
3.564860684E0,7.437587738E0,9.738415480E-1,-2.731185675E0
3.567348289E0,7.499836922E0,9.498994946E-1,-2.716820478E0
3.569835893E0,7.590816498E0,9.211691022E-1,-2.716820478E0
3.572323497E0,7.662642479E0,9.163807034E-1,-2.697666883E0
3.574811101E0,7.734468460E0,8.876502514E-1,-2.673724651E0
3.577298705E0,7.820659637E0,8.589198589E-1,-2.654571056E0
3.579786309E0,7.902062893E0,8.397662640E-1,-2.630629063E0
3.582273914E0,7.988254070E0,8.014590144E-1,-2.601898670E0
3.584761518E0,8.050502777E0,7.727286220E-1,-2.616263866E0
3.587249122E0,8.136694908E0,7.392097712E-1,-2.606687069E0
3.589736726E0,8.222886086E0,7.009025216E-1,-2.592321873E0
3.592224330E0,8.294712067E0,6.673837304E-1,-2.587533474E0
3.594711934E0,8.356961250E0,6.386532784E-1,-2.568379879E0
3.597199539E0,8.419210434E0,5.955576897E-1,-2.577956676E0
3.599687143E0,8.452729225E0,5.476736426E-1,-2.582745075E0
3.602174747E0,8.476671219E0,4.902127981E-1,-2.597110271E0
3.604662351E0,8.529343605E0,4.471171796E-1,-2.592321873E0
3.607149955E0,8.548497200E0,4.327519536E-1,-2.611475468E0
3.609637559E0,8.562862396E0,3.752911091E-1,-2.621052265E0
3.612125164E0,8.601169586E0,3.513490856E-1,-2.611475468E0
3.614612768E0,8.629899979E0,3.274070919E-1,-2.606687069E0
3.617100372E0,8.644265175E0,3.034650683E-1,-2.582745075E0
3.619587976E0,8.672995567E0,2.555810213E-1,-2.587533474E0
3.622075580E0,8.696937561E0,2.412158251E-1,-2.582745075E0
3.624563184E0,8.711302757E0,2.268506140E-1,-2.616263866E0
3.627050789E0,8.725667953E0,1.981201917E-1,-2.601898670E0
3.629538393E0,8.783128738E0,1.837549806E-1,-2.644994259E0
3.632025997E0,8.821435928E0,1.598129570E-1,-2.664147854E0
3.634513601E0,8.845377922E0,1.741781682E-1,-2.702455282E0
3.637001205E0,8.869319916E0,1.693897694E-1,-2.707243681E0
3.639488809E0,8.907627106E0,1.741781682E-1,-2.731185675E0
3.641976414E0,8.955511093E0,1.885433793E-1,-2.721608877E0
3.644464018E0,9.017760277E0,1.693897694E-1,-2.702455282E0
3.646951622E0,9.099164009E0,1.837549806E-1,-2.688089848E0
3.649439226E0,9.190143585E0,1.981201917E-1,-2.678513050E0
3.651926830E0,9.257181168E0,2.076970041E-1,-2.644994259E0
3.654414434E0,9.324218750E0,2.220622003E-1,-2.616263866E0
3.656902039E0,9.410409927E0,2.268506140E-1,-2.587533474E0
3.659389643E0,9.510966301E0,2.316390127E-1,-2.558803082E0
3.661877247E0,9.592369080E0,2.412158251E-1,-2.534861088E0
3.664364851E0,9.645041466E0,2.412158251E-1,-2.520495892E0
3.666852455E0,9.712079048E0,2.412158251E-1,-2.467823505E0
3.669340059E0,9.755174637E0,2.507926226E-1,-2.419939280E0
3.671827664E0,9.812635422E0,2.555810213E-1,-2.367266893E0
3.674315268E0,9.865307808E0,2.651578486E-1,-2.343324900E0
3.676802872E0,9.937133789E0,2.747346461E-1,-2.300229311E0
3.679290476E0,1.000417137E1,2.603694201E-1,-2.285864115E0
3.681778080E0,1.006163311E1,2.603694201E-1,-2.290652514E0
3.684265684E0,1.011430550E1,2.460042238E-1,-2.314594507E0
3.686753289E0,1.014303589E1,2.268506140E-1,-2.348113298E0
3.689240893E0,1.017655468E1,2.220622003E-1,-2.410362482E0
3.691728497E0,1.020528507E1,2.172738016E-1,-2.453458309E0
3.694216101E0,1.022922707E1,1.981201917E-1,-2.501342297E0
3.696703705E0,1.022922707E1,1.933317930E-1,-2.554014683E0
3.699191309E0,1.025316906E1,2.076970041E-1,-2.630629063E0
3.701678914E0,1.024838066E1,2.076970041E-1,-2.678513050E0
3.704166518E0,1.026274586E1,2.124854028E-1,-2.735974073E0
3.706654122E0,1.025795746E1,2.076970041E-1,-2.822165251E0
3.709141726E0,1.026753426E1,2.220622003E-1,-2.870049238E0
3.711629330E0,1.026753426E1,2.316390127E-1,-2.951452255E0
3.714116934E0,1.027232265E1,2.364274114E-1,-3.047220230E0
3.716604539E0,1.026753426E1,2.316390127E-1,-3.157353401E0
3.719092143E0,1.026753426E1,2.076970041E-1,-3.272275209E0
3.721579747E0,1.026274586E1,2.029085904E-1,-3.368043184E0
3.724067351E0,1.025316906E1,2.076970041E-1,-3.468599796E0
3.726554955E0,1.026274586E1,2.076970041E-1,-3.588309765E0
3.729042559E0,1.027711105E1,1.933317930E-1,-3.660135746E0
3.731530164E0,1.029147625E1,1.981201917E-1,-3.717596769E0
3.734017768E0,1.030584145E1,1.981201917E-1,-3.784634352E0
3.736505372E0,1.032020664E1,2.029085904E-1,-3.808576345E0
3.738992976E0,1.032978344E1,2.124854028E-1,-3.856460333E0
3.741480580E0,1.034893703E1,2.076970041E-1,-3.880402327E0
3.743968184E0,1.034893703E1,2.172738016E-1,-3.889979124E0
3.746455789E0,1.035851383E1,2.316390127E-1,-3.875613928E0
3.748943393E0,1.034893703E1,2.412158251E-1,-3.846883535E0
3.751430997E0,1.033936024E1,2.603694201E-1,-3.789422750E0
3.753918601E0,1.032020664E1,2.938882709E-1,-3.736750364E0
3.756406205E0,1.029147625E1,3.082534671E-1,-3.674500942E0
3.758893809E0,1.029626465E1,3.321954906E-1,-3.602674961E0
3.761381414E0,1.027711105E1,3.848679364E-1,-3.521272182E0
3.763869018E0,1.024359226E1,4.327519536E-1,-3.430292368E0
3.766356622E0,1.021007347E1,4.614823759E-1,-3.344101191E0
3.768844226E0,1.015740108E1,5.141547918E-1,-3.267486811E0
3.771331830E0,1.012867069E1,5.764040351E-1,-3.147776604E0
3.773819434E0,1.010472870E1,6.147112846E-1,-3.075950623E0
3.776307039E0,1.006642151E1,6.578069329E-1,-3.023278236E0
3.778794643E0,1.004726696E1,7.009025216E-1,-2.941875219E0
3.781282247E0,1.000895977E1,7.535749674E-1,-2.898779631E0
3.783769851E0,9.975440979E0,7.918822169E-1,-2.850895643E0
3.786257455E0,9.932345390E0,8.493430614E-1,-2.798223257E0
3.788745059E0,9.908403397E0,9.020155072E-1,-2.783858061E0
3.791232664E0,9.846154213E0,9.259575009E-1,-2.793434858E0
3.793720268E0,9.774328232E0,9.834183455E-1,-2.779069662E0
3.796207872E0,9.683348656E0,1.031302333E0,-2.740762472E0
3.798695476E0,9.597157478E0,1.069609642E0,-2.697666883E0
3.801183080E0,9.539696693E0,1.112705231E0,-2.640205860E0
3.803670684E0,9.467870712E0,1.146224022E0,-2.577956676E0
3.806158289E0,9.405621529E0,1.160589218E0,-2.525284290E0
3.808645893E0,9.357737541E0,1.184531331E0,-2.491765499E0
3.811133497E0,9.314641953E0,1.203684926E0,-2.439092875E0
3.813621101E0,9.271546364E0,1.213261724E0,-2.391208887E0
3.816108705E0,9.233239174E0,1.241992116E0,-2.338536501E0
3.818596362E0,9.190143585E0,1.270722508E0,-2.247556925E0
3.821084018E0,9.142259598E0,1.309029818E0,-2.170942307E0
3.823571674E0,9.113529205E0,1.323395014E0,-2.065597534E0
3.826059330E0,9.094375610E0,1.352125406E0,-1.960252643E0
3.828546987E0,9.103952408E0,1.371279001E0,-1.859696150E0
3.831034643E0,9.113529205E0,1.404797792E0,-1.763928056E0
3.833522299E0,9.151836395E0,1.419163108E0,-1.663371682E0
3.836009955E0,9.180566788E0,1.443105102E0,-1.567603588E0
3.838497612E0,9.233239174E0,1.490989089E0,-1.481412292E0
3.840985268E0,9.252392769E0,1.510142684E0,-1.400009394E0
3.843472924E0,9.252392769E0,1.562815189E0,-1.323395014E0
3.845960580E0,9.276334763E0,1.610699177E0,-1.251568913E0
3.848448237E0,9.314641953E0,1.672948480E0,-1.160589218E0
3.850935893E0,9.348160744E0,1.701678872E0,-1.103128433E0
3.853423549E0,9.367314339E0,1.720832467E0,-1.040879130E0
3.855911205E0,9.386467934E0,1.763928056E0,-1.021725535E0
3.858398862E0,9.396044731E0,1.807023764E0,-1.031302333E0
3.860886518E0,9.381679535E0,1.830965757E0,-1.040879130E0
3.863374174E0,9.348160744E0,1.874061346E0,-1.083974838E0
3.865861830E0,9.329007149E0,1.917157054E0,-1.151012421E0
3.868349487E0,9.309853554E0,1.965041041E0,-1.198896527E0
3.870837143E0,9.266757965E0,2.022501945E0,-1.256357312E0
3.873324799E0,9.252392769E0,2.046443939E0,-1.313818216E0
3.875812455E0,9.228450775E0,2.089539528E0,-1.385644197E0
3.878300112E0,9.166201591E0,2.137423515E0,-1.452681899E0
3.880787768E0,9.118317604E0,2.156577110E0,-1.534084797E0
3.883275424E0,9.084798813E0,2.209249735E0,-1.629852772E0
3.885763080E0,9.032125473E0,2.261922121E0,-1.725620866E0
3.888250737E0,8.989029884E0,2.285864115E0,-1.821388960E0
3.890738393E0,8.989029884E0,2.352901697E0,-1.902791858E0
3.893225997E0,8.965087891E0,2.395997286E0,-2.003348351E0
3.895713601E0,8.960299492E0,2.405574083E0,-2.070385933E0
3.898201205E0,8.936357498E0,2.419939280E0,-2.142211914E0
3.900688809E0,8.907627106E0,2.400785685E0,-2.218826532E0
3.903176414E0,8.893261909E0,2.362478495E0,-2.295440912E0
3.905664018E0,8.902838707E0,2.314594507E0,-2.381632090E0
3.908151622E0,8.912415504E0,2.276287317E0,-2.439092875E0
3.910639226E0,8.912415504E0,2.209249735E0,-2.510919094E0
3.913126830E0,8.936357498E0,2.161365509E0,-2.582745075E0
3.915614434E0,8.998606682E0,2.127846718E0,-2.683301449E0
3.918102039E0,9.051279068E0,2.108693123E0,-2.764704466E0
3.920589643E0,9.089587212E0,2.089539528E0,-2.841318846E0
3.923077247E0,9.156624794E0,2.084751129E0,-2.908356428E0
3.925564851E0,9.228450775E0,2.065597534E0,-2.941875219E0
3.928052455E0,9.281123161E0,2.056020737E0,-3.004124641E0
3.930540059E0,9.324218750E0,2.012925148E0,-3.052008629E0
3.933027664E0,9.376891136E0,2.003348351E0,-3.071162224E0
3.935515268E0,9.405621529E0,1.965041041E0,-3.080739021E0
3.938002872E0,9.463082314E0,1.931522250E0,-3.071162224E0
3.940490476E0,9.496601105E0,1.902791858E0,-3.071162224E0
3.942978080E0,9.534908295E0,1.869272947E0,-3.066373825E0
3.945465684E0,9.578003883E0,1.850119352E0,-3.061585426E0
3.947953289E0,9.635464668E0,1.835754156E0,-3.071162224E0
3.950440893E0,9.688137054E0,1.807023764E0,-3.095104218E0
3.952928497E0,9.759963036E0,1.763928056E0,-3.104681015E0
3.955416101E0,9.836577415E0,1.711255670E0,-3.133411407E0
3.957903705E0,9.917980194E0,1.668160081E0,-3.166930199E0
3.960391309E0,9.985017776E0,1.629852772E0,-3.200449228E0
3.962878914E0,1.004247856E1,1.577180386E0,-3.219602823E0
3.965366518E0,1.008078671E1,1.543661594E0,-3.210026026E0
3.967854122E0,1.011909389E1,1.500565886E0,-3.210026026E0
3.970341726E0,1.012867069E1,1.462258697E0,-3.200449228E0
3.972829330E0,1.017176628E1,1.438316703E0,-3.195660830E0
3.975316934E0,1.019570827E1,1.419163108E0,-3.181295395E0
3.977804539E0,1.019570827E1,1.409586191E0,-3.171718597E0
3.980292143E0,1.018613148E1,1.423951507E0,-3.200449228E0
3.982779747E0,1.016697788E1,1.414374709E0,-3.214814425E0
3.985267351E0,1.014782429E1,1.423951507E0,-3.205237627E0
3.987754955E0,1.012388229E1,1.443105102E0,-3.233968019E0
3.990242559E0,1.008557510E1,1.447893500E0,-3.272275209E0
3.992730164E0,1.004247856E1,1.438316703E0,-3.277063608E0
3.995217768E0,9.980229378E0,1.452681899E0,-3.315370798E0
3.997705372E0,9.913191795E0,1.471835494E0,-3.353677988E0
4.000192976E0,9.860519409E0,1.514931083E0,-3.411138773E0
4.002680580E0,9.807847023E0,1.548449993E0,-3.435081005E0
4.005168184E0,9.759963036E0,1.581968784E0,-3.478176594E0
4.007655789E0,9.726444244E0,1.610699177E0,-3.521272182E0
4.010143393E0,9.688137054E0,1.629852772E0,-3.564367771E0
4.012630997E0,9.654618263E0,1.644217968E0,-3.621828556E0
4.015118601E0,9.601945877E0,1.668160081E0,-3.660135746E0
4.017606205E0,9.592369080E0,1.677736878E0,-3.703231573E0
4.020093809E0,9.568427086E0,1.706467271E0,-3.731961966E0
4.022581414E0,9.563638687E0,1.735197663E0,-3.779845953E0
4.025069018E0,9.563638687E0,1.759139657E0,-3.798999548E0
4.027556622E0,9.563638687E0,1.754351258E0,-3.818153143E0
4.030044226E0,9.578003883E0,1.720832467E0,-3.846883535E0
4.032531830E0,9.621099472E0,1.735197663E0,-3.866037130E0
4.035019434E0,9.640253067E0,1.692102075E0,-3.899555922E0
4.037507039E0,9.673771858E0,1.677736878E0,-3.942651749E0
4.039994643E0,9.726444244E0,1.634641171E0,-3.990535736E0
4.042482247E0,9.764751434E0,1.586757183E0,-4.028842926E0
4.044969851E0,9.827000618E0,1.562815189E0,-4.062361717E0
4.047457455E0,9.865307808E0,1.524507880E0,-4.081515312E0
4.049945059E0,9.913191795E0,1.490989089E0,-4.095880508E0
4.052432664E0,9.961075783E0,1.452681899E0,-4.105457306E0
4.054920268E0,1.002811337E1,1.438316703E0,-4.100668907E0
4.057407872E0,1.010951710E1,1.443105102E0,-4.119822502E0
4.059895476E0,1.019091988E1,1.419163108E0,-4.153341293E0
4.062383080E0,1.026753426E1,1.376067400E0,-4.229955673E0
4.064870684E0,1.034893703E1,1.328183413E0,-4.311358929E0
4.067358289E0,1.041597462E1,1.275510907E0,-4.392761707E0
4.069845893E0,1.046864700E1,1.232415318E0,-4.474164486E0
4.072333497E0,1.050216579E1,1.198896527E0,-4.545990467E0
4.074821101E0,1.051174259E1,1.170166135E0,-4.598662853E0
4.077308705E0,1.054047298E1,1.155800819E0,-4.636970043E0
4.079796309E0,1.057399178E1,1.151012421E0,-4.632181644E0
4.082283914E0,1.059793377E1,1.151012421E0,-4.646546841E0
4.084771518E0,1.060751057E1,1.165377736E0,-4.694430828E0
4.087259122E0,1.065060616E1,1.184531331E0,-4.727949619E0
4.089746726E0,1.066497135E1,1.179742932E0,-4.775833607E0
4.092234330E0,1.066975975E1,1.179742932E0,-4.818929672E0
4.094721934E0,1.066975975E1,1.160589218E0,-4.852448463E0
4.097209539E0,1.066018295E1,1.155800819E0,-4.871602058E0
4.099697143E0,1.063624096E1,1.141435623E0,-4.881178856E0
4.102184747E0,1.060751057E1,1.127070427E0,-4.885967255E0
4.104672351E0,1.057878017E1,1.136647224E0,-4.862025261E0
4.107159955E0,1.056441498E1,1.131858826E0,-4.828506470E0
4.109647559E0,1.054047298E1,1.155800819E0,-4.814141273E0
4.112135164E0,1.052610779E1,1.160589218E0,-4.780622005E0
4.114622768E0,1.049258900E1,1.170166135E0,-4.761468410E0
4.117110372E0,1.046864700E1,1.189319730E0,-4.708796024E0
4.119597976E0,1.045428181E1,1.218050122E0,-4.723161221E0
4.122085580E0,1.043033981E1,1.227626920E0,-4.694430828E0
4.124573184E0,1.040639782E1,1.246780515E0,-4.656123638E0
4.127060789E0,1.038724422E1,1.251568913E0,-4.627393246E0
4.129548393E0,1.038245583E1,1.261145711E0,-4.613028049E0
4.132035997E0,1.036809063E1,1.261145711E0,-4.593874454E0
4.134523601E0,1.035372543E1,1.251568913E0,-4.579509258E0
4.137011205E0,1.031062984E1,1.261145711E0,-4.579509258E0
4.139498809E0,1.030584145E1,1.275510907E0,-4.574720860E0
4.141986414E0,1.030584145E1,1.275510907E0,-4.550778866E0
4.144474018E0,1.030105305E1,1.289876223E0,-4.531625271E0
4.146961622E0,1.032020664E1,1.294664621E0,-4.493318081E0
4.149449226E0,1.033936024E1,1.285087705E0,-4.469376087E0
4.151936830E0,1.033457184E1,1.275510907E0,-4.445434093E0
4.154424434E0,1.033936024E1,1.261145711E0,-4.397550106E0
4.156912039E0,1.033936024E1,1.222838521E0,-4.344877720E0
4.159399643E0,1.033936024E1,1.179742932E0,-4.296993732E0
4.161887247E0,1.034414864E1,1.155800819E0,-4.244320869E0
4.164374851E0,1.034893703E1,1.131858826E0,-4.167706490E0
4.166862455E0,1.036809063E1,1.127070427E0,-4.091092110E0
4.169350059E0,1.035851383E1,1.131858826E0,-4.000112534E0
4.171837664E0,1.034414864E1,1.122282028E0,-3.947440147E0
4.174325268E0,1.033936024E1,1.107916832E0,-3.851671934E0
4.176812872E0,1.034893703E1,1.103128433E0,-3.760692358E0
4.179300476E0,1.038245583E1,1.112705231E0,-3.712808371E0
4.181788080E0,1.042555141E1,1.088763237E0,-3.664924145E0
4.184275684E0,1.045428181E1,1.088763237E0,-3.612251759E0
4.186763289E0,1.044949341E1,1.083974838E0,-3.578732967E0
4.189250893E0,1.045428181E1,1.050456047E0,-3.569156170E0
4.191738497E0,1.045907021E1,1.036090732E0,-3.559579372E0
4.194226101E0,1.047343540E1,1.021725535E0,-3.545214176E0
4.196713705E0,1.047822380E1,1.012148738E0,-3.516483784E0
4.199201309E0,1.045907021E1,9.834183455E-1,-3.478176594E0
4.201688914E0,1.043033981E1,9.882067442E-1,-3.473388195E0
4.204176518E0,1.041118622E1,9.786299467E-1,-3.435081005E0
4.206664122E0,1.039682102E1,9.642647505E-1,-3.406350374E0
4.209151726E0,1.039203262E1,9.594763517E-1,-3.377619982E0
4.211639330E0,1.039682102E1,9.451110959E-1,-3.358466387E0
4.214126934E0,1.039682102E1,9.498994946E-1,-3.339312792E0
4.216614539E0,1.040160942E1,9.403226972E-1,-3.339312792E0
4.219102143E0,1.039682102E1,9.163807034E-1,-3.334524393E0
4.221589747E0,1.039682102E1,9.163807034E-1,-3.334524393E0
4.224077351E0,1.039203262E1,9.307458997E-1,-3.324947596E0
4.226564955E0,1.038245583E1,9.307458997E-1,-3.344101191E0
4.229052559E0,1.036809063E1,9.211691022E-1,-3.363254786E0
4.231540164E0,1.036809063E1,9.115923047E-1,-3.387196779E0
4.234027768E0,1.037287903E1,8.780734539E-1,-3.401561975E0
4.236515372E0,1.036330223E1,8.684966564E-1,-3.435081005E0
4.239002976E0,1.035372543E1,8.684966564E-1,-3.463811398E0
4.241490580E0,1.032978344E1,8.493430614E-1,-3.511695385E0
4.243978184E0,1.030105305E1,8.445546627E-1,-3.535637379E0
4.246465789E0,1.029147625E1,8.445546627E-1,-3.540425777E0
4.248953393E0,1.028668785E1,8.589198589E-1,-3.550002575E0
4.251440997E0,1.029147625E1,8.589198589E-1,-3.545214176E0
4.253928653E0,1.030105305E1,8.541314602E-1,-3.530848980E0
4.256416309E0,1.030105305E1,8.637082577E-1,-3.521272182E0
4.258903966E0,1.032020664E1,8.732850552E-1,-3.506906986E0
4.261391622E0,1.033936024E1,8.589198589E-1,-3.473388195E0
4.263879278E0,1.034414864E1,8.684966564E-1,-3.449446201E0
4.266366934E0,1.035372543E1,8.828618526E-1,-3.435081005E0
4.268854591E0,1.037287903E1,8.780734539E-1,-3.415927172E0
4.271342247E0,1.040639782E1,8.684966564E-1,-3.353677988E0
4.273829903E0,1.043033981E1,8.541314602E-1,-3.334524393E0
4.276317559E0,1.045428181E1,8.541314602E-1,-3.296217203E0
4.278805216E0,1.047343540E1,8.349778652E-1,-3.262698412E0
4.281292872E0,1.047822380E1,8.397662640E-1,-3.229179621E0
4.283780528E0,1.050216579E1,8.541314602E-1,-3.190872431E0
4.286268184E0,1.052131939E1,8.589198589E-1,-3.157353401E0
4.288755841E0,1.055962658E1,8.445546627E-1,-3.109469414E0
4.291243497E0,1.056920338E1,8.493430614E-1,-3.085527420E0
4.293731153E0,1.060272217E1,8.445546627E-1,-3.042431831E0
4.296218809E0,1.062187576E1,8.445546627E-1,-2.984971046E0
4.298706466E0,1.064102936E1,8.541314602E-1,-2.941875219E0
4.301194122E0,1.065060616E1,8.589198589E-1,-2.884414434E0
4.303681778E0,1.067454815E1,8.684966564E-1,-2.860472441E0
4.306169434E0,1.069370174E1,8.445546627E-1,-2.807800055E0
4.308657091E0,1.073200893E1,8.445546627E-1,-2.793434858E0
4.311144747E0,1.075595093E1,8.397662640E-1,-2.764704466E0
4.313632403E0,1.078946972E1,8.349778652E-1,-2.726397276E0
4.316120059E0,1.084214211E1,8.301894665E-1,-2.702455282E0
4.318607716E0,1.086129570E1,8.397662640E-1,-2.673724651E0
4.321095372E0,1.088523769E1,8.637082577E-1,-2.649782658E0
4.323583028E0,1.091396809E1,8.780734539E-1,-2.630629063E0
4.326070684E0,1.092833328E1,9.115923047E-1,-2.611475468E0
4.328558289E0,1.093312168E1,9.546879530E-1,-2.621052265E0
4.331045893E0,1.095227528E1,9.786299467E-1,-2.649782658E0
4.333533497E0,1.096185207E1,1.002571940E0,-2.668936253E0
4.336021101E0,1.097142887E1,1.007360339E0,-2.692878246E0
4.338508705E0,1.097142887E1,1.012148738E0,-2.755127668E0
4.340996309E0,1.098100567E1,1.026513934E0,-2.822165251E0
4.343483914E0,1.098579407E1,1.045667648E0,-2.884414434E0
4.345971518E0,1.098579407E1,1.074398041E0,-2.946663857E0
4.348459122E0,1.100494766E1,1.079186440E0,-3.032855034E0
4.350946726E0,1.100973606E1,1.093551636E0,-3.095104218E0
4.353434330E0,1.100973606E1,1.107916832E0,-3.166930199E0
4.355921934E0,1.101931286E1,1.127070427E0,-3.219602823E0
4.358409539E0,1.104325581E1,1.155800819E0,-3.248333216E0
4.360897143E0,1.104325581E1,1.189319730E0,-3.277063608E0
4.363384747E0,1.105762100E1,1.227626920E0,-3.305794001E0
4.365872351E0,1.107677460E1,1.237203717E0,-3.334524393E0
4.368359955E0,1.107198620E1,1.246780515E0,-3.372831583E0
4.370847559E0,1.107198620E1,1.246780515E0,-3.435081005E0
4.373335164E0,1.110071659E1,1.237203717E0,-3.468599796E0
4.375822768E0,1.112944698E1,1.241992116E0,-3.497330189E0
4.378310372E0,1.115338898E1,1.241992116E0,-3.530848980E0
4.380797976E0,1.117733097E1,1.246780515E0,-3.569156170E0
4.383285580E0,1.119648457E1,1.241992116E0,-3.602674961E0
4.385773184E0,1.120127296E1,1.246780515E0,-3.617040157E0
4.388260789E0,1.122521496E1,1.251568913E0,-3.597886562E0
4.390748393E0,1.124436855E1,1.265934110E0,-3.607463360E0
4.393235997E0,1.126831055E1,1.299453020E0,-3.573944569E0
4.395723601E0,1.128746414E1,1.309029818E0,-3.545214176E0
4.398211205E0,1.129225254E1,1.318606615E0,-3.516483784E0
4.400698809E0,1.129225254E1,1.328183413E0,-3.511695385E0
4.403186414E0,1.130182934E1,1.337760210E0,-3.459022999E0
4.405674018E0,1.131619453E1,1.328183413E0,-3.482964993E0
4.408161622E0,1.132098293E1,1.323395014E0,-3.473388195E0
4.410649226E0,1.133055973E1,1.342548609E0,-3.468599796E0
4.413136830E0,1.135929012E1,1.342548609E0,-3.463811398E0
4.415624434E0,1.136407852E1,1.385644197E0,-3.459022999E0
4.418112039E0,1.134971333E1,1.419163108E0,-3.430292368E0
4.420599643E0,1.134971333E1,1.419163108E0,-3.406350374E0
4.423087247E0,1.134013653E1,1.423951507E0,-3.396773577E0
4.425574851E0,1.133055973E1,1.438316703E0,-3.372831583E0
4.428062455E0,1.132098293E1,1.433528304E0,-3.368043184E0
4.430550059E0,1.130182934E1,1.428739905E0,-3.377619982E0
4.433037664E0,1.129225254E1,1.428739905E0,-3.348889589E0
4.435525268E0,1.128267574E1,1.419163108E0,-3.358466387E0
4.438012872E0,1.124915695E1,1.404797792E0,-3.348889589E0
4.440500476E0,1.124436855E1,1.404797792E0,-3.339312792E0
4.442988080E0,1.122521496E1,1.419163108E0,-3.339312792E0
4.445475684E0,1.121084976E1,1.443105102E0,-3.344101191E0
4.447963289E0,1.119648457E1,1.462258697E0,-3.339312792E0
4.450450893E0,1.117254257E1,1.481412292E0,-3.320159197E0
4.452938497E0,1.116296577E1,1.495777488E0,-3.281852007E0
4.455426101E0,1.115338898E1,1.510142684E0,-3.257910013E0
4.457913705E0,1.113423538E1,1.553238392E0,-3.253121614E0
4.460401309E0,1.113423538E1,1.586757183E0,-3.224391222E0
4.462888914E0,1.114381218E1,1.625064373E0,-3.171718597E0
4.465376518E0,1.115338898E1,1.649006367E0,-3.123834610E0
4.467864122E0,1.116296577E1,1.706467271E0,-3.090315819E0
4.470351726E0,1.119169617E1,1.739986062E0,-3.028066635E0
4.472839330E0,1.120606136E1,1.783081770E0,-2.946663857E0
4.475326934E0,1.121563816E1,1.835754156E0,-2.865260839E0
4.477814539E0,1.123000336E1,1.869272947E0,-2.807800055E0
4.480302143E0,1.122521496E1,1.898003340E0,-2.769492865E0
4.482789747E0,1.127788734E1,1.931522250E0,-2.731185675E0
4.485277351E0,1.133055973E1,1.965041041E0,-2.683301449E0
4.487764955E0,1.139759731E1,2.003348351E0,-2.654571056E0
4.490252559E0,1.144069290E1,2.032078743E0,-2.621052265E0
4.492740164E0,1.149815369E1,2.075174332E0,-2.640205860E0
4.495227768E0,1.155561447E1,2.108693123E0,-2.683301449E0
4.497715372E0,1.159871006E1,2.170942307E0,-2.731185675E0
4.500202976E0,1.164180565E1,2.194884300E0,-2.779069662E0
4.502690580E0,1.168490124E1,2.247556925E0,-2.841318846E0
4.505178184E0,1.172320843E1,2.305017710E0,-2.913144827E0
4.507665789E0,1.176630402E1,2.352901697E0,-3.013701439E0
4.510153393E0,1.179024601E1,2.405574083E0,-3.109469414E0
4.512640997E0,1.179982281E1,2.458246708E0,-3.210026026E0
4.515128601E0,1.180461121E1,2.491765499E0,-3.320159197E0
4.517616205E0,1.179024601E1,2.534861088E0,-3.420715570E0
4.520103809E0,1.178545761E1,2.558803082E0,-3.540425777E0
4.522591414E0,1.177109241E1,2.577956676E0,-3.621828556E0
4.525079018E0,1.179024601E1,2.582745075E0,-3.698443174E0
4.527566622E0,1.179503441E1,2.587533474E0,-3.813364744E0
4.530054226E0,1.180461121E1,2.587533474E0,-3.923498154E0
4.532541830E0,1.179982281E1,2.587533474E0,-4.019266129E0
4.535029434E0,1.181897640E1,2.587533474E0,-4.138976097E0
4.537517039E0,1.184770679E1,2.577956676E0,-4.253897667E0
4.540004643E0,1.185728359E1,2.539649487E0,-4.354454517E0
4.542492247E0,1.186686039E1,2.510919094E0,-4.435857296E0
4.544979851E0,1.187164879E1,2.472611904E0,-4.517260075E0
4.547467455E0,1.187164879E1,2.429516077E0,-4.598662853E0
4.549955059E0,1.184770679E1,2.381632090E0,-4.641758442E0
4.552442664E0,1.185249519E1,2.352901697E0,-4.660912037E0
4.554930268E0,1.184291840E1,2.338536501E0,-4.689642429E0
4.557417872E0,1.181418800E1,2.314594507E0,-4.684854031E0
4.559905476E0,1.178545761E1,2.276287317E0,-4.641758442E0
4.562393080E0,1.176630402E1,2.257133722E0,-4.603451252E0
4.564880684E0,1.172799683E1,2.237980127E0,-4.550778866E0
4.567368289E0,1.169447803E1,2.209249735E0,-4.469376087E0
4.569855893E0,1.166574764E1,2.170942307E0,-4.392761707E0
4.572343497E0,1.163701725E1,2.142211914E0,-4.292205334E0
4.574831101E0,1.162744045E1,2.123058319E0,-4.210802078E0
4.577318705E0,1.162265205E1,2.099116325E0,-4.129399300E0
4.579806309E0,1.159871006E1,2.046443939E0,-4.028842926E0
4.582293914E0,1.157955647E1,2.003348351E0,-3.942651749E0
4.584781518E0,1.158434486E1,1.974617839E0,-3.861248732E0
4.587269122E0,1.156519127E1,1.945887446E0,-3.755903959E0
4.589756726E0,1.156040287E1,1.917157054E0,-3.669712543E0
4.592244330E0,1.154603767E1,1.888426542E0,-3.612251759E0
4.594731934E0,1.153646088E1,1.850119352E0,-3.550002575E0
4.597219539E0,1.153646088E1,1.811812162E0,-3.521272182E0
4.599707143E0,1.150294209E1,1.773504853E0,-3.478176594E0
4.602194747E0,1.144548130E1,1.744774461E0,-3.439869404E0
4.604682351E0,1.138802052E1,1.711255670E0,-3.406350374E0
4.607169955E0,1.132577133E1,1.672948480E0,-3.382408381E0
4.609657559E0,1.126831055E1,1.677736878E0,-3.324947596E0
4.612145164E0,1.122042656E1,1.687313676E0,-3.272275209E0
4.614632768E0,1.115817738E1,1.692102075E0,-3.219602823E0
4.617120372E0,1.112944698E1,1.701678872E0,-3.190872431E0
4.619607976E0,1.107677460E1,1.711255670E0,-3.176506996E0
4.622095580E0,1.102410126E1,1.735197663E0,-3.162141800E0
4.624583184E0,1.094269848E1,1.768716455E0,-3.152565002E0
4.627070789E0,1.088044930E1,1.802235365E0,-3.152565002E0
4.629558393E0,1.081820011E1,1.830965757E0,-3.152565002E0
4.632045997E0,1.075116253E1,1.845330954E0,-3.176506996E0
4.634533601E0,1.069849014E1,1.874061346E0,-3.224391222E0
4.637021205E0,1.062666416E1,1.878849745E0,-3.272275209E0
4.639508809E0,1.057878017E1,1.898003340E0,-3.281852007E0
4.641996414E0,1.053568459E1,1.893214941E0,-3.310582399E0
4.644484018E0,1.050216579E1,1.907580256E0,-3.320159197E0
4.646971622E0,1.046385860E1,1.926733851E0,-3.329735994E0
4.649459226E0,1.040639782E1,1.921945453E0,-3.329735994E0
4.651946830E0,1.041118622E1,1.926733851E0,-3.324947596E0
4.654434434E0,1.041118622E1,1.926733851E0,-3.344101191E0
4.656922039E0,1.040639782E1,1.931522250E0,-3.372831583E0
4.659409643E0,1.040639782E1,1.917157054E0,-3.391985178E0
4.661897247E0,1.040639782E1,1.926733851E0,-3.430292368E0
4.664384851E0,1.041597462E1,1.912368655E0,-3.439869404E0
4.666872455E0,1.043991661E1,1.878849745E0,-3.459022999E0
4.669360059E0,1.047822380E1,1.874061346E0,-3.459022999E0
4.671847664E0,1.050216579E1,1.869272947E0,-3.492541790E0
4.674335268E0,1.055004978E1,1.830965757E0,-3.521272182E0
4.676822872E0,1.058835697E1,1.816600561E0,-3.540425777E0
4.679310476E0,1.062187576E1,1.792658567E0,-3.559579372E0
4.681798132E0,1.065539455E1,1.763928056E0,-3.559579372E0
4.684285789E0,1.066975975E1,1.749562860E0,-3.588309765E0
4.686773445E0,1.067933655E1,1.763928056E0,-3.602674961E0
4.689261101E0,1.068891335E1,1.768716455E0,-3.636193752E0
4.691748757E0,1.069370174E1,1.763928056E0,-3.669712543E0
4.694236414E0,1.070806694E1,1.768716455E0,-3.703231573E0
4.696724070E0,1.072722054E1,1.783081770E0,-3.736750364E0
4.699211726E0,1.073200893E1,1.749562860E0,-3.794211149E0
4.701699382E0,1.073679733E1,1.711255670E0,-3.846883535E0
4.704187039E0,1.074637413E1,1.663371682E0,-3.909132719E0
4.706674695E0,1.076073933E1,1.639429569E0,-3.957016945E0
4.709162351E0,1.077031612E1,1.605910778E0,-3.990535736E0
4.711650007E0,1.077989292E1,1.562815189E0,-4.038419724E0
4.714137664E0,1.078468132E1,1.543661594E0,-4.043208122E0
4.716625320E0,1.077989292E1,1.510142684E0,-4.052784920E0
4.719112976E0,1.078468132E1,1.490989089E0,-4.067150116E0
4.721600632E0,1.080383492E1,1.476623893E0,-4.081515312E0
4.724088289E0,1.083256531E1,1.467047095E0,-4.110245705E0
4.726575945E0,1.084214211E1,1.452681899E0,-4.100668907E0
4.729063601E0,1.086129570E1,1.433528304E0,-4.095880508E0
4.731551257E0,1.087087250E1,1.423951507E0,-4.100668907E0
4.734038914E0,1.088044930E1,1.414374709E0,-4.100668907E0
4.736526570E0,1.089481449E1,1.385644197E0,-4.067150116E0
4.739014226E0,1.091396809E1,1.371279001E0,-4.033631325E0
4.741501882E0,1.094748688E1,1.352125406E0,-4.000112534E0
4.743989539E0,1.094748688E1,1.328183413E0,-3.966593742E0
4.746477195E0,1.094748688E1,1.304241419E0,-3.913921118E0
4.748964851E0,1.093791008E1,1.289876223E0,-3.894767523E0
4.751452507E0,1.095227528E1,1.275510907E0,-3.832518339E0
4.753940164E0,1.096664047E1,1.289876223E0,-3.760692358E0
4.756427768E0,1.094748688E1,1.289876223E0,-3.722385168E0
4.758915372E0,1.093312168E1,1.323395014E0,-3.698443174E0
4.761402976E0,1.090917969E1,1.342548609E0,-3.655347347E0
4.763890580E0,1.090439129E1,1.356913805E0,-3.612251759E0
4.766378184E0,1.089960289E1,1.366490602E0,-3.593098164E0
4.768865789E0,1.086608410E1,1.385644197E0,-3.597886562E0
4.771353393E0,1.083256531E1,1.385644197E0,-3.588309765E0
4.773840997E0,1.082298851E1,1.400009394E0,-3.573944569E0
4.776328601E0,1.078468132E1,1.414374709E0,-3.564367771E0
4.778816205E0,1.076552773E1,1.414374709E0,-3.559579372E0
4.781303809E0,1.074637413E1,1.423951507E0,-3.578732967E0
4.783791414E0,1.071764374E1,1.433528304E0,-3.612251759E0
4.786279018E0,1.068412495E1,1.447893500E0,-3.612251759E0
4.788766622E0,1.066018295E1,1.447893500E0,-3.636193752E0
4.791254226E0,1.064102936E1,1.476623893E0,-3.650558949E0
4.793741830E0,1.062187576E1,1.467047095E0,-3.684077978E0
4.796229434E0,1.058356857E1,1.486200690E0,-3.708019972E0
4.798717039E0,1.054047298E1,1.486200690E0,-3.712808371E0
4.801204643E0,1.050216579E1,1.471835494E0,-3.727173567E0
4.803692247E0,1.047822380E1,1.481412292E0,-3.760692358E0
4.806179851E0,1.045428181E1,1.467047095E0,-3.765480757E0
4.808667455E0,1.043033981E1,1.462258697E0,-3.775057554E0
4.811155059E0,1.039203262E1,1.452681899E0,-3.775057554E0
4.813642664E0,1.035851383E1,1.423951507E0,-3.779845953E0
4.816130268E0,1.035851383E1,1.409586191E0,-3.765480757E0
4.818617872E0,1.033936024E1,1.404797792E0,-3.736750364E0
4.821105476E0,1.032499504E1,1.390432596E0,-3.722385168E0
4.823593080E0,1.029626465E1,1.366490602E0,-3.688866377E0
4.826080684E0,1.027232265E1,1.337760210E0,-3.669712543E0
4.828568289E0,1.024359226E1,1.313818216E0,-3.626616955E0
4.831055893E0,1.021007347E1,1.285087705E0,-3.588309765E0
4.833543497E0,1.016697788E1,1.261145711E0,-3.497330189E0
4.836031101E0,1.011909389E1,1.237203717E0,-3.439869404E0
4.838518705E0,1.007599831E1,1.198896527E0,-3.372831583E0
4.841006309E0,1.003769016E1,1.170166135E0,-3.291428804E0
4.843493914E0,1.000895977E1,1.155800819E0,-3.205237627E0
4.845981518E0,9.965864182E0,1.127070427E0,-3.114257812E0
4.848469122E0,9.922768593E0,1.107916832E0,-3.037643433E0
4.850956726E0,9.865307808E0,1.093551636E0,-2.956240654E0
4.853444330E0,9.836577415E0,1.050456047E0,-2.870049238E0
4.855931934E0,9.807847023E0,1.021725535E0,-2.774281263E0
4.858419539E0,9.783905029E0,9.690531492E-1,-2.683301449E0
4.860907143E0,9.740809441E0,9.355342984E-1,-2.587533474E0
4.863394747E0,9.688137054E0,8.972271085E-1,-2.506130695E0
4.865882351E0,9.649829865E0,8.637082577E-1,-2.410362482E0
4.868369955E0,9.621099472E0,8.301894665E-1,-2.300229311E0
4.870857559E0,9.606734276E0,8.062474132E-1,-2.170942307E0
4.873345164E0,9.573215485E0,7.870938182E-1,-2.065597534E0
4.875832768E0,9.539696693E0,7.823054194E-1,-1.926733851E0
4.878320372E0,9.525331497E0,7.679402232E-1,-1.807023764E0
4.880807976E0,9.482235909E0,7.727286220E-1,-1.692102075E0
4.883295580E0,9.472659111E0,7.679402232E-1,-1.572391987E0
4.885783184E0,9.453505516E0,7.823054194E-1,-1.462258697E0
4.888270789E0,9.415198326E0,7.918822169E-1,-1.347337008E0
4.890758393E0,9.381679535E0,8.301894665E-1,-1.227626920E0
4.893245997E0,9.338583946E0,8.684966564E-1,-1.136647224E0
4.895733601E0,9.300276756E0,9.068039060E-1,-1.055244446E0
4.898221205E0,9.261969566E0,9.259575009E-1,-9.929951429E-1
4.900708809E0,9.204508781E0,9.546879530E-1,-9.498994946E-1
4.903196414E0,9.180566788E0,9.882067442E-1,-9.451110959E-1
4.905684018E0,9.118317604E0,1.012148738E0,-9.642647505E-1
4.908171622E0,9.036913872E0,1.069609642E0,-9.929951429E-1
4.910659226E0,8.965087891E0,1.117493629E0,-1.050456047E0
4.913146830E0,8.912415504E0,1.155800819E0,-1.093551636E0
4.915634434E0,8.859743118E0,1.218050122E0,-1.131858826E0
4.918122039E0,8.807070732E0,1.285087705E0,-1.213261724E0
4.920609643E0,8.754398346E0,1.361702204E0,-1.294664621E0
4.923097247E0,8.677783966E0,1.414374709E0,-1.395220995E0
4.925584851E0,8.634688377E0,1.457470298E0,-1.505354285E0
4.928072455E0,8.582015991E0,1.500565886E0,-1.668160081E0
4.930560059E0,8.543708801E0,1.534084797E0,-1.826177359E0
4.933047664E0,8.505401611E0,1.514931083E0,-1.998559833E0
4.935535268E0,8.481459618E0,1.471835494E0,-2.166153908E0
4.938022872E0,8.462306023E0,1.457470298E0,-2.343324900E0
4.940510476E0,8.452729225E0,1.447893500E0,-2.525284290E0
4.942998080E0,8.447940826E0,1.428739905E0,-2.688089848E0
4.945485684E0,8.443152428E0,1.419163108E0,-2.831742048E0
4.947973289E0,8.409633636E0,1.409586191E0,-2.961029053E0
4.950460893E0,8.400056839E0,1.409586191E0,-3.052008629E0
4.952948757E0,8.409633636E0,1.414374709E0,-3.104681015E0
4.955436622E0,8.414422035E0,1.400009394E0,-3.152565002E0
4.957924487E0,8.428787231E0,1.390432596E0,-3.176506996E0
4.960412091E0,8.433575630E0,1.376067400E0,-3.171718597E0
4.962899695E0,8.438364029E0,1.356913805E0,-3.176506996E0
4.965387299E0,8.476671219E0,1.352125406E0,-3.152565002E0
4.967874903E0,8.505401611E0,1.318606615E0,-3.114257812E0
4.970362507E0,8.534132004E0,1.304241419E0,-3.104681015E0
4.972850112E0,8.582015991E0,1.309029818E0,-3.047220230E0
4.975337716E0,8.625111580E0,1.337760210E0,-2.980182648E0
4.977825320E0,8.649053574E0,1.371279001E0,-2.932298422E0
4.980312924E0,8.692149162E0,1.404797792E0,-2.889202833E0
4.982800528E0,8.720879555E0,1.443105102E0,-2.846107244E0
4.985288132E0,8.754398346E0,1.462258697E0,-2.798223257E0
4.987775737E0,8.802282333E0,1.490989089E0,-2.764704466E0
4.990263341E0,8.826224327E0,1.505354285E0,-2.731185675E0
4.992750945E0,8.845377922E0,1.538873196E0,-2.712032080E0
4.995238549E0,8.831012726E0,1.553238392E0,-2.688089848E0
4.997726153E0,8.826224327E0,1.591545582E0,-2.673724651E0
5.000213757E0,8.807070732E0,1.615487576E0,-2.673724651E0
5.002701362E0,8.787917137E0,1.653794765E0,-2.692878246E0
5.005188966E0,8.768763542E0,1.701678872E0,-2.683301449E0
5.007676570E0,8.740033150E0,1.754351258E0,-2.697666883E0
5.010164174E0,8.687360764E0,1.807023764E0,-2.735974073E0
5.012651778E0,8.634688377E0,1.826177359E0,-2.750339270E0
5.015139382E0,8.615534782E0,1.864484549E0,-2.803011656E0
5.017626987E0,8.582015991E0,1.864484549E0,-2.870049238E0
5.020114591E0,8.534132004E0,1.888426542E0,-2.927510023E0
5.022602195E0,8.476671219E0,1.912368655E0,-2.989759445E0
5.025089799E0,8.419210434E0,1.912368655E0,-3.080739021E0
5.027577403E0,8.380903244E0,1.902791858E0,-3.157353401E0
5.030065007E0,8.323442459E0,1.902791858E0,-3.214814425E0
5.032552612E0,8.251616478E0,1.898003340E0,-3.291428804E0
5.035040216E0,8.203732491E0,1.893214941E0,-3.334524393E0
5.037527820E0,8.170213699E0,1.864484549E0,-3.391985178E0
5.040015424E0,8.127118111E0,1.845330954E0,-3.435081005E0
5.042503028E0,8.088809967E0,1.821388960E0,-3.478176594E0
5.044990632E0,8.055291176E0,1.797446966E0,-3.487753391E0
5.047478237E0,8.040925980E0,1.778293371E0,-3.502118587E0
5.049965841E0,8.012195587E0,1.735197663E0,-3.521272182E0
5.052453445E0,8.002618790E0,1.696890473E0,-3.511695385E0
5.054941049E0,7.978677273E0,1.668160081E0,-3.497330189E0
5.057428653E0,7.969100475E0,1.629852772E0,-3.473388195E0
5.059916257E0,7.997830868E0,1.601122379E0,-3.444657803E0
5.062403862E0,8.021772385E0,1.553238392E0,-3.415927172E0
5.064891466E0,8.040925980E0,1.510142684E0,-3.368043184E0
5.067379070E0,8.074444771E0,1.471835494E0,-3.301005602E0
5.069866674E0,8.107964516E0,1.419163108E0,-3.229179621E0
5.072354278E0,8.141483307E0,1.376067400E0,-3.133411407E0
5.074841882E0,8.189367294E0,1.332971811E0,-3.075950623E0
5.077329487E0,8.232462883E0,1.289876223E0,-2.989759445E0
5.079817091E0,8.285135269E0,1.237203717E0,-2.913144827E0
5.082304695E0,8.337807655E0,1.208473325E0,-2.831742048E0
5.084792299E0,8.390480042E0,1.174954534E0,-2.764704466E0
5.087279903E0,8.419210434E0,1.151012421E0,-2.692878246E0
5.089767507E0,8.467094421E0,1.151012421E0,-2.635417461E0
5.092255112E0,8.486248016E0,1.141435623E0,-2.582745075E0
5.094742716E0,8.491036415E0,1.131858826E0,-2.554014683E0
5.097230320E0,8.471882820E0,1.122282028E0,-2.506130695E0
5.099717924E0,8.471882820E0,1.107916832E0,-2.501342297E0
5.102205528E0,8.462306023E0,1.112705231E0,-2.482188702E0
5.104693132E0,8.452729225E0,1.117493629E0,-2.472611904E0
5.107180737E0,8.433575630E0,1.122282028E0,-2.443881273E0
5.109668341E0,8.404845238E0,1.131858826E0,-2.429516077E0
5.112155945E0,8.371326447E0,1.131858826E0,-2.439092875E0
5.114643549E0,8.347384453E0,1.146224022E0,-2.443881273E0
5.117131153E0,8.299500465E0,1.131858826E0,-2.453458309E0
5.119618757E0,8.251616478E0,1.141435623E0,-2.439092875E0
5.122106362E0,8.213309288E0,1.131858826E0,-2.453458309E0
5.124593966E0,8.170213699E0,1.131858826E0,-2.486977100E0
5.127081570E0,8.112752914E0,1.131858826E0,-2.477400303E0
5.129569174E0,8.055291176E0,1.112705231E0,-2.477400303E0
5.132056778E0,7.978677273E0,1.079186440E0,-2.486977100E0
5.134544382E0,7.930793285E0,1.036090732E0,-2.472611904E0
5.137031987E0,7.887697697E0,1.026513934E0,-2.463035107E0
5.139519591E0,7.825448036E0,9.882067442E-1,-2.448669672E0
5.142007195E0,7.801506042E0,9.642647505E-1,-2.434304476E0
5.144494799E0,7.777564049E0,9.355342984E-1,-2.424727678E0
5.146982403E0,7.734468460E0,8.972271085E-1,-2.415150881E0
5.149470007E0,7.715314865E0,8.684966564E-1,-2.395997286E0
5.151957612E0,7.715314865E0,8.397662640E-1,-2.362478495E0
5.154445216E0,7.715314865E0,8.206126094E-1,-2.343324900E0
5.156932820E0,7.691372871E0,8.062474132E-1,-2.319382906E0
5.159420424E0,7.686584473E0,7.823054194E-1,-2.285864115E0
5.161908028E0,7.686584473E0,7.679402232E-1,-2.252345324E0
5.164395632E0,7.686584473E0,7.152677774E-1,-2.228403330E0
5.166883237E0,7.686584473E0,7.009025216E-1,-2.190095901E0
5.169370841E0,7.677007675E0,6.769605279E-1,-2.156577110E0
5.171858445E0,7.681796074E0,6.530185342E-1,-2.108693123E0
5.174346049E0,7.681796074E0,6.242880821E-1,-2.079962730E0
5.176833653E0,7.657854080E0,6.003460884E-1,-2.027290344E0
5.179321257E0,7.653065681E0,6.003460884E-1,-2.003348351E0
5.181808862E0,7.662642479E0,5.907692909E-1,-1.965041041E0
5.184296466E0,7.657854080E0,5.668272376E-1,-1.936310649E0
5.186784070E0,7.657854080E0,5.716156363E-1,-1.912368655E0
5.189271674E0,7.657854080E0,5.811924338E-1,-1.883638144E0
5.191759278E0,7.667430878E0,5.907692909E-1,-1.854907751E0
5.194246882E0,7.667430878E0,5.907692909E-1,-1.835754156E0
5.196734487E0,7.677007675E0,6.051344872E-1,-1.802235365E0
5.199222091E0,7.657854080E0,6.099228859E-1,-1.759139657E0
5.201709695E0,7.653065681E0,6.194996834E-1,-1.739986062E0
5.204197299E0,7.629123688E0,6.194996834E-1,-1.716044068E0
5.206684903E0,7.605181694E0,6.338648796E-1,-1.692102075E0
5.209172507E0,7.590816498E0,6.482301354E-1,-1.644217968E0
5.211660112E0,7.566874504E0,6.530185342E-1,-1.629852772E0
5.214147716E0,7.552509308E0,6.578069329E-1,-1.596333981E0
5.216635320E0,7.509413719E0,6.673837304E-1,-1.581968784E0
