"Time (s)","Gyroscope x (rad/s)","Gyroscope y (rad/s)","Gyroscope z (rad/s)"
4.733479900E-2,-1.320926845E-1,2.756369673E-2,5.366265774E-2
4.982818400E-2,-1.416800618E-1,2.649843320E-2,5.579318479E-2
5.232157000E-2,-1.512674391E-1,2.543316968E-2,5.792371184E-2
5.481573700E-2,-1.619200706E-1,2.436790615E-2,6.005423889E-2
5.730990300E-2,-1.725727171E-1,2.436790615E-2,6.111950055E-2
5.980537200E-2,-1.832253486E-1,2.330264263E-2,6.218476593E-2
6.230177800E-2,-1.938779801E-1,2.223737910E-2,6.325002760E-2
6.479875700E-2,-2.024000883E-1,2.117211558E-2,6.325002760E-2
6.729589300E-2,-2.109221965E-1,1.904158667E-2,6.218476593E-2
6.978782000E-2,-2.173137814E-1,1.691105962E-2,6.111950055E-2
7.227542400E-2,-2.237053663E-1,1.478053257E-2,6.005423889E-2
7.476297600E-2,-2.279664129E-1,1.158474199E-2,5.685844645E-2
7.725052800E-2,-2.311622053E-1,8.388951421E-3,5.472791940E-2
7.973808000E-2,-2.322274745E-1,5.193160381E-3,5.046686530E-2
8.222563200E-2,-2.322274745E-1,9.321057005E-4,4.620581120E-2
8.471318400E-2,-2.290316820E-1,-3.328948980E-3,4.087949172E-2
8.720073700E-2,-2.247706354E-1,-7.590003312E-3,3.555317223E-2
8.968828900E-2,-2.183790505E-1,-1.398158539E-2,2.916159295E-2
9.217584100E-2,-2.109221965E-1,-1.930790395E-2,2.170474641E-2
9.466339300E-2,-2.002695650E-1,-2.569948509E-2,1.531316526E-2
9.715094500E-2,-1.885516644E-1,-3.209106624E-2,8.921583183E-3
9.963849700E-2,-1.747032404E-1,-3.635212034E-2,2.530001104E-3
1.021260490E-1,-1.597895473E-1,-4.061317816E-2,-3.861580743E-3
1.046136010E-1,-1.427453309E-1,-4.274370521E-2,-8.122635074E-3
1.071011530E-1,-1.235705838E-1,-4.380896688E-2,-1.344895363E-2
1.095887050E-1,-1.033305749E-1,-4.380896688E-2,-1.771000773E-2
1.120762570E-1,-8.096003532E-2,-4.274370521E-2,-2.197106183E-2
1.145638090E-1,-5.752423778E-2,-4.167843983E-2,-2.623211779E-2
1.170513620E-1,-3.408843651E-2,-3.848264739E-2,-2.836264484E-2
1.195389140E-1,-1.065263618E-2,-3.528685868E-2,-3.155843541E-2
1.220264660E-1,1.171789970E-2,-3.209106624E-2,-3.368896246E-2
1.245140180E-1,3.302317113E-2,-2.783001214E-2,-3.475422785E-2
1.270015700E-1,5.326318368E-2,-2.463422157E-2,-3.475422785E-2
1.294891220E-1,7.030740380E-2,-2.037316747E-2,-3.688475490E-2
1.319766740E-1,8.522108942E-2,-1.611211337E-2,-3.688475490E-2
1.344642260E-1,9.800425172E-2,-1.291632187E-2,-3.795001656E-2
1.369517780E-1,1.075916290E-1,-9.720530361E-3,-3.901528195E-2
1.394393300E-1,1.150484756E-1,-8.655266836E-3,-4.008054361E-2
1.419268820E-1,1.193095297E-1,-8.655266836E-3,-4.008054361E-2
1.444144340E-1,1.214400530E-1,-1.078579482E-2,-4.114580899E-2
1.469019870E-1,1.214400530E-1,-1.504684892E-2,-4.221107066E-2
1.493895390E-1,1.203747913E-1,-2.037316747E-2,-4.327633604E-2
1.518770910E-1,1.182442605E-1,-2.889527567E-2,-4.540686309E-2
1.543646430E-1,1.161137372E-1,-3.848264739E-2,-4.753739014E-2
1.568521950E-1,1.129179448E-1,-5.020054802E-2,-4.860265180E-2
1.593397470E-1,1.097221524E-1,-6.085318699E-2,-4.966791719E-2
1.618272990E-1,1.065263674E-1,-7.257108390E-2,-5.179844424E-2
1.643148510E-1,1.054610983E-1,-8.428898454E-2,-5.392897129E-2
1.668024030E-1,1.033305749E-1,-9.494162351E-2,-5.499423668E-2
1.692899550E-1,1.033305749E-1,-1.045289934E-1,-5.605949834E-2
1.717775070E-1,1.043958366E-1,-1.109205782E-1,-5.819002539E-2
1.742650590E-1,1.075916290E-1,-1.173121557E-1,-5.925529078E-2
1.767526120E-1,1.107874215E-1,-1.215732098E-1,-6.138581783E-2
1.792401640E-1,1.161137372E-1,-1.237037405E-1,-6.245107949E-2
1.817277160E-1,1.225053221E-1,-1.258342713E-1,-6.458161026E-2
1.842152680E-1,1.299621612E-1,-1.247690022E-1,-6.671213359E-2
1.867028200E-1,1.374190152E-1,-1.237037405E-1,-6.777740270E-2
1.891903720E-1,1.470063776E-1,-1.226384789E-1,-6.777740270E-2
1.916779240E-1,1.555284858E-1,-1.194426864E-1,-6.884266436E-2
1.941654760E-1,1.640505940E-1,-1.141163707E-1,-6.990792602E-2
1.966530280E-1,1.725727171E-1,-1.077247858E-1,-6.990792602E-2
1.991405800E-1,1.810948253E-1,-1.023984700E-1,-6.990792602E-2
2.016281320E-1,1.885516644E-1,-9.600688517E-2,-6.884266436E-2
2.041156840E-1,1.949432492E-1,-8.961530030E-2,-6.777740270E-2
2.066032370E-1,2.002695650E-1,-8.428898454E-2,-6.777740270E-2
2.090908410E-1,2.045306265E-1,-7.896266878E-2,-6.564687192E-2
2.115784450E-1,2.077264041E-1,-7.576687634E-2,-6.458161026E-2
2.140660490E-1,2.109221965E-1,-7.257108390E-2,-6.458161026E-2
2.165536530E-1,2.130527347E-1,-7.150582224E-2,-6.351634115E-2
2.190412570E-1,2.130527347E-1,-7.150582224E-2,-6.245107949E-2
2.215288620E-1,2.151832581E-1,-7.150582224E-2,-6.032055244E-2
2.240164660E-1,2.151832581E-1,-7.257108390E-2,-6.032055244E-2
2.265040700E-1,2.162485123E-1,-7.470161468E-2,-6.032055244E-2
2.289916740E-1,2.162485123E-1,-7.789740711E-2,-5.925529078E-2
2.314792780E-1,2.151832581E-1,-8.109319210E-2,-5.925529078E-2
2.339668820E-1,2.130527347E-1,-8.428898454E-2,-5.925529078E-2
2.364544870E-1,2.109221965E-1,-8.855003864E-2,-5.925529078E-2
2.389420910E-1,2.077264041E-1,-9.068056941E-2,-5.925529078E-2
2.414296950E-1,2.045306265E-1,-9.174583107E-2,-5.925529078E-2
2.439172990E-1,2.002695650E-1,-9.281109273E-2,-5.925529078E-2
2.464049030E-1,1.960085034E-1,-9.387636185E-2,-5.925529078E-2
2.488925070E-1,1.917474568E-1,-9.387636185E-2,-6.032055244E-2
2.513801120E-1,1.864211410E-1,-9.387636185E-2,-6.032055244E-2
2.538677160E-1,1.810948253E-1,-9.494162351E-2,-6.032055244E-2
2.563553200E-1,1.768337637E-1,-9.600688517E-2,-6.032055244E-2
2.588429240E-1,1.715074480E-1,-9.707214683E-2,-6.138581783E-2
2.613305280E-1,1.672463864E-1,-9.920267761E-2,-6.138581783E-2
2.638181320E-1,1.619200706E-1,-1.002679393E-1,-6.138581783E-2
2.663057370E-1,1.576590240E-1,-1.023984700E-1,-5.925529078E-2
2.687933410E-1,1.523326933E-1,-1.034637317E-1,-5.819002539E-2
2.712809450E-1,1.470063776E-1,-1.045289934E-1,-5.605949834E-2
2.737685490E-1,1.416800618E-1,-1.055942550E-1,-5.286370963E-2
2.762561530E-1,1.374190152E-1,-1.055942550E-1,-4.966791719E-2
2.787437570E-1,1.331579536E-1,-1.045289934E-1,-4.647212476E-2
2.812313620E-1,1.310274303E-1,-1.034637317E-1,-4.114580899E-2
2.837189660E-1,1.288969070E-1,-1.002679393E-1,-3.581948951E-2
2.862065700E-1,1.278316379E-1,-9.600688517E-2,-3.049317189E-2
2.886941740E-1,1.267663687E-1,-8.855003864E-2,-2.303632535E-2
2.911817780E-1,1.278316379E-1,-8.109319210E-2,-1.664474420E-2
2.936693820E-1,1.288969070E-1,-7.150582224E-2,-8.122635074E-3
2.961569870E-1,1.310274303E-1,-6.085318699E-2,-6.657897611E-4
2.986445910E-1,1.320926845E-1,-4.913528636E-2,7.856319658E-3
3.011321950E-1,1.342232227E-1,-3.635212034E-2,1.637842879E-2
3.036197990E-1,1.384842694E-1,-2.250369452E-2,2.490053698E-2
3.061074030E-1,1.406148076E-1,-8.655266836E-3,3.342264518E-2
3.085950070E-1,1.438105851E-1,5.193160381E-3,4.194475710E-2
3.110826120E-1,1.459411234E-1,1.797632314E-2,4.940159991E-2
3.135702160E-1,1.480716467E-1,3.075948730E-2,5.472791940E-2
3.160578200E-1,1.502021700E-1,4.247738793E-2,6.111950055E-2
3.185454240E-1,1.512674391E-1,5.206476152E-2,6.644582003E-2
3.210330280E-1,1.533979625E-1,6.058686972E-2,7.177213579E-2
3.235206320E-1,1.533979625E-1,6.804371625E-2,7.603318989E-2
3.260081840E-1,1.523326933E-1,7.443529367E-2,8.029424399E-2
3.284957370E-1,1.523326933E-1,7.976161689E-2,8.455529809E-2
3.309832890E-1,1.502021700E-1,8.295740932E-2,8.881635964E-2
3.334708410E-1,1.480716467E-1,8.721846342E-2,9.414267540E-2
3.359583930E-1,1.448758543E-1,8.934898674E-2,9.946899116E-2
3.384459450E-1,1.406148076E-1,9.254477918E-2,1.037300453E-1
3.409334970E-1,1.363537461E-1,9.467530251E-2,1.090563685E-1
3.434210490E-1,1.331579536E-1,9.680583328E-2,1.133174226E-1
3.459086010E-1,1.299621612E-1,1.000016257E-1,1.175784767E-1
3.483961530E-1,1.267663687E-1,1.031974182E-1,1.218395308E-1
3.508837050E-1,1.246358454E-1,1.074584723E-1,1.261005849E-1
3.533712570E-1,1.225053221E-1,1.117195264E-1,1.292963773E-1
3.558588090E-1,1.225053221E-1,1.181111038E-1,1.314269006E-1
3.583463620E-1,1.225053221E-1,1.255679578E-1,1.346226931E-1
3.608339140E-1,1.246358454E-1,1.362205893E-1,1.367532164E-1
3.633214660E-1,1.257011145E-1,1.479384899E-1,1.399490088E-1
3.658090180E-1,1.288969070E-1,1.607216448E-1,1.431448013E-1
3.682965700E-1,1.331579536E-1,1.767006069E-1,1.474058628E-1
3.707841220E-1,1.395495385E-1,1.916143000E-1,1.516669095E-1
3.732716740E-1,1.459411234E-1,2.075932473E-1,1.569932252E-1
3.757592260E-1,1.533979625E-1,2.246374637E-1,1.612542868E-1
3.782467780E-1,1.608548164E-1,2.427469492E-1,1.655153334E-1
3.807343300E-1,1.715074480E-1,2.608564198E-1,1.697763950E-1
3.832218820E-1,1.810948253E-1,2.800311744E-1,1.740374416E-1
3.857094340E-1,1.906821877E-1,2.992059290E-1,1.793637723E-1
3.881969870E-1,2.024000883E-1,3.194459379E-1,1.836248189E-1
3.906845390E-1,2.151832581E-1,3.396859467E-1,1.889511347E-1
3.931720910E-1,2.279664129E-1,3.609912097E-1,1.932121962E-1
3.956596430E-1,2.407495826E-1,3.812312186E-1,1.996037811E-1
3.981471950E-1,2.556632757E-1,4.014712274E-1,2.049300969E-1
4.006347470E-1,2.705769539E-1,4.206459820E-1,2.102564126E-1
4.031222990E-1,2.865559161E-1,4.387554526E-1,2.166479975E-1
4.056098510E-1,3.025348783E-1,4.557996690E-1,2.219743133E-1
4.080974030E-1,3.217096329E-1,4.707133770E-1,2.283658981E-1
4.105849550E-1,3.398191035E-1,4.824312627E-1,2.326269448E-1
4.130725070E-1,3.589938581E-1,4.920186400E-1,2.390185297E-1
4.155600590E-1,3.792338669E-1,4.984102249E-1,2.432795912E-1
4.180476120E-1,4.005391300E-1,5.016059875E-1,2.486059070E-1
4.205351640E-1,4.229096770E-1,5.026713014E-1,2.528669536E-1
4.230227160E-1,4.452801943E-1,5.016059875E-1,2.571280003E-1
4.255102680E-1,4.687159956E-1,4.984102249E-1,2.624543309E-1
4.279978200E-1,4.910865426E-1,4.930838943E-1,2.667153776E-1
4.304853720E-1,5.134570599E-1,4.888228476E-1,2.720417082E-1
4.329729240E-1,5.347623229E-1,4.834965467E-1,2.773680091E-1
4.354604760E-1,5.550023317E-1,4.803007543E-1,2.826943398E-1
4.379480280E-1,5.741770864E-1,4.792354703E-1,2.890859246E-1
4.404355800E-1,5.912213326E-1,4.781702161E-1,2.965427637E-1
4.429231320E-1,6.061350107E-1,4.792354703E-1,3.050648868E-1
4.454106840E-1,6.189181805E-1,4.803007543E-1,3.146522343E-1
4.478982890E-1,6.295707822E-1,4.824312627E-1,3.242396116E-1
4.503858930E-1,6.380929351E-1,4.845618010E-1,3.338269889E-1
4.528734970E-1,6.444845200E-1,4.856270552E-1,3.434143662E-1
4.553611010E-1,6.466150284E-1,4.866923392E-1,3.519364893E-1
4.578487050E-1,6.466150284E-1,4.888228476E-1,3.593933284E-1
4.603363090E-1,6.412886977E-1,4.888228476E-1,3.657849133E-1
4.628239140E-1,6.338318586E-1,4.898881316E-1,3.700459599E-1
4.653115180E-1,6.221139431E-1,4.888228476E-1,3.721764982E-1
4.677991220E-1,6.082655191E-1,4.877575934E-1,3.732417524E-1
4.702867260E-1,5.901560783E-1,4.845618010E-1,3.721764982E-1
4.727750590E-1,5.709813237E-1,4.813660085E-1,3.700459599E-1
4.752628720E-1,5.486107469E-1,4.760396779E-1,3.647196293E-1
4.777504760E-1,5.262402296E-1,4.707133770E-1,3.583280444E-1
4.802380280E-1,5.017392039E-1,4.675175846E-1,3.498059511E-1
4.827255800E-1,4.761728346E-1,4.653870463E-1,3.402185738E-1
4.852131320E-1,4.527370334E-1,4.643217921E-1,3.285006881E-1
4.877006840E-1,4.271707237E-1,4.643217921E-1,3.178480268E-1
4.901882370E-1,4.037349224E-1,4.664523304E-1,3.071953952E-1
4.926757890E-1,3.813643754E-1,4.696480930E-1,2.954775095E-1
4.951633410E-1,3.589938581E-1,4.728438854E-1,2.837595940E-1
4.976508930E-1,3.387538493E-1,4.760396779E-1,2.731069624E-1
5.001384450E-1,3.206443489E-1,4.803007543E-1,2.624543309E-1
5.026259970E-1,3.046653867E-1,4.834965467E-1,2.539322078E-1
5.051135490E-1,2.886864543E-1,4.856270552E-1,2.454101145E-1
5.076011010E-1,2.759032845E-1,4.877575934E-1,2.379532605E-1
5.100886530E-1,2.652506530E-1,4.888228476E-1,2.326269448E-1
5.125762050E-1,2.545980215E-1,4.877575934E-1,2.262353599E-1
5.150637570E-1,2.450106442E-1,4.856270552E-1,2.219743133E-1
5.175513090E-1,2.354232669E-1,4.834965467E-1,2.198437899E-1
5.200388620E-1,2.279664129E-1,4.792354703E-1,2.177132517E-1
5.225264140E-1,2.205095738E-1,4.739091694E-1,2.166479975E-1
5.250139660E-1,2.141179889E-1,4.675175846E-1,2.177132517E-1
5.275015180E-1,2.077264041E-1,4.589954615E-1,2.187785208E-1
5.299890700E-1,2.024000883E-1,4.504733682E-1,2.209090441E-1
5.324766220E-1,1.981390417E-1,4.408859909E-1,2.241048366E-1
5.349641740E-1,1.949432492E-1,4.312986135E-1,2.294311523E-1
5.374517260E-1,1.928127259E-1,4.206459820E-1,2.358227372E-1
5.399392780E-1,1.906821877E-1,4.121238589E-1,2.432795912E-1
5.424268300E-1,1.906821877E-1,4.036017656E-1,2.518016994E-1
5.449143820E-1,1.917474568E-1,3.972101808E-1,2.613890767E-1
5.474019340E-1,1.949432492E-1,3.929491341E-1,2.720417082E-1
5.498894870E-1,1.992042959E-1,3.908185959E-1,2.848248780E-1
5.523770390E-1,2.066611499E-1,3.908185959E-1,2.965427637E-1
5.548645910E-1,2.162485123E-1,3.929491341E-1,3.093259335E-1
5.573521430E-1,2.290316820E-1,3.993407190E-1,3.221091032E-1
5.598396950E-1,2.460758984E-1,4.089280665E-1,3.338269889E-1
5.623272470E-1,2.652506530E-1,4.206459820E-1,3.455449045E-1
5.648147990E-1,2.876211703E-1,4.366249442E-1,3.561975360E-1
5.673023510E-1,3.121222556E-1,4.547344148E-1,3.657849133E-1
5.697899030E-1,3.387538493E-1,4.739091694E-1,3.732417524E-1
5.722774550E-1,3.685812056E-1,4.952144325E-1,3.796333373E-1
5.747650070E-1,3.994738758E-1,5.165197253E-1,3.860249221E-1
5.772525590E-1,4.303665161E-1,5.388902426E-1,3.892207146E-1
5.797401120E-1,4.612591565E-1,5.623260736E-1,3.924165070E-1
5.822276640E-1,4.921517968E-1,5.868270993E-1,3.956122994E-1
5.847152160E-1,5.230444670E-1,6.091976166E-1,3.956122994E-1
5.872027680E-1,5.507413149E-1,6.326334476E-1,3.945470154E-1
5.896903200E-1,5.773729086E-1,6.550039649E-1,3.924165070E-1
5.921779240E-1,6.008086801E-1,6.763092279E-1,3.902859688E-1
5.946655280E-1,6.221139431E-1,6.944187284E-1,3.870901763E-1
5.971531320E-1,6.402234435E-1,7.114629745E-1,3.838943839E-1
5.996407370E-1,6.540718675E-1,7.242461443E-1,3.796333373E-1
6.021283410E-1,6.647245288E-1,7.348987460E-1,3.743070066E-1
6.046159450E-1,6.721813679E-1,7.391598225E-1,3.700459599E-1
6.071035490E-1,6.743118763E-1,7.402250767E-1,3.647196293E-1
6.095911530E-1,6.732466221E-1,7.370292544E-1,3.593933284E-1
6.120787570E-1,6.679202914E-1,7.306377292E-1,3.540669978E-1
6.145663620E-1,6.593981981E-1,7.210503221E-1,3.487406969E-1
6.170539660E-1,6.466150284E-1,7.072018981E-1,3.434143662E-1
6.195415700E-1,6.295707822E-1,6.912229657E-1,3.380880356E-1
6.220291740E-1,6.103960872E-1,6.731134653E-1,3.338269889E-1
6.245167780E-1,5.890907645E-1,6.528734565E-1,3.306311965E-1
6.270043820E-1,5.667202473E-1,6.315681934E-1,3.263701499E-1
6.294919870E-1,5.432844758E-1,6.081323624E-1,3.242396116E-1
6.319795910E-1,5.187833905E-1,5.868270993E-1,3.231743574E-1
6.344671950E-1,4.953475893E-1,5.676523447E-1,3.221091032E-1
6.369547990E-1,4.729770422E-1,5.506081581E-1,3.242396116E-1
6.394424030E-1,4.527370334E-1,5.399554968E-1,3.263701499E-1
6.419300070E-1,4.356928170E-1,5.324986577E-1,3.295659423E-1
6.444176120E-1,4.207791388E-1,5.303681493E-1,3.338269889E-1
6.469052160E-1,4.090612531E-1,5.346291661E-1,3.370227814E-1
6.493928200E-1,3.994738758E-1,5.431513190E-1,3.412838280E-1
6.518804240E-1,3.920170069E-1,5.548691750E-1,3.466101587E-1
6.543680280E-1,3.898864985E-1,5.719134212E-1,3.519364893E-1
6.568556320E-1,3.888212144E-1,5.900229216E-1,3.572627902E-1
6.593432370E-1,3.909517527E-1,6.113281846E-1,3.625891209E-1
6.618308410E-1,3.952127993E-1,6.326334476E-1,3.689807057E-1
6.643184450E-1,4.016043842E-1,6.550039649E-1,3.743070066E-1
6.668060490E-1,4.090612531E-1,6.773745418E-1,3.806985915E-1
6.692936530E-1,4.186486006E-1,6.986798048E-1,3.860249221E-1
6.717812570E-1,4.303665161E-1,7.189198136E-1,3.902859688E-1
6.742688620E-1,4.420844018E-1,7.370292544E-1,3.945470154E-1
6.767564660E-1,4.538023174E-1,7.540735006E-1,3.988080621E-1
6.792440700E-1,4.655202031E-1,7.700524330E-1,4.020038545E-1
6.817316740E-1,4.793686271E-1,7.817703485E-1,4.041343927E-1
6.842192780E-1,4.921517968E-1,7.924230099E-1,4.062649310E-1
6.867068820E-1,5.060002208E-1,7.998798490E-1,4.073301852E-1
6.891944870E-1,5.198486447E-1,8.052061796E-1,4.073301852E-1
6.916820910E-1,5.336970687E-1,8.084019423E-1,4.073301852E-1
6.941696950E-1,5.475454926E-1,8.105324507E-1,4.062649310E-1
6.966572990E-1,5.603286624E-1,8.094671965E-1,4.051996469E-1
6.991449030E-1,5.731118321E-1,8.084019423E-1,4.020038545E-1
7.016325070E-1,5.837644935E-1,8.041408658E-1,3.988080621E-1
7.041201120E-1,5.933518410E-1,8.009451032E-1,3.924165070E-1
7.066077160E-1,6.008086801E-1,7.956187725E-1,3.860249221E-1
7.090953200E-1,6.061350107E-1,7.902924418E-1,3.785680532E-1
7.115829240E-1,6.103960872E-1,7.839008570E-1,3.711112142E-1
7.140705280E-1,6.125265956E-1,7.764440179E-1,3.625891209E-1
7.165581320E-1,6.146571040E-1,7.668566704E-1,3.540669978E-1
7.190457370E-1,6.146571040E-1,7.583345771E-1,3.466101587E-1
7.215333410E-1,6.135918498E-1,7.487471700E-1,3.391533196E-1
7.240209450E-1,6.125265956E-1,7.380945683E-1,3.316964805E-1
7.265085490E-1,6.093307734E-1,7.285071611E-1,3.253048956E-1
7.289961530E-1,6.061350107E-1,7.189198136E-1,3.210438192E-1
7.314837050E-1,6.008086801E-1,7.103977203E-1,3.178480268E-1
7.339712570E-1,5.954823494E-1,7.029408216E-1,3.157175183E-1
7.364588090E-1,5.901560783E-1,6.965492368E-1,3.146522343E-1
7.389463620E-1,5.826992393E-1,6.901576519E-1,3.146522343E-1
7.414339140E-1,5.763076544E-1,6.837661266E-1,3.146522343E-1
7.439214660E-1,5.688507557E-1,6.773745418E-1,3.167827725E-1
7.464090180E-1,5.603286624E-1,6.699176431E-1,3.189133108E-1
7.488965700E-1,5.507413149E-1,6.613955498E-1,3.210438192E-1
7.513841220E-1,5.422192216E-1,6.528734565E-1,3.231743574E-1
7.538716740E-1,5.326318145E-1,6.432861090E-1,3.253048956E-1
7.563592260E-1,5.219792128E-1,6.315681934E-1,3.274354041E-1
7.588467780E-1,5.102612972E-1,6.198502779E-1,3.285006881E-1
7.613343300E-1,4.974781275E-1,6.060018539E-1,3.295659423E-1
7.638218820E-1,4.846949577E-1,5.932186842E-1,3.306311965E-1
7.663094340E-1,4.708465338E-1,5.793702602E-1,3.316964805E-1
7.687969870E-1,4.580633640E-1,5.665870905E-1,3.327617347E-1
7.712845390E-1,4.474107325E-1,5.538039207E-1,3.327617347E-1
7.737720910E-1,4.367581010E-1,5.399554968E-1,3.338269889E-1
7.762596430E-1,4.271707237E-1,5.271723270E-1,3.327617347E-1
7.787471950E-1,4.207791388E-1,5.154544711E-1,3.316964805E-1
7.812347470E-1,4.175833464E-1,5.048018098E-1,3.295659423E-1
7.837222990E-1,4.165180922E-1,4.962796867E-1,3.274354041E-1
7.862098510E-1,4.175833464E-1,4.898881316E-1,3.242396116E-1
7.886974030E-1,4.218443930E-1,4.866923392E-1,3.199785650E-1
7.911849550E-1,4.271707237E-1,4.866923392E-1,3.146522343E-1
7.936725070E-1,4.356928170E-1,4.888228476E-1,3.093259335E-1
7.961600590E-1,4.452801943E-1,4.941491783E-1,3.029343486E-1
7.986476120E-1,4.559328258E-1,5.016059875E-1,2.954775095E-1
8.011351640E-1,4.676507413E-1,5.111933947E-1,2.890859246E-1
8.036227160E-1,4.772381186E-1,5.207807422E-1,2.837595940E-1
8.061102680E-1,4.868254960E-1,5.303681493E-1,2.773680091E-1
8.085978200E-1,4.953475893E-1,5.399554968E-1,2.720417082E-1
8.110853720E-1,5.028044581E-1,5.484775901E-1,2.699111700E-1
8.135729240E-1,5.081307292E-1,5.559344888E-1,2.677806616E-1
8.160604760E-1,5.123918056E-1,5.612607598E-1,2.656501234E-1
8.185480280E-1,5.155876279E-1,5.633913279E-1,2.656501234E-1
8.210355800E-1,5.177181363E-1,5.644565821E-1,2.667153776E-1
8.235231320E-1,5.155876279E-1,5.633913279E-1,2.677806616E-1
8.260106840E-1,5.134570599E-1,5.612607598E-1,2.709764242E-1
8.284982370E-1,5.091960430E-1,5.591302514E-1,2.752375007E-1
8.309857890E-1,5.028044581E-1,5.559344888E-1,2.794985473E-1
8.334733930E-1,4.964128435E-1,5.527386665E-1,2.848248780E-1
8.359609970E-1,4.878907502E-1,5.484775901E-1,2.901511788E-1
8.384486010E-1,4.793686271E-1,5.442165732E-1,2.954775095E-1
8.409362050E-1,4.719117880E-1,5.399554968E-1,3.008038104E-1
8.434238090E-1,4.644549489E-1,5.356944799E-1,3.061301410E-1
8.459114140E-1,4.559328258E-1,5.335639119E-1,3.114564717E-1
8.483990180E-1,4.484759867E-1,5.314334035E-1,3.167827725E-1
8.508866220E-1,4.420844018E-1,5.303681493E-1,3.221091032E-1
8.533742260E-1,4.356928170E-1,5.303681493E-1,3.274354041E-1
8.558618300E-1,4.293012619E-1,5.303681493E-1,3.327617347E-1
8.583494340E-1,4.239749312E-1,5.303681493E-1,3.370227814E-1
8.608370390E-1,4.186486006E-1,5.303681493E-1,3.412838280E-1
8.633246430E-1,4.122570157E-1,5.282375813E-1,3.444796205E-1
8.658122470E-1,4.069307148E-1,5.250418186E-1,3.466101587E-1
8.682998510E-1,4.005391300E-1,5.186502337E-1,3.487406969E-1
8.707874550E-1,3.930822909E-1,5.101281404E-1,3.508712053E-1
8.732750590E-1,3.856254518E-1,5.016059875E-1,3.519364893E-1
8.757626640E-1,3.771033287E-1,4.930838943E-1,3.530017436E-1
8.782502680E-1,3.675159514E-1,4.824312627E-1,3.530017436E-1
8.807378720E-1,3.579285741E-1,4.728438854E-1,3.508712053E-1
8.832254760E-1,3.462106884E-1,4.621912539E-1,3.487406969E-1
8.857130800E-1,3.334275186E-1,4.504733682E-1,3.455449045E-1
8.882006840E-1,3.174485564E-1,4.376901984E-1,3.412838280E-1
8.906882890E-1,3.004043400E-1,4.259723127E-1,3.359575272E-1
8.931758930E-1,2.822948694E-1,4.142543972E-1,3.316964805E-1
8.956634970E-1,2.609896064E-1,4.014712274E-1,3.253048956E-1
8.981511010E-1,2.396843135E-1,3.876228034E-1,3.199785650E-1
9.006387050E-1,2.162485123E-1,3.727091253E-1,3.135869801E-1
9.031263090E-1,1.928127259E-1,3.577954173E-1,3.071953952E-1
9.056139140E-1,1.672463864E-1,3.418164849E-1,3.018690944E-1
9.081015180E-1,1.427453309E-1,3.247722387E-1,2.954775095E-1
9.105891220E-1,1.193095297E-1,3.066627681E-1,2.901511788E-1
9.130767260E-1,9.693899006E-2,2.896185517E-1,2.848248780E-1
9.155643300E-1,7.563371956E-2,2.736395895E-1,2.794985473E-1
9.180519340E-1,5.645897239E-2,2.587259114E-1,2.741722167E-1
9.205395390E-1,3.941475600E-2,2.448774725E-1,2.709764242E-1
9.230271430E-1,2.556632832E-2,2.342248410E-1,2.667153776E-1
9.255147470E-1,1.491369121E-2,2.235722095E-1,2.635195851E-1
9.280023510E-1,6.391582079E-3,2.139848322E-1,2.613890767E-1
9.304899550E-1,1.065263641E-3,2.054627240E-1,2.592585385E-1
9.329775590E-1,-2.130527282E-3,1.980058849E-1,2.581932843E-1
9.354651640E-1,-2.130527282E-3,1.916143000E-1,2.571280003E-1
9.379527680E-1,1.065263641E-3,1.852227151E-1,2.571280003E-1
9.404403720E-1,7.456845604E-3,1.788311303E-1,2.581932843E-1
9.429279760E-1,1.491369121E-2,1.735048145E-1,2.613890767E-1
9.454155800E-1,2.343579940E-2,1.660479754E-1,2.656501234E-1
9.479031840E-1,3.408843651E-2,1.596563905E-1,2.699111700E-1
9.503907890E-1,4.580633715E-2,1.511342824E-1,2.763027549E-1
9.528783930E-1,5.752423778E-2,1.436774284E-1,2.826943398E-1
9.553659970E-1,7.030740380E-2,1.362205893E-1,2.901511788E-1
9.578536010E-1,8.415582776E-2,1.287637353E-1,2.986733019E-1
9.603412050E-1,9.800425172E-2,1.202416345E-1,3.071953952E-1
9.628288090E-1,1.118526831E-1,1.117195264E-1,3.157175183E-1
9.653164140E-1,1.257011145E-1,1.042626798E-1,3.253048956E-1
9.678040180E-1,1.395495385E-1,9.467530251E-2,3.348922431E-1
9.702916220E-1,1.533979625E-1,8.508793265E-2,3.434143662E-1
9.727799550E-1,1.672463864E-1,7.337003201E-2,3.498059511E-1
9.752669870E-1,1.800295562E-1,6.271740049E-2,3.561975360E-1
9.777540180E-1,1.928127259E-1,5.099949613E-2,3.604585826E-1
9.802410490E-1,2.066611499E-1,4.247738793E-2,3.625891209E-1
9.827281320E-1,2.183790505E-1,3.395527974E-2,3.625891209E-1
9.852152680E-1,2.311622053E-1,2.756369673E-2,3.625891209E-1
9.877024550E-1,2.428801060E-1,2.223737910E-2,3.604585826E-1
9.901897470E-1,2.535327375E-1,1.904158667E-2,3.572627902E-1
9.926771430E-1,2.641853690E-1,1.691105962E-2,3.540669978E-1
9.951646430E-1,2.737727463E-1,1.584579609E-2,3.487406969E-1
9.976522470E-1,2.822948694E-1,1.691105962E-2,3.444796205E-1
1.000139955E0,2.897517085E-1,1.904158667E-2,3.391533196E-1
1.002627768E0,2.950780392E-1,2.117211558E-2,3.338269889E-1
1.005115632E0,2.993390858E-1,2.543316968E-2,3.295659423E-1
1.007603549E0,3.036001325E-1,3.075948730E-2,3.231743574E-1
1.010091518E0,3.046653867E-1,3.608580679E-2,3.189133108E-1
1.012579539E0,3.057306707E-1,4.141212255E-2,3.135869801E-1
1.015067559E0,3.057306707E-1,4.780370742E-2,3.093259335E-1
1.017555580E0,3.036001325E-1,5.419528857E-2,3.061301410E-1
1.020043549E0,2.993390858E-1,6.058686972E-2,3.018690944E-1
1.022531153E0,2.929475009E-1,6.591318548E-2,2.986733019E-1
1.025018757E0,2.854906619E-1,7.123950869E-2,2.954775095E-1
1.027506309E0,2.748380303E-1,7.443529367E-2,2.922817171E-1
1.029993862E0,2.641853690E-1,7.763108611E-2,2.890859246E-1
1.032481414E0,2.524674833E-1,7.976161689E-2,2.858901322E-1
1.034968966E0,2.396843135E-1,8.189214021E-2,2.837595940E-1
1.037456518E0,2.258358896E-1,8.189214021E-2,2.805638015E-1
1.039944070E0,2.109221965E-1,7.976161689E-2,2.784332931E-1
1.042431622E0,1.970737725E-1,7.763108611E-2,2.773680091E-1
1.044919174E0,1.810948253E-1,7.337003201E-2,2.763027549E-1
1.047406726E0,1.661811322E-1,6.804371625E-2,2.752375007E-1
1.049894278E0,1.512674391E-1,6.058686972E-2,2.752375007E-1
1.052381830E0,1.374190152E-1,5.313002318E-2,2.752375007E-1
1.054869382E0,1.235705838E-1,4.567318037E-2,2.773680091E-1
1.057356934E0,1.118526831E-1,3.715106845E-2,2.773680091E-1
1.059844487E0,1.012000442E-1,2.969422378E-2,2.773680091E-1
1.062332039E0,9.054741263E-2,2.117211558E-2,2.784332931E-1
1.064819591E0,8.309056610E-2,1.265000552E-2,2.784332931E-1
1.067307143E0,7.669898123E-2,4.127896391E-3,2.794985473E-1
1.069794695E0,7.350318879E-2,-3.328948980E-3,2.816290855E-1
1.072282247E0,7.350318879E-2,-1.078579482E-2,2.826943398E-1
1.074769799E0,7.350318879E-2,-1.717737690E-2,2.858901322E-1
1.077257351E0,7.669898123E-2,-2.356895804E-2,2.880206704E-1
1.079744903E0,8.202529699E-2,-2.996053919E-2,2.901511788E-1
1.082232455E0,8.841688186E-2,-3.635212034E-2,2.922817171E-1
1.084720007E0,9.587372839E-2,-4.274370521E-2,2.944122255E-1
1.087207559E0,1.043958366E-1,-5.020054802E-2,2.954775095E-1
1.089695112E0,1.139832065E-1,-5.872265995E-2,2.954775095E-1
1.092182664E0,1.235705838E-1,-6.617950648E-2,2.965427637E-1
1.094670216E0,1.342232227E-1,-7.470161468E-2,2.954775095E-1
1.097157768E0,1.438105851E-1,-8.322372288E-2,2.944122255E-1
1.099645320E0,1.523326933E-1,-9.068056941E-2,2.912164330E-1
1.102132872E0,1.597895473E-1,-9.813741595E-2,2.890859246E-1
1.104620424E0,1.672463864E-1,-1.055942550E-1,2.848248780E-1
1.107107976E0,1.725727171E-1,-1.109205782E-1,2.816290855E-1
1.109595528E0,1.768337637E-1,-1.162468940E-1,2.763027549E-1
1.112083080E0,1.800295562E-1,-1.205079481E-1,2.709764242E-1
1.114570632E0,1.821600795E-1,-1.237037405E-1,2.667153776E-1
1.117058237E0,1.842906028E-1,-1.268995255E-1,2.603237927E-1
1.119545841E0,1.842906028E-1,-1.279647946E-1,2.528669536E-1
1.122033445E0,1.842906028E-1,-1.279647946E-1,2.464753687E-1
1.124521049E0,1.810948253E-1,-1.279647946E-1,2.400837988E-1
1.127008653E0,1.800295562E-1,-1.268995255E-1,2.358227372E-1
1.129496257E0,1.768337637E-1,-1.247690022E-1,2.315616906E-1
1.131983862E0,1.715074480E-1,-1.215732098E-1,2.294311523E-1
1.134471466E0,1.672463864E-1,-1.162468940E-1,2.294311523E-1
1.136959070E0,1.629853398E-1,-1.098553166E-1,2.294311523E-1
1.139446674E0,1.576590240E-1,-1.013332009E-1,2.304964215E-1
1.141934278E0,1.512674391E-1,-8.855003864E-2,2.326269448E-1
1.144421882E0,1.459411234E-1,-7.576687634E-2,2.358227372E-1
1.146909487E0,1.406148076E-1,-6.085318699E-2,2.390185297E-1
1.149397091E0,1.363537461E-1,-4.487423226E-2,2.432795912E-1
1.151884695E0,1.342232227E-1,-2.889527567E-2,2.464753687E-1
1.154372299E0,1.320926845E-1,-1.398158539E-2,2.496711612E-1
1.156859903E0,1.310274303E-1,9.321057005E-4,2.549974918E-1
1.159347507E0,1.288969070E-1,1.478053257E-2,2.603237927E-1
1.161835112E0,1.267663687E-1,2.756369673E-2,2.645848691E-1
1.164322716E0,1.257011145E-1,3.821633384E-2,2.699111700E-1
1.166810320E0,1.246358454E-1,4.886896908E-2,2.741722167E-1
1.169297924E0,1.246358454E-1,5.845634267E-2,2.784332931E-1
1.171785528E0,1.246358454E-1,6.697845459E-2,2.816290855E-1
1.174273132E0,1.257011145E-1,7.337003201E-2,2.837595940E-1
1.176760737E0,1.278316379E-1,7.869634777E-2,2.848248780E-1
1.179248341E0,1.299621612E-1,8.189214021E-2,2.858901322E-1
1.181735945E0,1.331579536E-1,8.295740932E-2,2.858901322E-1
1.184223549E0,1.374190152E-1,8.295740932E-2,2.837595940E-1
1.186711153E0,1.406148076E-1,8.295740932E-2,2.816290855E-1
1.189198757E0,1.427453309E-1,8.082687855E-2,2.763027549E-1
1.191686362E0,1.459411234E-1,7.763108611E-2,2.709764242E-1
1.194173966E0,1.459411234E-1,7.443529367E-2,2.624543309E-1
1.196661570E0,1.470063776E-1,7.230477035E-2,2.539322078E-1
1.199149174E0,1.459411234E-1,6.910897791E-2,2.443448454E-1
1.201636778E0,1.438105851E-1,6.697845459E-2,2.336922139E-1
1.204124382E0,1.395495385E-1,6.591318548E-2,2.219743133E-1
1.206611987E0,1.342232227E-1,6.484792382E-2,2.081258893E-1
1.209099591E0,1.278316379E-1,6.378266215E-2,1.921469271E-1
1.211587195E0,1.182442605E-1,6.271740049E-2,1.751027107E-1
1.214074799E0,1.075916290E-1,6.271740049E-2,1.569932252E-1
1.216562403E0,9.587372839E-2,6.378266215E-2,1.388837546E-1
1.219050007E0,8.202529699E-2,6.591318548E-2,1.197090000E-1
1.221537612E0,6.817687303E-2,6.591318548E-2,9.946899116E-2
1.224025216E0,5.326318368E-2,6.697845459E-2,8.029424399E-2
1.226512820E0,3.834949061E-2,6.804371625E-2,6.325002760E-2
1.229000424E0,2.237053588E-2,6.804371625E-2,4.727107286E-2
1.231488028E0,5.326318089E-3,6.910897791E-2,3.129211813E-2
1.233975632E0,-1.171789970E-2,7.017423958E-2,1.744369231E-2
1.236463237E0,-2.876211889E-2,7.017423958E-2,6.791055668E-3
1.238950841E0,-4.580633715E-2,7.017423958E-2,-2.796316985E-3
1.241438445E0,-6.285055727E-2,6.910897791E-2,-1.025316212E-2
1.243926049E0,-7.882951200E-2,6.910897791E-2,-1.557948068E-2
1.246413653E0,-9.374319762E-2,6.697845459E-2,-1.877527125E-2
1.248901257E0,-1.075916290E-1,6.484792382E-2,-1.984053478E-2
1.251388862E0,-1.193095297E-1,6.271740049E-2,-1.984053478E-2
1.253876466E0,-1.288969070E-1,6.165213138E-2,-1.877527125E-2
1.256364070E0,-1.363537461E-1,6.058686972E-2,-1.451421715E-2
1.258851674E0,-1.406148076E-1,6.165213138E-2,-1.025316212E-2
1.261339278E0,-1.427453309E-1,6.378266215E-2,-2.796316985E-3
1.263826882E0,-1.427453309E-1,6.804371625E-2,3.595264861E-3
1.266314487E0,-1.406148076E-1,7.230477035E-2,1.211737376E-2
1.268802091E0,-1.363537461E-1,7.656582445E-2,2.170474641E-2
1.271289695E0,-1.299621612E-1,8.189214021E-2,3.022685647E-2
1.273777299E0,-1.225053221E-1,8.615319431E-2,3.981423005E-2
1.276264903E0,-1.129179448E-1,9.041424841E-2,4.940159991E-2
1.278752507E0,-1.012000442E-1,9.467530251E-2,5.792371184E-2
1.281240112E0,-8.841688186E-2,1.000016257E-1,6.751108170E-2
1.283727716E0,-7.456845790E-2,1.053279415E-1,7.603318989E-2
1.286215320E0,-6.072002649E-2,1.106542572E-1,8.455529809E-2
1.288702924E0,-4.580633715E-2,1.170458421E-1,9.201214463E-2
1.291190528E0,-2.982738242E-2,1.223721579E-1,9.840372950E-2
1.293678132E0,-1.491369121E-2,1.287637353E-1,1.037300453E-1
1.296165737E0,-1.065263641E-3,1.351553202E-1,1.079910994E-1
1.298653341E0,1.278316416E-2,1.404816359E-1,1.111868918E-1
1.301140945E0,2.343579940E-2,1.458079666E-1,1.133174226E-1
1.303628549E0,3.302317113E-2,1.511342824E-1,1.154479459E-1
1.306116153E0,4.048001766E-2,1.543300748E-1,1.165132076E-1
1.308603757E0,4.687159881E-2,1.575258672E-1,1.175784767E-1
1.311091362E0,5.113265663E-2,1.596563905E-1,1.175784767E-1
1.313578966E0,5.326318368E-2,1.607216448E-1,1.154479459E-1
1.316066570E0,5.432844535E-2,1.607216448E-1,1.133174226E-1
1.318554174E0,5.432844535E-2,1.607216448E-1,1.090563685E-1
1.321041778E0,5.113265663E-2,1.607216448E-1,1.037300453E-1
1.323529382E0,4.687159881E-2,1.585911214E-1,9.733846784E-2
1.326016987E0,4.048001766E-2,1.564605981E-1,9.094688296E-2
1.328504591E0,3.302317113E-2,1.521995366E-1,8.349003643E-2
1.330992195E0,2.343579940E-2,1.468732208E-1,7.603318989E-2
1.333479799E0,1.278316416E-2,1.383511126E-1,6.857634336E-2
1.335967351E0,1.065263641E-3,1.319595277E-1,6.005423889E-2
1.338454903E0,-1.278316416E-2,1.234374270E-1,5.153212696E-2
1.340942455E0,-2.663159184E-2,1.138500497E-1,4.194475710E-2
1.343430007E0,-4.154528305E-2,1.042626798E-1,3.235738352E-2
1.345917559E0,-5.645897239E-2,9.361004084E-2,2.277000993E-2
1.348405112E0,-7.137266546E-2,8.189214021E-2,1.318263728E-2
1.350892664E0,-8.522108942E-2,7.017423958E-2,3.595264861E-3
1.353380216E0,-9.800425172E-2,5.739107728E-2,-5.992108025E-3
1.355867768E0,-1.097221524E-1,4.354264960E-2,-1.451421715E-2
1.358355320E0,-1.193095297E-1,3.075948730E-2,-2.197106183E-2
1.360842872E0,-1.267663687E-1,1.797632314E-2,-2.942790836E-2
1.363330424E0,-1.310274303E-1,5.193160381E-3,-3.581948951E-2
1.365817976E0,-1.352884769E-1,-4.394212738E-3,-4.008054361E-2
1.368305528E0,-1.363537461E-1,-1.504684892E-2,-4.221107066E-2
1.370793080E0,-1.363537461E-1,-2.250369452E-2,-4.327633604E-2
1.373280632E0,-1.342232227E-1,-2.889527567E-2,-4.221107066E-2
1.375768184E0,-1.310274303E-1,-3.422159329E-2,-4.008054361E-2
1.378255737E0,-1.267663687E-1,-3.741738573E-2,-3.581948951E-2
1.380743289E0,-1.214400530E-1,-3.954791278E-2,-2.942790836E-2
1.383230841E0,-1.150484756E-1,-4.061317816E-2,-2.090579830E-2
1.385718393E0,-1.075916290E-1,-3.954791278E-2,-1.025316212E-2
1.388205945E0,-1.001347825E-1,-3.848264739E-2,1.464737463E-3
1.390693497E0,-9.054741263E-2,-3.741738573E-2,1.531316526E-2
1.393181049E0,-8.096003532E-2,-3.422159329E-2,3.022685647E-2
1.395668601E0,-7.030740380E-2,-2.996053919E-2,4.727107286E-2
1.398156153E0,-5.965476483E-2,-2.463422157E-2,6.431528926E-2
1.400643705E0,-4.900212586E-2,-1.824264042E-2,8.135951310E-2
1.403131257E0,-3.941475600E-2,-1.185105834E-2,1.005342528E-1
1.405618809E0,-2.982738242E-2,-3.328948980E-3,1.165132076E-1
1.408106362E0,-2.024000883E-2,4.127896391E-3,1.335574239E-1
1.410593914E0,-1.065263618E-2,1.051947847E-2,1.484711170E-1
1.413081466E0,-2.130527282E-3,1.797632314E-2,1.623195410E-1
1.415569070E0,6.391582079E-3,2.330264263E-2,1.740374416E-1
1.418056674E0,1.278316416E-2,2.862896025E-2,1.836248189E-1
1.420544278E0,2.130527236E-2,3.182475269E-2,1.921469271E-1
1.423031882E0,2.663159184E-2,3.395527974E-2,1.985385120E-1
1.425519487E0,3.195790946E-2,3.502054140E-2,2.038648278E-1
1.428007091E0,3.515370190E-2,3.608580679E-2,2.070606202E-1
1.430494695E0,3.834949061E-2,3.608580679E-2,2.091911435E-1
1.432982924E0,3.941475600E-2,3.395527974E-2,2.091911435E-1
1.435471049E0,3.941475600E-2,3.289001435E-2,2.091911435E-1
1.437958653E0,3.834949061E-2,3.075948730E-2,2.049300969E-1
1.440446257E0,3.515370190E-2,2.862896025E-2,2.017343044E-1
1.442933862E0,3.089264594E-2,2.756369673E-2,1.964079887E-1
1.445421414E0,2.450106293E-2,2.649843320E-2,1.889511347E-1
1.447908966E0,1.704421826E-2,2.543316968E-2,1.804290265E-1
1.450396518E0,8.522109129E-3,2.436790615E-2,1.697763950E-1
1.452884070E0,-2.130527282E-3,2.543316968E-2,1.580584943E-1
1.455371622E0,-1.278316416E-2,2.543316968E-2,1.452753246E-1
1.457859174E0,-2.450106293E-2,2.649843320E-2,1.303616315E-1
1.460346726E0,-3.728422895E-2,2.543316968E-2,1.154479459E-1
1.462834278E0,-5.113265663E-2,2.436790615E-2,9.946899116E-2
1.465321830E0,-6.391581893E-2,2.223737910E-2,8.242477477E-2
1.467809382E0,-7.776424289E-2,1.904158667E-2,6.431528926E-2
1.470296934E0,-9.161267430E-2,1.478053257E-2,4.727107286E-2
1.472785112E0,-1.065263674E-1,9.454214945E-3,2.916159295E-2
1.475272559E0,-1.203747913E-1,3.062632866E-3,1.211737376E-2
1.477760007E0,-1.352884769E-1,-3.328948980E-3,-3.861580743E-3
1.480247455E0,-1.491369158E-1,-1.078579482E-2,-1.877527125E-2
1.482734903E0,-1.619200706E-1,-1.930790395E-2,-3.368896246E-2
1.485222351E0,-1.747032404E-1,-2.783001214E-2,-4.540686309E-2
1.487709799E0,-1.853558719E-1,-3.741738573E-2,-5.712476373E-2
1.490197247E0,-1.970737725E-1,-4.593949392E-2,-6.671213359E-2
1.492684695E0,-2.055958807E-1,-5.446160212E-2,-7.416898012E-2
1.495172143E0,-2.141179889E-1,-6.191844866E-2,-7.949529588E-2
1.497659643E0,-2.194443047E-1,-6.831002980E-2,-8.162582666E-2
1.500147195E0,-2.247706354E-1,-7.470161468E-2,-8.162582666E-2
1.502634799E0,-2.279664129E-1,-7.896266878E-2,-7.949529588E-2
1.505122403E0,-2.311622053E-1,-8.109319210E-2,-7.629951090E-2
1.507610007E0,-2.332927436E-1,-8.215846121E-2,-7.203845680E-2
1.510097612E0,-2.354232669E-1,-8.322372288E-2,-6.777740270E-2
1.512585216E0,-2.375537902E-1,-8.428898454E-2,-6.245107949E-2
1.515072820E0,-2.396843135E-1,-8.641951531E-2,-5.712476373E-2
1.517560424E0,-2.439453751E-1,-8.855003864E-2,-5.179844424E-2
1.520048028E0,-2.503369451E-1,-9.174583107E-2,-4.647212476E-2
1.522535632E0,-2.567285299E-1,-9.600688517E-2,-4.327633604E-2
1.525023237E0,-2.663159072E-1,-9.920267761E-2,-4.114580899E-2
1.527510841E0,-2.780338228E-1,-1.045289934E-1,-4.114580899E-2
1.529998445E0,-2.929475009E-1,-1.109205782E-1,-4.434159771E-2
1.532486049E0,-3.121222556E-1,-1.194426864E-1,-5.073318258E-2
1.534973653E0,-3.355580568E-1,-1.300953180E-1,-6.138581783E-2
1.537461257E0,-3.643201590E-1,-1.450090110E-1,-7.736477256E-2
1.539948862E0,-3.984085917E-1,-1.609879732E-1,-9.653951973E-2
1.542436466E0,-4.367581010E-1,-1.812279820E-1,-1.199753210E-1
1.544924070E0,-4.804339111E-1,-2.057290375E-1,-1.498026997E-1
1.547411674E0,-5.283707380E-1,-2.323606312E-1,-1.838911325E-1
1.549899278E0,-5.805686712E-1,-2.579269707E-1,-2.201101035E-1
1.552386882E0,-6.380929351E-1,-2.856238186E-1,-2.605901062E-1
1.554874487E0,-6.977477074E-1,-3.101248741E-1,-3.053312004E-1
1.557362091E0,-7.584677339E-1,-3.335606754E-1,-3.500722647E-1
1.559849695E0,-8.202530146E-1,-3.516701460E-1,-3.958786130E-1
1.562337299E0,-8.799077868E-1,-3.676491082E-1,-4.427502155E-1
1.564824903E0,-9.374319911E-1,-3.793670237E-1,-4.885565341E-1
1.567312507E0,-9.917604327E-1,-3.857586086E-1,-5.322323442E-1
1.569800112E0,-1.041827798E0,-3.878891170E-1,-5.727123618E-1
1.572287716E0,-1.085503697E0,-3.857586086E-1,-6.099966168E-1
1.574775320E0,-1.123853087E0,-3.793670237E-1,-6.430197358E-1
1.577262924E0,-1.152615309E0,-3.697796464E-1,-6.717818975E-1
1.579750528E0,-1.174985766E0,-3.559312224E-1,-6.941524148E-1
1.582238132E0,-1.188834190E0,-3.378217220E-1,-7.111966610E-1
1.584725737E0,-1.192030072E0,-3.175817132E-1,-7.229145169E-1
1.587213341E0,-1.188834190E0,-2.930806577E-1,-7.282408476E-1
1.589700945E0,-1.174985766E0,-2.685796022E-1,-7.293061018E-1
1.592188549E0,-1.153680563E0,-2.419480085E-1,-7.250450850E-1
1.594676153E0,-1.124918461E0,-2.142511457E-1,-7.154576778E-1
1.597163757E0,-1.088699460E0,-1.854890287E-1,-7.026745081E-1
1.599651362E0,-1.045023680E0,-1.567269117E-1,-6.856303215E-1
1.602138966E0,-9.949562550E-1,-1.279647946E-1,-6.643250585E-1
1.604626570E0,-9.395625591E-1,-9.707214683E-2,-6.398239732E-1
1.607114174E0,-8.799077868E-1,-6.617950648E-2,-6.099966168E-1
1.609601778E0,-8.170571923E-1,-3.528685868E-2,-5.780386925E-1
1.612089382E0,-7.520761490E-1,-6.524739787E-3,-5.439502597E-1
1.614576987E0,-6.860297918E-1,2.117211558E-2,-5.056007504E-1
1.617064591E0,-6.199834347E-1,4.673844203E-2,-4.672512710E-1
1.619552195E0,-5.550023317E-1,7.123950869E-2,-4.267712533E-1
1.622039799E0,-4.921517968E-1,9.361004084E-2,-3.852259517E-1
1.624527403E0,-4.314317703E-1,1.127847880E-1,-3.426154256E-1
1.627015007E0,-3.717769980E-1,1.287637353E-1,-2.989396155E-1
1.629502612E0,-3.174485564E-1,1.415469050E-1,-2.552638054E-1
1.631990216E0,-2.652506530E-1,1.521995366E-1,-2.115879953E-1
1.634477820E0,-2.162485123E-1,1.607216448E-1,-1.679121852E-1
1.636965424E0,-1.725727171E-1,1.671132296E-1,-1.263668984E-1
1.639453028E0,-1.310274303E-1,1.713742912E-1,-8.588688076E-2
1.641940632E0,-9.374319762E-2,1.745700836E-1,-4.753739014E-2
1.644428237E0,-5.965476483E-2,1.756353378E-1,-1.131842658E-2
1.646915841E0,-2.876211889E-2,1.756353378E-1,2.170474641E-2
1.649403445E0,0.000000000E0,1.745700836E-1,5.259739235E-2
1.651891049E0,2.663159184E-2,1.724395454E-1,8.135951310E-2
1.654378653E0,5.113265663E-2,1.692437679E-1,1.069258377E-1
1.656866257E0,7.456845790E-2,1.660479754E-1,1.314269006E-1
1.659353862E0,9.587372839E-2,1.596563905E-1,1.537974328E-1
1.661841466E0,1.161137372E-1,1.543300748E-1,1.719069183E-1
1.664329070E0,1.363537461E-1,1.490037590E-1,1.889511347E-1
1.666816674E0,1.555284858E-1,1.426121742E-1,2.049300969E-1
1.669304278E0,1.736379713E-1,1.372858584E-1,2.177132517E-1
1.671791882E0,1.928127259E-1,1.319595277E-1,2.283658981E-1
1.674279487E0,2.109221965E-1,1.266332120E-1,2.368880063E-1
1.676767091E0,2.300969511E-1,1.234374270E-1,2.422143221E-1
1.679254695E0,2.471411675E-1,1.202416345E-1,2.464753687E-1
1.681742299E0,2.620548606E-1,1.170458421E-1,2.464753687E-1
1.684229903E0,2.769685388E-1,1.149153188E-1,2.454101145E-1
1.686717507E0,2.897517085E-1,1.127847880E-1,2.422143221E-1
1.689205112E0,3.004043400E-1,1.095889956E-1,2.379532605E-1
1.691692716E0,3.078611791E-1,1.063932031E-1,2.304964215E-1
1.694180320E0,3.131875098E-1,1.021321490E-1,2.230395675E-1
1.696667924E0,3.153180480E-1,9.680583328E-2,2.134522051E-1
1.699155528E0,3.142527640E-1,9.147951752E-2,2.027995586E-1
1.701643132E0,3.089264631E-1,8.615319431E-2,1.910816729E-1
1.704130737E0,3.004043400E-1,7.976161689E-2,1.793637723E-1
1.706618341E0,2.886864543E-1,7.337003201E-2,1.665806025E-1
1.709105945E0,2.727074921E-1,6.697845459E-2,1.548627019E-1
1.711593549E0,2.535327375E-1,5.952160433E-2,1.431448013E-1
1.714081153E0,2.311622053E-1,5.313002318E-2,1.303616315E-1
1.716568757E0,2.055958807E-1,4.673844203E-2,1.197090000E-1
1.719056362E0,1.778990328E-1,4.141212255E-2,1.101216301E-1
1.721543966E0,1.480716467E-1,3.608580679E-2,9.946899116E-2
1.724031570E0,1.150484756E-1,3.289001435E-2,9.094688296E-2
1.726519174E0,8.202529699E-2,3.182475269E-2,8.242477477E-2
1.729006778E0,4.793686420E-2,2.969422378E-2,7.496792823E-2
1.731494382E0,1.278316416E-2,2.969422378E-2,6.857634336E-2
1.733981987E0,-2.130527236E-2,2.969422378E-2,6.431528926E-2
1.736469591E0,-5.752423778E-2,2.969422378E-2,6.005423889E-2
1.738957195E0,-9.161267430E-2,3.075948730E-2,5.685844645E-2
1.741444799E0,-1.257011145E-1,3.182475269E-2,5.579318479E-2
1.743932403E0,-1.587242782E-1,3.395527974E-2,5.472791940E-2
1.746420007E0,-1.906821877E-1,3.502054140E-2,5.366265774E-2
1.748907612E0,-2.205095738E-1,3.715106845E-2,5.472791940E-2
1.751395216E0,-2.471411675E-1,3.928159550E-2,5.579318479E-2
1.753882820E0,-2.716422379E-1,4.141212255E-2,5.792371184E-2
1.756370424E0,-2.929475009E-1,4.354264960E-2,6.005423889E-2
1.758858028E0,-3.110569715E-1,4.567318037E-2,6.218476593E-2
1.761345632E0,-3.249054253E-1,4.780370742E-2,6.538055837E-2
1.763833237E0,-3.366233110E-1,4.780370742E-2,6.964161247E-2
1.766320841E0,-3.451454341E-1,4.886896908E-2,7.283740491E-2
1.768808445E0,-3.504717350E-1,4.886896908E-2,7.709845901E-2
1.771296049E0,-3.515369892E-1,4.993423447E-2,8.029424399E-2
1.773783653E0,-3.494064808E-1,4.993423447E-2,8.455529809E-2
1.776271257E0,-3.430148959E-1,4.993423447E-2,8.988162130E-2
1.778758862E0,-3.344927728E-1,5.099949613E-2,9.627319872E-2
1.781246466E0,-3.227748871E-1,5.206476152E-2,1.005342528E-1
1.783734070E0,-3.078611791E-1,5.206476152E-2,1.069258377E-1
1.786221674E0,-2.918822467E-1,5.313002318E-2,1.122521535E-1
1.788709278E0,-2.748380303E-1,5.419528857E-2,1.175784767E-1
1.791196882E0,-2.556632757E-1,5.526055023E-2,1.229047924E-1
1.793684487E0,-2.354232669E-1,5.739107728E-2,1.292963773E-1
1.796172091E0,-2.151832581E-1,5.739107728E-2,1.356879622E-1
1.798659695E0,-1.928127259E-1,5.739107728E-2,1.410142779E-1
1.801147299E0,-1.715074480E-1,5.739107728E-2,1.474058628E-1
1.803634903E0,-1.502021700E-1,5.632581562E-2,1.537974328E-1
1.806122507E0,-1.299621612E-1,5.419528857E-2,1.591237634E-1
1.808610112E0,-1.097221524E-1,5.313002318E-2,1.644500792E-1
1.811097716E0,-9.054741263E-2,5.313002318E-2,1.687111259E-1
1.813585320E0,-7.243792713E-2,5.313002318E-2,1.729721874E-1
1.816072924E0,-5.645897239E-2,5.313002318E-2,1.761679798E-1
1.818560528E0,-4.048001766E-2,5.313002318E-2,1.793637723E-1
1.821048132E0,-2.556632832E-2,5.419528857E-2,1.814942956E-1
1.823535737E0,-1.171789970E-2,5.526055023E-2,1.825595498E-1
1.826023341E0,1.065263641E-3,5.526055023E-2,1.836248189E-1
1.828510945E0,1.278316416E-2,5.526055023E-2,1.836248189E-1
1.830998549E0,2.237053588E-2,5.632581562E-2,1.836248189E-1
1.833486153E0,2.982738242E-2,5.739107728E-2,1.825595498E-1
1.835973757E0,3.728422895E-2,5.845634267E-2,1.793637723E-1
1.838461362E0,4.048001766E-2,5.952160433E-2,1.751027107E-1
1.840948966E0,4.367581010E-2,6.058686972E-2,1.719069183E-1
1.843436570E0,4.367581010E-2,6.165213138E-2,1.665806025E-1
1.845924174E0,4.154528305E-2,6.165213138E-2,1.612542868E-1
1.848411778E0,3.621896356E-2,6.058686972E-2,1.548627019E-1
1.850899382E0,2.876211889E-2,5.952160433E-2,1.495363861E-1
1.853386987E0,1.810948178E-2,5.632581562E-2,1.431448013E-1
1.855874591E0,7.456845604E-3,5.206476152E-2,1.378184855E-1
1.858362195E0,-4.261054564E-3,4.673844203E-2,1.324921697E-1
1.860849799E0,-1.810948178E-2,4.034686089E-2,1.271658540E-1
1.863337403E0,-3.089264594E-2,3.395527974E-2,1.229047924E-1
1.865825007E0,-4.580633715E-2,2.756369673E-2,1.186437383E-1
1.868312612E0,-6.072002649E-2,2.117211558E-2,1.133174226E-1
1.870800216E0,-7.456845790E-2,1.584579609E-2,1.090563685E-1
1.873287820E0,-8.948214352E-2,1.158474199E-2,1.037300453E-1
1.875775424E0,-1.022653133E-1,8.388951421E-3,9.946899116E-2
1.878263028E0,-1.161137372E-1,6.258423906E-3,9.520793706E-2
1.880750632E0,-1.288969070E-1,4.127896391E-3,8.988162130E-2
1.883238237E0,-1.416800618E-1,1.997369342E-3,8.349003643E-2
1.885725841E0,-1.533979625E-1,9.321057005E-4,7.922898233E-2
1.888213445E0,-1.640505940E-1,-1.331579551E-4,7.390266657E-2
1.890701049E0,-1.736379713E-1,-1.198421582E-3,6.964161247E-2
1.893188653E0,-1.832253486E-1,-2.263685223E-3,6.431528926E-2
1.895676257E0,-1.928127259E-1,-4.394212738E-3,5.898897350E-2
1.898163862E0,-2.024000883E-1,-6.524739787E-3,5.366265774E-2
1.900651466E0,-2.130527347E-1,-1.078579482E-2,4.620581120E-2
1.903139070E0,-2.226400971E-1,-1.504684892E-2,3.981423005E-2
1.905626674E0,-2.343579978E-1,-2.037316747E-2,3.342264518E-2
1.908114278E0,-2.460758984E-1,-2.569948509E-2,2.703106403E-2
1.910601882E0,-2.567285299E-1,-3.209106624E-2,1.957421936E-2
1.913089487E0,-2.673811615E-1,-3.741738573E-2,1.424790081E-2
1.915577091E0,-2.769685388E-1,-4.380896688E-2,9.986846708E-3
1.918064695E0,-2.844253778E-1,-5.020054802E-2,5.725792143E-3
1.920552299E0,-2.897517085E-1,-5.659212917E-2,2.530001104E-3
1.923039903E0,-2.940127552E-1,-6.298371404E-2,-6.657897611E-4
1.925527507E0,-2.950780392E-1,-7.044056058E-2,-3.861580743E-3
1.928015112E0,-2.918822467E-1,-7.683213800E-2,-8.122635074E-3
1.930502716E0,-2.876211703E-1,-8.322372288E-2,-1.238369010E-2
1.932990684E0,-2.790990770E-1,-8.855003864E-2,-1.664474420E-2
1.935477924E0,-2.673811615E-1,-9.387636185E-2,-2.197106183E-2
1.937965164E0,-2.524674833E-1,-9.813741595E-2,-2.836264484E-2
1.940452403E0,-2.332927436E-1,-1.002679393E-1,-3.475422785E-2
1.942939643E0,-2.130527347E-1,-9.813741595E-2,-4.221107066E-2
1.945426934E0,-1.906821877E-1,-9.600688517E-2,-5.073318258E-2
1.947914278E0,-1.672463864E-1,-9.068056941E-2,-5.925529078E-2
1.950401674E0,-1.427453309E-1,-8.428898454E-2,-6.777740270E-2
1.952889122E0,-1.193095297E-1,-7.576687634E-2,-7.523424178E-2
1.955376622E0,-9.480846673E-2,-6.617950648E-2,-8.375635743E-2
1.957864174E0,-7.137266546E-2,-5.552686751E-2,-9.121319652E-2
1.960351778E0,-5.006739125E-2,-4.487423226E-2,-9.867004305E-2
1.962839434E0,-2.769685537E-2,-3.422159329E-2,-1.061268896E-1
1.965327143E0,-7.456845604E-3,-2.463422157E-2,-1.114532053E-1
1.967814903E0,1.065263618E-2,-1.504684892E-2,-1.167795286E-1
1.970302716E0,2.556632832E-2,-7.590003312E-3,-1.231711060E-1
1.972790789E0,3.834949061E-2,9.321057005E-4,-1.274321675E-1
1.975278862E0,4.793686420E-2,6.258423906E-3,-1.306279600E-1
1.977766934E0,5.432844535E-2,1.158474199E-2,-1.348890066E-1
1.980254695E0,5.858949944E-2,1.478053257E-2,-1.370195299E-1
1.982742299E0,5.858949944E-2,1.691105962E-2,-1.380847991E-1
1.985229903E0,5.752423778E-2,1.691105962E-2,-1.391500682E-1
1.987717507E0,5.432844535E-2,1.584579609E-2,-1.380847991E-1
1.990205112E0,5.006739125E-2,1.371526904E-2,-1.380847991E-1
1.992692716E0,4.367581010E-2,9.454214945E-3,-1.370195299E-1
1.995180320E0,3.728422895E-2,5.193160381E-3,-1.348890066E-1
1.997667924E0,3.089264594E-2,9.321057005E-4,-1.327584833E-1
2.000155528E0,2.450106293E-2,-4.394212738E-3,-1.306279600E-1
2.002643080E0,1.704421826E-2,-1.078579482E-2,-1.284974217E-1
2.005130632E0,1.065263618E-2,-1.504684892E-2,-1.274321675E-1
2.007618184E0,3.195791040E-3,-1.930790395E-2,-1.242363751E-1
2.010105737E0,-3.195791040E-3,-2.143843099E-2,-1.231711060E-1
2.012593289E0,-9.587372653E-3,-2.250369452E-2,-1.221058443E-1
2.015080841E0,-1.384842768E-2,-2.250369452E-2,-1.199753210E-1
2.017568393E0,-1.810948178E-2,-2.143843099E-2,-1.189100519E-1
2.020055945E0,-2.130527236E-2,-1.930790395E-2,-1.167795286E-1
2.022543497E0,-2.343579940E-2,-1.717737690E-2,-1.167795286E-1
2.025031049E0,-2.343579940E-2,-1.504684892E-2,-1.167795286E-1
2.027518601E0,-2.343579940E-2,-1.398158539E-2,-1.167795286E-1
2.030006153E0,-2.024000883E-2,-1.398158539E-2,-1.178447902E-1
2.032493705E0,-1.704421826E-2,-1.398158539E-2,-1.189100519E-1
2.034981257E0,-1.278316416E-2,-1.504684892E-2,-1.189100519E-1
2.037468809E0,-7.456845604E-3,-1.611211337E-2,-1.189100519E-1
2.039956362E0,-1.065263641E-3,-1.717737690E-2,-1.189100519E-1
2.042443914E0,6.391582079E-3,-1.930790395E-2,-1.178447902E-1
2.044931466E0,1.491369121E-2,-2.037316747E-2,-1.157142594E-1
2.047419018E0,2.343579940E-2,-2.143843099E-2,-1.146489978E-1
2.049906570E0,3.302317113E-2,-2.250369452E-2,-1.125184745E-1
2.052394122E0,4.580633715E-2,-2.250369452E-2,-1.103879437E-1
2.054881674E0,5.965476483E-2,-2.143843099E-2,-1.093226820E-1
2.057369226E0,7.456845790E-2,-1.930790395E-2,-1.071921512E-1
2.059856778E0,9.161267430E-2,-1.717737690E-2,-1.050616279E-1
2.062344330E0,1.097221524E-1,-1.504684892E-2,-1.029310971E-1
2.064831882E0,1.299621612E-1,-1.185105834E-2,-1.008005738E-1
2.067319487E0,1.502021700E-1,-8.655266836E-3,-9.867004305E-2
2.069807091E0,1.704421788E-1,-3.328948980E-3,-9.547425061E-2
2.072294695E0,1.906821877E-1,1.997369342E-3,-9.227846563E-2
2.074782299E0,2.109221965E-1,8.388951421E-3,-8.801741153E-2
2.077269903E0,2.290316820E-1,1.478053257E-2,-8.375635743E-2
2.079757507E0,2.450106442E-1,2.330264263E-2,-7.949529588E-2
2.082245112E0,2.588590682E-1,3.075948730E-2,-7.629951090E-2
2.084732716E0,2.705769539E-1,4.034686089E-2,-7.310371846E-2
2.087220320E0,2.780338228E-1,4.993423447E-2,-6.884266436E-2
2.089707924E0,2.812296152E-1,5.952160433E-2,-6.564687192E-2
2.092195528E0,2.822948694E-1,6.804371625E-2,-6.245107949E-2
2.094683132E0,2.769685388E-1,7.656582445E-2,-6.032055244E-2
2.097170737E0,2.684464455E-1,8.402267098E-2,-5.925529078E-2
2.099658341E0,2.556632757E-1,9.147951752E-2,-5.712476373E-2
2.102145945E0,2.375537902E-1,9.787109494E-2,-5.499423668E-2
2.104633549E0,2.162485123E-1,1.021321490E-1,-5.286370963E-2
2.107121153E0,1.917474568E-1,1.063932031E-1,-5.179844424E-2
2.109608757E0,1.640505940E-1,1.074584723E-1,-5.073318258E-2
2.112096362E0,1.342232227E-1,1.085237339E-1,-4.966791719E-2
2.114583966E0,1.022653133E-1,1.063932031E-1,-4.966791719E-2
2.117071570E0,7.137266546E-2,1.042626798E-1,-4.966791719E-2
2.119559174E0,4.048001766E-2,9.893636405E-2,-4.860265180E-2
2.122046778E0,9.587372653E-3,9.254477918E-2,-4.860265180E-2
2.124534382E0,-1.917474531E-2,8.508793265E-2,-4.860265180E-2
2.127021987E0,-4.580633715E-2,7.550056279E-2,-4.966791719E-2
2.129509591E0,-6.924213469E-2,6.378266215E-2,-5.179844424E-2
2.131997195E0,-8.948214352E-2,5.206476152E-2,-5.392897129E-2
2.134484799E0,-1.065263674E-1,3.928159550E-2,-5.712476373E-2
2.136972403E0,-1.182442605E-1,2.862896025E-2,-6.032055244E-2
2.139460007E0,-1.267663687E-1,1.691105962E-2,-6.564687192E-2
2.141947612E0,-1.310274303E-1,6.258423906E-3,-7.097318769E-2
2.144435216E0,-1.310274303E-1,-4.394212738E-3,-7.843003422E-2
2.146922820E0,-1.267663687E-1,-1.398158539E-2,-8.588688076E-2
2.149410424E0,-1.203747913E-1,-2.143843099E-2,-9.440898895E-2
2.151898028E0,-1.107874215E-1,-2.889527567E-2,-1.039963663E-1
2.154385632E0,-1.001347825E-1,-3.422159329E-2,-1.125184745E-1
2.156873237E0,-8.735162020E-2,-4.061317816E-2,-1.221058443E-1
2.159360841E0,-7.350318879E-2,-4.593949392E-2,-1.327584833E-1
2.161848445E0,-5.965476483E-2,-5.126581341E-2,-1.434111148E-1
2.164336049E0,-4.580633715E-2,-5.659212917E-2,-1.551290154E-1
2.166823653E0,-3.408843651E-2,-6.085318699E-2,-1.657816470E-1
2.169311257E0,-2.450106293E-2,-6.724476814E-2,-1.764342934E-1
2.171798862E0,-1.704421826E-2,-7.363634557E-2,-1.870869249E-1
2.174286466E0,-1.278316416E-2,-7.896266878E-2,-1.966743022E-1
2.176774070E0,-1.278316416E-2,-8.428898454E-2,-2.051964104E-1
2.179261674E0,-1.384842768E-2,-8.855003864E-2,-2.126532495E-1
2.181749278E0,-2.024000883E-2,-9.174583107E-2,-2.190448344E-1
2.184236882E0,-2.876211889E-2,-9.387636185E-2,-2.243711501E-1
2.186724487E0,-4.048001766E-2,-9.600688517E-2,-2.275669426E-1
2.189212091E0,-5.539371073E-2,-9.707214683E-2,-2.296974659E-1
2.191699695E0,-7.350318879E-2,-9.920267761E-2,-2.307627350E-1
2.194187299E0,-9.267793596E-2,-1.002679393E-1,-2.307627350E-1
2.196674903E0,-1.139832065E-1,-1.023984700E-1,-2.296974659E-1
2.199162507E0,-1.384842694E-1,-1.055942550E-1,-2.286322117E-1
2.201650112E0,-1.640505940E-1,-1.087900475E-1,-2.275669426E-1
2.204137716E0,-1.917474568E-1,-1.119858399E-1,-2.265016884E-1
2.206625320E0,-2.205095738E-1,-1.162468940E-1,-2.254364192E-1
2.209112924E0,-2.514022291E-1,-1.194426864E-1,-2.222406268E-1
2.211600528E0,-2.822948694E-1,-1.215732098E-1,-2.201101035E-1
2.214088132E0,-3.131875098E-1,-1.247690022E-1,-2.158490419E-1
2.216575737E0,-3.440801501E-1,-1.279647946E-1,-2.126532495E-1
2.219063341E0,-3.749727905E-1,-1.300953180E-1,-2.105227262E-1
2.221550945E0,-4.026696682E-1,-1.311605871E-1,-2.073269337E-1
2.224038549E0,-4.293012619E-1,-1.332911104E-1,-2.062616795E-1
2.226526153E0,-4.527370334E-1,-1.343563795E-1,-2.051964104E-1
2.229013757E0,-4.719117880E-1,-1.354216337E-1,-2.041311413E-1
2.231501362E0,-4.878907502E-1,-1.354216337E-1,-2.051964104E-1
2.233988966E0,-4.985433817E-1,-1.354216337E-1,-2.051964104E-1
2.236476570E0,-5.049349666E-1,-1.354216337E-1,-2.073269337E-1
2.238964174E0,-5.049349666E-1,-1.343563795E-1,-2.083922029E-1
2.241451778E0,-5.006738901E-1,-1.322258562E-1,-2.115879953E-1
2.243939382E0,-4.910865426E-1,-1.290300637E-1,-2.137185186E-1
2.246426987E0,-4.772381186E-1,-1.247690022E-1,-2.169143111E-1
2.248914591E0,-4.580633640E-1,-1.205079481E-1,-2.190448344E-1
2.251402195E0,-4.346275628E-1,-1.151816323E-1,-2.222406268E-1
2.253889799E0,-4.058654606E-1,-1.109205782E-1,-2.254364192E-1
2.256377403E0,-3.728422821E-1,-1.055942550E-1,-2.275669426E-1
2.258865007E0,-3.355580568E-1,-1.013332009E-1,-2.296974659E-1
2.261352612E0,-2.950780392E-1,-9.600688517E-2,-2.307627350E-1
2.263840216E0,-2.514022291E-1,-9.281109273E-2,-2.307627350E-1
2.266327820E0,-2.045306265E-1,-8.855003864E-2,-2.296974659E-1
2.268815424E0,-1.555284858E-1,-8.535424620E-2,-2.265016884E-1
2.271303028E0,-1.043958366E-1,-8.109319210E-2,-2.233058959E-1
2.273790632E0,-5.219791830E-2,-7.683213800E-2,-2.169143111E-1
2.276278237E0,2.130527282E-3,-7.257108390E-2,-2.105227262E-1
2.278765841E0,5.432844535E-2,-6.724476814E-2,-2.020006180E-1
2.281253445E0,1.054610983E-1,-6.298371404E-2,-1.945437789E-1
2.283741049E0,1.565937549E-1,-5.872265995E-2,-1.860216707E-1
2.286228653E0,2.055958807E-1,-5.339634046E-2,-1.774995476E-1
2.288716257E0,2.514022291E-1,-4.807002097E-2,-1.689774394E-1
2.291203862E0,2.950780392E-1,-4.274370521E-2,-1.604553312E-1
2.293691466E0,3.355580568E-1,-3.635212034E-2,-1.519332230E-1
2.296179070E0,3.717769980E-1,-3.102580272E-2,-1.434111148E-1
2.298666674E0,4.037349224E-1,-2.463422157E-2,-1.348890066E-1
2.301154278E0,4.314317703E-1,-1.930790395E-2,-1.263668984E-1
2.303641882E0,4.548675716E-1,-1.504684892E-2,-1.178447902E-1
2.306129487E0,4.751075804E-1,-1.078579482E-2,-1.093226820E-1
2.308617091E0,4.900212884E-1,-6.524739787E-3,-1.018658355E-1
2.311104695E0,5.017392039E-1,-3.328948980E-3,-9.440898895E-2
2.313592299E0,5.070654750E-1,9.321057005E-4,-8.695214242E-2
2.316079903E0,5.091960430E-1,5.193160381E-3,-8.056056499E-2
2.318567507E0,5.081307292E-1,1.051947847E-2,-7.523424178E-2
2.321055112E0,5.028044581E-1,1.797632314E-2,-7.097318769E-2
2.323542716E0,4.932170510E-1,2.649843320E-2,-6.564687192E-2
2.326030320E0,4.783033729E-1,3.928159550E-2,-6.032055244E-2
2.328517924E0,4.601939023E-1,5.313002318E-2,-5.605949834E-2
2.331005528E0,4.378233552E-1,7.123950869E-2,-5.073318258E-2
2.333493132E0,4.122570157E-1,9.041424841E-2,-4.540686309E-2
2.335980737E0,3.845601678E-1,1.106542572E-1,-3.901528195E-2
2.338468341E0,3.526022732E-1,1.330247968E-1,-3.262370080E-2
2.340955945E0,3.195790946E-1,1.543300748E-1,-2.516685426E-2
2.343443549E0,2.844253778E-1,1.756353378E-1,-1.771000773E-2
2.345931153E0,2.471411675E-1,1.980058849E-1,-1.025316212E-2
2.348418757E0,2.077264041E-1,2.182458937E-1,-1.731053460E-3
2.350906362E0,1.683116555E-1,2.374206334E-1,4.660528619E-3
2.353393966E0,1.288969070E-1,2.565953732E-1,9.986846708E-3
2.355881570E0,8.948214352E-2,2.736395895E-1,1.424790081E-2
2.358369174E0,5.006739125E-2,2.874880135E-1,1.744369231E-2
2.360856778E0,1.384842768E-2,2.992059290E-1,1.957421936E-2
2.363344382E0,-2.130527236E-2,3.098585606E-1,1.957421936E-2
2.365831987E0,-5.432844535E-2,3.162501454E-1,1.850895584E-2
2.368319591E0,-8.522108942E-2,3.205111921E-1,1.637842879E-2
2.370807195E0,-1.129179448E-1,3.226417303E-1,1.318263728E-2
2.373294799E0,-1.374190152E-1,3.237069845E-1,8.921583183E-3
2.375782403E0,-1.565937549E-1,3.237069845E-1,2.530001104E-3
2.378270007E0,-1.715074480E-1,3.237069845E-1,-3.861580743E-3
2.380757612E0,-1.832253486E-1,3.237069845E-1,-1.238369010E-2
2.383245216E0,-1.906821877E-1,3.237069845E-1,-2.090579830E-2
2.385732820E0,-1.949432492E-1,3.247722387E-1,-2.942790836E-2
2.388220424E0,-1.938779801E-1,3.258375227E-1,-3.795001656E-2
2.390708028E0,-1.885516644E-1,3.269027770E-1,-4.647212476E-2
2.393195632E0,-1.810948253E-1,3.290333152E-1,-5.499423668E-2
2.395683237E0,-1.704421788E-1,3.311638236E-1,-6.351634115E-2
2.398170841E0,-1.576590240E-1,3.332943618E-1,-7.097318769E-2
2.400658445E0,-1.416800618E-1,3.354249001E-1,-7.949529588E-2
2.403146049E0,-1.246358454E-1,3.375554085E-1,-8.588688076E-2
2.405633653E0,-1.054610983E-1,3.407512009E-1,-9.121319652E-2
2.408121257E0,-8.415582776E-2,3.439469934E-1,-9.547425061E-2
2.410608862E0,-6.285055727E-2,3.482080400E-1,-9.973530471E-2
2.413096466E0,-4.048001766E-2,3.514038324E-1,-1.039963663E-1
2.415584070E0,-1.704421826E-2,3.556649089E-1,-1.061268896E-1
2.418071674E0,6.391582079E-3,3.599259555E-1,-1.082574204E-1
2.420559278E0,2.876211889E-2,3.631217480E-1,-1.093226820E-1
2.423046882E0,5.006739125E-2,3.663175404E-1,-1.114532053E-1
2.425534487E0,7.030740380E-2,3.695133328E-1,-1.125184745E-1
2.428022091E0,8.948214352E-2,3.716438413E-1,-1.125184745E-1
2.430509695E0,1.054610983E-1,3.716438413E-1,-1.114532053E-1
2.432997507E0,1.214400530E-1,3.716438413E-1,-1.103879437E-1
2.435485320E0,1.352884769E-1,3.695133328E-1,-1.093226820E-1
2.437973132E0,1.480716467E-1,3.652522564E-1,-1.071921512E-1
2.440460945E0,1.587242782E-1,3.599259555E-1,-1.050616279E-1
2.442948757E0,1.693769246E-1,3.524691164E-1,-1.018658355E-1
2.445436518E0,1.789642870E-1,3.428817391E-1,-9.867004305E-2
2.447924122E0,1.885516644E-1,3.332943618E-1,-9.653951973E-2
2.450411726E0,1.970737725E-1,3.215764761E-1,-9.334372729E-2
2.452899330E0,2.066611499E-1,3.098585606E-1,-9.014793485E-2
2.455386934E0,2.162485123E-1,2.960101366E-1,-8.801741153E-2
2.457874539E0,2.269011587E-1,2.832269669E-1,-8.588688076E-2
2.460362143E0,2.386190593E-1,2.693785429E-1,-8.375635743E-2
2.462849747E0,2.514022291E-1,2.555301189E-1,-8.056056499E-2
2.465337351E0,2.652506530E-1,2.427469492E-1,-7.843003422E-2
2.467824955E0,2.801643312E-1,2.288985252E-1,-7.416898012E-2
2.470312559E0,2.950780392E-1,2.171806246E-1,-6.990792602E-2
2.472800164E0,3.121222556E-1,2.054627240E-1,-6.564687192E-2
2.475287768E0,3.302317262E-1,1.948100924E-1,-6.032055244E-2
2.477775372E0,3.494064808E-1,1.852227151E-1,-5.392897129E-2
2.480262976E0,3.696464896E-1,1.777658761E-1,-4.540686309E-2
2.482750580E0,3.909517527E-1,1.703090221E-1,-3.795001656E-2
2.485238184E0,4.133222997E-1,1.639174372E-1,-2.942790836E-2
2.487725789E0,4.356928170E-1,1.585911214E-1,-2.090579830E-2
2.490213393E0,4.580633640E-1,1.553953290E-1,-1.131842658E-2
2.492700997E0,4.804339111E-1,1.532648057E-1,-2.796316985E-3
2.495188601E0,5.060002208E-1,1.511342824E-1,6.791055668E-3
2.497676205E0,5.305013061E-1,1.511342824E-1,1.531316526E-2
2.500163809E0,5.539370775E-1,1.532648057E-1,2.490053698E-2
2.502651414E0,5.784381628E-1,1.553953290E-1,3.342264518E-2
2.505139018E0,6.018739343E-1,1.607216448E-1,4.301001877E-2
2.507626622E0,6.242445111E-1,1.649827063E-1,5.046686530E-2
2.510114226E0,6.434192657E-1,1.713742912E-1,5.792371184E-2
2.512601830E0,6.625939608E-1,1.777658761E-1,6.644582003E-2
2.515089434E0,6.785729527E-1,1.841574460E-1,7.390266657E-2
2.517577039E0,6.924213767E-1,1.905490309E-1,8.135951310E-2
2.520064643E0,7.052045465E-1,1.980058849E-1,8.775109053E-2
2.522552247E0,7.147918940E-1,2.033322006E-1,9.307741374E-2
2.525039851E0,7.222487330E-1,2.086585164E-1,9.840372950E-2
2.527527455E0,7.275750637E-1,2.139848322E-1,1.026647836E-1
2.530015059E0,7.286403179E-1,2.171806246E-1,1.058605760E-1
2.532502664E0,7.286403179E-1,2.203764170E-1,1.090563685E-1
2.534990268E0,7.265098095E-1,2.214416862E-1,1.111868918E-1
2.537477872E0,7.222487330E-1,2.214416862E-1,1.111868918E-1
2.539965476E0,7.158571482E-1,2.203764170E-1,1.122521535E-1
2.542453080E0,7.084003091E-1,2.182458937E-1,1.122521535E-1
2.544940684E0,7.009434700E-1,2.150501013E-1,1.111868918E-1
2.547428289E0,6.924213767E-1,2.118543088E-1,1.090563685E-1
2.549915893E0,6.838992834E-1,2.054627240E-1,1.069258377E-1
2.552403497E0,6.764423847E-1,2.001364082E-1,1.047953144E-1
2.554891101E0,6.689855456E-1,1.916143000E-1,1.026647836E-1
2.557378705E0,6.615287066E-1,1.820269227E-1,1.005342528E-1
2.559866309E0,6.551371217E-1,1.713742912E-1,9.840372950E-2
2.562353914E0,6.476802826E-1,1.607216448E-1,9.627319872E-2
2.564841518E0,6.402234435E-1,1.490037590E-1,9.520793706E-2
2.567329122E0,6.327666044E-1,1.383511126E-1,9.414267540E-2
2.569816726E0,6.242445111E-1,1.276984811E-1,9.627319872E-2
2.572304330E0,6.167876720E-1,1.191763729E-1,9.946899116E-2
2.574791934E0,6.082655191E-1,1.106542572E-1,1.047953144E-1
2.577279539E0,5.997434258E-1,1.031974182E-1,1.122521535E-1
2.579767143E0,5.901560783E-1,9.680583328E-2,1.197090000E-1
2.582254747E0,5.795034170E-1,9.147951752E-2,1.292963773E-1
2.584742351E0,5.688507557E-1,8.721846342E-2,1.399490088E-1
2.587229955E0,5.560676455E-1,8.508793265E-2,1.506016403E-1
2.589717559E0,5.432844758E-1,8.508793265E-2,1.623195410E-1
2.592205164E0,5.294360518E-1,8.615319431E-2,1.751027107E-1
2.594692768E0,5.145223141E-1,8.828372508E-2,1.878858805E-1
2.597180372E0,4.996086359E-1,9.361004084E-2,2.017343044E-1
2.599667976E0,4.814991653E-1,1.021321490E-1,2.155827284E-1
2.602155580E0,4.623244107E-1,1.117195264E-1,2.294311523E-1
2.604643184E0,4.420844018E-1,1.234374270E-1,2.432795912E-1
2.607130789E0,4.207791388E-1,1.372858584E-1,2.571280003E-1
2.609618393E0,3.984085917E-1,1.521995366E-1,2.720417082E-1
2.612105997E0,3.749727905E-1,1.660479754E-1,2.869553864E-1
2.614593601E0,3.504717350E-1,1.820269227E-1,3.008038104E-1
2.617081205E0,3.249054253E-1,1.969406158E-1,3.157175183E-1
2.619568809E0,2.993390858E-1,2.097237855E-1,3.285006881E-1
2.622056414E0,2.748380303E-1,2.235722095E-1,3.423491120E-1
2.624544018E0,2.503369451E-1,2.363553643E-1,3.561975360E-1
2.627031622E0,2.279664129E-1,2.480732650E-1,3.689807057E-1
2.629519226E0,2.055958807E-1,2.587259114E-1,3.806985915E-1
2.632006830E0,1.853558719E-1,2.693785429E-1,3.913512230E-1
2.634494434E0,1.661811322E-1,2.789659202E-1,4.009386003E-1
2.636982039E0,1.480716467E-1,2.906838059E-1,4.105259776E-1
2.639469643E0,1.320926845E-1,3.013364673E-1,4.169175625E-1
2.641957247E0,1.182442605E-1,3.141196072E-1,4.222438633E-1
2.644444851E0,1.065263674E-1,3.269027770E-1,4.254396558E-1
2.646932455E0,9.587372839E-2,3.407512009E-1,4.275701940E-1
2.649420059E0,8.735162020E-2,3.535343707E-1,4.275701940E-1
2.651907664E0,7.989477366E-2,3.673827946E-1,4.254396558E-1
2.654395268E0,7.350318879E-2,3.822965026E-1,4.211786091E-1
2.656882872E0,6.924213469E-2,3.961449265E-1,4.147870243E-1
2.659370476E0,6.285055727E-2,4.110586047E-1,4.051996469E-1
2.661858080E0,5.858949944E-2,4.249070287E-1,3.945470154E-1
2.664345684E0,5.326318368E-2,4.398207366E-1,3.806985915E-1
2.666833289E0,4.687159881E-2,4.526038766E-1,3.636543751E-1
2.669320893E0,3.834949061E-2,4.643217921E-1,3.444796205E-1
2.671808497E0,2.876211889E-2,4.749744236E-1,3.242396116E-1
2.674296101E0,1.704421826E-2,4.824312627E-1,3.018690944E-1
2.676783705E0,3.195791040E-3,4.866923392E-1,2.794985473E-1
2.679271309E0,-1.171789970E-2,4.909533858E-1,2.539322078E-1
2.681758914E0,-2.982738242E-2,4.898881316E-1,2.283658981E-1
2.684246518E0,-5.006739125E-2,4.866923392E-1,2.006690353E-1
2.686734122E0,-7.243792713E-2,4.813660085E-1,1.729721874E-1
2.689221726E0,-9.800425172E-2,4.728438854E-1,1.442100704E-1
2.691709330E0,-1.246358454E-1,4.621912539E-1,1.165132076E-1
2.694196934E0,-1.512674391E-1,4.504733682E-1,8.881635964E-2
2.696684539E0,-1.810948253E-1,4.355596602E-1,6.111950055E-2
2.699172143E0,-2.109221965E-1,4.195807278E-1,3.448791057E-2
2.701659747E0,-2.428801060E-1,4.014712274E-1,7.856319658E-3
2.704147351E0,-2.737727463E-1,3.812312186E-1,-1.771000773E-2
2.706634955E0,-3.057306707E-1,3.599259555E-1,-4.114580899E-2
2.709122559E0,-3.366233110E-1,3.375554085E-1,-6.564687192E-2
2.711610164E0,-3.675159514E-1,3.151848912E-1,-8.801741153E-2
2.714097768E0,-3.973433375E-1,2.949448824E-1,-1.093226820E-1
2.716585372E0,-4.250401855E-1,2.736395895E-1,-1.284974217E-1
2.719072976E0,-4.527370334E-1,2.544648647E-1,-1.455416381E-1
2.721560580E0,-4.761728346E-1,2.352901101E-1,-1.604553312E-1
2.724048184E0,-4.974781275E-1,2.171806246E-1,-1.721732318E-1
2.726535789E0,-5.166528821E-1,2.012016773E-1,-1.828258783E-1
2.729023393E0,-5.315665603E-1,1.852227151E-1,-1.924132407E-1
2.731510997E0,-5.443497300E-1,1.703090221E-1,-1.988048255E-1
2.733998601E0,-5.528718233E-1,1.564605981E-1,-2.041311413E-1
2.736486205E0,-5.603286624E-1,1.415469050E-1,-2.083922029E-1
2.738973809E0,-5.624592304E-1,1.287637353E-1,-2.115879953E-1
2.741461414E0,-5.635244846E-1,1.170458421E-1,-2.147837877E-1
2.743949018E0,-5.603286624E-1,1.063932031E-1,-2.158490419E-1
2.746436622E0,-5.550023317E-1,9.467530251E-2,-2.179795653E-1
2.748924226E0,-5.475454926E-1,8.402267098E-2,-2.179795653E-1
2.751411830E0,-5.368928909E-1,7.443529367E-2,-2.169143111E-1
2.753899434E0,-5.241097212E-1,6.484792382E-2,-2.158490419E-1
2.756387039E0,-5.070654750E-1,5.419528857E-2,-2.137185186E-1
2.758874643E0,-4.878907502E-1,4.567318037E-2,-2.115879953E-1
2.761362247E0,-4.665854871E-1,3.608580679E-2,-2.083922029E-1
2.763849851E0,-4.431496859E-1,2.862896025E-2,-2.051964104E-1
2.766337455E0,-4.165180922E-1,2.117211558E-2,-1.998700947E-1
2.768825059E0,-3.866907060E-1,1.371526904E-2,-1.945437789E-1
2.771312664E0,-3.568633199E-1,6.258423906E-3,-1.881521940E-1
2.773800268E0,-3.238401413E-1,-1.331579551E-4,-1.806953400E-1
2.776287872E0,-2.897517085E-1,-6.524739787E-3,-1.732385010E-1
2.778775476E0,-2.535327375E-1,-1.291632187E-2,-1.668469161E-1
2.781263080E0,-2.173137814E-1,-1.717737690E-2,-1.593900770E-1
2.783750684E0,-1.800295562E-1,-2.143843099E-2,-1.508679688E-1
2.786238289E0,-1.438105851E-1,-2.569948509E-2,-1.434111148E-1
2.788725893E0,-1.075916290E-1,-2.889527567E-2,-1.348890066E-1
2.791213497E0,-7.137266546E-2,-3.209106624E-2,-1.274321675E-1
2.793701101E0,-3.621896356E-2,-3.422159329E-2,-1.189100519E-1
2.796188705E0,-2.130527282E-3,-3.635212034E-2,-1.114532053E-1
2.798676309E0,2.876211889E-2,-3.954791278E-2,-1.029310971E-1
2.801163914E0,5.965476483E-2,-4.274370521E-2,-9.547425061E-2
2.803651518E0,8.841688186E-2,-4.487423226E-2,-8.801741153E-2
2.806139122E0,1.139832065E-1,-4.807002097E-2,-8.056056499E-2
2.808626726E0,1.384842694E-1,-5.126581341E-2,-7.416898012E-2
2.811114330E0,1.597895473E-1,-5.339634046E-2,-6.671213359E-2
2.813601934E0,1.800295562E-1,-5.552686751E-2,-6.032055244E-2
2.816089539E0,1.992042959E-1,-5.872265995E-2,-5.286370963E-2
2.818577143E0,2.162485123E-1,-6.085318699E-2,-4.647212476E-2
2.821064747E0,2.311622053E-1,-6.404897571E-2,-3.901528195E-2
2.823552351E0,2.460758984E-1,-6.511423737E-2,-3.155843541E-2
2.826039955E0,2.577938139E-1,-6.724476814E-2,-2.410159074E-2
2.828527559E0,2.673811615E-1,-6.937529147E-2,-1.771000773E-2
2.831015164E0,2.748380303E-1,-7.044056058E-2,-1.025316212E-2
2.833502768E0,2.801643312E-1,-7.150582224E-2,-6.657897611E-4
2.835990372E0,2.833601236E-1,-7.044056058E-2,7.856319658E-3
2.838477976E0,2.844253778E-1,-7.044056058E-2,1.637842879E-2
2.840965580E0,2.833601236E-1,-6.937529147E-2,2.596580051E-2
2.843453184E0,2.780338228E-1,-6.831002980E-2,3.448791057E-2
2.845940789E0,2.716422379E-1,-6.724476814E-2,4.301001877E-2
2.848428393E0,2.631201148E-1,-6.724476814E-2,5.153212696E-2
2.850915997E0,2.524674833E-1,-6.617950648E-2,6.005423889E-2
2.853403601E0,2.396843135E-1,-6.617950648E-2,6.857634336E-2
2.855891205E0,2.258358896E-1,-6.511423737E-2,7.603318989E-2
2.858378809E0,2.098569423E-1,-6.298371404E-2,8.455529809E-2
2.860866414E0,1.928127259E-1,-6.085318699E-2,9.307741374E-2
2.863354018E0,1.747032404E-1,-5.872265995E-2,1.005342528E-1
2.865841622E0,1.565937549E-1,-5.659212917E-2,1.069258377E-1
2.868329226E0,1.384842694E-1,-5.339634046E-2,1.133174226E-1
2.870816830E0,1.193095297E-1,-5.020054802E-2,1.186437383E-1
2.873304434E0,1.012000442E-1,-4.700475931E-2,1.239700541E-1
2.875792039E0,8.415582776E-2,-4.167843983E-2,1.271658540E-1
2.878279643E0,6.924213469E-2,-3.741738573E-2,1.303616315E-1
2.880767247E0,5.326318368E-2,-3.315633163E-2,1.324921697E-1
2.883254851E0,3.941475600E-2,-2.676474862E-2,1.346226931E-1
2.885742455E0,2.663159184E-2,-2.143843099E-2,1.367532164E-1
2.888230059E0,1.491369121E-2,-1.504684892E-2,1.367532164E-1
2.890717664E0,5.326318089E-3,-8.655266836E-3,1.378184855E-1
2.893205268E0,-4.261054564E-3,-2.263685223E-3,1.356879622E-1
2.895692872E0,-1.171789970E-2,5.193160381E-3,1.356879622E-1
2.898180476E0,-1.810948178E-2,1.265000552E-2,1.346226931E-1
2.900668080E0,-2.343579940E-2,1.904158667E-2,1.346226931E-1
2.903155684E0,-2.876211889E-2,2.543316968E-2,1.324921697E-1
2.905643289E0,-3.302317113E-2,3.182475269E-2,1.314269006E-1
2.908130893E0,-3.728422895E-2,3.821633384E-2,1.282311082E-1
2.910618497E0,-4.048001766E-2,4.460791498E-2,1.261005849E-1
2.913106101E0,-4.474107176E-2,5.206476152E-2,1.229047924E-1
2.915593705E0,-4.793686420E-2,5.845634267E-2,1.197090000E-1
2.918081309E0,-5.219791830E-2,6.484792382E-2,1.175784767E-1
2.920568914E0,-5.752423778E-2,7.123950869E-2,1.154479459E-1
2.923056518E0,-6.285055727E-2,7.763108611E-2,1.122521535E-1
2.925544122E0,-6.817687303E-2,8.402267098E-2,1.111868918E-1
2.928031726E0,-7.456845790E-2,9.147951752E-2,1.090563685E-1
2.930519330E0,-8.096003532E-2,9.787109494E-2,1.079910994E-1
2.933006934E0,-8.735162020E-2,1.031974182E-1,1.069258377E-1
2.935494539E0,-9.480846673E-2,1.085237339E-1,1.058605760E-1
2.937982143E0,-1.033305749E-1,1.127847880E-1,1.047953144E-1
2.940469747E0,-1.107874215E-1,1.149153188E-1,1.047953144E-1
2.942957351E0,-1.193095297E-1,1.170458421E-1,1.047953144E-1
2.945444955E0,-1.267663687E-1,1.191763729E-1,1.058605760E-1
2.947932559E0,-1.352884769E-1,1.202416345E-1,1.079910994E-1
2.950420164E0,-1.427453309E-1,1.202416345E-1,1.101216301E-1
2.952907768E0,-1.502021700E-1,1.202416345E-1,1.111868918E-1
2.955395372E0,-1.565937549E-1,1.202416345E-1,1.143826842E-1
2.957882976E0,-1.629853398E-1,1.202416345E-1,1.186437383E-1
2.960370580E0,-1.672463864E-1,1.202416345E-1,1.207742617E-1
2.962858184E0,-1.704421788E-1,1.191763729E-1,1.250353158E-1
2.965345789E0,-1.725727171E-1,1.181111038E-1,1.271658540E-1
2.967833393E0,-1.736379713E-1,1.170458421E-1,1.303616315E-1
2.970320997E0,-1.747032404E-1,1.149153188E-1,1.324921697E-1
2.972808601E0,-1.736379713E-1,1.127847880E-1,1.356879622E-1
2.975296205E0,-1.725727171E-1,1.095889956E-1,1.388837546E-1
2.977783809E0,-1.704421788E-1,1.063932031E-1,1.410142779E-1
2.980271414E0,-1.672463864E-1,1.042626798E-1,1.431448013E-1
2.982759018E0,-1.619200706E-1,1.010668874E-1,1.463405937E-1
2.985246622E0,-1.565937549E-1,9.787109494E-2,1.484711170E-1
2.987734226E0,-1.502021700E-1,9.467530251E-2,1.495363861E-1
2.990221830E0,-1.427453309E-1,9.254477918E-2,1.516669095E-1
2.992709434E0,-1.342232227E-1,9.041424841E-2,1.537974328E-1
2.995197039E0,-1.257011145E-1,8.828372508E-2,1.559279710E-1
2.997684643E0,-1.171789989E-1,8.615319431E-2,1.569932252E-1
3.000172247E0,-1.086568907E-1,8.508793265E-2,1.580584943E-1
3.002659851E0,-9.906952083E-2,8.402267098E-2,1.601890177E-1
3.005147455E0,-8.948214352E-2,8.402267098E-2,1.612542868E-1
3.007635059E0,-7.882951200E-2,8.402267098E-2,1.623195410E-1
3.010122664E0,-6.924213469E-2,8.508793265E-2,1.644500792E-1
3.012610268E0,-5.965476483E-2,8.508793265E-2,1.655153334E-1
3.015097872E0,-4.900212586E-2,8.615319431E-2,1.676458716E-1
3.017585476E0,-3.941475600E-2,8.721846342E-2,1.697763950E-1
3.020073080E0,-2.982738242E-2,8.828372508E-2,1.708416492E-1
3.022560684E0,-1.917474531E-2,9.041424841E-2,1.719069183E-1
3.025048289E0,-9.587372653E-3,9.254477918E-2,1.719069183E-1
3.027535893E0,0.000000000E0,9.361004084E-2,1.729721874E-1
3.030023497E0,8.522109129E-3,9.467530251E-2,1.729721874E-1
3.032511101E0,1.597895473E-2,9.680583328E-2,1.740374416E-1
3.034998705E0,2.343579940E-2,9.787109494E-2,1.740374416E-1
3.037486309E0,2.982738242E-2,9.787109494E-2,1.740374416E-1
3.039973914E0,3.515370190E-2,9.893636405E-2,1.729721874E-1
3.042461518E0,3.834949061E-2,9.787109494E-2,1.708416492E-1
3.044949122E0,4.048001766E-2,9.467530251E-2,1.697763950E-1
3.047436726E0,4.154528305E-2,9.147951752E-2,1.676458716E-1
3.049924330E0,4.154528305E-2,8.721846342E-2,1.655153334E-1
3.052411934E0,4.048001766E-2,8.082687855E-2,1.623195410E-1
3.054899539E0,3.728422895E-2,7.337003201E-2,1.591237634E-1
3.057387143E0,3.302317113E-2,6.591318548E-2,1.559279710E-1
3.059874747E0,2.769685537E-2,5.739107728E-2,1.516669095E-1
3.062362351E0,2.343579940E-2,4.780370742E-2,1.484711170E-1
3.064849955E0,1.810948178E-2,3.715106845E-2,1.442100704E-1
3.067337559E0,1.384842768E-2,2.543316968E-2,1.399490088E-1
3.069825164E0,7.456845604E-3,1.478053257E-2,1.356879622E-1
3.072312768E0,2.130527282E-3,1.997369342E-3,1.303616315E-1
3.074800372E0,-4.261054564E-3,-9.720530361E-3,1.261005849E-1
3.077287976E0,-9.587372653E-3,-2.143843099E-2,1.207742617E-1
3.079775580E0,-1.278316416E-2,-3.315633163E-2,1.154479459E-1
3.082263184E0,-1.597895473E-2,-4.593949392E-2,1.090563685E-1
3.084750789E0,-1.917474531E-2,-5.659212917E-2,1.037300453E-1
3.087238393E0,-2.024000883E-2,-6.831002980E-2,9.733846784E-2
3.089725997E0,-2.024000883E-2,-7.789740711E-2,8.881635964E-2
3.092213601E0,-2.024000883E-2,-8.748477697E-2,8.135951310E-2
3.094701205E0,-1.704421826E-2,-9.494162351E-2,7.390266657E-2
3.097188809E0,-1.491369121E-2,-1.013332009E-1,6.644582003E-2
3.099676414E0,-9.587372653E-3,-1.066595241E-1,5.898897350E-2
3.102164070E0,-4.261054564E-3,-1.109205782E-1,5.153212696E-2
3.104651726E0,2.130527282E-3,-1.141163707E-1,4.407528415E-2
3.107139382E0,8.522109129E-3,-1.162468940E-1,3.661843762E-2
3.109627039E0,1.704421826E-2,-1.173121557E-1,3.022685647E-2
3.112114695E0,2.450106293E-2,-1.183774248E-1,2.383527346E-2
3.114602351E0,3.302317113E-2,-1.183774248E-1,1.957421936E-2
3.117090007E0,4.154528305E-2,-1.173121557E-1,1.531316526E-2
3.119577664E0,5.006739125E-2,-1.162468940E-1,1.211737376E-2
3.122065320E0,5.858949944E-2,-1.151816323E-1,9.986846708E-3
3.124552976E0,6.711161137E-2,-1.141163707E-1,7.856319658E-3
3.127040632E0,7.456845790E-2,-1.130511016E-1,6.791055668E-3
3.129528289E0,8.309056610E-2,-1.130511016E-1,6.791055668E-3
3.132015945E0,9.054741263E-2,-1.109205782E-1,6.791055668E-3
3.134503601E0,9.800425172E-2,-1.098553166E-1,7.856319658E-3
3.136991257E0,1.043958366E-1,-1.077247858E-1,8.921583183E-3
3.139478914E0,1.107874215E-1,-1.066595241E-1,1.105211023E-2
3.141966570E0,1.161137372E-1,-1.045289934E-1,1.318263728E-2
3.144454226E0,1.214400530E-1,-1.023984700E-1,1.637842879E-2
3.146941882E0,1.267663687E-1,-1.002679393E-1,1.957421936E-2
3.149429539E0,1.310274303E-1,-9.707214683E-2,2.170474641E-2
3.151917195E0,1.352884769E-1,-9.494162351E-2,2.383527346E-2
3.154404851E0,1.384842694E-1,-9.174583107E-2,2.703106403E-2
3.156892507E0,1.416800618E-1,-8.855003864E-2,3.022685647E-2
3.159380164E0,1.448758543E-1,-8.428898454E-2,3.235738352E-2
3.161867820E0,1.470063776E-1,-8.002793044E-2,3.448791057E-2
3.164355476E0,1.470063776E-1,-7.576687634E-2,3.661843762E-2
3.166843132E0,1.470063776E-1,-7.150582224E-2,3.874896467E-2
3.169330789E0,1.459411234E-1,-6.831002980E-2,3.981423005E-2
3.171818393E0,1.438105851E-1,-6.617950648E-2,4.194475710E-2
3.174305997E0,1.416800618E-1,-6.404897571E-2,4.301001877E-2
3.176793601E0,1.374190152E-1,-6.298371404E-2,4.301001877E-2
3.179281205E0,1.331579536E-1,-6.191844866E-2,4.301001877E-2
3.181768809E0,1.278316379E-1,-6.191844866E-2,4.407528415E-2
3.184256414E0,1.214400530E-1,-6.085318699E-2,4.407528415E-2
3.186744018E0,1.161137372E-1,-6.298371404E-2,4.407528415E-2
3.189231622E0,1.097221524E-1,-6.404897571E-2,4.407528415E-2
3.191719226E0,1.033305749E-1,-6.617950648E-2,4.194475710E-2
3.194206830E0,9.587372839E-2,-6.831002980E-2,4.087949172E-2
3.196694434E0,8.841688186E-2,-7.150582224E-2,3.768370301E-2
3.199182039E0,8.096003532E-2,-7.470161468E-2,3.342264518E-2
3.201669643E0,7.350318879E-2,-7.683213800E-2,3.022685647E-2
3.204157247E0,6.604634225E-2,-8.109319210E-2,2.383527346E-2
3.206644851E0,5.752423778E-2,-8.322372288E-2,1.850895584E-2
3.209132455E0,4.900212586E-2,-8.641951531E-2,1.318263728E-2
3.211620059E0,4.048001766E-2,-8.961530030E-2,7.856319658E-3
3.214107664E0,3.302317113E-2,-9.387636185E-2,2.530001104E-3
3.216595268E0,2.556632832E-2,-9.707214683E-2,-3.861580743E-3
3.219082872E0,2.024000883E-2,-1.023984700E-1,-9.187898599E-3
3.221570476E0,1.597895473E-2,-1.055942550E-1,-1.557948068E-2
3.224058080E0,1.384842768E-2,-1.098553166E-1,-2.197106183E-2
3.226545684E0,1.171789970E-2,-1.130511016E-1,-2.729738131E-2
3.229033289E0,1.065263618E-2,-1.162468940E-1,-3.475422785E-2
3.231520893E0,1.065263618E-2,-1.194426864E-1,-4.008054361E-2
3.234008497E0,1.278316416E-2,-1.205079481E-1,-4.540686309E-2
3.236496101E0,1.491369121E-2,-1.226384789E-1,-4.966791719E-2
3.238983705E0,1.917474531E-2,-1.226384789E-1,-5.392897129E-2
3.241471309E0,2.450106293E-2,-1.226384789E-1,-5.712476373E-2
3.243958914E0,2.982738242E-2,-1.215732098E-1,-5.925529078E-2
3.246446518E0,3.621896356E-2,-1.205079481E-1,-6.138581783E-2
3.248934122E0,4.154528305E-2,-1.183774248E-1,-6.245107949E-2
3.251421726E0,4.900212586E-2,-1.151816323E-1,-6.351634115E-2
3.253909330E0,5.539371073E-2,-1.119858399E-1,-6.351634115E-2
3.256396934E0,6.178529188E-2,-1.077247858E-1,-6.351634115E-2
3.258884539E0,6.817687303E-2,-1.045289934E-1,-6.245107949E-2
3.261372143E0,7.563371956E-2,-1.013332009E-1,-6.138581783E-2
3.263859747E0,8.096003532E-2,-9.813741595E-2,-6.138581783E-2
3.266347351E0,8.735162020E-2,-9.494162351E-2,-6.032055244E-2
3.268834955E0,9.267793596E-2,-9.281109273E-2,-5.925529078E-2
3.271322559E0,9.800425172E-2,-9.068056941E-2,-5.925529078E-2
3.273810164E0,1.033305749E-1,-8.748477697E-2,-5.925529078E-2
3.276297768E0,1.086568907E-1,-8.428898454E-2,-5.925529078E-2
3.278785372E0,1.118526831E-1,-8.109319210E-2,-5.925529078E-2
3.281272976E0,1.161137372E-1,-7.789740711E-2,-5.925529078E-2
3.283760580E0,1.203747913E-1,-7.470161468E-2,-6.032055244E-2
3.286248184E0,1.246358454E-1,-7.150582224E-2,-6.032055244E-2
3.288735789E0,1.278316379E-1,-6.831002980E-2,-6.138581783E-2
3.291223393E0,1.320926845E-1,-6.724476814E-2,-6.138581783E-2
3.293710997E0,1.342232227E-1,-6.404897571E-2,-6.245107949E-2
3.296198601E0,1.384842694E-1,-6.191844866E-2,-6.351634115E-2
3.298686205E0,1.416800618E-1,-6.085318699E-2,-6.458161026E-2
3.301173809E0,1.448758543E-1,-5.872265995E-2,-6.671213359E-2
3.303661414E0,1.459411234E-1,-5.659212917E-2,-6.777740270E-2
3.306149018E0,1.480716467E-1,-5.552686751E-2,-7.097318769E-2
3.308636622E0,1.491369158E-1,-5.446160212E-2,-7.310371846E-2
3.311124226E0,1.512674391E-1,-5.339634046E-2,-7.523424178E-2
3.313611830E0,1.523326933E-1,-5.339634046E-2,-7.736477256E-2
3.316099434E0,1.533979625E-1,-5.446160212E-2,-8.056056499E-2
3.318587039E0,1.544632316E-1,-5.659212917E-2,-8.162582666E-2
3.321074643E0,1.544632316E-1,-5.872265995E-2,-8.375635743E-2
3.323562247E0,1.533979625E-1,-5.978792161E-2,-8.482161909E-2
3.326049851E0,1.533979625E-1,-6.298371404E-2,-8.695214242E-2
3.328537455E0,1.512674391E-1,-6.617950648E-2,-8.801741153E-2
3.331025059E0,1.502021700E-1,-7.044056058E-2,-8.908267319E-2
3.333512664E0,1.480716467E-1,-7.363634557E-2,-8.908267319E-2
3.336000268E0,1.448758543E-1,-7.683213800E-2,-9.014793485E-2
3.338487872E0,1.427453309E-1,-8.215846121E-2,-9.121319652E-2
3.340975476E0,1.384842694E-1,-8.641951531E-2,-9.334372729E-2
3.343463080E0,1.352884769E-1,-9.068056941E-2,-9.547425061E-2
3.345950684E0,1.310274303E-1,-9.494162351E-2,-9.760478139E-2
3.348438289E0,1.267663687E-1,-9.707214683E-2,-9.867004305E-2
3.350925893E0,1.203747913E-1,-1.002679393E-1,-1.008005738E-1
3.353413497E0,1.139832065E-1,-1.023984700E-1,-1.018658355E-1
3.355901101E0,1.065263674E-1,-1.045289934E-1,-1.050616279E-1
3.358388705E0,9.906952083E-2,-1.066595241E-1,-1.071921512E-1
3.360876309E0,9.161267430E-2,-1.066595241E-1,-1.114532053E-1
3.363363914E0,8.309056610E-2,-1.077247858E-1,-1.146489978E-1
3.365851518E0,7.456845790E-2,-1.098553166E-1,-1.189100519E-1
3.368339122E0,6.604634225E-2,-1.109205782E-1,-1.210405827E-1
3.370826726E0,5.752423778E-2,-1.098553166E-1,-1.253016293E-1
3.373314330E0,4.900212586E-2,-1.098553166E-1,-1.295626909E-1
3.375801934E0,4.048001766E-2,-1.087900475E-1,-1.348890066E-1
3.378289539E0,3.302317113E-2,-1.077247858E-1,-1.391500682E-1
3.380777143E0,2.556632832E-2,-1.055942550E-1,-1.444763839E-1
3.383264747E0,1.810948178E-2,-1.045289934E-1,-1.476721764E-1
3.385752351E0,1.171789970E-2,-1.013332009E-1,-1.529984921E-1
3.388239955E0,4.261054564E-3,-9.920267761E-2,-1.583248079E-1
3.390727559E0,-2.130527282E-3,-9.600688517E-2,-1.625858694E-1
3.393215164E0,-8.522109129E-3,-9.281109273E-2,-1.679121852E-1
3.395702768E0,-1.384842768E-2,-9.068056941E-2,-1.732385010E-1
3.398190372E0,-1.917474531E-2,-8.748477697E-2,-1.774995476E-1
3.400677976E0,-2.450106293E-2,-8.535424620E-2,-1.828258783E-1
3.403165580E0,-2.876211889E-2,-8.322372288E-2,-1.881521940E-1
3.405653184E0,-3.302317113E-2,-8.002793044E-2,-1.945437789E-1
3.408140789E0,-3.728422895E-2,-7.896266878E-2,-2.009353489E-1
3.410628393E0,-4.048001766E-2,-7.683213800E-2,-2.073269337E-1
3.413115997E0,-4.474107176E-2,-7.683213800E-2,-2.147837877E-1
3.415603601E0,-4.900212586E-2,-7.683213800E-2,-2.211753577E-1
3.418091205E0,-5.432844535E-2,-7.789740711E-2,-2.265016884E-1
3.420578809E0,-5.965476483E-2,-8.002793044E-2,-2.318280041E-1
3.423066414E0,-6.498108059E-2,-8.322372288E-2,-2.371543199E-1
3.425554018E0,-7.137266546E-2,-8.855003864E-2,-2.403501123E-1
3.428041622E0,-7.669898123E-2,-9.387636185E-2,-2.424806356E-1
3.430529226E0,-8.309056610E-2,-1.002679393E-1,-2.446111590E-1
3.433017091E0,-9.054741263E-2,-1.077247858E-1,-2.446111590E-1
3.435504955E0,-9.693899006E-2,-1.151816323E-1,-2.446111590E-1
3.437992820E0,-1.054610983E-1,-1.237037405E-1,-2.424806356E-1
3.440480476E0,-1.129179448E-1,-1.322258562E-1,-2.403501123E-1
3.442968080E0,-1.214400530E-1,-1.407479644E-1,-2.350237966E-1
3.445455684E0,-1.299621612E-1,-1.492700726E-1,-2.307627350E-1
3.447943289E0,-1.384842694E-1,-1.588574350E-1,-2.243711501E-1
3.450430893E0,-1.480716467E-1,-1.684448123E-1,-2.179795653E-1
3.452918497E0,-1.576590240E-1,-1.780321896E-1,-2.094574571E-1
3.455406101E0,-1.661811322E-1,-1.876195520E-1,-2.009353489E-1
3.457893705E0,-1.736379713E-1,-1.982721984E-1,-1.913479865E-1
3.460381309E0,-1.810948253E-1,-2.110553533E-1,-1.817606091E-1
3.462868914E0,-1.885516644E-1,-2.238385230E-1,-1.711079776E-1
3.465356518E0,-1.949432492E-1,-2.387522161E-1,-1.615206003E-1
3.467844122E0,-2.002695650E-1,-2.536658943E-1,-1.508679688E-1
3.470331726E0,-2.045306265E-1,-2.696448565E-1,-1.391500682E-1
3.472819330E0,-2.087916732E-1,-2.856238186E-1,-1.284974217E-1
3.475306934E0,-2.119874656E-1,-3.005374968E-1,-1.167795286E-1
3.477794539E0,-2.130527347E-1,-3.154512048E-1,-1.039963663E-1
3.480282143E0,-2.119874656E-1,-3.292996287E-1,-9.121319652E-2
3.482769747E0,-2.087916732E-1,-3.420827985E-1,-7.736477256E-2
3.485257351E0,-2.034653574E-1,-3.538006842E-1,-6.351634115E-2
3.487744955E0,-1.970737725E-1,-3.633880615E-1,-4.753739014E-2
3.490232559E0,-1.874863952E-1,-3.719101548E-1,-3.262370080E-2
3.492720164E0,-1.747032404E-1,-3.793670237E-1,-1.664474420E-2
3.495207768E0,-1.597895473E-1,-3.857586086E-1,3.994738800E-4
3.497695372E0,-1.438105851E-1,-3.921501637E-1,1.744369231E-2
3.500182976E0,-1.267663687E-1,-3.953459561E-1,3.555317223E-2
3.502670580E0,-1.075916290E-1,-3.985417485E-1,5.366265774E-2
3.505158184E0,-8.628635854E-2,-3.996070325E-1,7.283740491E-2
3.507645789E0,-6.498108059E-2,-4.017375410E-1,9.307741374E-2
3.510133393E0,-4.261054471E-2,-4.028028250E-1,1.133174226E-1
3.512620997E0,-2.024000883E-2,-4.028028250E-1,1.356879622E-1
3.515108601E0,3.195791040E-3,-4.028028250E-1,1.569932252E-1
3.517596205E0,2.663159184E-2,-3.996070325E-1,1.772332340E-1
3.520083809E0,5.113265663E-2,-3.974764943E-1,1.985385120E-1
3.522571414E0,7.669898123E-2,-3.942807019E-1,2.177132517E-1
3.525059018E0,1.022653133E-1,-3.921501637E-1,2.368880063E-1
3.527546622E0,1.278316379E-1,-3.889544010E-1,2.549974918E-1
3.530034226E0,1.544632316E-1,-3.846933246E-1,2.720417082E-1
3.532521830E0,1.800295562E-1,-3.783017397E-1,2.880206704E-1
3.535009434E0,2.045306265E-1,-3.708449006E-1,3.039996028E-1
3.537497039E0,2.290316820E-1,-3.633880615E-1,3.178480268E-1
3.539984643E0,2.503369451E-1,-3.548659384E-1,3.316964805E-1
3.542472247E0,2.705769539E-1,-3.452785909E-1,3.455449045E-1
3.544959851E0,2.876211703E-1,-3.356912136E-1,3.572627902E-1
3.547447455E0,3.025348783E-1,-3.250385821E-1,3.689807057E-1
3.549935059E0,3.153180480E-1,-3.143859208E-1,3.775027990E-1
3.552422664E0,3.249054253E-1,-3.037332892E-1,3.870901763E-1
3.554910268E0,3.291664720E-1,-2.930806577E-1,3.956122994E-1
3.557397872E0,3.334275186E-1,-2.824280262E-1,4.030691385E-1
3.559885476E0,3.323622644E-1,-2.728406489E-1,4.105259776E-1
3.562373080E0,3.291664720E-1,-2.643185556E-1,4.158523083E-1
3.564860684E0,3.238401413E-1,-2.568616867E-1,4.211786091E-1
3.567348289E0,3.174485564E-1,-2.494048476E-1,4.254396558E-1
3.569835893E0,3.078611791E-1,-2.440785319E-1,4.297007322E-1
3.572323497E0,2.982738316E-1,-2.398174703E-1,4.350270331E-1
3.574811101E0,2.886864543E-1,-2.366216928E-1,4.371575713E-1
3.577298705E0,2.790990770E-1,-2.344911546E-1,4.403533638E-1
3.579786309E0,2.705769539E-1,-2.323606312E-1,4.424838722E-1
3.582273914E0,2.631201148E-1,-2.302301079E-1,4.435491562E-1
3.584761518E0,2.567285299E-1,-2.280995846E-1,4.446144104E-1
3.587249122E0,2.503369451E-1,-2.259690464E-1,4.435491562E-1
3.589736726E0,2.471411675E-1,-2.227732539E-1,4.414186180E-1
3.592224330E0,2.439453751E-1,-2.206427306E-1,4.382228255E-1
3.594711934E0,2.418148518E-1,-2.163816839E-1,4.339617789E-1
3.597199539E0,2.407495826E-1,-2.121206224E-1,4.286354482E-1
3.599687143E0,2.407495826E-1,-2.078595608E-1,4.222438633E-1
3.602174747E0,2.407495826E-1,-2.035985142E-1,4.137217700E-1
3.604662351E0,2.407495826E-1,-1.982721984E-1,4.051996469E-1
3.607149955E0,2.386190593E-1,-1.950764060E-1,3.966775537E-1
3.609637559E0,2.364885211E-1,-1.918806136E-1,3.860249221E-1
3.612125164E0,2.332927436E-1,-1.886848211E-1,3.743070066E-1
3.614612768E0,2.290316820E-1,-1.876195520E-1,3.636543751E-1
3.617100372E0,2.237053663E-1,-1.865542978E-1,3.519364893E-1
3.619587976E0,2.162485123E-1,-1.886848211E-1,3.391533196E-1
3.622075580E0,2.077264041E-1,-1.929458827E-1,3.274354041E-1
3.624563184E0,1.970737725E-1,-1.982721984E-1,3.167827725E-1
3.627050789E0,1.864211410E-1,-2.046637833E-1,3.061301410E-1
3.629538393E0,1.725727171E-1,-2.131858915E-1,2.965427637E-1
3.632025997E0,1.587242782E-1,-2.217079997E-1,2.858901322E-1
3.634513601E0,1.427453309E-1,-2.312953621E-1,2.763027549E-1
3.637001205E0,1.257011145E-1,-2.408827394E-1,2.667153776E-1
3.639488809E0,1.086568907E-1,-2.494048476E-1,2.571280003E-1
3.641976414E0,9.267793596E-2,-2.579269707E-1,2.496711612E-1
3.644464018E0,7.669898123E-2,-2.664490640E-1,2.422143221E-1
3.646951622E0,6.285055727E-2,-2.728406489E-1,2.368880063E-1
3.649439226E0,5.006739125E-2,-2.781669796E-1,2.304964215E-1
3.651926830E0,3.941475600E-2,-2.824280262E-1,2.241048366E-1
3.654414434E0,3.195790946E-2,-2.856238186E-1,2.198437899E-1
3.656902039E0,2.556632832E-2,-2.877543271E-1,2.166479975E-1
3.659389643E0,2.343579940E-2,-2.866890728E-1,2.123869359E-1
3.661877247E0,2.237053588E-2,-2.834932804E-1,2.091911435E-1
3.664364851E0,2.556632832E-2,-2.802974880E-1,2.059953511E-1
3.666852455E0,3.089264594E-2,-2.749711871E-1,2.027995586E-1
3.669340059E0,3.941475600E-2,-2.696448565E-1,1.996037811E-1
3.671827664E0,5.113265663E-2,-2.632532716E-1,1.985385120E-1
3.674315268E0,6.604634225E-2,-2.557964325E-1,1.964079887E-1
3.676802872E0,8.415582776E-2,-2.483395934E-1,1.942774504E-1
3.679290476E0,1.043958366E-1,-2.419480085E-1,1.910816729E-1
3.681778080E0,1.278316379E-1,-2.334259003E-1,1.889511347E-1
3.684265684E0,1.512674391E-1,-2.259690464E-1,1.846900880E-1
3.686753289E0,1.768337637E-1,-2.195774615E-1,1.793637723E-1
3.689240893E0,2.034653574E-1,-2.131858915E-1,1.740374416E-1
3.691728497E0,2.300969511E-1,-2.057290375E-1,1.676458716E-1
3.694216101E0,2.567285299E-1,-1.982721984E-1,1.601890177E-1
3.696703705E0,2.822948694E-1,-1.918806136E-1,1.527321786E-1
3.699191309E0,3.078611791E-1,-1.844237745E-1,1.452753246E-1
3.701678914E0,3.323622644E-1,-1.790974438E-1,1.356879622E-1
3.704166518E0,3.557980657E-1,-1.737711281E-1,1.282311082E-1
3.706654122E0,3.781685829E-1,-1.695100814E-1,1.197090000E-1
3.709141726E0,3.984085917E-1,-1.663142890E-1,1.111868918E-1
3.711629330E0,4.175833464E-1,-1.631184965E-1,1.015995219E-1
3.714116934E0,4.356928170E-1,-1.620532274E-1,9.307741374E-2
3.716604539E0,4.506065249E-1,-1.599227041E-1,8.455529809E-2
3.719092143E0,4.633896947E-1,-1.588574350E-1,7.603318989E-2
3.721579747E0,4.740423262E-1,-1.577921808E-1,6.751108170E-2
3.724067351E0,4.814991653E-1,-1.556616426E-1,5.898897350E-2
3.726554955E0,4.846949577E-1,-1.524658650E-1,5.046686530E-2
3.729042559E0,4.868254960E-1,-1.492700726E-1,4.194475710E-2
3.731530164E0,4.846949577E-1,-1.460742801E-1,3.235738352E-2
3.734017768E0,4.804339111E-1,-1.418132186E-1,2.277000993E-2
3.736505372E0,4.719117880E-1,-1.364869028E-1,1.318263728E-2
3.738992976E0,4.601939023E-1,-1.311605871E-1,2.530001104E-3
3.741480580E0,4.452801943E-1,-1.258342713E-1,-9.187898599E-3
3.743968184E0,4.282359779E-1,-1.194426864E-1,-2.197106183E-2
3.746455789E0,4.069307148E-1,-1.130511016E-1,-3.475422785E-2
3.748943393E0,3.834949136E-1,-1.077247858E-1,-4.860265180E-2
3.751430997E0,3.579285741E-1,-1.034637317E-1,-6.351634115E-2
3.753918601E0,3.291664720E-1,-1.002679393E-1,-7.843003422E-2
3.756406205E0,2.993390858E-1,-9.813741595E-2,-9.440898895E-2
3.758893809E0,2.684464455E-1,-9.707214683E-2,-1.093226820E-1
3.761381414E0,2.364885211E-1,-9.707214683E-2,-1.242363751E-1
3.763869018E0,2.045306265E-1,-9.707214683E-2,-1.380847991E-1
3.766356622E0,1.725727171E-1,-9.813741595E-2,-1.529984921E-1
3.768844226E0,1.416800618E-1,-1.002679393E-1,-1.679121852E-1
3.771331830E0,1.118526831E-1,-1.023984700E-1,-1.817606091E-1
3.773819434E0,8.309056610E-2,-1.045289934E-1,-1.945437789E-1
3.776307039E0,5.645897239E-2,-1.066595241E-1,-2.083922029E-1
3.778794643E0,3.195790946E-2,-1.077247858E-1,-2.190448344E-1
3.781282247E0,9.587372653E-3,-1.098553166E-1,-2.307627350E-1
3.783769851E0,-1.065263618E-2,-1.098553166E-1,-2.414153665E-1
3.786257455E0,-2.982738242E-2,-1.098553166E-1,-2.520680130E-1
3.788745059E0,-4.687159881E-2,-1.087900475E-1,-2.616553903E-1
3.791232664E0,-6.391581893E-2,-1.066595241E-1,-2.701774836E-1
3.793720268E0,-7.989477366E-2,-1.023984700E-1,-2.776343226E-1
3.796207872E0,-9.587372839E-2,-9.707214683E-2,-2.840259075E-1
3.798695476E0,-1.107874215E-1,-8.961530030E-2,-2.904174924E-1
3.801183080E0,-1.257011145E-1,-8.109319210E-2,-2.946785688E-1
3.803670684E0,-1.406148076E-1,-7.257108390E-2,-2.968090773E-1
3.806158289E0,-1.544632316E-1,-6.191844866E-2,-2.989396155E-1
3.808645893E0,-1.683116555E-1,-5.020054802E-2,-3.000048697E-1
3.811133497E0,-1.821600795E-1,-3.954791278E-2,-3.000048697E-1
3.813621101E0,-1.960085034E-1,-2.889527567E-2,-2.989396155E-1
3.816108705E0,-2.119874656E-1,-1.717737690E-2,-2.968090773E-1
3.818596362E0,-2.279664129E-1,-6.524739787E-3,-2.946785688E-1
3.821084018E0,-2.450106442E-1,4.127896391E-3,-2.893522382E-1
3.823571674E0,-2.609896064E-1,1.478053257E-2,-2.829606533E-1
3.826059330E0,-2.769685388E-1,2.436790615E-2,-2.765690684E-1
3.828546987E0,-2.918822467E-1,3.289001435E-2,-2.680469751E-1
3.831034643E0,-3.046653867E-1,4.034686089E-2,-2.595248520E-1
3.833522299E0,-3.163833022E-1,4.780370742E-2,-2.510027587E-1
3.836009955E0,-3.259706795E-1,5.526055023E-2,-2.414153665E-1
3.838497612E0,-3.334275186E-1,6.165213138E-2,-2.328932583E-1
3.840985268E0,-3.398191035E-1,6.804371625E-2,-2.243711501E-1
3.843472924E0,-3.430148959E-1,7.443529367E-2,-2.147837877E-1
3.845960580E0,-3.430148959E-1,7.976161689E-2,-2.051964104E-1
3.848448237E0,-3.419496417E-1,8.402267098E-2,-1.966743022E-1
3.850935893E0,-3.387538493E-1,8.721846342E-2,-1.870869249E-1
3.853423549E0,-3.344927728E-1,8.934898674E-2,-1.774995476E-1
3.855911205E0,-3.270359337E-1,8.934898674E-2,-1.689774394E-1
3.858398862E0,-3.195790946E-1,8.615319431E-2,-1.604553312E-1
3.860886518E0,-3.121222556E-1,8.189214021E-2,-1.529984921E-1
3.863374174E0,-3.057306707E-1,7.550056279E-2,-1.466069072E-1
3.865861830E0,-2.982738316E-1,6.910897791E-2,-1.402153224E-1
3.868349487E0,-2.908169627E-1,6.165213138E-2,-1.338237375E-1
3.870837143E0,-2.844253778E-1,5.419528857E-2,-1.263668984E-1
3.873324799E0,-2.780338228E-1,4.567318037E-2,-1.189100519E-1
3.875812455E0,-2.737727463E-1,3.715106845E-2,-1.114532053E-1
3.878300112E0,-2.684464455E-1,2.862896025E-2,-1.039963663E-1
3.880787768E0,-2.631201148E-1,2.117211558E-2,-9.547425061E-2
3.883275424E0,-2.577938139E-1,1.478053257E-2,-8.695214242E-2
3.885763080E0,-2.524674833E-1,7.323687430E-3,-7.736477256E-2
3.888250737E0,-2.460758984E-1,1.997369342E-3,-6.884266436E-2
3.890738393E0,-2.396843135E-1,-1.198421582E-3,-5.925529078E-2
3.893225997E0,-2.322274745E-1,-3.328948980E-3,-4.860265180E-2
3.895713601E0,-2.247706354E-1,-4.394212738E-3,-3.795001656E-2
3.898201205E0,-2.151832581E-1,-4.394212738E-3,-2.623211779E-2
3.900688809E0,-2.034653574E-1,-2.263685223E-3,-1.344895363E-2
3.903176414E0,-1.906821877E-1,-1.331579551E-4,-2.796316985E-3
3.905664018E0,-1.768337637E-1,4.127896391E-3,8.921583183E-3
3.908151622E0,-1.619200706E-1,9.454214945E-3,1.850895584E-2
3.910639226E0,-1.448758543E-1,1.478053257E-2,2.809632942E-2
3.913126830E0,-1.267663687E-1,2.223737910E-2,3.661843762E-2
3.915614434E0,-1.086568907E-1,2.969422378E-2,4.301001877E-2
3.918102039E0,-8.948214352E-2,3.821633384E-2,4.940159991E-2
3.920589643E0,-6.924213469E-2,4.780370742E-2,5.579318479E-2
3.923077247E0,-5.006739125E-2,5.845634267E-2,6.005423889E-2
3.925564851E0,-3.089264594E-2,6.804371625E-2,6.538055837E-2
3.928052455E0,-1.384842768E-2,7.763108611E-2,7.070687413E-2
3.930540059E0,2.130527282E-3,8.508793265E-2,7.496792823E-2
3.933027664E0,1.491369121E-2,9.361004084E-2,7.816372067E-2
3.935515268E0,2.556632832E-2,9.787109494E-2,8.242477477E-2
3.938002872E0,3.408843651E-2,1.010668874E-1,8.562056720E-2
3.940490476E0,3.941475600E-2,1.000016257E-1,8.775109053E-2
3.942978080E0,4.154528305E-2,9.680583328E-2,8.881635964E-2
3.945465684E0,4.261054471E-2,8.934898674E-2,8.988162130E-2
3.947953289E0,4.048001766E-2,7.763108611E-2,9.094688296E-2
3.950440893E0,3.728422895E-2,6.271740049E-2,9.094688296E-2
3.952928497E0,3.302317113E-2,4.567318037E-2,8.988162130E-2
3.955416101E0,2.663159184E-2,2.649843320E-2,8.988162130E-2
3.957903705E0,1.917474531E-2,7.323687430E-3,8.881635964E-2
3.960391309E0,1.171789970E-2,-1.291632187E-2,8.668582886E-2
3.962878914E0,3.195791040E-3,-3.315633163E-2,8.349003643E-2
3.965366518E0,-4.261054564E-3,-5.339634046E-2,7.922898233E-2
3.967854122E0,-1.171789970E-2,-7.257108390E-2,7.283740491E-2
3.970341726E0,-1.917474531E-2,-9.068056941E-2,6.751108170E-2
3.972829330E0,-2.556632832E-2,-1.098553166E-1,6.005423889E-2
3.975316934E0,-3.302317113E-2,-1.290300637E-1,5.259739235E-2
3.977804539E0,-3.728422895E-2,-1.482048035E-1,4.407528415E-2
3.980292143E0,-4.154528305E-2,-1.663142890E-1,3.555317223E-2
3.982779747E0,-4.580633715E-2,-1.844237745E-1,2.703106403E-2
3.985267351E0,-4.793686420E-2,-2.035985142E-1,1.744369231E-2
3.987754955E0,-5.006739125E-2,-2.217079997E-1,9.986846708E-3
3.990242559E0,-5.219791830E-2,-2.398174703E-1,2.530001104E-3
3.992730164E0,-5.219791830E-2,-2.568616867E-1,-3.861580743E-3
3.995217768E0,-5.219791830E-2,-2.728406489E-1,-9.187898599E-3
3.997705372E0,-5.113265663E-2,-2.866890728E-1,-1.451421715E-2
4.000192976E0,-4.793686420E-2,-2.994722426E-1,-1.664474420E-2
4.002680580E0,-4.474107176E-2,-3.090596199E-1,-1.771000773E-2
4.005168184E0,-4.154528305E-2,-3.165164590E-1,-1.771000773E-2
4.007655789E0,-3.621896356E-2,-3.229080439E-1,-1.451421715E-2
4.010143393E0,-2.982738242E-2,-3.261038363E-1,-1.131842658E-2
4.012630997E0,-2.130527236E-2,-3.282343447E-1,-4.926844500E-3
4.015118601E0,-1.278316416E-2,-3.282343447E-1,1.464737463E-3
4.017606205E0,-1.065263641E-3,-3.261038363E-1,9.986846708E-3
4.020093809E0,1.065263618E-2,-3.207775056E-1,2.063948289E-2
4.022581414E0,2.450106293E-2,-3.154512048E-1,3.235738352E-2
4.025069018E0,3.941475600E-2,-3.090596199E-1,4.514054582E-2
4.027556622E0,5.539371073E-2,-3.016027808E-1,5.898897350E-2
4.030044226E0,7.243792713E-2,-2.930806577E-1,7.283740491E-2
4.032531830E0,9.054741263E-2,-2.845585644E-1,8.775109053E-2
4.035019434E0,1.097221524E-1,-2.749711871E-1,1.015995219E-1
4.037507039E0,1.288969070E-1,-2.643185556E-1,1.165132076E-1
4.039994643E0,1.470063776E-1,-2.547311783E-1,1.292963773E-1
4.042482247E0,1.661811322E-1,-2.440785319E-1,1.431448013E-1
4.044969851E0,1.853558719E-1,-2.312953621E-1,1.548627019E-1
4.047457455E0,2.055958807E-1,-2.185122073E-1,1.655153334E-1
4.049945059E0,2.237053663E-1,-2.046637833E-1,1.751027107E-1
4.052432664E0,2.428801060E-1,-1.908153445E-1,1.825595498E-1
4.054920268E0,2.631201148E-1,-1.759016514E-1,1.889511347E-1
4.057407872E0,2.812296152E-1,-1.631184965E-1,1.942774504E-1
4.059895476E0,2.993390858E-1,-1.503353268E-1,1.985385120E-1
4.062383080E0,3.153180480E-1,-1.386174262E-1,2.006690353E-1
4.064870684E0,3.302317262E-1,-1.268995255E-1,2.006690353E-1
4.067358289E0,3.419496417E-1,-1.151816323E-1,1.985385120E-1
4.069845893E0,3.515369892E-1,-1.023984700E-1,1.942774504E-1
4.072333497E0,3.557980657E-1,-9.174583107E-2,1.900164038E-1
4.074821101E0,3.589938581E-1,-8.109319210E-2,1.836248189E-1
4.077308705E0,3.579285741E-1,-7.150582224E-2,1.761679798E-1
4.079796309E0,3.536675274E-1,-6.191844866E-2,1.676458716E-1
4.082283914E0,3.472759426E-1,-5.446160212E-2,1.580584943E-1
4.084771518E0,3.387538493E-1,-4.807002097E-2,1.484711170E-1
4.087259122E0,3.281011879E-1,-4.274370521E-2,1.378184855E-1
4.089746726E0,3.142527640E-1,-3.954791278E-2,1.282311082E-1
4.092234330E0,2.993390858E-1,-3.528685868E-2,1.186437383E-1
4.094721934E0,2.822948694E-1,-3.209106624E-2,1.090563685E-1
4.097209539E0,2.620548606E-1,-2.889527567E-2,9.840372950E-2
4.099697143E0,2.428801060E-1,-2.463422157E-2,8.775109053E-2
4.102184747E0,2.226400971E-1,-2.143843099E-2,7.709845901E-2
4.104672351E0,2.024000883E-1,-1.717737690E-2,6.751108170E-2
4.107159955E0,1.821600795E-1,-1.398158539E-2,5.792371184E-2
4.109647559E0,1.619200706E-1,-9.720530361E-3,4.833633825E-2
4.112135164E0,1.427453309E-1,-6.524739787E-3,3.981423005E-2
4.114622768E0,1.246358454E-1,-3.328948980E-3,3.129211813E-2
4.117110372E0,1.075916290E-1,-1.331579551E-4,2.383527346E-2
4.119597976E0,9.161267430E-2,4.127896391E-3,1.744369231E-2
4.122085580E0,7.669898123E-2,7.323687430E-3,1.211737376E-2
4.124573184E0,6.285055727E-2,1.265000552E-2,7.856319658E-3
4.127060789E0,5.006739125E-2,1.584579609E-2,3.595264861E-3
4.129548393E0,3.728422895E-2,2.010685205E-2,3.994738800E-4
4.132035997E0,2.663159184E-2,2.330264263E-2,-2.796316985E-3
4.134523601E0,1.597895473E-2,2.649843320E-2,-3.861580743E-3
4.137011205E0,5.326318089E-3,3.075948730E-2,-4.926844500E-3
4.139498809E0,-5.326318089E-3,3.395527974E-2,-5.992108025E-3
4.141986414E0,-1.491369121E-2,3.715106845E-2,-4.926844500E-3
4.144474018E0,-2.556632832E-2,4.141212255E-2,-3.861580743E-3
4.146961622E0,-3.515370190E-2,4.567318037E-2,-1.731053460E-3
4.149449226E0,-4.367581010E-2,5.099949613E-2,3.994738800E-4
4.151936830E0,-5.219791830E-2,5.632581562E-2,2.530001104E-3
4.154424434E0,-6.178529188E-2,6.271740049E-2,4.660528619E-3
4.156912039E0,-6.924213469E-2,7.017423958E-2,7.856319658E-3
4.159399643E0,-7.669898123E-2,7.656582445E-2,9.986846708E-3
4.161887247E0,-8.415582776E-2,8.402267098E-2,1.105211023E-2
4.164374851E0,-9.054741263E-2,9.041424841E-2,1.318263728E-2
4.166862455E0,-9.587372839E-2,9.787109494E-2,1.531316526E-2
4.169350059E0,-1.012000442E-1,1.053279415E-1,1.531316526E-2
4.171837664E0,-1.043958366E-1,1.117195264E-1,1.744369231E-2
4.174325268E0,-1.065263674E-1,1.170458421E-1,1.957421936E-2
4.176812872E0,-1.065263674E-1,1.213068962E-1,2.170474641E-2
4.179300476E0,-1.054610983E-1,1.266332120E-1,2.383527346E-2
4.181788080E0,-1.033305749E-1,1.298290044E-1,2.490053698E-2
4.184275684E0,-1.001347825E-1,1.330247968E-1,2.596580051E-2
4.186763289E0,-9.480846673E-2,1.362205893E-1,2.703106403E-2
4.189250893E0,-8.948214352E-2,1.394163817E-1,2.703106403E-2
4.191738497E0,-8.415582776E-2,1.436774284E-1,2.809632942E-2
4.194226101E0,-7.669898123E-2,1.479384899E-1,2.809632942E-2
4.196713705E0,-6.924213469E-2,1.521995366E-1,2.916159295E-2
4.199201309E0,-6.178529188E-2,1.575258672E-1,2.809632942E-2
4.201688914E0,-5.326318368E-2,1.628521830E-1,3.022685647E-2
4.204176518E0,-4.474107176E-2,1.692437679E-1,3.022685647E-2
4.206664122E0,-3.621896356E-2,1.756353378E-1,3.022685647E-2
4.209151726E0,-2.663159184E-2,1.809616536E-1,3.022685647E-2
4.211639330E0,-1.704421826E-2,1.862879843E-1,3.022685647E-2
4.214126934E0,-6.391582079E-3,1.905490309E-1,3.022685647E-2
4.216614539E0,2.130527282E-3,1.937448233E-1,3.022685647E-2
4.219102143E0,1.171789970E-2,1.969406158E-1,2.916159295E-2
4.221589747E0,2.024000883E-2,2.001364082E-1,3.022685647E-2
4.224077351E0,2.876211889E-2,2.022669315E-1,3.022685647E-2
4.226564955E0,3.621896356E-2,2.043974549E-1,3.022685647E-2
4.229052559E0,4.261054471E-2,2.043974549E-1,3.022685647E-2
4.231540164E0,4.900212586E-2,2.043974549E-1,3.129211813E-2
4.234027768E0,5.432844535E-2,2.033322006E-1,3.022685647E-2
4.236515372E0,5.752423778E-2,2.022669315E-1,2.916159295E-2
4.239002976E0,5.858949944E-2,2.012016773E-1,2.809632942E-2
4.241490580E0,5.965476483E-2,2.001364082E-1,2.596580051E-2
4.243978184E0,5.752423778E-2,1.990711391E-1,2.383527346E-2
4.246465789E0,5.432844535E-2,1.980058849E-1,2.063948289E-2
4.248953393E0,4.900212586E-2,1.969406158E-1,1.850895584E-2
4.251440997E0,4.261054471E-2,1.948100924E-1,1.531316526E-2
4.253928653E0,3.408843651E-2,1.916143000E-1,1.211737376E-2
4.256416309E0,2.450106293E-2,1.884185076E-1,9.986846708E-3
4.258903966E0,1.491369121E-2,1.841574460E-1,7.856319658E-3
4.261391622E0,4.261054564E-3,1.798963994E-1,4.660528619E-3
4.263879278E0,-6.391582079E-3,1.745700836E-1,2.530001104E-3
4.266366934E0,-1.704421826E-2,1.692437679E-1,-6.657897611E-4
4.268854591E0,-2.876211889E-2,1.649827063E-1,-2.796316985E-3
4.271342247E0,-3.941475600E-2,1.607216448E-1,-7.057371549E-3
4.273829903E0,-4.900212586E-2,1.564605981E-1,-1.025316212E-2
4.276317559E0,-5.965476483E-2,1.511342824E-1,-1.344895363E-2
4.278805216E0,-6.817687303E-2,1.458079666E-1,-1.771000773E-2
4.281292872E0,-7.669898123E-2,1.394163817E-1,-2.090579830E-2
4.283780528E0,-8.415582776E-2,1.340900660E-1,-2.516685426E-2
4.286268184E0,-9.054741263E-2,1.287637353E-1,-2.942790836E-2
4.288755841E0,-9.480846673E-2,1.223721579E-1,-3.368896246E-2
4.291243497E0,-9.906952083E-2,1.191763729E-1,-3.795001656E-2
4.293731153E0,-1.022653133E-1,1.149153188E-1,-4.221107066E-2
4.296218809E0,-1.033305749E-1,1.106542572E-1,-4.647212476E-2
4.298706466E0,-1.033305749E-1,1.074584723E-1,-5.073318258E-2
4.301194122E0,-1.022653133E-1,1.021321490E-1,-5.499423668E-2
4.303681778E0,-1.012000442E-1,9.787109494E-2,-5.925529078E-2
4.306169434E0,-9.800425172E-2,9.361004084E-2,-6.351634115E-2
4.308657091E0,-9.480846673E-2,8.828372508E-2,-6.777740270E-2
4.311144747E0,-9.054741263E-2,8.402267098E-2,-7.310371846E-2
4.313632403E0,-8.628635854E-2,7.763108611E-2,-7.736477256E-2
4.316120059E0,-8.096003532E-2,7.230477035E-2,-8.162582666E-2
4.318607716E0,-7.563371956E-2,6.484792382E-2,-8.588688076E-2
4.321095372E0,-6.817687303E-2,5.845634267E-2,-9.014793485E-2
4.323583028E0,-6.072002649E-2,5.099949613E-2,-9.440898895E-2
4.326070684E0,-5.219791830E-2,4.247738793E-2,-9.867004305E-2
4.328558289E0,-4.261054471E-2,3.395527974E-2,-1.018658355E-1
4.331045893E0,-3.195790946E-2,2.543316968E-2,-1.039963663E-1
4.333533497E0,-2.130527236E-2,1.691105962E-2,-1.071921512E-1
4.336021101E0,-8.522109129E-3,9.454214945E-3,-1.103879437E-1
4.338508705E0,5.326318089E-3,9.321057005E-4,-1.125184745E-1
4.340996309E0,1.810948178E-2,-5.459476262E-3,-1.146489978E-1
4.343483914E0,3.195790946E-2,-1.185105834E-2,-1.157142594E-1
4.345971518E0,4.580633715E-2,-1.611211337E-2,-1.157142594E-1
4.348459122E0,5.965476483E-2,-1.930790395E-2,-1.146489978E-1
4.350946726E0,7.350318879E-2,-2.143843099E-2,-1.146489978E-1
4.353434330E0,8.522108942E-2,-2.250369452E-2,-1.146489978E-1
4.355921934E0,9.587372839E-2,-2.356895804E-2,-1.125184745E-1
4.358409539E0,1.054610983E-1,-2.356895804E-2,-1.114532053E-1
4.360897143E0,1.129179448E-1,-2.250369452E-2,-1.093226820E-1
4.363384747E0,1.193095297E-1,-2.356895804E-2,-1.061268896E-1
4.365872351E0,1.246358454E-1,-2.356895804E-2,-1.039963663E-1
4.368359955E0,1.288969070E-1,-2.463422157E-2,-1.008005738E-1
4.370847559E0,1.299621612E-1,-2.569948509E-2,-9.760478139E-2
4.373335164E0,1.310274303E-1,-2.783001214E-2,-9.547425061E-2
4.375822768E0,1.278316379E-1,-2.996053919E-2,-9.334372729E-2
4.378310372E0,1.235705838E-1,-3.422159329E-2,-9.121319652E-2
4.380797976E0,1.171789989E-1,-3.741738573E-2,-9.014793485E-2
4.383285580E0,1.086568907E-1,-4.274370521E-2,-8.908267319E-2
4.385773184E0,9.800425172E-2,-4.700475931E-2,-8.908267319E-2
4.388260789E0,8.735162020E-2,-5.126581341E-2,-8.908267319E-2
4.390748393E0,7.563371956E-2,-5.552686751E-2,-8.908267319E-2
4.393235997E0,6.498108059E-2,-5.978792161E-2,-8.908267319E-2
4.395723601E0,5.326318368E-2,-6.298371404E-2,-9.014793485E-2
4.398211205E0,4.367581010E-2,-6.724476814E-2,-9.014793485E-2
4.400698809E0,3.515370190E-2,-7.044056058E-2,-9.121319652E-2
4.403186414E0,2.663159184E-2,-7.363634557E-2,-9.334372729E-2
4.405674018E0,2.130527236E-2,-7.576687634E-2,-9.440898895E-2
4.408161622E0,1.597895473E-2,-7.789740711E-2,-9.547425061E-2
4.410649226E0,1.171789970E-2,-7.789740711E-2,-9.867004305E-2
4.413136830E0,7.456845604E-3,-7.789740711E-2,-9.973530471E-2
4.415624434E0,5.326318089E-3,-7.789740711E-2,-1.008005738E-1
4.418112039E0,3.195791040E-3,-7.683213800E-2,-1.029310971E-1
4.420599643E0,3.195791040E-3,-7.363634557E-2,-1.050616279E-1
4.423087247E0,3.195791040E-3,-7.044056058E-2,-1.050616279E-1
4.425574851E0,4.261054564E-3,-6.724476814E-2,-1.050616279E-1
4.428062455E0,6.391582079E-3,-6.298371404E-2,-1.061268896E-1
4.430550059E0,7.456845604E-3,-5.872265995E-2,-1.071921512E-1
4.433037664E0,9.587372653E-3,-5.233107507E-2,-1.093226820E-1
4.435525268E0,1.065263618E-2,-4.700475931E-2,-1.114532053E-1
4.438012872E0,1.171789970E-2,-4.167843983E-2,-1.146489978E-1
4.440500476E0,1.065263618E-2,-3.635212034E-2,-1.167795286E-1
4.442988080E0,8.522109129E-3,-3.102580272E-2,-1.199753210E-1
4.445475684E0,4.261054564E-3,-2.676474862E-2,-1.231711060E-1
4.447963289E0,-1.065263641E-3,-2.250369452E-2,-1.263668984E-1
4.450450893E0,-8.522109129E-3,-1.930790395E-2,-1.284974217E-1
4.452938497E0,-1.704421826E-2,-1.504684892E-2,-1.306279600E-1
4.455426101E0,-2.769685537E-2,-1.291632187E-2,-1.338237375E-1
4.457913705E0,-4.048001766E-2,-1.185105834E-2,-1.359542757E-1
4.460401309E0,-5.432844535E-2,-1.078579482E-2,-1.380847991E-1
4.462888914E0,-6.924213469E-2,-1.078579482E-2,-1.391500682E-1
4.465376518E0,-8.522108942E-2,-1.185105834E-2,-1.402153224E-1
4.467864122E0,-1.012000442E-1,-1.185105834E-2,-1.402153224E-1
4.470351726E0,-1.182442605E-1,-1.398158539E-2,-1.402153224E-1
4.472839330E0,-1.342232227E-1,-1.717737690E-2,-1.380847991E-1
4.475326934E0,-1.491369158E-1,-2.037316747E-2,-1.348890066E-1
4.477814539E0,-1.619200706E-1,-2.569948509E-2,-1.316932142E-1
4.480302143E0,-1.725727171E-1,-3.102580272E-2,-1.274321675E-1
4.482789747E0,-1.810948253E-1,-3.635212034E-2,-1.231711060E-1
4.485277351E0,-1.853558719E-1,-4.061317816E-2,-1.189100519E-1
4.487764955E0,-1.874863952E-1,-4.593949392E-2,-1.125184745E-1
4.490252559E0,-1.853558719E-1,-5.126581341E-2,-1.071921512E-1
4.492740164E0,-1.810948253E-1,-5.552686751E-2,-1.029310971E-1
4.495227768E0,-1.715074480E-1,-5.872265995E-2,-9.760478139E-2
4.497715372E0,-1.597895473E-1,-6.085318699E-2,-9.334372729E-2
4.500202976E0,-1.470063776E-1,-6.191844866E-2,-8.801741153E-2
4.502690580E0,-1.310274303E-1,-6.191844866E-2,-8.269108832E-2
4.505178184E0,-1.129179448E-1,-6.191844866E-2,-7.736477256E-2
4.507665789E0,-9.374319762E-2,-5.978792161E-2,-7.203845680E-2
4.510153393E0,-7.350318879E-2,-5.659212917E-2,-6.671213359E-2
4.512640997E0,-5.326318368E-2,-5.339634046E-2,-6.138581783E-2
4.515128601E0,-3.408843651E-2,-4.807002097E-2,-5.605949834E-2
4.517616205E0,-1.597895473E-2,-4.274370521E-2,-4.860265180E-2
4.520103809E0,1.065263641E-3,-3.635212034E-2,-4.114580899E-2
4.522591414E0,1.597895473E-2,-3.102580272E-2,-3.368896246E-2
4.525079018E0,2.876211889E-2,-2.783001214E-2,-2.623211779E-2
4.527566622E0,3.834949061E-2,-2.250369452E-2,-1.771000773E-2
4.530054226E0,4.580633715E-2,-2.037316747E-2,-9.187898599E-3
4.532541830E0,4.900212586E-2,-1.824264042E-2,-1.731053460E-3
4.535029434E0,4.900212586E-2,-1.717737690E-2,6.791055668E-3
4.537517039E0,4.687159881E-2,-1.611211337E-2,1.424790081E-2
4.540004643E0,4.154528305E-2,-1.398158539E-2,1.957421936E-2
4.542492247E0,3.089264594E-2,-1.291632187E-2,2.596580051E-2
4.544979851E0,1.810948178E-2,-9.720530361E-3,3.129211813E-2
4.547467455E0,2.130527282E-3,-6.524739787E-3,3.555317223E-2
4.549955059E0,-1.704421826E-2,-2.263685223E-3,3.768370301E-2
4.552442664E0,-3.834949061E-2,1.997369342E-3,3.981423005E-2
4.554930268E0,-6.178529188E-2,7.323687430E-3,4.087949172E-2
4.557417872E0,-8.841688186E-2,1.158474199E-2,4.194475710E-2
4.559905476E0,-1.161137372E-1,1.584579609E-2,4.194475710E-2
4.562393080E0,-1.438105851E-1,1.904158667E-2,4.194475710E-2
4.564880684E0,-1.715074480E-1,2.223737910E-2,4.194475710E-2
4.567368289E0,-2.002695650E-1,2.436790615E-2,4.194475710E-2
4.569855893E0,-2.279664129E-1,2.543316968E-2,4.194475710E-2
4.572343497E0,-2.545980215E-1,2.436790615E-2,4.301001877E-2
4.574831101E0,-2.790990770E-1,2.436790615E-2,4.301001877E-2
4.577318705E0,-3.025348783E-1,2.223737910E-2,4.301001877E-2
4.579806309E0,-3.249054253E-1,2.010685205E-2,4.301001877E-2
4.582293914E0,-3.440801501E-1,1.691105962E-2,4.407528415E-2
4.584781518E0,-3.621896505E-1,1.265000552E-2,4.301001877E-2
4.587269122E0,-3.771033287E-1,8.388951421E-3,4.194475710E-2
4.589756726E0,-3.888212144E-1,5.193160381E-3,4.087949172E-2
4.592244330E0,-3.984085917E-1,9.321057005E-4,3.874896467E-2
4.594731934E0,-4.048001766E-1,-3.328948980E-3,3.661843762E-2
4.597219539E0,-4.090612531E-1,-6.524739787E-3,3.448791057E-2
4.599707143E0,-4.101265073E-1,-1.078579482E-2,3.022685647E-2
4.602194747E0,-4.101265073E-1,-1.398158539E-2,2.703106403E-2
4.604682351E0,-4.069307148E-1,-1.611211337E-2,2.277000993E-2
4.607169955E0,-4.026696682E-1,-1.824264042E-2,1.850895584E-2
4.609657559E0,-3.952127993E-1,-1.930790395E-2,1.424790081E-2
4.612145164E0,-3.866907060E-1,-1.930790395E-2,1.105211023E-2
4.614632768E0,-3.760380745E-1,-1.930790395E-2,7.856319658E-3
4.617120372E0,-3.632549047E-1,-1.930790395E-2,4.660528619E-3
4.619607976E0,-3.483411968E-1,-1.824264042E-2,2.530001104E-3
4.622095580E0,-3.323622644E-1,-1.824264042E-2,3.994738800E-4
4.624583184E0,-3.153180480E-1,-1.717737690E-2,3.994738800E-4
4.627070789E0,-2.982738316E-1,-1.717737690E-2,3.994738800E-4
4.629558393E0,-2.812296152E-1,-1.717737690E-2,2.530001104E-3
4.632045997E0,-2.631201148E-1,-1.717737690E-2,5.725792143E-3
4.634533601E0,-2.450106442E-1,-1.824264042E-2,9.986846708E-3
4.637021205E0,-2.279664129E-1,-1.717737690E-2,1.424790081E-2
4.639508809E0,-2.119874656E-1,-1.611211337E-2,2.063948289E-2
4.641996414E0,-1.970737725E-1,-1.504684892E-2,2.703106403E-2
4.644484018E0,-1.821600795E-1,-1.398158539E-2,3.448791057E-2
4.646971622E0,-1.683116555E-1,-1.291632187E-2,4.301001877E-2
4.649459226E0,-1.555284858E-1,-1.185105834E-2,5.153212696E-2
4.651946830E0,-1.427453309E-1,-1.078579482E-2,6.005423889E-2
4.654434434E0,-1.310274303E-1,-9.720530361E-3,6.857634336E-2
4.656922039E0,-1.193095297E-1,-8.655266836E-3,7.709845901E-2
4.659409643E0,-1.086568907E-1,-7.590003312E-3,8.562056720E-2
4.661897247E0,-9.906952083E-2,-6.524739787E-3,9.520793706E-2
4.664384851E0,-8.841688186E-2,-5.459476262E-3,1.026647836E-1
4.666872455E0,-7.882951200E-2,-4.394212738E-3,1.111868918E-1
4.669360059E0,-7.030740380E-2,-3.328948980E-3,1.186437383E-1
4.671847664E0,-6.178529188E-2,-3.328948980E-3,1.250353158E-1
4.674335268E0,-5.432844535E-2,-3.328948980E-3,1.314269006E-1
4.676822872E0,-4.580633715E-2,-4.394212738E-3,1.367532164E-1
4.679310476E0,-3.728422895E-2,-5.459476262E-3,1.399490088E-1
4.681798132E0,-2.982738242E-2,-5.459476262E-3,1.431448013E-1
4.684285789E0,-2.237053588E-2,-5.459476262E-3,1.452753246E-1
4.686773445E0,-1.384842768E-2,-5.459476262E-3,1.463405937E-1
4.689261101E0,-5.326318089E-3,-5.459476262E-3,1.474058628E-1
4.691748757E0,2.130527282E-3,-4.394212738E-3,1.495363861E-1
4.694236414E0,1.065263618E-2,-3.328948980E-3,1.495363861E-1
4.696724070E0,1.917474531E-2,-1.198421582E-3,1.495363861E-1
4.699211726E0,2.663159184E-2,-1.331579551E-4,1.495363861E-1
4.701699382E0,3.408843651E-2,1.997369342E-3,1.484711170E-1
4.704187039E0,3.941475600E-2,5.193160381E-3,1.474058628E-1
4.706674695E0,4.367581010E-2,8.388951421E-3,1.452753246E-1
4.709162351E0,4.580633715E-2,1.051947847E-2,1.431448013E-1
4.711650007E0,4.580633715E-2,1.265000552E-2,1.388837546E-1
4.714137664E0,4.474107176E-2,1.371526904E-2,1.356879622E-1
4.716625320E0,4.048001766E-2,1.371526904E-2,1.314269006E-1
4.719112976E0,3.515370190E-2,1.265000552E-2,1.271658540E-1
4.721600632E0,2.769685537E-2,1.051947847E-2,1.229047924E-1
4.724088289E0,1.810948178E-2,7.323687430E-3,1.165132076E-1
4.726575945E0,8.522109129E-3,3.062632866E-3,1.122521535E-1
4.729063601E0,-2.130527282E-3,-1.198421582E-3,1.069258377E-1
4.731551257E0,-1.384842768E-2,-5.459476262E-3,1.015995219E-1
4.734038914E0,-2.663159184E-2,-1.078579482E-2,9.627319872E-2
4.736526570E0,-3.834949061E-2,-1.398158539E-2,9.201214463E-2
4.739014226E0,-5.006739125E-2,-1.824264042E-2,8.668582886E-2
4.741501882E0,-6.072002649E-2,-2.250369452E-2,8.135951310E-2
4.743989539E0,-7.030740380E-2,-2.569948509E-2,7.603318989E-2
4.746477195E0,-7.989477366E-2,-2.783001214E-2,7.070687413E-2
4.748964851E0,-8.628635854E-2,-2.996053919E-2,6.538055837E-2
4.751452507E0,-9.161267430E-2,-3.209106624E-2,6.005423889E-2
4.753940164E0,-9.587372839E-2,-3.315633163E-2,5.579318479E-2
4.756427768E0,-9.800425172E-2,-3.422159329E-2,5.046686530E-2
4.758915372E0,-9.800425172E-2,-3.528685868E-2,4.620581120E-2
4.761402976E0,-9.693899006E-2,-3.528685868E-2,4.194475710E-2
4.763890580E0,-9.267793596E-2,-3.528685868E-2,3.874896467E-2
4.766378184E0,-8.735162020E-2,-3.422159329E-2,3.555317223E-2
4.768865789E0,-8.096003532E-2,-3.209106624E-2,3.448791057E-2
4.771353393E0,-7.243792713E-2,-2.996053919E-2,3.235738352E-2
4.773840997E0,-6.178529188E-2,-2.783001214E-2,3.235738352E-2
4.776328601E0,-5.006739125E-2,-2.356895804E-2,3.235738352E-2
4.778816205E0,-3.834949061E-2,-2.037316747E-2,3.235738352E-2
4.781303809E0,-2.769685537E-2,-1.504684892E-2,3.342264518E-2
4.783791414E0,-1.704421826E-2,-1.078579482E-2,3.555317223E-2
4.786279018E0,-5.326318089E-3,-6.524739787E-3,3.768370301E-2
4.788766622E0,4.261054564E-3,-3.328948980E-3,3.981423005E-2
4.791254226E0,1.384842768E-2,9.321057005E-4,4.301001877E-2
4.793741830E0,2.237053588E-2,5.193160381E-3,4.620581120E-2
4.796229434E0,2.876211889E-2,1.051947847E-2,4.940159991E-2
4.798717039E0,3.408843651E-2,1.584579609E-2,5.366265774E-2
4.801204643E0,3.834949061E-2,2.010685205E-2,5.685844645E-2
4.803692247E0,4.048001766E-2,2.543316968E-2,6.111950055E-2
4.806179851E0,4.048001766E-2,3.075948730E-2,6.538055837E-2
4.808667455E0,3.834949061E-2,3.608580679E-2,6.964161247E-2
4.811155059E0,3.515370190E-2,4.247738793E-2,7.283740491E-2
4.813642664E0,2.876211889E-2,4.886896908E-2,7.603318989E-2
4.816130268E0,2.130527236E-2,5.419528857E-2,7.922898233E-2
4.818617872E0,1.171789970E-2,6.058686972E-2,8.135951310E-2
4.821105476E0,0.000000000E0,6.591318548E-2,8.349003643E-2
4.823593080E0,-1.278316416E-2,7.123950869E-2,8.562056720E-2
4.826080684E0,-2.769685537E-2,7.656582445E-2,8.562056720E-2
4.828568289E0,-4.261054471E-2,8.189214021E-2,8.455529809E-2
4.831055893E0,-5.965476483E-2,8.615319431E-2,8.349003643E-2
4.833543497E0,-7.669898123E-2,8.934898674E-2,8.242477477E-2
4.836031101E0,-9.587372839E-2,9.467530251E-2,7.816372067E-2
4.838518705E0,-1.150484756E-1,9.787109494E-2,7.496792823E-2
4.841006309E0,-1.352884769E-1,1.010668874E-1,7.070687413E-2
4.843493914E0,-1.555284858E-1,1.031974182E-1,6.538055837E-2
4.845981518E0,-1.757684946E-1,1.042626798E-1,5.898897350E-2
4.848469122E0,-1.960085034E-1,1.042626798E-1,5.366265774E-2
4.850956726E0,-2.173137814E-1,1.031974182E-1,4.727107286E-2
4.853444330E0,-2.396843135E-1,1.010668874E-1,4.087949172E-2
4.855931934E0,-2.620548606E-1,9.893636405E-2,3.448791057E-2
4.858419539E0,-2.833601236E-1,9.680583328E-2,2.703106403E-2
4.860907143E0,-3.067959249E-1,9.361004084E-2,1.957421936E-2
4.863394747E0,-3.291664720E-1,9.041424841E-2,1.211737376E-2
4.865882351E0,-3.526022732E-1,8.615319431E-2,3.595264861E-3
4.868369955E0,-3.760380745E-1,8.189214021E-2,-5.992108025E-3
4.870857559E0,-4.005391300E-1,7.656582445E-2,-1.557948068E-2
4.873345164E0,-4.239749312E-1,7.017423958E-2,-2.516685426E-2
4.875832768E0,-4.463454783E-1,6.271740049E-2,-3.581948951E-2
4.878320372E0,-4.687159956E-1,5.313002318E-2,-4.647212476E-2
4.880807976E0,-4.910865426E-1,4.247738793E-2,-5.712476373E-2
4.883295580E0,-5.113265514E-1,2.862896025E-2,-6.777740270E-2
4.885783184E0,-5.305013061E-1,1.478053257E-2,-7.736477256E-2
4.888270789E0,-5.475454926E-1,-1.198421582E-3,-8.801741153E-2
4.890758393E0,-5.624592304E-1,-1.930790395E-2,-9.760478139E-2
4.893245997E0,-5.731118321E-1,-3.635212034E-2,-1.071921512E-1
4.895733601E0,-5.795034170E-1,-5.446160212E-2,-1.157142594E-1
4.898221205E0,-5.805686712E-1,-7.150582224E-2,-1.242363751E-1
4.900708809E0,-5.773729086E-1,-8.855003864E-2,-1.316932142E-1
4.903196414E0,-5.677855015E-1,-1.045289934E-1,-1.380847991E-1
4.905684018E0,-5.539370775E-1,-1.173121557E-1,-1.444763839E-1
4.908171622E0,-5.347623229E-1,-1.290300637E-1,-1.498026997E-1
4.910659226E0,-5.113265514E-1,-1.375521719E-1,-1.551290154E-1
4.913146830E0,-4.825644195E-1,-1.428784877E-1,-1.583248079E-1
4.915634434E0,-4.495412707E-1,-1.428784877E-1,-1.604553312E-1
4.918122039E0,-4.122570157E-1,-1.418132186E-1,-1.615206003E-1
4.920609643E0,-3.739075363E-1,-1.386174262E-1,-1.604553312E-1
4.923097247E0,-3.323622644E-1,-1.332911104E-1,-1.572595388E-1
4.925584851E0,-2.897517085E-1,-1.279647946E-1,-1.519332230E-1
4.928072455E0,-2.450106442E-1,-1.194426864E-1,-1.466069072E-1
4.930560059E0,-2.024000883E-1,-1.109205782E-1,-1.402153224E-1
4.933047664E0,-1.629853398E-1,-1.013332009E-1,-1.327584833E-1
4.935535268E0,-1.257011145E-1,-9.068056941E-2,-1.253016293E-1
4.938022872E0,-9.267793596E-2,-7.896266878E-2,-1.178447902E-1
4.940510476E0,-6.498108059E-2,-6.724476814E-2,-1.103879437E-1
4.942998080E0,-4.261054471E-2,-5.659212917E-2,-1.050616279E-1
4.945485684E0,-2.769685537E-2,-4.593949392E-2,-1.008005738E-1
4.947973289E0,-1.917474531E-2,-3.422159329E-2,-9.653951973E-2
4.950460893E0,-1.597895473E-2,-2.463422157E-2,-9.334372729E-2
4.952948757E0,-1.917474531E-2,-1.611211337E-2,-9.121319652E-2
4.955436622E0,-2.982738242E-2,-8.655266836E-3,-8.908267319E-2
4.957924487E0,-4.367581010E-2,-2.263685223E-3,-8.801741153E-2
4.960412091E0,-6.391581893E-2,-1.331579551E-4,-8.801741153E-2
4.962899695E0,-8.841688186E-2,9.321057005E-4,-8.908267319E-2
4.965387299E0,-1.150484756E-1,-1.198421582E-3,-9.121319652E-2
4.967874903E0,-1.438105851E-1,-5.459476262E-3,-9.440898895E-2
4.970362507E0,-1.757684946E-1,-1.185105834E-2,-9.867004305E-2
4.972850112E0,-2.077264041E-1,-2.143843099E-2,-1.039963663E-1
4.975337716E0,-2.407495826E-1,-3.102580272E-2,-1.093226820E-1
4.977825320E0,-2.716422379E-1,-4.380896688E-2,-1.157142594E-1
