"Time (s)","Gyroscope x (rad/s)","Gyroscope y (rad/s)","Gyroscope z (rad/s)"
4.865068100E-2,6.958834529E-1,6.709829569E-1,4.689823091E-1
5.112750300E-2,6.948181987E-1,6.901576519E-1,4.657865167E-1
5.360745100E-2,6.948181987E-1,7.125282288E-1,4.615254700E-1
5.609068100E-2,6.969487667E-1,7.348987460E-1,4.583296776E-1
5.857724300E-2,7.001445293E-1,7.572692633E-1,4.561991692E-1
6.106708700E-2,7.033402920E-1,7.775092721E-1,4.530033767E-1
6.356000300E-2,7.065361142E-1,7.966840267E-1,4.508728385E-1
6.605562800E-2,7.097318769E-1,8.147935271E-1,4.498075843E-1
6.855354500E-2,7.129276991E-1,8.307724595E-1,4.487423003E-1
7.105328500E-2,7.161234617E-1,8.435556293E-1,4.487423003E-1
7.355427400E-2,7.193192840E-1,8.542082906E-1,4.508728385E-1
7.605594100E-2,7.225150466E-1,8.627303839E-1,4.530033767E-1
7.855771200E-2,7.267761230E-1,8.680567145E-1,4.551338851E-1
8.104864900E-2,7.299718857E-1,8.701872230E-1,4.583296776E-1
8.353646200E-2,7.342329621E-1,8.691219687E-1,4.636560082E-1
8.602427400E-2,7.384940386E-1,8.659262061E-1,4.700475931E-1
8.851208700E-2,7.427550554E-1,8.605998755E-1,4.753738940E-1
9.099989900E-2,7.480813861E-1,8.531430364E-1,4.807002246E-1
9.348771200E-2,7.523424625E-1,8.435556293E-1,4.881570637E-1
9.597552400E-2,7.597993016E-1,8.339682817E-1,4.945486486E-1
9.846333700E-2,7.651256323E-1,8.233156204E-1,5.009402037E-1
1.009511490E-1,7.715172172E-1,8.115977645E-1,5.062665343E-1
1.034389620E-1,7.779088020E-1,7.998798490E-1,5.105276108E-1
1.059267740E-1,7.821698189E-1,7.860314250E-1,5.158539414E-1
1.084145870E-1,7.874961495E-1,7.711177468E-1,5.190497041E-1
1.109023990E-1,7.906919122E-1,7.551387548E-1,5.211802125E-1
1.133902120E-1,7.938877344E-1,7.391598225E-1,5.243760347E-1
1.158780240E-1,7.949529886E-1,7.231808305E-1,5.254412889E-1
1.183658370E-1,7.960182428E-1,7.061366439E-1,5.275717974E-1
1.208536490E-1,7.960182428E-1,6.912229657E-1,5.297023654E-1
1.233414620E-1,7.960182428E-1,6.773745418E-1,5.307676196E-1
1.258292740E-1,7.981488109E-1,6.667218804E-1,5.318328738E-1
1.283170870E-1,7.992140651E-1,6.571345329E-1,5.328981280E-1
1.308048990E-1,8.002793193E-1,6.518082023E-1,5.339633822E-1
1.332927120E-1,8.024098277E-1,6.486123800E-1,5.328981280E-1
1.357805240E-1,8.056056499E-1,6.464818716E-1,5.318328738E-1
1.382683370E-1,8.088014126E-1,6.454166174E-1,5.318328738E-1
1.407561490E-1,8.130624890E-1,6.464818716E-1,5.307676196E-1
1.432439620E-1,8.162582517E-1,6.486123800E-1,5.297023654E-1
1.457317740E-1,8.194540739E-1,6.507429481E-1,5.297023654E-1
1.482195870E-1,8.226498365E-1,6.539387107E-1,5.307676196E-1
1.507073990E-1,8.258456588E-1,6.571345329E-1,5.307676196E-1
1.531952120E-1,8.279761672E-1,6.613955498E-1,5.328981280E-1
1.556830240E-1,8.290414214E-1,6.656566262E-1,5.339633822E-1
1.581708370E-1,8.301066756E-1,6.699176431E-1,5.350286365E-1
1.606586490E-1,8.301066756E-1,6.741787195E-1,5.382244587E-1
1.631464620E-1,8.290414214E-1,6.773745418E-1,5.392897129E-1
1.656342740E-1,8.269109130E-1,6.816355586E-1,5.424855351E-1
1.681220870E-1,8.247803450E-1,6.837661266E-1,5.446160436E-1
1.706098990E-1,8.226498365E-1,6.880271435E-1,5.467465520E-1
1.730977120E-1,8.194540739E-1,6.901576519E-1,5.488771200E-1
1.755855240E-1,8.173235059E-1,6.912229657E-1,5.510076284E-1
1.780733370E-1,8.130624890E-1,6.912229657E-1,5.531381369E-1
1.805611490E-1,8.098666668E-1,6.901576519E-1,5.552686453E-1
1.830489620E-1,8.066709042E-1,6.869618893E-1,5.573992133E-1
1.855367740E-1,8.024098277E-1,6.837661266E-1,5.605949759E-1
1.880245870E-1,8.002793193E-1,6.763092279E-1,5.627255440E-1
1.905123990E-1,7.970834970E-1,6.688523889E-1,5.648560524E-1
1.930002120E-1,7.949529886E-1,6.592650414E-1,5.669865608E-1
1.954880240E-1,7.928224802E-1,6.496776342E-1,5.680518150E-1
1.979758370E-1,7.896266580E-1,6.390250325E-1,5.691171288E-1
2.004636490E-1,7.853656411E-1,6.273071170E-1,5.701823831E-1
2.029514620E-1,7.811045647E-1,6.145239472E-1,5.701823831E-1
2.054392740E-1,7.768434882E-1,6.017407775E-1,5.701823831E-1
2.079270870E-1,7.725824714E-1,5.878923535E-1,5.691171288E-1
2.104148990E-1,7.661908865E-1,5.751091838E-1,5.680518150E-1
2.129027120E-1,7.608645558E-1,5.612607598E-1,5.659213066E-1
2.153905240E-1,7.534077168E-1,5.474123359E-1,5.627255440E-1
2.178783370E-1,7.448856235E-1,5.346291661E-1,5.584644675E-1
2.203661490E-1,7.363634706E-1,5.207807422E-1,5.542033911E-1
2.228539620E-1,7.267761230E-1,5.079975724E-1,5.478118062E-1
2.253417740E-1,7.161234617E-1,4.973449707E-1,5.414202213E-1
2.278295870E-1,7.054708600E-1,4.877575934E-1,5.360939503E-1
2.303173990E-1,6.937529445E-1,4.813660085E-1,5.297023654E-1
2.328052120E-1,6.831002831E-1,4.781702161E-1,5.233107805E-1
2.352930240E-1,6.724476814E-1,4.760396779E-1,5.169191957E-1
2.377808370E-1,6.628602743E-1,4.760396779E-1,5.115928650E-1
2.402686490E-1,6.554034352E-1,4.781702161E-1,5.052012801E-1
2.427564620E-1,6.500771642E-1,4.813660085E-1,4.998749495E-1
2.452442740E-1,6.447508335E-1,4.866923392E-1,4.956139028E-1
2.477320870E-1,6.415550113E-1,4.930838943E-1,4.902876019E-1
2.502198990E-1,6.394245028E-1,5.026713014E-1,4.849612713E-1
2.527077120E-1,6.383592486E-1,5.122586489E-1,4.807002246E-1
2.551955240E-1,6.372939944E-1,5.239765644E-1,4.764391780E-1
2.576833370E-1,6.383592486E-1,5.367597342E-1,4.721781015E-1
2.601711490E-1,6.404897571E-1,5.495429039E-1,4.689823091E-1
2.626589620E-1,6.426202655E-1,5.623260736E-1,4.668518007E-1
2.651467740E-1,6.458160877E-1,5.751091838E-1,4.647212625E-1
2.676345870E-1,6.479465961E-1,5.868270993E-1,4.625907242E-1
2.701223990E-1,6.500771642E-1,5.974797606E-1,4.615254700E-1
2.726102120E-1,6.522076726E-1,6.081323624E-1,4.615254700E-1
2.750980240E-1,6.543381810E-1,6.166545153E-1,4.615254700E-1
2.775858370E-1,6.543381810E-1,6.219807863E-1,4.625907242E-1
2.800736490E-1,6.554034352E-1,6.251766086E-1,4.636560082E-1
2.825614620E-1,6.564686894E-1,6.294376254E-1,4.647212625E-1
2.850492740E-1,6.564686894E-1,6.315681934E-1,4.668518007E-1
2.875370870E-1,6.575340033E-1,6.326334476E-1,4.689823091E-1
2.900248990E-1,6.585992575E-1,6.336987019E-1,4.721781015E-1
2.925127120E-1,6.596645117E-1,6.326334476E-1,4.753738940E-1
2.950005240E-1,6.607297659E-1,6.315681934E-1,4.785696864E-1
2.974883370E-1,6.628602743E-1,6.273071170E-1,4.817654788E-1
2.999761490E-1,6.639255881E-1,6.219807863E-1,4.870918095E-1
3.024639620E-1,6.660560966E-1,6.155892015E-1,4.913528562E-1
3.049517740E-1,6.671213508E-1,6.091976166E-1,4.956139028E-1
3.074395870E-1,6.692518592E-1,6.028060913E-1,4.998749495E-1
3.099273990E-1,6.713824272E-1,5.953491926E-1,5.030707717E-1
3.124152120E-1,6.735129356E-1,5.878923535E-1,5.062665343E-1
3.149030240E-1,6.756434441E-1,5.815007687E-1,5.083971024E-1
3.173908370E-1,6.767086983E-1,5.772397518E-1,5.083971024E-1
3.198786490E-1,6.777740121E-1,5.761744976E-1,5.083971024E-1
3.223664620E-1,6.788392663E-1,5.772397518E-1,5.094623566E-1
3.248542740E-1,6.788392663E-1,5.783050060E-1,5.083971024E-1
3.273420870E-1,6.788392663E-1,5.815007687E-1,5.073317885E-1
3.298298990E-1,6.777740121E-1,5.846965909E-1,5.052012801E-1
3.323177120E-1,6.767086983E-1,5.889576077E-1,5.041360259E-1
3.348055240E-1,6.735129356E-1,5.921534300E-1,5.030707717E-1
3.372933370E-1,6.692518592E-1,5.953491926E-1,5.020055175E-1
3.397811490E-1,6.649908423E-1,5.974797606E-1,5.009402037E-1
3.422689620E-1,6.607297659E-1,5.996102691E-1,5.009402037E-1
3.447567740E-1,6.564686894E-1,5.996102691E-1,5.009402037E-1
3.472445870E-1,6.511424184E-1,5.996102691E-1,5.009402037E-1
3.497323990E-1,6.479465961E-1,5.974797606E-1,5.020055175E-1
3.522202120E-1,6.447508335E-1,5.964145064E-1,5.041360259E-1
3.547080240E-1,6.426202655E-1,5.942839384E-1,5.062665343E-1
3.571958370E-1,6.394245028E-1,5.932186842E-1,5.083971024E-1
3.596836490E-1,6.383592486E-1,5.921534300E-1,5.105276108E-1
3.621714620E-1,6.362286806E-1,5.910881758E-1,5.126581192E-1
3.646592740E-1,6.340981722E-1,5.910881758E-1,5.137233734E-1
3.671470870E-1,6.319676638E-1,5.900229216E-1,5.158539414E-1
3.696348990E-1,6.287718415E-1,5.889576077E-1,5.179844499E-1
3.721227120E-1,6.245108247E-1,5.878923535E-1,5.201149583E-1
3.746105240E-1,6.202497482E-1,5.857618451E-1,5.211802125E-1
3.770983370E-1,6.138581634E-1,5.836313367E-1,5.222455263E-1
3.795861490E-1,6.053360701E-1,5.815007687E-1,5.233107805E-1
3.820739620E-1,5.957486629E-1,5.772397518E-1,5.233107805E-1
3.845617740E-1,5.829655528E-1,5.708481669E-1,5.222455263E-1
3.870495870E-1,5.691171288E-1,5.644565821E-1,5.201149583E-1
3.895373990E-1,5.520728827E-1,5.559344888E-1,5.179844499E-1
3.920252120E-1,5.328981280E-1,5.463470817E-1,5.137233734E-1
3.945130240E-1,5.126581192E-1,5.356944799E-1,5.094623566E-1
3.970008370E-1,4.881570637E-1,5.229113102E-1,5.030707717E-1
3.994886490E-1,4.625907242E-1,5.090628862E-1,4.966791868E-1
4.019764620E-1,4.348938763E-1,4.930838943E-1,4.892223179E-1
4.044642740E-1,4.061317742E-1,4.781702161E-1,4.807002246E-1
4.069520870E-1,3.752391040E-1,4.632565379E-1,4.711128473E-1
4.094398990E-1,3.454117477E-1,4.472775757E-1,4.604602158E-1
4.119277120E-1,3.145190775E-1,4.323638678E-1,4.476770461E-1
4.144155240E-1,2.825611830E-1,4.174501896E-1,4.348938763E-1
4.169033370E-1,2.516685426E-1,4.014712274E-1,4.210454524E-1
4.193911490E-1,2.218411565E-1,3.876228034E-1,4.082622826E-1
4.218789620E-1,1.920137703E-1,3.737743795E-1,3.933486044E-1
4.243667740E-1,1.643169224E-1,3.620564938E-1,3.784348965E-1
4.268545870E-1,1.366200596E-1,3.514038324E-1,3.624559641E-1
4.293423990E-1,1.099884734E-1,3.407512009E-1,3.464770019E-1
4.318302120E-1,8.655267209E-2,3.322291076E-1,3.315632939E-1
4.343180240E-1,6.524740160E-2,3.247722387E-1,3.166496158E-1
4.368058370E-1,4.500738904E-2,3.183806837E-1,3.006706536E-1
4.392936490E-1,2.796317078E-2,3.130543530E-1,2.857569754E-1
4.417814620E-1,1.411474310E-2,3.087933064E-1,2.708432674E-1
4.442692740E-1,2.396843163E-3,3.077280223E-1,2.569948435E-1
4.467570870E-1,-6.125265732E-3,3.066627681E-1,2.442116886E-1
4.492448990E-1,-1.038632076E-2,3.077280223E-1,2.324937880E-1
4.517327120E-1,-1.251684781E-2,3.098585606E-1,2.229064107E-1
4.542205240E-1,-1.038632076E-2,3.130543530E-1,2.133190483E-1
4.567083370E-1,-3.994738683E-3,3.162501454E-1,2.069274634E-1
4.591961490E-1,5.592633970E-3,3.205111921E-1,2.016011477E-1
4.616839620E-1,1.624527015E-2,3.247722387E-1,1.984053552E-1
4.641717740E-1,3.115896136E-2,3.269027770E-1,1.973400861E-1
4.666595870E-1,4.926844314E-2,3.300985694E-1,1.984053552E-1
4.691473990E-1,6.844318658E-2,3.322291076E-1,2.005358785E-1
4.716352120E-1,8.974846452E-2,3.332943618E-1,2.037316710E-1
4.741230240E-1,1.131842583E-1,3.332943618E-1,2.101232558E-1
4.766108370E-1,1.387505829E-1,3.322291076E-1,2.154495716E-1
4.790986490E-1,1.643169224E-1,3.322291076E-1,2.239716798E-1
4.815864620E-1,1.909485012E-1,3.322291076E-1,2.324937880E-1
4.840742740E-1,2.197106332E-1,3.332943618E-1,2.420811653E-1
4.865620870E-1,2.463422120E-1,3.332943618E-1,2.506032586E-1
4.890498990E-1,2.719085515E-1,3.343596160E-1,2.591253817E-1
4.915377120E-1,2.964096069E-1,3.343596160E-1,2.665822208E-1
4.940255240E-1,3.187801540E-1,3.343596160E-1,2.729738057E-1
4.965133370E-1,3.390201628E-1,3.322291076E-1,2.783001363E-1
4.990011490E-1,3.560643792E-1,3.300985694E-1,2.814959288E-1
5.014889620E-1,3.688475490E-1,3.290333152E-1,2.846917212E-1
5.039767740E-1,3.795001805E-1,3.247722387E-1,2.857569754E-1
5.064645870E-1,3.858917654E-1,3.215764761E-1,2.878875136E-1
5.089523990E-1,3.901528120E-1,3.162501454E-1,2.878875136E-1
5.114402120E-1,3.912180662E-1,3.109238148E-1,2.889527678E-1
5.139280240E-1,3.890875578E-1,3.045322299E-1,2.878875136E-1
5.164158370E-1,3.848264813E-1,2.981406748E-1,2.857569754E-1
5.189036490E-1,3.795001805E-1,2.917490900E-1,2.825611830E-1
5.213914620E-1,3.709780574E-1,2.842922211E-1,2.793653905E-1
5.238794830E-1,3.603254259E-1,2.779006660E-1,2.751043439E-1
5.263675030E-1,3.496727943E-1,2.693785429E-1,2.687127590E-1
5.288555240E-1,3.368896246E-1,2.619217038E-1,2.633864284E-1
5.313433370E-1,3.251717389E-1,2.544648647E-1,2.569948435E-1
5.338311490E-1,3.134538233E-1,2.470080107E-1,2.506032586E-1
5.363189620E-1,3.006706536E-1,2.406164259E-1,2.442116886E-1
5.388067740E-1,2.889527678E-1,2.363553643E-1,2.378201038E-1
5.412945870E-1,2.783001363E-1,2.331595868E-1,2.324937880E-1
5.437823990E-1,2.697780132E-1,2.320943177E-1,2.282327414E-1
5.462702120E-1,2.633864284E-1,2.320943177E-1,2.229064107E-1
5.487580240E-1,2.580601275E-1,2.331595868E-1,2.186453640E-1
5.512458370E-1,2.548643351E-1,2.363553643E-1,2.143843025E-1
5.537336490E-1,2.527337968E-1,2.395511568E-1,2.101232558E-1
5.562214620E-1,2.516685426E-1,2.427469492E-1,2.069274634E-1
5.587092740E-1,2.527337968E-1,2.470080107E-1,2.026664019E-1
5.611970870E-1,2.548643351E-1,2.523343265E-1,1.994706094E-1
5.636848990E-1,2.580601275E-1,2.565953732E-1,1.962748319E-1
5.661727120E-1,2.612559199E-1,2.608564198E-1,1.952095628E-1
5.686605240E-1,2.644517124E-1,2.651174963E-1,1.941442937E-1
5.711483370E-1,2.687127590E-1,2.683132887E-1,1.941442937E-1
5.736361490E-1,2.719085515E-1,2.715090811E-1,1.952095628E-1
5.761239620E-1,2.761695981E-1,2.736395895E-1,1.952095628E-1
5.786117740E-1,2.793653905E-1,2.768353820E-1,1.962748319E-1
5.810995870E-1,2.825611830E-1,2.800311744E-1,1.984053552E-1
5.835873990E-1,2.846917212E-1,2.842922211E-1,2.005358785E-1
5.860752120E-1,2.878875136E-1,2.896185517E-1,2.026664019E-1
5.885630240E-1,2.900180221E-1,2.960101366E-1,2.058621943E-1
5.910508370E-1,2.932138145E-1,3.034669757E-1,2.090579867E-1
5.935386490E-1,2.953443527E-1,3.119890988E-1,2.122537792E-1
5.960264620E-1,2.974748611E-1,3.215764761E-1,2.175800949E-1
5.985142740E-1,2.974748611E-1,3.311638236E-1,2.207758874E-1
6.010020870E-1,2.974748611E-1,3.396859467E-1,2.261022031E-1
6.034898990E-1,2.964096069E-1,3.482080400E-1,2.303632647E-1
6.059777120E-1,2.932138145E-1,3.556649089E-1,2.346243113E-1
6.084655240E-1,2.889527678E-1,3.620564938E-1,2.388853729E-1
6.109533370E-1,2.825611830E-1,3.684480488E-1,2.420811653E-1
6.134411490E-1,2.740390599E-1,3.716438413E-1,2.442116886E-1
6.159289620E-1,2.623211741E-1,3.737743795E-1,2.463422120E-1
6.184167740E-1,2.506032586E-1,3.737743795E-1,2.474074811E-1
6.209045870E-1,2.367548496E-1,3.716438413E-1,2.474074811E-1
6.233923990E-1,2.207758874E-1,3.673827946E-1,2.463422120E-1
6.258802120E-1,2.047969401E-1,3.609912097E-1,2.463422120E-1
6.283680240E-1,1.877527237E-1,3.535343707E-1,2.452769578E-1
6.308558370E-1,1.707084924E-1,3.439469934E-1,2.431464195E-1
6.333436490E-1,1.536642760E-1,3.343596160E-1,2.420811653E-1
6.358314620E-1,1.366200596E-1,3.237069845E-1,2.399506420E-1
6.383192740E-1,1.217063740E-1,3.130543530E-1,2.367548496E-1
6.408070870E-1,1.078579426E-1,3.013364673E-1,2.335590571E-1
6.432948990E-1,9.507478029E-2,2.906838059E-1,2.314285189E-1
6.457827120E-1,8.442214131E-2,2.789659202E-1,2.282327414E-1
6.482705240E-1,7.590003312E-2,2.683132887E-1,2.239716798E-1
6.507583370E-1,6.950845569E-2,2.587259114E-1,2.207758874E-1
6.532461490E-1,6.524740160E-2,2.491385341E-1,2.175800949E-1
6.557339620E-1,6.311687082E-2,2.384859025E-1,2.143843025E-1
6.582217740E-1,6.098634377E-2,2.288985252E-1,2.111885101E-1
6.607095870E-1,6.205160543E-2,2.203764170E-1,2.090579867E-1
6.631973990E-1,6.311687082E-2,2.118543088E-1,2.079927325E-1
6.656852120E-1,6.631266326E-2,2.033322006E-1,2.079927325E-1
6.681730240E-1,7.057371736E-2,1.958753467E-1,2.090579867E-1
6.706608370E-1,7.590003312E-2,1.873532385E-1,2.111885101E-1
6.731486490E-1,8.122635633E-2,1.798963994E-1,2.143843025E-1
6.756364620E-1,8.761793375E-2,1.724395454E-1,2.165148407E-1
6.781242740E-1,9.400951862E-2,1.660479754E-1,2.197106332E-1
6.806120870E-1,1.004010960E-1,1.607216448E-1,2.250369489E-1
6.830998990E-1,1.057274193E-1,1.553953290E-1,2.292979956E-1
6.855877120E-1,1.121189967E-1,1.511342824E-1,2.335590571E-1
6.880755240E-1,1.174453199E-1,1.479384899E-1,2.388853729E-1
6.905633370E-1,1.217063740E-1,1.436774284E-1,2.442116886E-1
6.930511490E-1,1.249021590E-1,1.404816359E-1,2.495380044E-1
6.955389620E-1,1.270326823E-1,1.383511126E-1,2.559295893E-1
6.980267740E-1,1.280979514E-1,1.340900660E-1,2.633864284E-1
7.005145870E-1,1.280979514E-1,1.298290044E-1,2.719085515E-1
7.030023990E-1,1.259674281E-1,1.266332120E-1,2.783001363E-1
7.054902120E-1,1.238368973E-1,1.223721579E-1,2.857569754E-1
7.079780240E-1,1.185105816E-1,1.181111038E-1,2.932138145E-1
7.104658370E-1,1.131842583E-1,1.149153188E-1,3.006706536E-1
7.129536490E-1,1.067926809E-1,1.106542572E-1,3.070622385E-1
7.154414620E-1,9.827057272E-2,1.063932031E-1,3.134538233E-1
7.179292740E-1,8.868319541E-2,1.042626798E-1,3.187801540E-1
7.204170870E-1,7.803056389E-2,1.010668874E-1,3.219759464E-1
7.229048990E-1,6.737792492E-2,9.787109494E-2,3.262369931E-1
7.253927120E-1,5.459476262E-2,9.680583328E-2,3.304980397E-1
7.278805240E-1,4.074633494E-2,9.467530251E-2,3.326285779E-1
7.303683370E-1,2.689790726E-2,9.361004084E-2,3.347590864E-1
7.328561490E-1,1.304947957E-2,9.254477918E-2,3.347590864E-1
7.353439620E-1,-7.989477599E-4,9.254477918E-2,3.358243704E-1
7.378317740E-1,-1.464737486E-2,9.254477918E-2,3.358243704E-1
7.403195870E-1,-2.743053809E-2,9.147951752E-2,3.347590864E-1
7.428073990E-1,-4.021370411E-2,8.934898674E-2,3.336938322E-1
7.452952120E-1,-5.193160102E-2,8.615319431E-2,3.326285779E-1
7.477830240E-1,-6.364950538E-2,8.295740932E-2,3.304980397E-1
7.502708370E-1,-7.430213690E-2,8.082687855E-2,3.283675313E-1
7.527586490E-1,-8.388951421E-2,7.763108611E-2,3.273022473E-1
7.552464620E-1,-9.028109163E-2,7.443529367E-2,3.262369931E-1
7.577342740E-1,-9.667267650E-2,7.123950869E-2,3.241064548E-1
7.602220870E-1,-1.009337306E-1,6.697845459E-2,3.241064548E-1
7.627098990E-1,-1.030642539E-1,6.271740049E-2,3.219759464E-1
7.651977120E-1,-1.051947847E-1,5.952160433E-2,3.187801540E-1
7.676855240E-1,-1.041295230E-1,5.632581562E-2,3.166496158E-1
7.701733370E-1,-1.019989923E-1,5.313002318E-2,3.123885691E-1
7.726611490E-1,-9.773793817E-2,4.886896908E-2,3.091927767E-1
7.751489620E-1,-9.347688407E-2,4.460791498E-2,3.049317300E-1
7.776367740E-1,-8.815056831E-2,3.928159550E-2,3.006706536E-1
7.801245870E-1,-8.175898343E-2,3.182475269E-2,2.974748611E-1
7.826123990E-1,-7.536740601E-2,2.543316968E-2,2.942790687E-1
7.851002120E-1,-6.791055948E-2,1.691105962E-2,2.921485603E-1
7.875880240E-1,-6.045371294E-2,8.388951421E-3,2.889527678E-1
7.900758370E-1,-5.299686641E-2,-2.263685223E-3,2.868222296E-1
7.925636490E-1,-4.554001987E-2,-1.291632187E-2,2.857569754E-1
7.950514620E-1,-3.808317333E-2,-2.463422157E-2,2.846917212E-1
7.975392740E-1,-3.062633052E-2,-3.741738573E-2,2.846917212E-1
8.000270870E-1,-2.316948399E-2,-4.913528636E-2,2.846917212E-1
8.025148990E-1,-1.571263932E-2,-6.085318699E-2,2.846917212E-1
8.050027120E-1,-9.321057238E-3,-7.150582224E-2,2.846917212E-1
8.074905240E-1,-3.994738683E-3,-8.002793044E-2,2.836264372E-1
8.099783370E-1,2.663159103E-4,-8.748477697E-2,2.825611830E-1
8.124661490E-1,4.527370445E-3,-9.387636185E-2,2.825611830E-1
8.149539620E-1,7.723161485E-3,-9.707214683E-2,2.814959288E-1
8.174417740E-1,1.091895252E-2,-9.920267761E-2,2.804306448E-1
8.199295870E-1,1.304947957E-2,-1.002679393E-1,2.804306448E-1
8.224173990E-1,1.411474310E-2,-1.013332009E-1,2.814959288E-1
8.249052120E-1,1.518000662E-2,-1.002679393E-1,2.814959288E-1
8.273930240E-1,1.304947957E-2,-9.813741595E-2,2.814959288E-1
8.298808370E-1,9.853689000E-3,-9.707214683E-2,2.825611830E-1
8.323686490E-1,4.527370445E-3,-9.494162351E-2,2.836264372E-1
8.348564620E-1,-3.994738683E-3,-9.281109273E-2,2.846917212E-1
8.373442740E-1,-1.464737486E-2,-9.174583107E-2,2.868222296E-1
8.398320870E-1,-2.743053809E-2,-9.387636185E-2,2.889527678E-1
8.423198990E-1,-4.340949282E-2,-9.600688517E-2,2.910832763E-1
8.448077120E-1,-6.045371294E-2,-1.013332009E-1,2.932138145E-1
8.472955240E-1,-7.962846011E-2,-1.087900475E-1,2.953443527E-1
8.497833370E-1,-1.009337306E-1,-1.183774248E-1,2.974748611E-1
8.522711490E-1,-1.222390011E-1,-1.279647946E-1,3.006706536E-1
8.547589620E-1,-1.446095407E-1,-1.396826953E-1,3.028011918E-1
8.572467740E-1,-1.659148186E-1,-1.492700726E-1,3.038664460E-1
8.597345870E-1,-1.861548275E-1,-1.609879732E-1,3.049317300E-1
8.622223990E-1,-2.063948363E-1,-1.705753356E-1,3.038664460E-1
8.647102120E-1,-2.255695760E-1,-1.790974438E-1,3.028011918E-1
8.671980240E-1,-2.426137924E-1,-1.876195520E-1,3.006706536E-1
8.696858370E-1,-2.575274706E-1,-1.940111369E-1,2.985401452E-1
8.721736490E-1,-2.703106403E-1,-1.993374527E-1,2.964096069E-1
8.746614620E-1,-2.809632719E-1,-2.046637833E-1,2.921485603E-1
8.771492740E-1,-2.894853950E-1,-2.078595608E-1,2.878875136E-1
8.796370870E-1,-2.948117256E-1,-2.099900991E-1,2.825611830E-1
8.821248990E-1,-2.980075181E-1,-2.110553533E-1,2.772348523E-1
8.846127120E-1,-2.990727723E-1,-2.121206224E-1,2.697780132E-1
8.871005240E-1,-2.969422340E-1,-2.121206224E-1,2.612559199E-1
8.895883370E-1,-2.948117256E-1,-2.121206224E-1,2.537990510E-1
8.920761490E-1,-2.916159332E-1,-2.110553533E-1,2.442116886E-1
8.945639620E-1,-2.873548567E-1,-2.110553533E-1,2.335590571E-1
8.970517740E-1,-2.820285559E-1,-2.110553533E-1,2.218411565E-1
8.995395870E-1,-2.767022252E-1,-2.131858915E-1,2.101232558E-1
9.020273990E-1,-2.703106403E-1,-2.163816839E-1,1.984053552E-1
9.045152120E-1,-2.628538013E-1,-2.227732539E-1,1.866874546E-1
9.070030240E-1,-2.553969622E-1,-2.302301079E-1,1.739042848E-1
9.094908370E-1,-2.479401082E-1,-2.398174703E-1,1.632516533E-1
9.119786490E-1,-2.415485233E-1,-2.504701018E-1,1.515337527E-1
9.144664620E-1,-2.351569533E-1,-2.621880174E-1,1.419463754E-1
9.169542740E-1,-2.298306376E-1,-2.739059031E-1,1.323590130E-1
9.194420870E-1,-2.255695760E-1,-2.866890728E-1,1.238368973E-1
9.219298990E-1,-2.202432603E-1,-2.994722426E-1,1.153147891E-1
9.244177120E-1,-2.170474678E-1,-3.111901283E-1,1.089232042E-1
9.269055240E-1,-2.127864063E-1,-3.207775056E-1,1.025316268E-1
9.293933370E-1,-2.074600905E-1,-3.314301372E-1,9.720530361E-2
9.318811490E-1,-2.031990439E-1,-3.399522603E-1,9.187898785E-2
9.343689620E-1,-1.978727281E-1,-3.463438451E-1,8.868319541E-2
9.368567740E-1,-1.904158741E-1,-3.516701460E-1,8.655267209E-2
9.393445870E-1,-1.829590350E-1,-3.548659384E-1,8.442214131E-2
9.418323990E-1,-1.744369268E-1,-3.559312224E-1,8.442214131E-2
9.443202120E-1,-1.659148186E-1,-3.548659384E-1,8.548741043E-2
9.468080240E-1,-1.563274413E-1,-3.495396376E-1,8.761793375E-2
9.492958370E-1,-1.467400640E-1,-3.442133069E-1,8.974846452E-2
9.517836490E-1,-1.382179558E-1,-3.367564678E-1,9.294424951E-2
9.542714620E-1,-1.296958476E-1,-3.292996287E-1,9.720530361E-2
9.567592740E-1,-1.222390011E-1,-3.197122514E-1,1.025316268E-1
9.592470870E-1,-1.158474237E-1,-3.111901283E-1,1.067926809E-1
9.617348990E-1,-1.105211005E-1,-3.026680350E-1,1.121189967E-1
9.642227120E-1,-1.062600464E-1,-2.962764502E-1,1.174453199E-1
9.667105240E-1,-1.019989923E-1,-2.909501195E-1,1.217063740E-1
9.691983370E-1,-9.986846894E-2,-2.877543271E-1,1.259674281E-1
9.716861490E-1,-9.773793817E-2,-2.845585644E-1,1.291632205E-1
9.741739620E-1,-9.773793817E-2,-2.834932804E-1,1.312937438E-1
9.766617740E-1,-9.880319983E-2,-2.834932804E-1,1.323590130E-1
9.791495870E-1,-1.019989923E-1,-2.845585644E-1,1.312937438E-1
9.816373990E-1,-1.041295230E-1,-2.856238186E-1,1.302284747E-1
9.841252120E-1,-1.073253155E-1,-2.866890728E-1,1.280979514E-1
9.866130240E-1,-1.105211005E-1,-2.877543271E-1,1.238368973E-1
9.891008370E-1,-1.137168929E-1,-2.909501195E-1,1.195758432E-1
9.915886490E-1,-1.179779470E-1,-2.930806577E-1,1.142495275E-1
9.940764620E-1,-1.233042628E-1,-2.962764502E-1,1.078579426E-1
9.965642740E-1,-1.286305785E-1,-3.005374968E-1,1.004010960E-1
9.990520870E-1,-1.350221634E-1,-3.069290817E-1,9.294424951E-2
1.001539899E0,-1.414137483E-1,-3.111901283E-1,8.548741043E-2
1.004027712E0,-1.478053331E-1,-3.165164590E-1,7.696529478E-2
1.006515524E0,-1.541969180E-1,-3.229080439E-1,7.057371736E-2
1.009003337E0,-1.605884880E-1,-3.282343447E-1,6.205160543E-2
1.011491149E0,-1.659148186E-1,-3.346259296E-1,5.566002429E-2
1.013978962E0,-1.723063886E-1,-3.399522603E-1,4.820318148E-2
1.016466774E0,-1.765674502E-1,-3.463438451E-1,4.074633494E-2
1.018954587E0,-1.829590350E-1,-3.516701460E-1,3.328948840E-2
1.021442399E0,-1.872200817E-1,-3.559312224E-1,2.689790726E-2
1.023930837E0,-1.914811432E-1,-3.612575233E-1,1.944106072E-2
1.026418910E0,-1.946769357E-1,-3.655185997E-1,1.304947957E-2
1.028906722E0,-1.989379823E-1,-3.665838540E-1,6.657897960E-3
1.031394535E0,-2.031990439E-1,-3.697796464E-1,2.396843163E-3
1.033882347E0,-2.053295672E-1,-3.719101548E-1,-7.989477599E-4
1.036370160E0,-2.085253596E-1,-3.729754388E-1,-3.994738683E-3
1.038857972E0,-2.106558830E-1,-3.729754388E-1,-3.994738683E-3
1.041345785E0,-2.117211521E-1,-3.729754388E-1,-2.929474926E-3
1.043833597E0,-2.138516754E-1,-3.719101548E-1,-1.864211401E-3
1.046321410E0,-2.149169445E-1,-3.708449006E-1,1.331579522E-3
1.048809222E0,-2.149169445E-1,-3.676491082E-1,5.592633970E-3
1.051297035E0,-2.159821987E-1,-3.633880615E-1,8.788425475E-3
1.053784847E0,-2.159821987E-1,-3.591270149E-1,1.198421605E-2
1.056272660E0,-2.159821987E-1,-3.516701460E-1,1.624527015E-2
1.058760472E0,-2.138516754E-1,-3.463438451E-1,2.050632425E-2
1.061248285E0,-2.127864063E-1,-3.378217220E-1,2.370211668E-2
1.063736097E0,-2.106558830E-1,-3.314301372E-1,2.689790726E-2
1.066223910E0,-2.074600905E-1,-3.229080439E-1,2.796317078E-2
1.068711722E0,-2.031990439E-1,-3.154512048E-1,3.009369783E-2
1.071199535E0,-2.000032514E-1,-3.079943359E-1,3.115896136E-2
1.073687347E0,-1.957421899E-1,-3.005374968E-1,3.115896136E-2
1.076175160E0,-1.914811432E-1,-2.952111959E-1,3.115896136E-2
1.078662972E0,-1.861548275E-1,-2.909501195E-1,2.902843431E-2
1.081150785E0,-1.829590350E-1,-2.898848653E-1,2.796317078E-2
1.083638597E0,-1.797632426E-1,-2.898848653E-1,2.476738021E-2
1.086126410E0,-1.776327193E-1,-2.941459119E-1,2.263685316E-2
1.088614222E0,-1.765674502E-1,-3.005374968E-1,1.944106072E-2
1.091102035E0,-1.755021811E-1,-3.090596199E-1,1.624527015E-2
1.093589847E0,-1.755021811E-1,-3.197122514E-1,1.304947957E-2
1.096077660E0,-1.765674502E-1,-3.303648829E-1,9.853689000E-3
1.098565472E0,-1.755021811E-1,-3.431480527E-1,6.657897960E-3
1.101053285E0,-1.744369268E-1,-3.538006842E-1,2.396843163E-3
1.103541097E0,-1.723063886E-1,-3.665838540E-1,-7.989477599E-4
1.106028910E0,-1.691105962E-1,-3.772364855E-1,-6.125265732E-3
1.108516722E0,-1.627190262E-1,-3.878891170E-1,-1.251684781E-2
1.111004535E0,-1.573926955E-1,-3.942807019E-1,-1.890842989E-2
1.113492347E0,-1.499358565E-1,-3.996070325E-1,-2.530001104E-2
1.115980160E0,-1.424790174E-1,-4.028028250E-1,-3.275685757E-2
1.118467972E0,-1.360874325E-1,-4.038680792E-1,-4.021370411E-2
1.120955785E0,-1.286305785E-1,-4.017375410E-1,-4.660528526E-2
1.123443597E0,-1.201084778E-1,-3.985417485E-1,-5.193160102E-2
1.125931410E0,-1.126516312E-1,-3.942807019E-1,-5.619265884E-2
1.128419222E0,-1.051947847E-1,-3.878891170E-1,-5.938844755E-2
1.130907035E0,-9.880319983E-2,-3.804322779E-1,-6.151897460E-2
1.133394847E0,-9.241162241E-2,-3.708449006E-1,-6.258423626E-2
1.135882660E0,-8.815056831E-2,-3.612575233E-1,-6.364950538E-2
1.138370472E0,-8.495477587E-2,-3.516701460E-1,-6.471476704E-2
1.140858285E0,-8.495477587E-2,-3.410175145E-1,-6.578002870E-2
1.143346097E0,-8.602003753E-2,-3.324954212E-1,-6.578002870E-2
1.145833910E0,-8.921582997E-2,-3.239732981E-1,-6.578002870E-2
1.148321722E0,-9.454214573E-2,-3.165164590E-1,-6.471476704E-2
1.150809535E0,-1.009337306E-1,-3.101248741E-1,-6.364950538E-2
1.153297347E0,-1.105211005E-1,-3.047985733E-1,-6.151897460E-2
1.155785160E0,-1.211737394E-1,-3.005374968E-1,-5.832318589E-2
1.158272972E0,-1.339569092E-1,-2.962764502E-1,-5.512739345E-2
1.160760785E0,-1.467400640E-1,-2.920154035E-1,-5.193160102E-2
1.163248597E0,-1.605884880E-1,-2.898848653E-1,-4.767054692E-2
1.165736410E0,-1.744369268E-1,-2.866890728E-1,-4.340949282E-2
1.168224222E0,-1.872200817E-1,-2.834932804E-1,-3.914843872E-2
1.170712035E0,-2.021337748E-1,-2.802974880E-1,-3.595264629E-2
1.173199847E0,-2.149169445E-1,-2.760364413E-1,-3.169159219E-2
1.175687660E0,-2.277000993E-1,-2.728406489E-1,-2.849580161E-2
1.178175472E0,-2.383527458E-1,-2.685796022E-1,-2.316948399E-2
1.180663285E0,-2.500706315E-1,-2.653838098E-1,-1.997369342E-2
1.183151097E0,-2.596580088E-1,-2.621880174E-1,-1.571263932E-2
1.185638910E0,-2.692453861E-1,-2.611227632E-1,-1.358211134E-2
1.188126722E0,-2.767022252E-1,-2.611227632E-1,-1.038632076E-2
1.190614535E0,-2.841590643E-1,-2.611227632E-1,-7.190529723E-3
1.193102347E0,-2.894853950E-1,-2.621880174E-1,-2.929474926E-3
1.195590160E0,-2.937464416E-1,-2.643185556E-1,2.663159103E-4
1.198077972E0,-2.958769798E-1,-2.685796022E-1,3.462106921E-3
1.200565785E0,-2.958769798E-1,-2.739059031E-1,5.592633970E-3
1.203053597E0,-2.937464416E-1,-2.813627720E-1,7.723161485E-3
1.205541410E0,-2.905506492E-1,-2.888196111E-1,9.853689000E-3
1.208029222E0,-2.841590643E-1,-2.962764502E-1,1.091895252E-2
1.210517035E0,-2.788327634E-1,-3.037332892E-1,1.091895252E-2
1.213004847E0,-2.703106403E-1,-3.111901283E-1,1.091895252E-2
1.215492660E0,-2.628538013E-1,-3.154512048E-1,9.853689000E-3
1.217980472E0,-2.553969622E-1,-3.186469972E-1,7.723161485E-3
1.220468285E0,-2.490053773E-1,-3.197122514E-1,6.657897960E-3
1.222956097E0,-2.415485233E-1,-3.207775056E-1,5.592633970E-3
1.225443910E0,-2.351569533E-1,-3.218427896E-1,4.527370445E-3
1.227931722E0,-2.298306376E-1,-3.218427896E-1,5.592633970E-3
1.230419535E0,-2.266348451E-1,-3.207775056E-1,5.592633970E-3
1.232907347E0,-2.245043069E-1,-3.218427896E-1,6.657897960E-3
1.235395160E0,-2.234390527E-1,-3.207775056E-1,8.788425475E-3
1.237882972E0,-2.245043069E-1,-3.207775056E-1,1.091895252E-2
1.240370785E0,-2.277000993E-1,-3.186469972E-1,1.304947957E-2
1.242858597E0,-2.319611609E-1,-3.175817132E-1,1.624527015E-2
1.245346410E0,-2.383527458E-1,-3.175817132E-1,1.944106072E-2
1.247834222E0,-2.447443157E-1,-3.175817132E-1,2.370211668E-2
1.250322035E0,-2.532664239E-1,-3.186469972E-1,2.796317078E-2
1.252809847E0,-2.607232630E-1,-3.186469972E-1,3.115896136E-2
1.255297660E0,-2.692453861E-1,-3.197122514E-1,3.435475379E-2
1.257785472E0,-2.756369710E-1,-3.207775056E-1,3.542001545E-2
1.260273285E0,-2.809632719E-1,-3.207775056E-1,3.755054250E-2
1.262761097E0,-2.852243483E-1,-3.207775056E-1,3.755054250E-2
1.265248910E0,-2.873548567E-1,-3.197122514E-1,3.755054250E-2
1.267736722E0,-2.884201407E-1,-3.186469972E-1,3.648528084E-2
1.270224535E0,-2.862896025E-1,-3.165164590E-1,3.648528084E-2
1.272712347E0,-2.820285559E-1,-3.143859208E-1,3.648528084E-2
1.275200160E0,-2.767022252E-1,-3.111901283E-1,3.648528084E-2
1.277687972E0,-2.692453861E-1,-3.090596199E-1,3.542001545E-2
1.280175785E0,-2.607232630E-1,-3.047985733E-1,3.648528084E-2
1.282663597E0,-2.500706315E-1,-2.994722426E-1,3.648528084E-2
1.285151410E0,-2.394180000E-1,-2.952111959E-1,3.755054250E-2
1.287639222E0,-2.287653685E-1,-2.898848653E-1,3.755054250E-2
1.290127035E0,-2.191779912E-1,-2.834932804E-1,3.755054250E-2
1.292614847E0,-2.095906287E-1,-2.781669796E-1,3.755054250E-2
1.295102660E0,-2.021337748E-1,-2.739059031E-1,3.648528084E-2
1.297590472E0,-1.957421899E-1,-2.696448565E-1,3.542001545E-2
1.300078285E0,-1.914811432E-1,-2.664490640E-1,3.542001545E-2
1.302566097E0,-1.893506050E-1,-2.643185556E-1,3.435475379E-2
1.305053910E0,-1.893506050E-1,-2.632532716E-1,3.328948840E-2
1.307541722E0,-1.936116666E-1,-2.621880174E-1,3.328948840E-2
1.310029535E0,-1.989379823E-1,-2.621880174E-1,3.222422674E-2
1.312517347E0,-2.074600905E-1,-2.632532716E-1,3.222422674E-2
1.315005160E0,-2.191779912E-1,-2.653838098E-1,3.115896136E-2
1.317492972E0,-2.330264151E-1,-2.685796022E-1,3.009369783E-2
1.319980785E0,-2.500706315E-1,-2.728406489E-1,2.796317078E-2
1.322468597E0,-2.681801319E-1,-2.771016955E-1,2.583264373E-2
1.324956410E0,-2.884201407E-1,-2.824280262E-1,2.476738021E-2
1.327444222E0,-3.097254038E-1,-2.909501195E-1,2.263685316E-2
1.329932035E0,-3.320959508E-1,-2.984069884E-1,2.050632425E-2
1.332419847E0,-3.555317521E-1,-3.058638275E-1,2.050632425E-2
1.334907660E0,-3.789675534E-1,-3.143859208E-1,2.050632425E-2
1.337395472E0,-4.024033546E-1,-3.229080439E-1,2.157158963E-2
1.339883285E0,-4.258391261E-1,-3.314301372E-1,2.263685316E-2
1.342371097E0,-4.471444190E-1,-3.410175145E-1,2.370211668E-2
1.344858910E0,-4.673844278E-1,-3.506048918E-1,2.583264373E-2
1.347346722E0,-4.854938984E-1,-3.601922691E-1,2.689790726E-2
1.349834535E0,-5.014728308E-1,-3.708449006E-1,3.009369783E-2
1.352322347E0,-5.131907463E-1,-3.814975321E-1,3.328948840E-2
1.354810160E0,-5.238434076E-1,-3.932154477E-1,3.755054250E-2
1.357297972E0,-5.313002467E-1,-4.038680792E-1,4.074633494E-2
1.359785785E0,-5.344960093E-1,-4.123901725E-1,4.394212365E-2
1.362273597E0,-5.355613232E-1,-4.198470414E-1,4.926844314E-2
1.364761410E0,-5.323655009E-1,-4.273038805E-1,5.459476262E-2
1.367249222E0,-5.259739161E-1,-4.315649271E-1,5.992107838E-2
1.369737035E0,-5.163865685E-1,-4.358259737E-1,6.524740160E-2
1.372224847E0,-5.025381446E-1,-4.390217662E-1,7.163897902E-2
1.374712660E0,-4.865591824E-1,-4.400870502E-1,7.696529478E-2
1.377200472E0,-4.684496820E-1,-4.411523044E-1,8.229161799E-2
1.379688285E0,-4.482096732E-1,-4.411523044E-1,8.868319541E-2
1.382176097E0,-4.269044101E-1,-4.411523044E-1,9.400951862E-2
1.384663910E0,-4.045338631E-1,-4.411523044E-1,1.004010960E-1
1.387151722E0,-3.810980618E-1,-4.379565120E-1,1.067926809E-1
1.389639535E0,-3.576622605E-1,-4.347607195E-1,1.121189967E-1
1.392127347E0,-3.352917433E-1,-4.294344187E-1,1.174453199E-1
1.394615160E0,-3.129211962E-1,-4.230428338E-1,1.217063740E-1
1.397102972E0,-2.905506492E-1,-4.166512489E-1,1.259674281E-1
1.399590785E0,-2.692453861E-1,-4.102596641E-1,1.291632205E-1
1.402078597E0,-2.490053773E-1,-4.038680792E-1,1.312937438E-1
1.404566410E0,-2.298306376E-1,-3.985417485E-1,1.344895363E-1
1.407054222E0,-2.106558830E-1,-3.942807019E-1,1.376853287E-1
1.409542035E0,-1.936116666E-1,-3.910849094E-1,1.408811212E-1
1.412029847E0,-1.765674502E-1,-3.889544010E-1,1.440769136E-1
1.414517660E0,-1.605884880E-1,-3.878891170E-1,1.483379602E-1
1.417005472E0,-1.456748098E-1,-3.868238628E-1,1.525990218E-1
1.419493285E0,-1.318263710E-1,-3.857586086E-1,1.568600684E-1
1.421981097E0,-1.201084778E-1,-3.846933246E-1,1.589905918E-1
1.424468910E0,-1.083905771E-1,-3.846933246E-1,1.611211300E-1
1.426956722E0,-9.986846894E-2,-3.857586086E-1,1.611211300E-1
1.429444535E0,-9.028109163E-2,-3.878891170E-1,1.600558609E-1
1.431932347E0,-8.282424510E-2,-3.910849094E-1,1.568600684E-1
1.434420160E0,-7.643266767E-2,-3.953459561E-1,1.536642760E-1
1.436907972E0,-7.110634446E-2,-4.006722867E-1,1.504684836E-1
1.439395785E0,-6.684529036E-2,-4.059986174E-1,1.462074369E-1
1.441883597E0,-6.258423626E-2,-4.113249183E-1,1.408811212E-1
1.444371410E0,-5.832318589E-2,-4.155859649E-1,1.366200596E-1
1.446859222E0,-5.406212807E-2,-4.187817574E-1,1.323590130E-1
1.449347035E0,-4.980107397E-2,-4.219775498E-1,1.280979514E-1
1.451834847E0,-4.554001987E-2,-4.230428338E-1,1.227716357E-1
1.454322660E0,-4.021370411E-2,-4.241080880E-1,1.185105816E-1
1.456810472E0,-3.595264629E-2,-4.262386262E-1,1.131842583E-1
1.459298285E0,-3.169159219E-2,-4.262386262E-1,1.089232042E-1
1.461786097E0,-2.743053809E-2,-4.262386262E-1,1.025316268E-1
1.464273910E0,-2.210422046E-2,-4.273038805E-1,9.614004195E-2
1.466761722E0,-1.677790284E-2,-4.262386262E-1,8.974846452E-2
1.469249535E0,-1.251684781E-2,-4.251733422E-1,8.335687965E-2
1.471737347E0,-7.190529723E-3,-4.219775498E-1,7.590003312E-2
1.474225160E0,-2.929474926E-3,-4.177165031E-1,7.057371736E-2
1.476712972E0,2.396843163E-3,-4.123901725E-1,6.418213248E-2
1.479200785E0,6.657897960E-3,-4.081291258E-1,5.992107838E-2
1.481688597E0,1.198421605E-2,-4.028028250E-1,5.459476262E-2
1.484176410E0,1.731053367E-2,-3.974764943E-1,5.139897019E-2
1.486664222E0,2.370211668E-2,-3.910849094E-1,4.713791609E-2
1.489152035E0,3.009369783E-2,-3.846933246E-1,4.607265070E-2
1.491639847E0,3.542001545E-2,-3.772364855E-1,4.394212365E-2
1.494127660E0,4.181159660E-2,-3.697796464E-1,4.181159660E-2
1.496615472E0,4.713791609E-2,-3.623228073E-1,4.074633494E-2
1.499103285E0,5.139897019E-2,-3.516701460E-1,4.074633494E-2
1.501591097E0,5.672528967E-2,-3.420827985E-1,4.074633494E-2
1.504078910E0,5.885581672E-2,-3.314301372E-1,4.074633494E-2
1.506566722E0,6.205160543E-2,-3.207775056E-1,4.181159660E-2
1.509054535E0,6.311687082E-2,-3.111901283E-1,4.287686199E-2
1.511542347E0,6.311687082E-2,-3.005374968E-1,4.394212365E-2
1.514030160E0,6.418213248E-2,-2.909501195E-1,4.713791609E-2
1.516517972E0,6.311687082E-2,-2.813627720E-1,4.926844314E-2
1.519005785E0,6.205160543E-2,-2.717753947E-1,5.139897019E-2
1.521493597E0,5.992107838E-2,-2.632532716E-1,5.459476262E-2
1.523981410E0,5.779055133E-2,-2.536658943E-1,5.672528967E-2
1.526469222E0,5.352949724E-2,-2.451438010E-1,5.885581672E-2
1.528957035E0,5.033370852E-2,-2.366216928E-1,6.205160543E-2
1.531444847E0,4.500738904E-2,-2.280995846E-1,6.631266326E-2
1.533932660E0,4.074633494E-2,-2.185122073E-1,6.950845569E-2
1.536420472E0,3.542001545E-2,-2.099900991E-1,7.270424068E-2
1.538908285E0,3.009369783E-2,-2.014679909E-1,7.696529478E-2
1.541396097E0,2.476738021E-2,-1.918806136E-1,8.122635633E-2
1.543883910E0,1.944106072E-2,-1.812279820E-1,8.442214131E-2
1.546371722E0,1.304947957E-2,-1.716406047E-1,8.761793375E-2
1.548859535E0,7.723161485E-3,-1.609879732E-1,9.081372619E-2
1.551347347E0,1.331579522E-3,-1.514005959E-1,9.294424951E-2
1.553835160E0,-5.060002208E-3,-1.418132186E-1,9.400951862E-2
1.556322972E0,-1.251684781E-2,-1.332911104E-1,9.507478029E-2
1.558810785E0,-1.997369342E-2,-1.237037405E-1,9.400951862E-2
1.561298597E0,-2.956106514E-2,-1.162468940E-1,9.400951862E-2
1.563786410E0,-4.021370411E-2,-1.087900475E-1,9.294424951E-2
1.566274222E0,-5.193160102E-2,-1.013332009E-1,9.081372619E-2
1.568762035E0,-6.364950538E-2,-9.494162351E-2,8.761793375E-2
1.571249847E0,-7.749792933E-2,-8.961530030E-2,8.335687965E-2
1.573737660E0,-9.241162241E-2,-8.428898454E-2,7.909582555E-2
1.576225472E0,-1.083905771E-1,-8.215846121E-2,7.376950979E-2
1.578713285E0,-1.243695319E-1,-8.002793044E-2,6.631266326E-2
1.581201097E0,-1.414137483E-1,-7.789740711E-2,5.992107838E-2
1.583688910E0,-1.573926955E-1,-7.789740711E-2,5.352949724E-2
1.586176722E0,-1.733716577E-1,-7.789740711E-2,4.820318148E-2
1.588664535E0,-1.893506050E-1,-7.896266878E-2,4.181159660E-2
1.591152347E0,-2.031990439E-1,-7.896266878E-2,3.542001545E-2
1.593640160E0,-2.170474678E-1,-7.896266878E-2,3.115896136E-2
1.596127972E0,-2.298306376E-1,-7.896266878E-2,2.796317078E-2
1.598615785E0,-2.415485233E-1,-8.109319210E-2,2.370211668E-2
1.601103597E0,-2.511359155E-1,-8.215846121E-2,2.157158963E-2
1.603591566E0,-2.596580088E-1,-8.428898454E-2,1.944106072E-2
1.606079535E0,-2.649843395E-1,-8.641951531E-2,1.731053367E-2
1.608567503E0,-2.692453861E-1,-8.855003864E-2,1.624527015E-2
1.611055472E0,-2.724411786E-1,-8.961530030E-2,1.411474310E-2
1.613543441E0,-2.735064328E-1,-8.961530030E-2,1.198421605E-2
1.616031410E0,-2.735064328E-1,-8.961530030E-2,1.091895252E-2
1.618519378E0,-2.713759243E-1,-8.855003864E-2,8.788425475E-3
1.621007295E0,-2.681801319E-1,-8.748477697E-2,7.723161485E-3
1.623495108E0,-2.639190555E-1,-8.641951531E-2,6.657897960E-3
1.625982920E0,-2.575274706E-1,-8.428898454E-2,5.592633970E-3
1.628470733E0,-2.500706315E-1,-8.322372288E-2,4.527370445E-3
1.630958545E0,-2.426137924E-1,-8.428898454E-2,3.462106921E-3
1.633446358E0,-2.330264151E-1,-8.535424620E-2,2.396843163E-3
1.635934170E0,-2.245043069E-1,-8.748477697E-2,2.663159103E-4
1.638421983E0,-2.170474678E-1,-9.174583107E-2,-1.864211401E-3
1.640909795E0,-2.095906287E-1,-9.707214683E-2,-2.929474926E-3
1.643397608E0,-2.042642981E-1,-1.023984700E-1,-5.060002208E-3
1.645885420E0,-1.989379823E-1,-1.098553166E-1,-5.060002208E-3
1.648373233E0,-1.946769357E-1,-1.183774248E-1,-5.060002208E-3
1.650861045E0,-1.925463974E-1,-1.279647946E-1,-5.060002208E-3
1.653348858E0,-1.904158741E-1,-1.375521719E-1,-2.929474926E-3
1.655836670E0,-1.893506050E-1,-1.492700726E-1,-7.989477599E-4
1.658324483E0,-1.882853508E-1,-1.609879732E-1,2.396843163E-3
1.660812295E0,-1.872200817E-1,-1.727058738E-1,5.592633970E-3
1.663300108E0,-1.861548275E-1,-1.865542978E-1,7.723161485E-3
1.665787920E0,-1.840242893E-1,-2.004027218E-1,1.091895252E-2
1.668275733E0,-1.797632426E-1,-2.131858915E-1,1.411474310E-2
1.670763545E0,-1.755021811E-1,-2.249037921E-1,1.731053367E-2
1.673251358E0,-1.701758653E-1,-2.334259003E-1,2.050632425E-2
1.675739170E0,-1.627190262E-1,-2.408827394E-1,2.370211668E-2
1.678226983E0,-1.541969180E-1,-2.462090552E-1,2.583264373E-2
1.680714795E0,-1.446095407E-1,-2.504701018E-1,2.796317078E-2
1.683202608E0,-1.328916401E-1,-2.526006401E-1,3.009369783E-2
1.685690420E0,-1.190432087E-1,-2.547311783E-1,3.009369783E-2
1.688178233E0,-1.041295230E-1,-2.557964325E-1,3.009369783E-2
1.690666045E0,-8.708529919E-2,-2.557964325E-1,2.902843431E-2
1.693153858E0,-6.897582114E-2,-2.557964325E-1,2.689790726E-2
1.695641670E0,-5.086633936E-2,-2.568616867E-1,2.583264373E-2
1.698129483E0,-3.275685757E-2,-2.579269707E-1,2.370211668E-2
1.700617295E0,-1.358211134E-2,-2.600574791E-1,2.157158963E-2
1.703105108E0,5.592633970E-3,-2.621880174E-1,1.944106072E-2
1.705592920E0,2.370211668E-2,-2.664490640E-1,1.837579720E-2
1.708080733E0,4.074633494E-2,-2.696448565E-1,1.624527015E-2
1.710568545E0,5.672528967E-2,-2.728406489E-1,1.411474310E-2
1.713056358E0,7.163897902E-2,-2.771016955E-1,1.091895252E-2
1.715544170E0,8.548741043E-2,-2.802974880E-1,6.657897960E-3
1.718031983E0,9.720530361E-2,-2.856238186E-1,2.396843163E-3
1.720519795E0,1.067926809E-1,-2.888196111E-1,-1.864211401E-3
1.723007608E0,1.153147891E-1,-2.930806577E-1,-5.060002208E-3
1.725495420E0,1.195758432E-1,-2.962764502E-1,-8.255792782E-3
1.727983233E0,1.238368973E-1,-2.973417044E-1,-1.145158429E-2
1.730471045E0,1.270326823E-1,-2.994722426E-1,-1.358211134E-2
1.732958858E0,1.280979514E-1,-2.984069884E-1,-1.571263932E-2
1.735446670E0,1.280979514E-1,-2.962764502E-1,-1.784316637E-2
1.737934483E0,1.270326823E-1,-2.920154035E-1,-1.890842989E-2
1.740422295E0,1.259674281E-1,-2.866890728E-1,-1.997369342E-2
1.742910108E0,1.238368973E-1,-2.802974880E-1,-2.103895694E-2
1.745397920E0,1.206411049E-1,-2.739059031E-1,-1.997369342E-2
1.747885733E0,1.174453199E-1,-2.664490640E-1,-1.997369342E-2
1.750373545E0,1.142495275E-1,-2.589922249E-1,-1.784316637E-2
1.752861358E0,1.110537350E-1,-2.515353858E-1,-1.677790284E-2
1.755349170E0,1.067926809E-1,-2.430132627E-1,-1.464737486E-2
1.757836983E0,1.025316268E-1,-2.344911546E-1,-1.251684781E-2
1.760324795E0,9.933583438E-2,-2.270343155E-1,-9.321057238E-3
1.762812608E0,9.507478029E-2,-2.195774615E-1,-7.190529723E-3
1.765300420E0,9.187898785E-2,-2.121206224E-1,-5.060002208E-3
1.767788233E0,8.761793375E-2,-2.046637833E-1,-1.864211401E-3
1.770276045E0,8.442214131E-2,-1.982721984E-1,2.663159103E-4
1.772763858E0,8.016108721E-2,-1.929458827E-1,2.396843163E-3
1.775251670E0,7.483477145E-2,-1.865542978E-1,5.592633970E-3
1.777739483E0,6.950845569E-2,-1.812279820E-1,8.788425475E-3
1.780227295E0,6.311687082E-2,-1.759016514E-1,1.091895252E-2
1.782715108E0,5.566002429E-2,-1.695100814E-1,1.411474310E-2
1.785202920E0,4.926844314E-2,-1.631184965E-1,1.624527015E-2
1.787690733E0,4.181159660E-2,-1.567269117E-1,1.731053367E-2
1.790178545E0,3.435475379E-2,-1.503353268E-1,1.731053367E-2
1.792666358E0,2.689790726E-2,-1.450090110E-1,1.624527015E-2
1.795154170E0,1.944106072E-2,-1.375521719E-1,1.411474310E-2
1.797641983E0,1.091895252E-2,-1.311605871E-1,1.091895252E-2
1.800129795E0,3.462106921E-3,-1.247690022E-1,5.592633970E-3
1.802617608E0,-3.994738683E-3,-1.173121557E-1,2.663159103E-4
1.805105420E0,-1.145158429E-2,-1.109205782E-1,-5.060002208E-3
1.807593233E0,-1.890842989E-2,-1.045289934E-1,-1.251684781E-2
1.810081045E0,-2.636527456E-2,-9.813741595E-2,-1.997369342E-2
1.812568858E0,-3.382211924E-2,-9.174583107E-2,-2.636527456E-2
1.815056670E0,-4.127896577E-2,-8.535424620E-2,-3.488738462E-2
1.817544483E0,-4.767054692E-2,-7.789740711E-2,-4.340949282E-2
1.820032295E0,-5.406212807E-2,-7.150582224E-2,-5.086633936E-2
1.822520108E0,-6.045371294E-2,-6.617950648E-2,-5.938844755E-2
1.825007920E0,-6.684529036E-2,-5.978792161E-2,-6.791055948E-2
1.827495733E0,-7.217161357E-2,-5.552686751E-2,-7.536740601E-2
1.829983545E0,-7.856319100E-2,-5.020054802E-2,-8.282424510E-2
1.832471358E0,-8.282424510E-2,-4.593949392E-2,-9.028109163E-2
1.834959170E0,-8.602003753E-2,-4.274370521E-2,-9.773793817E-2
1.837446983E0,-8.815056831E-2,-3.848264739E-2,-1.041295230E-1
1.839934795E0,-8.921582997E-2,-3.635212034E-2,-1.105211005E-1
1.842422608E0,-8.921582997E-2,-3.209106624E-2,-1.169126853E-1
1.844910420E0,-8.815056831E-2,-2.676474862E-2,-1.222390011E-1
1.847398233E0,-8.388951421E-2,-1.930790395E-2,-1.275653243E-1
1.849886045E0,-8.069372177E-2,-1.185105834E-2,-1.328916401E-1
1.852373858E0,-7.643266767E-2,-3.328948980E-3,-1.371526867E-1
1.854861670E0,-7.110634446E-2,6.258423906E-3,-1.414137483E-1
1.857349483E0,-6.578002870E-2,1.691105962E-2,-1.446095407E-1
1.859837295E0,-5.938844755E-2,2.756369673E-2,-1.467400640E-1
1.862325108E0,-5.406212807E-2,3.821633384E-2,-1.499358565E-1
1.864812920E0,-4.873581231E-2,4.780370742E-2,-1.510011256E-1
1.867300733E0,-4.340949282E-2,5.739107728E-2,-1.531316489E-1
1.869788545E0,-3.914843872E-2,6.378266215E-2,-1.531316489E-1
1.872276358E0,-3.701791167E-2,7.123950869E-2,-1.531316489E-1
1.874764170E0,-3.382211924E-2,7.550056279E-2,-1.520663798E-1
1.877251983E0,-3.169159219E-2,7.976161689E-2,-1.510011256E-1
1.879739795E0,-2.956106514E-2,8.295740932E-2,-1.488705873E-1
1.882227608E0,-2.956106514E-2,8.508793265E-2,-1.467400640E-1
1.884715420E0,-2.849580161E-2,8.721846342E-2,-1.435442716E-1
1.887203233E0,-2.849580161E-2,8.934898674E-2,-1.414137483E-1
1.889691045E0,-3.062633052E-2,9.254477918E-2,-1.403484792E-1
1.892178858E0,-2.956106514E-2,9.361004084E-2,-1.382179558E-1
1.894666670E0,-3.169159219E-2,9.574057162E-2,-1.382179558E-1
1.897154483E0,-3.169159219E-2,9.787109494E-2,-1.392832249E-1
1.899642295E0,-3.169159219E-2,1.000016257E-1,-1.414137483E-1
1.902130108E0,-3.169159219E-2,1.010668874E-1,-1.446095407E-1
1.904617920E0,-3.169159219E-2,1.021321490E-1,-1.488705873E-1
1.907105733E0,-2.956106514E-2,1.010668874E-1,-1.531316489E-1
1.909593545E0,-2.743053809E-2,1.010668874E-1,-1.584579647E-1
1.912081358E0,-2.530001104E-2,1.000016257E-1,-1.648495495E-1
1.914569170E0,-2.103895694E-2,9.574057162E-2,-1.723063886E-1
1.917056983E0,-1.677790284E-2,9.147951752E-2,-1.786979735E-1
1.919544795E0,-1.038632076E-2,8.615319431E-2,-1.861548275E-1
1.922032608E0,-2.929474926E-3,8.082687855E-2,-1.936116666E-1
1.924520420E0,5.592633970E-3,7.550056279E-2,-2.010685056E-1
1.927008233E0,1.518000662E-2,6.804371625E-2,-2.085253596E-1
1.929496045E0,2.689790726E-2,6.271740049E-2,-2.159821987E-1
1.931983858E0,4.074633494E-2,5.632581562E-2,-2.234390527E-1
1.934471670E0,5.566002429E-2,4.993423447E-2,-2.308958918E-1
1.936959483E0,7.270424068E-2,4.567318037E-2,-2.372874767E-1
1.939447295E0,9.081372619E-2,4.141212255E-2,-2.426137924E-1
1.941935108E0,1.099884734E-1,3.821633384E-2,-2.479401082E-1
1.944422920E0,1.312937438E-1,3.715106845E-2,-2.511359155E-1
1.946910733E0,1.536642760E-1,3.715106845E-2,-2.553969622E-1
1.949398545E0,1.771000773E-1,3.821633384E-2,-2.575274706E-1
1.951886358E0,2.005358785E-1,4.034686089E-2,-2.585927546E-1
1.954374170E0,2.250369489E-1,4.460791498E-2,-2.596580088E-1
1.956861983E0,2.484727502E-1,4.886896908E-2,-2.585927546E-1
1.959349795E0,2.708432674E-1,5.313002318E-2,-2.575274706E-1
1.961837608E0,2.921485603E-1,5.952160433E-2,-2.553969622E-1
1.964325420E0,3.123885691E-1,6.591318548E-2,-2.511359155E-1
1.966813233E0,3.304980397E-1,7.123950869E-2,-2.447443157E-1
1.969301045E0,3.464770019E-1,7.869634777E-2,-2.362222075E-1
1.971788858E0,3.592601717E-1,8.615319431E-2,-2.277000993E-1
1.974276670E0,3.699128032E-1,9.361004084E-2,-2.181127369E-1
1.976764483E0,3.784348965E-1,1.010668874E-1,-2.085253596E-1
1.979252295E0,3.837612271E-1,1.095889956E-1,-1.978727281E-1
1.981740108E0,3.869570196E-1,1.181111038E-1,-1.882853508E-1
1.984227920E0,3.869570196E-1,1.245026886E-1,-1.776327193E-1
1.986715733E0,3.848264813E-1,1.319595277E-1,-1.669800729E-1
1.989203545E0,3.795001805E-1,1.383511126E-1,-1.563274413E-1
1.991691358E0,3.731085956E-1,1.447426975E-1,-1.478053331E-1
1.994179170E0,3.645864725E-1,1.511342824E-1,-1.392832249E-1
1.996666983E0,3.549990952E-1,1.553953290E-1,-1.318263710E-1
1.999154795E0,3.432812095E-1,1.596563905E-1,-1.265000552E-1
2.001642608E0,3.315632939E-1,1.639174372E-1,-1.222390011E-1
2.004130420E0,3.187801540E-1,1.671132296E-1,-1.190432087E-1
2.006618233E0,3.049317300E-1,1.703090221E-1,-1.179779470E-1
2.009106045E0,2.921485603E-1,1.735048145E-1,-1.179779470E-1
2.011593858E0,2.793653905E-1,1.756353378E-1,-1.190432087E-1
2.014081670E0,2.655169666E-1,1.777658761E-1,-1.211737394E-1
2.016569483E0,2.527337968E-1,1.788311303E-1,-1.243695319E-1
2.019057295E0,2.410158962E-1,1.798963994E-1,-1.275653243E-1
2.021545108E0,2.282327414E-1,1.820269227E-1,-1.318263710E-1
2.024032920E0,2.175800949E-1,1.830921918E-1,-1.371526867E-1
2.026520733E0,2.058621943E-1,1.852227151E-1,-1.424790174E-1
2.029008545E0,1.952095628E-1,1.862879843E-1,-1.488705873E-1
2.031496358E0,1.856221855E-1,1.884185076E-1,-1.552621722E-1
2.033984170E0,1.760348231E-1,1.894837767E-1,-1.627190262E-1
2.036471983E0,1.685779691E-1,1.905490309E-1,-1.691105962E-1
2.038959795E0,1.600558609E-1,1.916143000E-1,-1.765674502E-1
2.041447608E0,1.515337527E-1,1.937448233E-1,-1.840242893E-1
2.043935420E0,1.440769136E-1,1.958753467E-1,-1.914811432E-1
2.046423233E0,1.355548054E-1,1.990711391E-1,-1.989379823E-1
2.048911045E0,1.270326823E-1,2.022669315E-1,-2.063948363E-1
2.051398858E0,1.185105816E-1,2.065279931E-1,-2.127864063E-1
2.053886670E0,1.110537350E-1,2.107890397E-1,-2.202432603E-1
2.056374483E0,1.035968885E-1,2.150501013E-1,-2.266348451E-1
2.058862295E0,9.720530361E-2,2.193111479E-1,-2.319611609E-1
2.061350108E0,9.187898785E-2,2.235722095E-1,-2.372874767E-1
2.063838337E0,8.655267209E-2,2.288985252E-1,-2.426137924E-1
2.066326514E0,8.229161799E-2,2.331595868E-1,-2.468748540E-1
2.068814326E0,7.803056389E-2,2.374206334E-1,-2.500706315E-1
2.071302139E0,7.590003312E-2,2.416816950E-1,-2.522011697E-1
2.073789951E0,7.163897902E-2,2.470080107E-1,-2.532664239E-1
2.076277764E0,6.844318658E-2,2.523343265E-1,-2.522011697E-1
2.078765576E0,6.524740160E-2,2.576606572E-1,-2.522011697E-1
2.081253389E0,6.098634377E-2,2.640522122E-1,-2.500706315E-1
2.083741201E0,5.566002429E-2,2.693785429E-1,-2.468748540E-1
2.086229014E0,5.139897019E-2,2.736395895E-1,-2.436790615E-1
2.088716826E0,4.500738904E-2,2.779006660E-1,-2.394180000E-1
2.091204639E0,3.755054250E-2,2.810964286E-1,-2.340916842E-1
2.093692451E0,3.009369783E-2,2.832269669E-1,-2.277000993E-1
2.096180264E0,2.263685316E-2,2.853575051E-1,-2.202432603E-1
2.098668076E0,1.411474310E-2,2.853575051E-1,-2.117211521E-1
2.101155889E0,4.527370445E-3,2.853575051E-1,-2.031990439E-1
2.103644274E0,-5.060002208E-3,2.842922211E-1,-1.936116666E-1
2.106131566E0,-1.358211134E-2,2.832269669E-1,-1.840242893E-1
2.108618858E0,-2.210422046E-2,2.810964286E-1,-1.744369268E-1
2.111106149E0,-3.062633052E-2,2.789659202E-1,-1.648495495E-1
2.113593493E0,-3.808317333E-2,2.757701278E-1,-1.552621722E-1
2.116080889E0,-4.554001987E-2,2.747048736E-1,-1.456748098E-1
2.118568337E0,-5.086633936E-2,2.736395895E-1,-1.371526867E-1
2.121055889E0,-5.619265884E-2,2.725743353E-1,-1.286305785E-1
2.123543545E0,-5.938844755E-2,2.736395895E-1,-1.211737394E-1
2.126031306E0,-6.045371294E-2,2.747048736E-1,-1.137168929E-1
2.128519170E0,-6.151897460E-2,2.757701278E-1,-1.062600464E-1
2.131007139E0,-5.938844755E-2,2.779006660E-1,-9.986846894E-2
2.133495160E0,-5.512739345E-2,2.800311744E-1,-9.241162241E-2
2.135983233E0,-4.980107397E-2,2.821617126E-1,-8.708529919E-2
2.138471358E0,-4.234423116E-2,2.864227593E-1,-8.282424510E-2
2.140959535E0,-3.275685757E-2,2.906838059E-1,-7.856319100E-2
2.143447712E0,-2.316948399E-2,2.949448824E-1,-7.536740601E-2
2.145935889E0,-1.145158429E-2,2.992059290E-1,-7.217161357E-2
2.148424066E0,1.331579522E-3,3.034669757E-1,-7.004108280E-2
2.150912243E0,1.411474310E-2,3.077280223E-1,-6.791055948E-2
2.153400056E0,2.796317078E-2,3.119890988E-1,-6.684529036E-2
2.155887868E0,4.287686199E-2,3.141196072E-1,-6.578002870E-2
2.158375681E0,5.779055133E-2,3.162501454E-1,-6.471476704E-2
2.160863493E0,7.270424068E-2,3.183806837E-1,-6.364950538E-2
2.163351306E0,8.655267209E-2,3.183806837E-1,-6.471476704E-2
2.165839118E0,1.004010960E-1,3.162501454E-1,-6.471476704E-2
2.168326931E0,1.131842583E-1,3.141196072E-1,-6.471476704E-2
2.170814743E0,1.249021590E-1,3.109238148E-1,-6.471476704E-2
2.173302556E0,1.355548054E-1,3.066627681E-1,-6.578002870E-2
2.175790368E0,1.440769136E-1,3.034669757E-1,-6.578002870E-2
2.178278181E0,1.504684836E-1,2.981406748E-1,-6.578002870E-2
2.180765993E0,1.557948142E-1,2.928143442E-1,-6.684529036E-2
2.183253806E0,1.611211300E-1,2.874880135E-1,-6.791055948E-2
2.185741618E0,1.643169224E-1,2.810964286E-1,-6.791055948E-2
2.188229431E0,1.664474458E-1,2.757701278E-1,-6.791055948E-2
2.190717243E0,1.685779691E-1,2.704437971E-1,-6.791055948E-2
2.193205056E0,1.696432382E-1,2.651174963E-1,-6.684529036E-2
2.195692868E0,1.685779691E-1,2.597911656E-1,-6.471476704E-2
2.198180681E0,1.675127149E-1,2.533995807E-1,-6.364950538E-2
2.200668493E0,1.643169224E-1,2.480732650E-1,-6.151897460E-2
2.203156306E0,1.600558609E-1,2.427469492E-1,-5.938844755E-2
2.205644118E0,1.557948142E-1,2.352901101E-1,-5.512739345E-2
2.208131931E0,1.494032294E-1,2.278332561E-1,-4.980107397E-2
2.210619743E0,1.430116445E-1,2.203764170E-1,-4.340949282E-2
2.213107556E0,1.366200596E-1,2.118543088E-1,-3.808317333E-2
2.215595368E0,1.280979514E-1,2.043974549E-1,-3.169159219E-2
2.218083181E0,1.195758432E-1,1.969406158E-1,-2.423474751E-2
2.220570993E0,1.110537350E-1,1.894837767E-1,-1.677790284E-2
2.223058806E0,1.004010960E-1,1.841574460E-1,-1.038632076E-2
2.225546618E0,9.081372619E-2,1.777658761E-1,-6.125265732E-3
2.228034431E0,8.122635633E-2,1.713742912E-1,-7.989477599E-4
2.230522243E0,7.270424068E-2,1.660479754E-1,2.396843163E-3
2.233010056E0,6.418213248E-2,1.607216448E-1,5.592633970E-3
2.235497868E0,5.459476262E-2,1.564605981E-1,6.657897960E-3
2.237985681E0,4.500738904E-2,1.521995366E-1,7.723161485E-3
2.240473493E0,3.648528084E-2,1.490037590E-1,6.657897960E-3
2.242961306E0,2.902843431E-2,1.458079666E-1,5.592633970E-3
2.245449118E0,2.157158963E-2,1.436774284E-1,3.462106921E-3
2.247936931E0,1.518000662E-2,1.415469050E-1,1.331579522E-3
2.250424743E0,9.853689000E-3,1.404816359E-1,-7.989477599E-4
2.252912556E0,5.592633970E-3,1.383511126E-1,-3.994738683E-3
2.255400368E0,2.396843163E-3,1.372858584E-1,-7.190529723E-3
2.257888181E0,2.663159103E-4,1.372858584E-1,-1.038632076E-2
2.260375993E0,-7.989477599E-4,1.372858584E-1,-1.358211134E-2
2.262863806E0,2.663159103E-4,1.372858584E-1,-1.571263932E-2
2.265351618E0,1.331579522E-3,1.404816359E-1,-1.784316637E-2
2.267839431E0,2.396843163E-3,1.436774284E-1,-1.997369342E-2
2.270327243E0,3.462106921E-3,1.468732208E-1,-2.103895694E-2
2.272815056E0,5.592633970E-3,1.521995366E-1,-2.316948399E-2
2.275302868E0,7.723161485E-3,1.585911214E-1,-2.316948399E-2
2.277790681E0,8.788425475E-3,1.649827063E-1,-2.423474751E-2
2.280278493E0,1.091895252E-2,1.724395454E-1,-2.423474751E-2
2.282766306E0,1.304947957E-2,1.798963994E-1,-2.316948399E-2
2.285254118E0,1.411474310E-2,1.862879843E-1,-2.316948399E-2
2.287741931E0,1.304947957E-2,1.937448233E-1,-2.210422046E-2
2.290229743E0,1.198421605E-2,2.012016773E-1,-2.103895694E-2
2.292717556E0,9.853689000E-3,2.075932473E-1,-1.997369342E-2
2.295205368E0,6.657897960E-3,2.129195631E-1,-1.997369342E-2
2.297693181E0,3.462106921E-3,2.182458937E-1,-1.784316637E-2
2.300180993E0,-1.864211401E-3,2.214416862E-1,-1.677790284E-2
2.302668806E0,-7.190529723E-3,2.246374637E-1,-1.571263932E-2
2.305156618E0,-1.464737486E-2,2.267680019E-1,-1.571263932E-2
2.307644431E0,-2.103895694E-2,2.267680019E-1,-1.464737486E-2
2.310132243E0,-2.956106514E-2,2.267680019E-1,-1.358211134E-2
2.312620056E0,-3.808317333E-2,2.267680019E-1,-1.145158429E-2
2.315107868E0,-4.660528526E-2,2.246374637E-1,-1.145158429E-2
2.317595681E0,-5.619265884E-2,2.235722095E-1,-9.321057238E-3
2.320083493E0,-6.684529036E-2,2.225069404E-1,-8.255792782E-3
2.322571306E0,-7.856319100E-2,2.214416862E-1,-7.190529723E-3
2.325059118E0,-9.028109163E-2,2.193111479E-1,-5.060002208E-3
2.327546931E0,-1.030642539E-1,2.182458937E-1,-3.994738683E-3
2.330034743E0,-1.147821546E-1,2.171806246E-1,-1.864211401E-3
2.332522556E0,-1.275653243E-1,2.150501013E-1,2.663159103E-4
2.335010368E0,-1.392832249E-1,2.129195631E-1,1.331579522E-3
2.337498181E0,-1.499358565E-1,2.107890397E-1,2.396843163E-3
2.339985993E0,-1.595232338E-1,2.086585164E-1,4.527370445E-3
2.342473806E0,-1.680453420E-1,2.075932473E-1,5.592633970E-3
2.344961618E0,-1.733716577E-1,2.075932473E-1,6.657897960E-3
2.347449431E0,-1.765674502E-1,2.075932473E-1,7.723161485E-3
2.349937243E0,-1.776327193E-1,2.086585164E-1,7.723161485E-3
2.352425056E0,-1.765674502E-1,2.097237855E-1,8.788425475E-3
2.354912868E0,-1.723063886E-1,2.129195631E-1,8.788425475E-3
2.357400681E0,-1.659148186E-1,2.161153555E-1,9.853689000E-3
2.359888493E0,-1.584579647E-1,2.182458937E-1,9.853689000E-3
2.362376306E0,-1.478053331E-1,2.214416862E-1,9.853689000E-3
2.364864118E0,-1.339569092E-1,2.235722095E-1,9.853689000E-3
2.367351931E0,-1.190432087E-1,2.246374637E-1,1.091895252E-2
2.369839743E0,-1.041295230E-1,2.267680019E-1,9.853689000E-3
2.372327556E0,-8.602003753E-2,2.278332561E-1,9.853689000E-3
2.374815368E0,-6.578002870E-2,2.288985252E-1,9.853689000E-3
2.377303181E0,-4.554001987E-2,2.299637944E-1,1.091895252E-2
2.379790993E0,-2.530001104E-2,2.331595868E-1,1.091895252E-2
2.382278806E0,-3.994738683E-3,2.363553643E-1,1.198421605E-2
2.384766618E0,1.731053367E-2,2.384859025E-1,1.304947957E-2
2.387254431E0,3.755054250E-2,2.427469492E-1,1.411474310E-2
2.389742243E0,5.779055133E-2,2.459427416E-1,1.518000662E-2
2.392230056E0,7.696529478E-2,2.491385341E-1,1.624527015E-2
2.394717868E0,9.507478029E-2,2.523343265E-1,1.837579720E-2
2.397205681E0,1.131842583E-1,2.533995807E-1,2.050632425E-2
2.399693493E0,1.302284747E-1,2.555301189E-1,2.263685316E-2
2.402181306E0,1.462074369E-1,2.576606572E-1,2.370211668E-2
2.404669118E0,1.611211300E-1,2.608564198E-1,2.476738021E-2
2.407156931E0,1.739042848E-1,2.651174963E-1,2.583264373E-2
2.409644743E0,1.856221855E-1,2.693785429E-1,2.583264373E-2
2.412132556E0,1.973400861E-1,2.736395895E-1,2.689790726E-2
2.414620368E0,2.047969401E-1,2.779006660E-1,2.583264373E-2
2.417108181E0,2.133190483E-1,2.810964286E-1,2.370211668E-2
2.419595993E0,2.186453640E-1,2.842922211E-1,2.370211668E-2
2.422083806E0,2.229064107E-1,2.864227593E-1,2.263685316E-2
2.424571618E0,2.261022031E-1,2.874880135E-1,2.157158963E-2
2.427059431E0,2.271674722E-1,2.864227593E-1,2.050632425E-2
2.429547243E0,2.261022031E-1,2.842922211E-1,2.050632425E-2
2.432035056E0,2.229064107E-1,2.821617126E-1,1.944106072E-2
2.434522868E0,2.186453640E-1,2.789659202E-1,2.050632425E-2
2.437010681E0,2.122537792E-1,2.757701278E-1,1.944106072E-2
2.439498493E0,2.047969401E-1,2.704437971E-1,2.050632425E-2
2.441986306E0,1.952095628E-1,2.661827505E-1,2.157158963E-2
2.444474118E0,1.845569313E-1,2.597911656E-1,2.263685316E-2
2.446961931E0,1.728390306E-1,2.544648647E-1,2.370211668E-2
2.449449743E0,1.611211300E-1,2.491385341E-1,2.476738021E-2
2.451937556E0,1.483379602E-1,2.438122183E-1,2.583264373E-2
2.454425368E0,1.355548054E-1,2.374206334E-1,2.796317078E-2
2.456913181E0,1.227716357E-1,2.320943177E-1,2.902843431E-2
2.459400993E0,1.089232042E-1,2.267680019E-1,3.115896136E-2
2.461888806E0,9.614004195E-2,2.214416862E-1,3.328948840E-2
2.464376618E0,8.229161799E-2,2.171806246E-1,3.435475379E-2
2.466864431E0,6.950845569E-2,2.150501013E-1,3.542001545E-2
2.469352243E0,5.779055133E-2,2.129195631E-1,3.542001545E-2
2.471840056E0,4.607265070E-2,2.129195631E-1,3.435475379E-2
2.474327868E0,3.542001545E-2,2.139848322E-1,3.435475379E-2
2.476815681E0,2.476738021E-2,2.150501013E-1,3.328948840E-2
2.479303493E0,1.518000662E-2,2.171806246E-1,3.222422674E-2
2.481791306E0,5.592633970E-3,2.203764170E-1,3.115896136E-2
2.484279118E0,-2.929474926E-3,2.235722095E-1,2.902843431E-2
2.486766931E0,-1.145158429E-2,2.257027328E-1,2.902843431E-2
2.489254743E0,-1.997369342E-2,2.288985252E-1,2.796317078E-2
2.491742556E0,-2.743053809E-2,2.320943177E-1,2.796317078E-2
2.494230368E0,-3.382211924E-2,2.352901101E-1,2.796317078E-2
2.496718181E0,-4.021370411E-2,2.363553643E-1,2.796317078E-2
2.499205993E0,-4.554001987E-2,2.384859025E-1,2.902843431E-2
2.501693806E0,-5.086633936E-2,2.395511568E-1,3.009369783E-2
2.504181618E0,-5.619265884E-2,2.406164259E-1,3.115896136E-2
2.506669431E0,-6.045371294E-2,2.416816950E-1,3.222422674E-2
2.509157243E0,-6.471476704E-2,2.438122183E-1,3.435475379E-2
2.511645056E0,-6.684529036E-2,2.470080107E-1,3.755054250E-2
2.514132868E0,-7.004108280E-2,2.502037883E-1,3.968106955E-2
2.516620681E0,-7.217161357E-2,2.533995807E-1,4.287686199E-2
2.519108493E0,-7.536740601E-2,2.587259114E-1,4.607265070E-2
2.521596306E0,-7.643266767E-2,2.629869580E-1,5.033370852E-2
2.524084118E0,-7.749792933E-2,2.672480047E-1,5.459476262E-2
2.526571931E0,-7.856319100E-2,2.704437971E-1,5.992107838E-2
2.529059743E0,-7.856319100E-2,2.736395895E-1,6.524740160E-2
2.531547556E0,-7.856319100E-2,2.757701278E-1,7.057371736E-2
2.534035368E0,-7.856319100E-2,2.768353820E-1,7.590003312E-2
2.536523181E0,-7.856319100E-2,2.779006660E-1,8.122635633E-2
2.539010993E0,-7.856319100E-2,2.789659202E-1,8.655267209E-2
2.541498806E0,-7.962846011E-2,2.789659202E-1,9.294424951E-2
2.543986618E0,-8.069372177E-2,2.779006660E-1,9.720530361E-2
2.546474431E0,-8.282424510E-2,2.779006660E-1,1.035968885E-1
2.548962243E0,-8.495477587E-2,2.747048736E-1,1.089232042E-1
2.551450056E0,-8.708529919E-2,2.725743353E-1,1.121189967E-1
2.553937868E0,-9.028109163E-2,2.683132887E-1,1.163800508E-1
2.556425681E0,-9.454214573E-2,2.640522122E-1,1.206411049E-1
2.558913493E0,-9.773793817E-2,2.597911656E-1,1.238368973E-1
2.561401306E0,-1.030642539E-1,2.544648647E-1,1.259674281E-1
2.563889118E0,-1.073253155E-1,2.491385341E-1,1.291632205E-1
2.566376931E0,-1.126516312E-1,2.448774725E-1,1.302284747E-1
2.568864743E0,-1.179779470E-1,2.416816950E-1,1.323590130E-1
2.571352556E0,-1.233042628E-1,2.395511568E-1,1.323590130E-1
2.573840368E0,-1.275653243E-1,2.374206334E-1,1.312937438E-1
2.576328181E0,-1.307611167E-1,2.384859025E-1,1.302284747E-1
2.578815993E0,-1.339569092E-1,2.416816950E-1,1.280979514E-1
2.581303806E0,-1.350221634E-1,2.448774725E-1,1.249021590E-1
2.583791618E0,-1.360874325E-1,2.502037883E-1,1.206411049E-1
2.586279431E0,-1.350221634E-1,2.565953732E-1,1.163800508E-1
2.588767243E0,-1.339569092E-1,2.640522122E-1,1.121189967E-1
2.591255056E0,-1.318263710E-1,2.715090811E-1,1.078579426E-1
2.593742868E0,-1.275653243E-1,2.800311744E-1,1.035968885E-1
2.596230681E0,-1.254348010E-1,2.885532975E-1,9.933583438E-2
2.598718493E0,-1.211737394E-1,2.949448824E-1,9.507478029E-2
2.601206306E0,-1.179779470E-1,3.002711833E-1,9.187898785E-2
2.603694118E0,-1.147821546E-1,3.055975139E-1,8.761793375E-2
2.606181931E0,-1.115863696E-1,3.077280223E-1,8.442214131E-2
2.608669743E0,-1.094558388E-1,3.087933064E-1,8.016108721E-2
2.611157556E0,-1.073253155E-1,3.087933064E-1,7.696529478E-2
2.613645368E0,-1.051947847E-1,3.066627681E-1,7.376950979E-2
2.616133181E0,-1.030642539E-1,3.024017215E-1,6.950845569E-2
2.618620993E0,-1.019989923E-1,2.981406748E-1,6.524740160E-2
2.621108806E0,-1.009337306E-1,2.928143442E-1,5.992107838E-2
2.623596618E0,-9.880319983E-2,2.853575051E-1,5.672528967E-2
2.626084431E0,-9.773793817E-2,2.789659202E-1,5.246423557E-2
2.628572243E0,-9.773793817E-2,2.725743353E-1,4.926844314E-2
2.631060056E0,-9.667267650E-2,2.661827505E-1,4.394212365E-2
2.633547868E0,-9.667267650E-2,2.597911656E-1,3.968106955E-2
2.636035681E0,-9.560741484E-2,2.555301189E-1,3.435475379E-2
2.638523493E0,-9.454214573E-2,2.502037883E-1,2.902843431E-2
2.641011306E0,-9.454214573E-2,2.459427416E-1,2.583264373E-2
2.643499118E0,-9.241162241E-2,2.406164259E-1,2.157158963E-2
2.645986931E0,-9.028109163E-2,2.352901101E-1,1.731053367E-2
2.648474743E0,-8.815056831E-2,2.288985252E-1,1.304947957E-2
2.650962556E0,-8.495477587E-2,2.225069404E-1,8.788425475E-3
2.653450368E0,-8.069372177E-2,2.161153555E-1,4.527370445E-3
2.655938181E0,-7.643266767E-2,2.107890397E-1,1.331579522E-3
2.658425993E0,-7.217161357E-2,2.054627240E-1,-2.929474926E-3
2.660913806E0,-6.791055948E-2,2.012016773E-1,-7.190529723E-3
2.663401618E0,-6.258423626E-2,1.980058849E-1,-1.038632076E-2
2.665889431E0,-5.725792050E-2,1.958753467E-1,-1.464737486E-2
2.668377243E0,-5.299686641E-2,1.948100924E-1,-1.784316637E-2
2.670865056E0,-4.767054692E-2,1.948100924E-1,-2.210422046E-2
2.673352868E0,-4.340949282E-2,1.948100924E-1,-2.636527456E-2
2.675840681E0,-3.808317333E-2,1.969406158E-1,-3.062633052E-2
2.678328493E0,-3.488738462E-2,1.980058849E-1,-3.382211924E-2
2.680816306E0,-3.169159219E-2,2.012016773E-1,-3.808317333E-2
2.683304118E0,-2.956106514E-2,2.043974549E-1,-4.340949282E-2
2.685791931E0,-2.743053809E-2,2.075932473E-1,-4.873581231E-2
2.688279743E0,-2.743053809E-2,2.107890397E-1,-5.299686641E-2
2.690767556E0,-2.743053809E-2,2.129195631E-1,-5.938844755E-2
2.693255368E0,-2.849580161E-2,2.150501013E-1,-6.578002870E-2
2.695743181E0,-3.169159219E-2,2.161153555E-1,-7.323687524E-2
2.698230993E0,-3.595264629E-2,2.182458937E-1,-7.962846011E-2
2.700718806E0,-4.021370411E-2,2.193111479E-1,-8.708529919E-2
2.703206618E0,-4.660528526E-2,2.193111479E-1,-9.454214573E-2
2.705694431E0,-5.406212807E-2,2.182458937E-1,-1.030642539E-1
2.708182243E0,-6.151897460E-2,2.161153555E-1,-1.105211005E-1
2.710670056E0,-7.004108280E-2,2.139848322E-1,-1.179779470E-1
2.713157868E0,-7.856319100E-2,2.086585164E-1,-1.243695319E-1
2.715645681E0,-8.602003753E-2,2.033322006E-1,-1.296958476E-1
2.718133493E0,-9.454214573E-2,1.958753467E-1,-1.350221634E-1
2.720621306E0,-1.030642539E-1,1.873532385E-1,-1.392832249E-1
2.723109118E0,-1.105211005E-1,1.777658761E-1,-1.435442716E-1
2.725596931E0,-1.190432087E-1,1.671132296E-1,-1.478053331E-1
2.728084743E0,-1.254348010E-1,1.575258672E-1,-1.510011256E-1
2.730572556E0,-1.307611167E-1,1.458079666E-1,-1.552621722E-1
2.733060368E0,-1.350221634E-1,1.362205893E-1,-1.573926955E-1
2.735548181E0,-1.382179558E-1,1.245026886E-1,-1.605884880E-1
2.738035993E0,-1.392832249E-1,1.149153188E-1,-1.637842804E-1
2.740523806E0,-1.382179558E-1,1.053279415E-1,-1.659148186E-1
2.743011618E0,-1.360874325E-1,9.787109494E-2,-1.669800729E-1
2.745499431E0,-1.307611167E-1,9.041424841E-2,-1.680453420E-1
2.747987243E0,-1.233042628E-1,8.402267098E-2,-1.680453420E-1
2.750475056E0,-1.147821546E-1,7.869634777E-2,-1.680453420E-1
2.752962868E0,-1.041295230E-1,7.443529367E-2,-1.669800729E-1
2.755450681E0,-9.241162241E-2,7.230477035E-2,-1.659148186E-1
2.757938493E0,-8.069372177E-2,7.017423958E-2,-1.637842804E-1
2.760426306E0,-6.684529036E-2,7.017423958E-2,-1.595232338E-1
2.762914118E0,-5.193160102E-2,6.910897791E-2,-1.573926955E-1
2.765401931E0,-3.808317333E-2,7.017423958E-2,-1.520663798E-1
2.767889743E0,-2.210422046E-2,7.123950869E-2,-1.478053331E-1
2.770377556E0,-7.190529723E-3,7.337003201E-2,-1.424790174E-1
2.772865368E0,7.723161485E-3,7.443529367E-2,-1.371526867E-1
2.775353181E0,2.263685316E-2,7.656582445E-2,-1.307611167E-1
2.777840993E0,3.755054250E-2,7.869634777E-2,-1.254348010E-1
2.780328806E0,5.246423557E-2,8.082687855E-2,-1.201084778E-1
2.782816618E0,6.631266326E-2,8.295740932E-2,-1.137168929E-1
2.785304431E0,7.909582555E-2,8.615319431E-2,-1.083905771E-1
2.787792243E0,9.187898785E-2,8.934898674E-2,-1.030642539E-1
2.790280056E0,1.035968885E-1,9.361004084E-2,-9.880319983E-2
2.792767868E0,1.142495275E-1,9.787109494E-2,-9.454214573E-2
2.795255681E0,1.227716357E-1,1.021321490E-1,-9.134636074E-2
2.797743493E0,1.291632205E-1,1.063932031E-1,-8.815056831E-2
2.800231306E0,1.355548054E-1,1.106542572E-1,-8.495477587E-2
2.802719118E0,1.398158520E-1,1.138500497E-1,-8.388951421E-2
2.805206931E0,1.419463754E-1,1.191763729E-1,-8.175898343E-2
2.807694743E0,1.430116445E-1,1.234374270E-1,-8.069372177E-2
2.810182556E0,1.419463754E-1,1.276984811E-1,-8.069372177E-2
2.812670368E0,1.398158520E-1,1.330247968E-1,-8.069372177E-2
2.815158181E0,1.355548054E-1,1.383511126E-1,-8.175898343E-2
2.817645993E0,1.291632205E-1,1.436774284E-1,-8.388951421E-2
2.820133806E0,1.217063740E-1,1.500690132E-1,-8.495477587E-2
2.822621618E0,1.121189967E-1,1.543300748E-1,-8.708529919E-2
2.825109431E0,1.004010960E-1,1.585911214E-1,-9.028109163E-2
2.827597243E0,8.655267209E-2,1.617869139E-1,-9.347688407E-2
2.830085056E0,7.057371736E-2,1.649827063E-1,-9.880319983E-2
2.832572868E0,5.352949724E-2,1.681784987E-1,-1.041295230E-1
2.835060681E0,3.328948840E-2,1.692437679E-1,-1.094558388E-1
2.837548493E0,1.304947957E-2,1.692437679E-1,-1.169126853E-1
2.840036306E0,-8.255792782E-3,1.681784987E-1,-1.254348010E-1
2.842524118E0,-2.849580161E-2,1.660479754E-1,-1.339569092E-1
2.845011931E0,-4.980107397E-2,1.628521830E-1,-1.435442716E-1
2.847499743E0,-7.217161357E-2,1.575258672E-1,-1.531316489E-1
2.849987556E0,-9.347688407E-2,1.521995366E-1,-1.648495495E-1
2.852475368E0,-1.147821546E-1,1.447426975E-1,-1.765674502E-1
2.854963181E0,-1.360874325E-1,1.362205893E-1,-1.893506050E-1
2.857450993E0,-1.563274413E-1,1.266332120E-1,-2.021337748E-1
2.859938806E0,-1.755021811E-1,1.138500497E-1,-2.149169445E-1
2.862426618E0,-1.936116666E-1,1.021321490E-1,-2.287653685E-1
2.864914431E0,-2.085253596E-1,8.721846342E-2,-2.426137924E-1
2.867402243E0,-2.223737836E-1,7.230477035E-2,-2.553969622E-1
2.869890056E0,-2.330264151E-1,5.632581562E-2,-2.681801319E-1
2.872377868E0,-2.415485233E-1,4.034686089E-2,-2.809632719E-1
2.874865681E0,-2.468748540E-1,2.436790615E-2,-2.937464416E-1
2.877353493E0,-2.490053773E-1,9.454214945E-3,-3.065296113E-1
2.879841306E0,-2.479401082E-1,-5.459476262E-3,-3.182475269E-1
2.882329118E0,-2.447443157E-1,-1.930790395E-2,-3.289001584E-1
2.884816931E0,-2.372874767E-1,-3.315633163E-2,-3.395527899E-1
2.887304743E0,-2.277000993E-1,-4.487423226E-2,-3.480748832E-1
2.889792556E0,-2.159821987E-1,-5.552686751E-2,-3.555317521E-1
2.892280368E0,-2.021337748E-1,-6.511423737E-2,-3.629885912E-1
2.894768181E0,-1.872200817E-1,-7.363634557E-2,-3.672496378E-1
2.897255993E0,-1.691105962E-1,-8.002793044E-2,-3.704454303E-1
2.899743806E0,-1.510011256E-1,-8.428898454E-2,-3.736412227E-1
2.902231618E0,-1.328916401E-1,-8.748477697E-2,-3.736412227E-1
2.904719431E0,-1.137168929E-1,-9.068056941E-2,-3.715106845E-1
2.907207243E0,-9.454214573E-2,-9.281109273E-2,-3.672496378E-1
2.909695056E0,-7.536740601E-2,-9.281109273E-2,-3.619233072E-1
2.912182868E0,-5.619265884E-2,-9.174583107E-2,-3.555317521E-1
2.914670681E0,-3.701791167E-2,-9.068056941E-2,-3.470096290E-1
2.917158493E0,-1.890842989E-2,-8.961530030E-2,-3.374222517E-1
2.919646306E0,-7.989477599E-4,-8.748477697E-2,-3.267696202E-1
2.922134118E0,1.624527015E-2,-8.535424620E-2,-3.161169887E-1
2.924621931E0,3.115896136E-2,-8.215846121E-2,-3.033338189E-1
2.927109743E0,4.607265070E-2,-7.789740711E-2,-2.894853950E-1
2.929597556E0,5.885581672E-2,-7.576687634E-2,-2.756369710E-1
2.932085368E0,7.057371736E-2,-7.150582224E-2,-2.617885470E-1
2.934573181E0,8.016108721E-2,-6.724476814E-2,-2.479401082E-1
2.937060993E0,8.974846452E-2,-6.298371404E-2,-2.330264151E-1
2.939548806E0,9.720530361E-2,-5.872265995E-2,-2.181127369E-1
2.942036618E0,1.025316268E-1,-5.233107507E-2,-2.042642981E-1
2.944524431E0,1.078579426E-1,-4.593949392E-2,-1.882853508E-1
2.947012243E0,1.121189967E-1,-3.848264739E-2,-1.733716577E-1
2.949500056E0,1.142495275E-1,-3.102580272E-2,-1.584579647E-1
2.951987868E0,1.153147891E-1,-2.356895804E-2,-1.424790174E-1
2.954475681E0,1.163800508E-1,-1.504684892E-2,-1.286305785E-1
2.956963493E0,1.163800508E-1,-7.590003312E-3,-1.147821546E-1
2.959451306E0,1.163800508E-1,-1.331579551E-4,-1.009337306E-1
2.961939118E0,1.153147891E-1,7.323687430E-3,-8.815056831E-2
2.964426931E0,1.121189967E-1,1.478053257E-2,-7.643266767E-2
2.966914743E0,1.078579426E-1,2.223737910E-2,-6.684529036E-2
2.969402556E0,1.035968885E-1,2.862896025E-2,-5.832318589E-2
2.971890368E0,9.720530361E-2,3.715106845E-2,-5.086633936E-2
2.974378181E0,9.187898785E-2,4.354264960E-2,-4.554001987E-2
2.976865993E0,8.548741043E-2,4.993423447E-2,-4.127896577E-2
2.979353806E0,7.803056389E-2,5.632581562E-2,-3.808317333E-2
2.981841618E0,6.950845569E-2,6.058686972E-2,-3.595264629E-2
2.984329431E0,6.098634377E-2,6.484792382E-2,-3.488738462E-2
2.986817243E0,5.246423557E-2,6.804371625E-2,-3.595264629E-2
2.989305056E0,4.394212365E-2,7.123950869E-2,-3.701791167E-2
2.991792868E0,3.435475379E-2,7.550056279E-2,-4.021370411E-2
2.994280681E0,2.583264373E-2,7.763108611E-2,-4.340949282E-2
2.996768493E0,1.731053367E-2,7.976161689E-2,-4.767054692E-2
2.999256306E0,8.788425475E-3,8.189214021E-2,-5.299686641E-2
3.001744118E0,2.663159103E-4,8.402267098E-2,-5.938844755E-2
3.004231931E0,-1.038632076E-2,8.615319431E-2,-6.471476704E-2
3.006719743E0,-1.890842989E-2,8.828372508E-2,-7.110634446E-2
3.009207556E0,-2.849580161E-2,9.254477918E-2,-7.749792933E-2
3.011695368E0,-3.914843872E-2,9.467530251E-2,-8.282424510E-2
3.014183181E0,-5.086633936E-2,9.893636405E-2,-8.921582997E-2
3.016670993E0,-6.258423626E-2,1.021321490E-1,-9.667267650E-2
3.019158806E0,-7.430213690E-2,1.053279415E-1,-1.030642539E-1
3.021646618E0,-8.708529919E-2,1.074584723E-1,-1.083905771E-1
3.024134431E0,-9.986846894E-2,1.095889956E-1,-1.147821546E-1
3.026622243E0,-1.147821546E-1,1.095889956E-1,-1.201084778E-1
3.029110056E0,-1.296958476E-1,1.095889956E-1,-1.254348010E-1
3.031597868E0,-1.446095407E-1,1.095889956E-1,-1.296958476E-1
3.034085681E0,-1.605884880E-1,1.074584723E-1,-1.339569092E-1
3.036573493E0,-1.765674502E-1,1.053279415E-1,-1.382179558E-1
3.039061306E0,-1.914811432E-1,1.031974182E-1,-1.414137483E-1
3.041549118E0,-2.063948363E-1,1.000016257E-1,-1.435442716E-1
3.044036931E0,-2.202432603E-1,9.680583328E-2,-1.456748098E-1
3.046524743E0,-2.340916842E-1,9.147951752E-2,-1.467400640E-1
3.049012556E0,-2.468748540E-1,8.615319431E-2,-1.467400640E-1
3.051500368E0,-2.575274706E-1,7.976161689E-2,-1.467400640E-1
3.053988181E0,-2.681801319E-1,7.337003201E-2,-1.456748098E-1
3.056475993E0,-2.756369710E-1,6.697845459E-2,-1.446095407E-1
3.058963806E0,-2.820285559E-1,6.058686972E-2,-1.435442716E-1
3.061451618E0,-2.852243483E-1,5.313002318E-2,-1.403484792E-1
3.063939431E0,-2.884201407E-1,4.673844203E-2,-1.371526867E-1
3.066427243E0,-2.884201407E-1,3.928159550E-2,-1.328916401E-1
3.068915056E0,-2.873548567E-1,3.289001435E-2,-1.286305785E-1
3.071402868E0,-2.841590643E-1,2.543316968E-2,-1.233042628E-1
3.073890681E0,-2.788327634E-1,1.691105962E-2,-1.169126853E-1
3.076378493E0,-2.713759243E-1,8.388951421E-3,-1.115863696E-1
3.078866306E0,-2.628538013E-1,-1.331579551E-4,-1.051947847E-1
3.081354118E0,-2.511359155E-1,-8.655266836E-3,-9.986846894E-2
3.083842087E0,-2.383527458E-1,-1.717737690E-2,-9.347688407E-2
3.086330056E0,-2.223737836E-1,-2.463422157E-2,-8.815056831E-2
3.088818024E0,-2.053295672E-1,-3.209106624E-2,-8.175898343E-2
3.091305993E0,-1.861548275E-1,-3.848264739E-2,-7.536740601E-2
3.093793962E0,-1.659148186E-1,-4.593949392E-2,-6.897582114E-2
3.096281931E0,-1.446095407E-1,-5.233107507E-2,-6.258423626E-2
3.098769795E0,-1.211737394E-1,-5.765739456E-2,-5.619265884E-2
3.101257608E0,-9.667267650E-2,-6.191844866E-2,-4.980107397E-2
3.103745420E0,-7.217161357E-2,-6.511423737E-2,-4.234423116E-2
3.106233233E0,-4.660528526E-2,-6.937529147E-2,-3.595264629E-2
3.108721045E0,-1.997369342E-2,-7.150582224E-2,-2.956106514E-2
3.111208858E0,5.592633970E-3,-7.470161468E-2,-2.210422046E-2
3.113696670E0,3.115896136E-2,-7.683213800E-2,-1.571263932E-2
3.116184483E0,5.672528967E-2,-7.896266878E-2,-8.255792782E-3
3.118672295E0,8.122635633E-2,-8.109319210E-2,-7.989477599E-4
3.121160108E0,1.046621501E-1,-8.215846121E-2,6.657897960E-3
3.123648233E0,1.259674281E-1,-8.428898454E-2,1.411474310E-2
3.126135733E0,1.462074369E-1,-8.535424620E-2,2.157158963E-2
3.128623233E0,1.643169224E-1,-8.748477697E-2,2.796317078E-2
3.131110733E0,1.813611388E-1,-8.961530030E-2,3.542001545E-2
3.133598233E0,1.962748319E-1,-9.068056941E-2,4.181159660E-2
3.136085733E0,2.090579867E-1,-9.281109273E-2,4.926844314E-2
3.138573285E0,2.207758874E-1,-9.494162351E-2,5.459476262E-2
3.141060889E0,2.303632647E-1,-9.600688517E-2,6.098634377E-2
3.143548545E0,2.388853729E-1,-9.813741595E-2,6.631266326E-2
3.146036253E0,2.452769578E-1,-1.002679393E-1,7.057371736E-2
3.148524014E0,2.506032586E-1,-1.002679393E-1,7.483477145E-2
3.151011826E0,2.548643351E-1,-1.013332009E-1,7.909582555E-2
3.153499691E0,2.591253817E-1,-1.002679393E-1,8.229161799E-2
3.155987608E0,2.612559199E-1,-9.920267761E-2,8.548741043E-2
3.158475576E0,2.623211741E-1,-9.707214683E-2,8.761793375E-2
3.160963597E0,2.633864284E-1,-9.494162351E-2,8.868319541E-2
3.163451670E0,2.633864284E-1,-9.174583107E-2,9.187898785E-2
3.165939743E0,2.633864284E-1,-8.748477697E-2,9.294424951E-2
3.168427816E0,2.623211741E-1,-8.322372288E-2,9.294424951E-2
3.170915889E0,2.612559199E-1,-7.896266878E-2,9.294424951E-2
3.173403962E0,2.591253817E-1,-7.470161468E-2,9.294424951E-2
3.175892035E0,2.569948435E-1,-7.044056058E-2,9.294424951E-2
3.178379847E0,2.548643351E-1,-6.511423737E-2,9.187898785E-2
3.180867660E0,2.527337968E-1,-5.978792161E-2,9.187898785E-2
3.183355472E0,2.474074811E-1,-5.446160212E-2,9.187898785E-2
3.185843285E0,2.442116886E-1,-5.020054802E-2,9.081372619E-2
3.188331097E0,2.388853729E-1,-4.593949392E-2,8.868319541E-2
3.190818910E0,2.335590571E-1,-4.061317816E-2,8.761793375E-2
3.193306722E0,2.282327414E-1,-3.635212034E-2,8.548741043E-2
3.195794535E0,2.218411565E-1,-3.209106624E-2,8.335687965E-2
3.198282347E0,2.133190483E-1,-2.676474862E-2,8.229161799E-2
3.200770160E0,2.047969401E-1,-2.143843099E-2,8.016108721E-2
3.203257972E0,1.962748319E-1,-1.611211337E-2,7.803056389E-2
3.205745785E0,1.856221855E-1,-1.078579482E-2,7.590003312E-2
3.208233597E0,1.760348231E-1,-5.459476262E-3,7.270424068E-2
3.210721410E0,1.643169224E-1,9.321057005E-4,6.950845569E-2
3.213209222E0,1.515337527E-1,7.323687430E-3,6.631266326E-2
3.215697035E0,1.398158520E-1,1.478053257E-2,6.311687082E-2
3.218184847E0,1.270326823E-1,2.117211558E-2,5.992107838E-2
3.220672660E0,1.131842583E-1,2.756369673E-2,5.779055133E-2
3.223160472E0,9.933583438E-2,3.395527974E-2,5.352949724E-2
3.225648285E0,8.548741043E-2,4.141212255E-2,4.926844314E-2
3.228136097E0,7.163897902E-2,4.780370742E-2,4.500738904E-2
3.230623910E0,5.672528967E-2,5.419528857E-2,4.074633494E-2
3.233111722E0,4.074633494E-2,5.952160433E-2,3.648528084E-2
3.235599535E0,2.689790726E-2,6.484792382E-2,3.328948840E-2
3.238087347E0,1.198421605E-2,6.804371625E-2,3.009369783E-2
3.240575160E0,-7.989477599E-4,7.230477035E-2,2.689790726E-2
3.243062972E0,-1.464737486E-2,7.550056279E-2,2.370211668E-2
3.245550785E0,-2.636527456E-2,7.763108611E-2,2.157158963E-2
3.248038597E0,-3.701791167E-2,7.976161689E-2,1.837579720E-2
3.250526410E0,-4.660528526E-2,8.295740932E-2,1.624527015E-2
3.253014222E0,-5.512739345E-2,8.508793265E-2,1.304947957E-2
3.255502035E0,-6.364950538E-2,8.615319431E-2,1.091895252E-2
3.257989847E0,-7.004108280E-2,8.721846342E-2,9.853689000E-3
3.260477660E0,-7.643266767E-2,8.828372508E-2,8.788425475E-3
3.262965472E0,-8.175898343E-2,8.828372508E-2,7.723161485E-3
3.265453285E0,-8.495477587E-2,8.934898674E-2,7.723161485E-3
3.267941097E0,-8.708529919E-2,8.934898674E-2,7.723161485E-3
3.270428910E0,-8.815056831E-2,8.934898674E-2,7.723161485E-3
3.272916722E0,-8.708529919E-2,9.041424841E-2,7.723161485E-3
3.275404535E0,-8.495477587E-2,9.147951752E-2,8.788425475E-3
3.277892347E0,-8.175898343E-2,9.254477918E-2,1.091895252E-2
3.280380160E0,-7.749792933E-2,9.467530251E-2,1.198421605E-2
3.282867972E0,-7.217161357E-2,9.680583328E-2,1.411474310E-2
3.285355785E0,-6.578002870E-2,1.000016257E-1,1.624527015E-2
3.287843597E0,-5.832318589E-2,1.042626798E-1,1.731053367E-2
3.290331410E0,-4.980107397E-2,1.095889956E-1,2.050632425E-2
3.292819222E0,-4.021370411E-2,1.149153188E-1,2.263685316E-2
3.295307035E0,-3.062633052E-2,1.202416345E-1,2.583264373E-2
3.297794847E0,-1.997369342E-2,1.255679578E-1,2.796317078E-2
3.300282660E0,-8.255792782E-3,1.308942735E-1,3.222422674E-2
3.302770472E0,2.396843163E-3,1.351553202E-1,3.542001545E-2
3.305258285E0,1.304947957E-2,1.394163817E-1,3.755054250E-2
3.307746097E0,2.157158963E-2,1.436774284E-1,4.074633494E-2
3.310233910E0,3.115896136E-2,1.468732208E-1,4.287686199E-2
3.312721722E0,3.861580789E-2,1.490037590E-1,4.500738904E-2
3.315209535E0,4.607265070E-2,1.500690132E-1,4.713791609E-2
3.317697347E0,5.033370852E-2,1.500690132E-1,4.926844314E-2
3.320185160E0,5.459476262E-2,1.479384899E-1,5.139897019E-2
3.322672972E0,5.672528967E-2,1.458079666E-1,5.246423557E-2
3.325160785E0,5.779055133E-2,1.426121742E-1,5.352949724E-2
3.327648597E0,5.779055133E-2,1.394163817E-1,5.459476262E-2
3.330136410E0,5.672528967E-2,1.340900660E-1,5.566002429E-2
3.332624222E0,5.566002429E-2,1.298290044E-1,5.672528967E-2
3.335112035E0,5.246423557E-2,1.245026886E-1,5.672528967E-2
3.337599847E0,5.033370852E-2,1.202416345E-1,5.779055133E-2
3.340087660E0,4.820318148E-2,1.149153188E-1,5.885581672E-2
3.342575472E0,4.607265070E-2,1.095889956E-1,5.992107838E-2
3.345063285E0,4.500738904E-2,1.031974182E-1,6.098634377E-2
3.347551097E0,4.394212365E-2,9.787109494E-2,6.205160543E-2
3.350038910E0,4.394212365E-2,9.254477918E-2,6.418213248E-2
3.352526722E0,4.500738904E-2,8.828372508E-2,6.418213248E-2
3.355014535E0,4.500738904E-2,8.508793265E-2,6.631266326E-2
3.357502347E0,4.713791609E-2,8.082687855E-2,6.737792492E-2
3.359990160E0,4.926844314E-2,7.763108611E-2,6.844318658E-2
3.362477972E0,5.139897019E-2,7.656582445E-2,7.057371736E-2
3.364965785E0,5.566002429E-2,7.337003201E-2,7.270424068E-2
3.367453597E0,5.779055133E-2,7.337003201E-2,7.483477145E-2
3.369941410E0,6.205160543E-2,7.123950869E-2,7.590003312E-2
3.372429222E0,6.737792492E-2,7.017423958E-2,7.803056389E-2
3.374917035E0,7.163897902E-2,6.910897791E-2,7.909582555E-2
3.377404847E0,7.590003312E-2,6.910897791E-2,8.016108721E-2
3.379892660E0,8.122635633E-2,7.017423958E-2,8.016108721E-2
3.382380472E0,8.655267209E-2,7.017423958E-2,8.016108721E-2
3.384868285E0,9.081372619E-2,7.123950869E-2,8.016108721E-2
3.387356097E0,9.507478029E-2,7.230477035E-2,8.016108721E-2
3.389843910E0,9.933583438E-2,7.443529367E-2,8.016108721E-2
3.392331722E0,1.025316268E-1,7.550056279E-2,7.909582555E-2
3.394819535E0,1.057274193E-1,7.656582445E-2,7.803056389E-2
3.397307347E0,1.078579426E-1,7.550056279E-2,7.590003312E-2
3.399795160E0,1.089232042E-1,7.550056279E-2,7.483477145E-2
3.402282972E0,1.099884734E-1,7.443529367E-2,7.376950979E-2
3.404770785E0,1.099884734E-1,7.230477035E-2,7.163897902E-2
3.407258597E0,1.099884734E-1,7.017423958E-2,7.057371736E-2
3.409746410E0,1.089232042E-1,6.804371625E-2,6.950845569E-2
3.412234222E0,1.078579426E-1,6.484792382E-2,6.844318658E-2
3.414722035E0,1.057274193E-1,6.378266215E-2,6.737792492E-2
3.417209847E0,1.035968885E-1,6.058686972E-2,6.631266326E-2
3.419697660E0,1.025316268E-1,5.845634267E-2,6.524740160E-2
3.422185472E0,9.933583438E-2,5.632581562E-2,6.524740160E-2
3.424673285E0,9.827057272E-2,5.419528857E-2,6.311687082E-2
3.427161097E0,9.720530361E-2,5.313002318E-2,6.205160543E-2
3.429648910E0,9.614004195E-2,5.313002318E-2,6.098634377E-2
3.432136722E0,9.614004195E-2,5.206476152E-2,5.992107838E-2
3.434624535E0,9.614004195E-2,5.313002318E-2,5.779055133E-2
3.437112347E0,9.614004195E-2,5.313002318E-2,5.672528967E-2
3.439600160E0,9.720530361E-2,5.419528857E-2,5.566002429E-2
3.442087972E0,9.827057272E-2,5.526055023E-2,5.459476262E-2
3.444575785E0,9.933583438E-2,5.526055023E-2,5.459476262E-2
3.447063597E0,1.004010960E-1,5.632581562E-2,5.459476262E-2
3.449551410E0,1.014663652E-1,5.739107728E-2,5.352949724E-2
3.452039222E0,1.014663652E-1,5.739107728E-2,5.352949724E-2
3.454527035E0,1.025316268E-1,5.739107728E-2,5.459476262E-2
3.457014847E0,1.035968885E-1,5.739107728E-2,5.459476262E-2
3.459502660E0,1.035968885E-1,5.632581562E-2,5.459476262E-2
3.461990472E0,1.046621501E-1,5.632581562E-2,5.566002429E-2
3.464478285E0,1.046621501E-1,5.632581562E-2,5.672528967E-2
3.466966097E0,1.035968885E-1,5.632581562E-2,5.779055133E-2
3.469453910E0,1.035968885E-1,5.526055023E-2,5.885581672E-2
3.471941722E0,1.025316268E-1,5.632581562E-2,5.992107838E-2
3.474429535E0,1.004010960E-1,5.845634267E-2,6.098634377E-2
3.476917347E0,9.827057272E-2,5.952160433E-2,6.205160543E-2
3.479405160E0,9.400951862E-2,6.271740049E-2,6.311687082E-2
3.481892972E0,9.187898785E-2,6.591318548E-2,6.418213248E-2
3.484380785E0,8.761793375E-2,6.910897791E-2,6.311687082E-2
3.486868597E0,8.229161799E-2,7.230477035E-2,6.311687082E-2
3.489356410E0,7.696529478E-2,7.443529367E-2,6.311687082E-2
3.491844222E0,7.057371736E-2,7.656582445E-2,6.205160543E-2
3.494332035E0,6.418213248E-2,7.869634777E-2,6.098634377E-2
3.496819847E0,5.779055133E-2,7.869634777E-2,5.992107838E-2
3.499307660E0,5.033370852E-2,7.763108611E-2,5.885581672E-2
3.501795472E0,4.287686199E-2,7.550056279E-2,5.779055133E-2
3.504283285E0,3.648528084E-2,7.337003201E-2,5.672528967E-2
3.506771097E0,2.902843431E-2,7.123950869E-2,5.459476262E-2
3.509258910E0,2.263685316E-2,6.697845459E-2,5.352949724E-2
3.511746722E0,1.624527015E-2,6.271740049E-2,5.139897019E-2
3.514234535E0,8.788425475E-3,5.845634267E-2,4.926844314E-2
3.516722347E0,2.396843163E-3,5.526055023E-2,4.713791609E-2
3.519210160E0,-2.929474926E-3,5.099949613E-2,4.394212365E-2
3.521697972E0,-7.190529723E-3,4.673844203E-2,4.074633494E-2
3.524185785E0,-1.038632076E-2,4.141212255E-2,3.755054250E-2
3.526673597E0,-1.358211134E-2,3.821633384E-2,3.542001545E-2
3.529161410E0,-1.464737486E-2,3.395527974E-2,3.222422674E-2
3.531649222E0,-1.464737486E-2,3.075948730E-2,3.009369783E-2
3.534137035E0,-1.358211134E-2,2.756369673E-2,2.902843431E-2
3.536624847E0,-1.251684781E-2,2.543316968E-2,2.689790726E-2
3.539112660E0,-9.321057238E-3,2.330264263E-2,2.583264373E-2
3.541600472E0,-5.060002208E-3,2.223737910E-2,2.370211668E-2
3.544088285E0,-7.989477599E-4,2.117211558E-2,2.263685316E-2
3.546576097E0,4.527370445E-3,2.223737910E-2,2.263685316E-2
3.549063910E0,8.788425475E-3,2.330264263E-2,2.263685316E-2
3.551551722E0,1.411474310E-2,2.436790615E-2,2.263685316E-2
3.554039535E0,1.944106072E-2,2.649843320E-2,2.263685316E-2
3.556527347E0,2.583264373E-2,2.756369673E-2,2.263685316E-2
3.559015160E0,3.009369783E-2,2.969422378E-2,2.157158963E-2
3.561502972E0,3.435475379E-2,3.075948730E-2,2.157158963E-2
3.563990785E0,3.861580789E-2,2.969422378E-2,2.050632425E-2
3.566478597E0,4.181159660E-2,2.862896025E-2,1.944106072E-2
3.568966410E0,4.394212365E-2,2.649843320E-2,1.944106072E-2
3.571454222E0,4.607265070E-2,2.330264263E-2,1.944106072E-2
3.573942035E0,4.607265070E-2,1.904158667E-2,1.837579720E-2
3.576429847E0,4.607265070E-2,1.478053257E-2,1.837579720E-2
3.578917660E0,4.394212365E-2,8.388951421E-3,1.837579720E-2
3.581405472E0,4.181159660E-2,1.997369342E-3,1.837579720E-2
3.583893858E0,3.861580789E-2,-3.328948980E-3,1.837579720E-2
3.586381722E0,3.435475379E-2,-9.720530361E-3,1.944106072E-2
3.588869535E0,3.009369783E-2,-1.611211337E-2,2.050632425E-2
3.591357347E0,2.583264373E-2,-2.250369452E-2,2.157158963E-2
3.593845160E0,2.263685316E-2,-2.783001214E-2,2.370211668E-2
3.596332972E0,1.837579720E-2,-3.209106624E-2,2.370211668E-2
3.598820785E0,1.518000662E-2,-3.635212034E-2,2.583264373E-2
3.601308597E0,1.198421605E-2,-4.061317816E-2,2.689790726E-2
3.603796410E0,8.788425475E-3,-4.487423226E-2,2.796317078E-2
3.606284222E0,6.657897960E-3,-4.913528636E-2,2.902843431E-2
3.608772035E0,4.527370445E-3,-5.339634046E-2,2.902843431E-2
3.611259847E0,3.462106921E-3,-5.765739456E-2,3.009369783E-2
3.613747660E0,2.396843163E-3,-6.191844866E-2,3.115896136E-2
3.616235472E0,1.331579522E-3,-6.617950648E-2,3.222422674E-2
3.618723285E0,1.331579522E-3,-7.150582224E-2,3.222422674E-2
3.621211097E0,2.396843163E-3,-7.683213800E-2,3.328948840E-2
3.623698910E0,2.396843163E-3,-8.215846121E-2,3.328948840E-2
3.626186722E0,4.527370445E-3,-8.855003864E-2,3.435475379E-2
3.628674535E0,6.657897960E-3,-9.387636185E-2,3.542001545E-2
3.631162347E0,9.853689000E-3,-1.002679393E-1,3.648528084E-2
3.633650160E0,1.304947957E-2,-1.055942550E-1,3.861580789E-2
3.636137972E0,1.731053367E-2,-1.109205782E-1,4.074633494E-2
3.638625785E0,2.263685316E-2,-1.151816323E-1,4.181159660E-2
3.641113597E0,2.796317078E-2,-1.205079481E-1,4.394212365E-2
3.643601410E0,3.542001545E-2,-1.258342713E-1,4.500738904E-2
3.646089222E0,4.181159660E-2,-1.322258562E-1,4.713791609E-2
3.648577035E0,5.033370852E-2,-1.375521719E-1,4.820318148E-2
3.651064847E0,5.885581672E-2,-1.418132186E-1,5.033370852E-2
3.653552660E0,6.737792492E-2,-1.471395344E-1,5.352949724E-2
3.656040472E0,7.590003312E-2,-1.503353268E-1,5.672528967E-2
3.658528285E0,8.442214131E-2,-1.535311192E-1,5.992107838E-2
3.661016097E0,9.400951862E-2,-1.556616426E-1,6.418213248E-2
3.663503910E0,1.025316268E-1,-1.577921808E-1,6.737792492E-2
3.665991722E0,1.110537350E-1,-1.588574350E-1,7.163897902E-2
3.668479535E0,1.185105816E-1,-1.588574350E-1,7.696529478E-2
3.670967347E0,1.270326823E-1,-1.577921808E-1,8.122635633E-2
3.673455160E0,1.355548054E-1,-1.567269117E-1,8.548741043E-2
3.675942972E0,1.430116445E-1,-1.545963883E-1,9.081372619E-2
3.678430785E0,1.504684836E-1,-1.524658650E-1,9.614004195E-2
3.680918597E0,1.579253376E-1,-1.492700726E-1,1.004010960E-1
3.683406410E0,1.653821766E-1,-1.471395344E-1,1.035968885E-1
3.685894222E0,1.717737615E-1,-1.439437568E-1,1.078579426E-1
3.688382035E0,1.781653464E-1,-1.407479644E-1,1.110537350E-1
3.690869847E0,1.845569313E-1,-1.386174262E-1,1.142495275E-1
3.693357660E0,1.909485012E-1,-1.364869028E-1,1.174453199E-1
3.695845472E0,1.962748319E-1,-1.354216337E-1,1.206411049E-1
3.698333285E0,2.016011477E-1,-1.343563795E-1,1.238368973E-1
3.700821097E0,2.058621943E-1,-1.332911104E-1,1.270326823E-1
3.703308910E0,2.101232558E-1,-1.322258562E-1,1.291632205E-1
3.705796722E0,2.154495716E-1,-1.322258562E-1,1.323590130E-1
3.708284535E0,2.197106332E-1,-1.322258562E-1,1.344895363E-1
3.710772347E0,2.250369489E-1,-1.311605871E-1,1.366200596E-1
3.713260160E0,2.303632647E-1,-1.300953180E-1,1.387505829E-1
3.715747972E0,2.356895804E-1,-1.300953180E-1,1.408811212E-1
3.718235785E0,2.410158962E-1,-1.279647946E-1,1.430116445E-1
3.720723597E0,2.474074811E-1,-1.279647946E-1,1.451421678E-1
3.723211410E0,2.527337968E-1,-1.268995255E-1,1.472726911E-1
3.725699222E0,2.569948435E-1,-1.268995255E-1,1.483379602E-1
3.728187035E0,2.612559199E-1,-1.258342713E-1,1.504684836E-1
3.730674847E0,2.655169666E-1,-1.258342713E-1,1.547295451E-1
3.733162660E0,2.676474750E-1,-1.268995255E-1,1.579253376E-1
3.735650472E0,2.697780132E-1,-1.268995255E-1,1.621863842E-1
3.738138285E0,2.697780132E-1,-1.279647946E-1,1.664474458E-1
3.740626097E0,2.697780132E-1,-1.290300637E-1,1.717737615E-1
3.743113910E0,2.687127590E-1,-1.290300637E-1,1.781653464E-1
3.745601722E0,2.655169666E-1,-1.300953180E-1,1.834916621E-1
3.748089535E0,2.633864284E-1,-1.322258562E-1,1.909485012E-1
3.750577347E0,2.601906359E-1,-1.332911104E-1,1.962748319E-1
3.753065160E0,2.559295893E-1,-1.354216337E-1,2.026664019E-1
3.755552972E0,2.516685426E-1,-1.364869028E-1,2.101232558E-1
3.758040785E0,2.463422120E-1,-1.354216337E-1,2.165148407E-1
3.760528597E0,2.410158962E-1,-1.343563795E-1,2.239716798E-1
3.763016410E0,2.356895804E-1,-1.311605871E-1,2.292979956E-1
3.765504222E0,2.303632647E-1,-1.258342713E-1,2.346243113E-1
3.767992035E0,2.250369489E-1,-1.205079481E-1,2.388853729E-1
3.770479847E0,2.197106332E-1,-1.141163707E-1,2.442116886E-1
3.772967660E0,2.143843025E-1,-1.045289934E-1,2.484727502E-1
3.775455472E0,2.090579867E-1,-9.494162351E-2,2.527337968E-1
3.777943285E0,2.047969401E-1,-8.322372288E-2,2.548643351E-1
3.780431097E0,1.994706094E-1,-7.150582224E-2,2.569948435E-1
3.782918910E0,1.941442937E-1,-5.765739456E-2,2.580601275E-1
3.785406722E0,1.888179779E-1,-4.274370521E-2,2.591253817E-1
3.787894535E0,1.824263930E-1,-2.783001214E-2,2.591253817E-1
3.790382347E0,1.760348231E-1,-1.185105834E-2,2.591253817E-1
3.792870160E0,1.685779691E-1,1.997369342E-3,2.580601275E-1
3.795357972E0,1.589905918E-1,1.584579609E-2,2.559295893E-1
3.797845785E0,1.483379602E-1,2.649843320E-2,2.537990510E-1
3.800333597E0,1.376853287E-1,3.608580679E-2,2.506032586E-1
3.802821410E0,1.249021590E-1,4.247738793E-2,2.484727502E-1
3.805309222E0,1.110537350E-1,4.567318037E-2,2.452769578E-1
3.807797035E0,9.720530361E-2,4.780370742E-2,2.420811653E-1
3.810284847E0,8.122635633E-2,4.673844203E-2,2.388853729E-1
3.812772660E0,6.524740160E-2,4.247738793E-2,2.356895804E-1
3.815260472E0,4.926844314E-2,3.715106845E-2,2.314285189E-1
3.817748285E0,3.435475379E-2,2.862896025E-2,2.292979956E-1
3.820236097E0,1.837579720E-2,1.797632314E-2,2.239716798E-1
3.822723910E0,5.592633970E-3,6.258423906E-3,2.197106332E-1
3.825211722E0,-7.190529723E-3,-6.524739787E-3,2.165148407E-1
3.827699535E0,-1.571263932E-2,-2.037316747E-2,2.122537792E-1
3.830187347E0,-2.316948399E-2,-3.209106624E-2,2.079927325E-1
3.832675160E0,-2.743053809E-2,-4.487423226E-2,2.047969401E-1
3.835162972E0,-2.849580161E-2,-5.659212917E-2,2.005358785E-1
3.837650785E0,-2.530001104E-2,-6.724476814E-2,1.973400861E-1
3.840138597E0,-1.784316637E-2,-7.470161468E-2,1.930790395E-1
3.842626410E0,-7.190529723E-3,-8.215846121E-2,1.888179779E-1
3.845114222E0,6.657897960E-3,-8.748477697E-2,1.845569313E-1
3.847602035E0,2.370211668E-2,-9.068056941E-2,1.802958697E-1
3.850089847E0,4.181159660E-2,-9.174583107E-2,1.781653464E-1
3.852577660E0,6.205160543E-2,-9.068056941E-2,1.760348231E-1
3.855065472E0,8.442214131E-2,-8.855003864E-2,1.739042848E-1
3.857553285E0,1.067926809E-1,-8.428898454E-2,1.717737615E-1
3.860041097E0,1.312937438E-1,-7.896266878E-2,1.707084924E-1
3.862528910E0,1.547295451E-1,-7.257108390E-2,1.685779691E-1
3.865016722E0,1.781653464E-1,-6.617950648E-2,1.675127149E-1
3.867504535E0,2.026664019E-1,-5.978792161E-2,1.664474458E-1
3.869992347E0,2.239716798E-1,-5.233107507E-2,1.653821766E-1
3.872480160E0,2.452769578E-1,-4.593949392E-2,1.653821766E-1
3.874967972E0,2.644517124E-1,-3.954791278E-2,1.653821766E-1
3.877455785E0,2.814959288E-1,-3.528685868E-2,1.664474458E-1
3.879943597E0,2.942790687E-1,-2.996053919E-2,1.675127149E-1
3.882431410E0,3.049317300E-1,-2.676474862E-2,1.696432382E-1
3.884919222E0,3.134538233E-1,-2.463422157E-2,1.728390306E-1
3.887407035E0,3.177148700E-1,-2.356895804E-2,1.760348231E-1
3.889894847E0,3.198454082E-1,-2.463422157E-2,1.781653464E-1
3.892382660E0,3.198454082E-1,-2.676474862E-2,1.813611388E-1
3.894870472E0,3.166496158E-1,-3.102580272E-2,1.834916621E-1
3.897358285E0,3.113232851E-1,-3.635212034E-2,1.845569313E-1
3.899846097E0,3.038664460E-1,-4.274370521E-2,1.866874546E-1
3.902333910E0,2.964096069E-1,-5.126581341E-2,1.877527237E-1
3.904821722E0,2.868222296E-1,-5.765739456E-2,1.888179779E-1
3.907309535E0,2.761695981E-1,-6.617950648E-2,1.909485012E-1
3.909797347E0,2.655169666E-1,-7.257108390E-2,1.920137703E-1
3.912285160E0,2.559295893E-1,-7.789740711E-2,1.930790395E-1
3.914772972E0,2.452769578E-1,-8.215846121E-2,1.930790395E-1
3.917260785E0,2.346243113E-1,-8.535424620E-2,1.941442937E-1
3.919748597E0,2.250369489E-1,-8.535424620E-2,1.930790395E-1
3.922236410E0,2.143843025E-1,-8.535424620E-2,1.930790395E-1
3.924724222E0,2.058621943E-1,-8.322372288E-2,1.920137703E-1
3.927212035E0,1.973400861E-1,-8.002793044E-2,1.909485012E-1
3.929699847E0,1.888179779E-1,-7.683213800E-2,1.898832470E-1
3.932187660E0,1.824263930E-1,-7.150582224E-2,1.888179779E-1
3.934675472E0,1.781653464E-1,-6.511423737E-2,1.866874546E-1
3.937163285E0,1.749695539E-1,-5.872265995E-2,1.845569313E-1
3.939651097E0,1.717737615E-1,-5.020054802E-2,1.824263930E-1
3.942138910E0,1.707084924E-1,-3.954791278E-2,1.792306006E-1
3.944626722E0,1.707084924E-1,-2.783001214E-2,1.749695539E-1
3.947114535E0,1.707084924E-1,-1.504684892E-2,1.717737615E-1
3.949602347E0,1.728390306E-1,-2.263685223E-3,1.685779691E-1
3.952090160E0,1.749695539E-1,1.051947847E-2,1.643169224E-1
3.954577972E0,1.771000773E-1,2.330264263E-2,1.589905918E-1
3.957065785E0,1.792306006E-1,3.715106845E-2,1.536642760E-1
3.959553597E0,1.813611388E-1,4.993423447E-2,1.472726911E-1
3.962041410E0,1.813611388E-1,6.165213138E-2,1.408811212E-1
3.964529222E0,1.802958697E-1,7.337003201E-2,1.344895363E-1
3.967017035E0,1.792306006E-1,8.402267098E-2,1.270326823E-1
3.969504847E0,1.760348231E-1,9.467530251E-2,1.206411049E-1
3.971992660E0,1.707084924E-1,1.042626798E-1,1.121189967E-1
3.974480472E0,1.643169224E-1,1.127847880E-1,1.035968885E-1
3.976968285E0,1.557948142E-1,1.213068962E-1,9.614004195E-2
3.979456097E0,1.462074369E-1,1.298290044E-1,8.868319541E-2
3.981943910E0,1.334242672E-1,1.372858584E-1,8.122635633E-2
3.984431722E0,1.206411049E-1,1.426121742E-1,7.270424068E-2
3.986919535E0,1.057274193E-1,1.468732208E-1,6.631266326E-2
3.989407347E0,8.868319541E-2,1.511342824E-1,5.992107838E-2
3.991895160E0,7.057371736E-2,1.532648057E-1,5.352949724E-2
3.994382972E0,5.246423557E-2,1.532648057E-1,4.713791609E-2
3.996870785E0,3.222422674E-2,1.511342824E-1,4.181159660E-2
3.999358597E0,1.091895252E-2,1.479384899E-1,3.648528084E-2
4.001846410E0,-9.321057238E-3,1.436774284E-1,3.115896136E-2
4.004334222E0,-3.169159219E-2,1.383511126E-1,2.689790726E-2
4.006822035E0,-5.299686641E-2,1.330247968E-1,2.157158963E-2
4.009309847E0,-7.430213690E-2,1.266332120E-1,1.624527015E-2
4.011797660E0,-9.454214573E-2,1.202416345E-1,1.091895252E-2
4.014285472E0,-1.158474237E-1,1.138500497E-1,4.527370445E-3
4.016773285E0,-1.328916401E-1,1.063932031E-1,-1.864211401E-3
4.019261097E0,-1.499358565E-1,1.010668874E-1,-9.321057238E-3
4.021748910E0,-1.637842804E-1,9.467530251E-2,-1.784316637E-2
4.024236722E0,-1.765674502E-1,9.041424841E-2,-2.530001104E-2
4.026724535E0,-1.861548275E-1,8.508793265E-2,-3.275685757E-2
4.029212347E0,-1.925463974E-1,8.082687855E-2,-4.021370411E-2
4.031700160E0,-1.968074590E-1,7.656582445E-2,-4.767054692E-2
4.034187972E0,-1.968074590E-1,7.337003201E-2,-5.406212807E-2
4.036675785E0,-1.936116666E-1,7.123950869E-2,-5.938844755E-2
4.039163597E0,-1.882853508E-1,6.804371625E-2,-6.364950538E-2
4.041651410E0,-1.786979735E-1,6.591318548E-2,-6.791055948E-2
4.044139222E0,-1.669800729E-1,6.271740049E-2,-7.110634446E-2
4.046627035E0,-1.520663798E-1,6.058686972E-2,-7.217161357E-2
4.049114847E0,-1.328916401E-1,5.739107728E-2,-7.430213690E-2
4.051602660E0,-1.115863696E-1,5.632581562E-2,-7.536740601E-2
4.054090472E0,-8.921582997E-2,5.526055023E-2,-7.749792933E-2
4.056578285E0,-6.151897460E-2,5.632581562E-2,-7.962846011E-2
4.059066097E0,-3.275685757E-2,5.845634267E-2,-8.069372177E-2
4.061553910E0,-1.864211401E-3,6.378266215E-2,-8.175898343E-2
4.064041722E0,2.902843431E-2,7.230477035E-2,-8.388951421E-2
4.066529535E0,5.992107838E-2,8.295740932E-2,-8.495477587E-2
4.069017347E0,8.974846452E-2,9.680583328E-2,-8.602003753E-2
4.071505160E0,1.185105816E-1,1.106542572E-1,-8.708529919E-2
4.073992972E0,1.430116445E-1,1.266332120E-1,-8.708529919E-2
4.076480785E0,1.643169224E-1,1.415469050E-1,-8.708529919E-2
4.078968597E0,1.824263930E-1,1.553953290E-1,-8.602003753E-2
4.081456410E0,1.962748319E-1,1.681784987E-1,-8.282424510E-2
4.083944222E0,2.047969401E-1,1.788311303E-1,-8.069372177E-2
4.086432035E0,2.090579867E-1,1.862879843E-1,-7.856319100E-2
4.088919847E0,2.079927325E-1,1.937448233E-1,-7.643266767E-2
4.091407660E0,2.026664019E-1,1.990711391E-1,-7.536740601E-2
4.093895472E0,1.941442937E-1,2.022669315E-1,-7.430213690E-2
4.096383285E0,1.824263930E-1,2.043974549E-1,-7.430213690E-2
4.098871097E0,1.664474458E-1,2.043974549E-1,-7.430213690E-2
4.101358910E0,1.472726911E-1,2.012016773E-1,-7.430213690E-2
4.103846774E0,1.238368973E-1,1.948100924E-1,-7.536740601E-2
4.106334639E0,1.004010960E-1,1.852227151E-1,-7.749792933E-2
4.108822503E0,7.483477145E-2,1.735048145E-1,-8.069372177E-2
4.111310368E0,4.926844314E-2,1.575258672E-1,-8.282424510E-2
4.113798233E0,2.263685316E-2,1.404816359E-1,-8.602003753E-2
4.116286097E0,-3.994738683E-3,1.213068962E-1,-8.815056831E-2
4.118773962E0,-2.849580161E-2,1.010668874E-1,-9.134636074E-2
4.121261826E0,-5.193160102E-2,7.976161689E-2,-9.347688407E-2
4.123749691E0,-7.323687524E-2,5.845634267E-2,-9.560741484E-2
4.126237556E0,-8.921582997E-2,3.715106845E-2,-9.773793817E-2
4.128725420E0,-1.030642539E-1,1.797632314E-2,-9.880319983E-2
4.131213285E0,-1.126516312E-1,-1.331579551E-4,-9.986846894E-2
4.133701149E0,-1.190432087E-1,-1.611211337E-2,-1.009337306E-1
4.136189014E0,-1.201084778E-1,-3.102580272E-2,-1.019989923E-1
4.138676878E0,-1.169126853E-1,-4.487423226E-2,-1.019989923E-1
4.141164743E0,-1.083905771E-1,-5.659212917E-2,-1.030642539E-1
4.143652920E0,-9.560741484E-2,-6.937529147E-2,-1.030642539E-1
4.146140681E0,-7.962846011E-2,-8.002793044E-2,-1.009337306E-1
4.148628441E0,-6.151897460E-2,-8.961530030E-2,-9.986846894E-2
4.151116201E0,-4.127896577E-2,-9.920267761E-2,-9.560741484E-2
4.153603962E0,-1.890842989E-2,-1.077247858E-1,-9.134636074E-2
4.156091722E0,5.592633970E-3,-1.151816323E-1,-8.495477587E-2
4.158579483E0,3.009369783E-2,-1.215732098E-1,-7.643266767E-2
4.161067243E0,5.459476262E-2,-1.258342713E-1,-6.791055948E-2
4.163555003E0,8.122635633E-2,-1.300953180E-1,-5.619265884E-2
4.166042764E0,1.057274193E-1,-1.322258562E-1,-4.554001987E-2
4.168530524E0,1.323590130E-1,-1.322258562E-1,-3.275685757E-2
4.171018285E0,1.589905918E-1,-1.300953180E-1,-1.997369342E-2
4.173506045E0,1.845569313E-1,-1.247690022E-1,-6.125265732E-3
4.175993806E0,2.111885101E-1,-1.173121557E-1,7.723161485E-3
4.178481566E0,2.367548496E-1,-1.066595241E-1,2.157158963E-2
4.180969326E0,2.612559199E-1,-9.600688517E-2,3.648528084E-2
4.183457087E0,2.846917212E-1,-8.428898454E-2,5.033370852E-2
4.185944847E0,3.070622385E-1,-7.150582224E-2,6.311687082E-2
4.188432608E0,3.283675313E-1,-5.872265995E-2,7.483477145E-2
4.190920368E0,3.464770019E-1,-4.487423226E-2,8.761793375E-2
4.193408128E0,3.613906801E-1,-3.209106624E-2,1.004010960E-1
4.195895889E0,3.763043880E-1,-2.037316747E-2,1.121189967E-1
4.198383649E0,3.880222738E-1,-8.655266836E-3,1.249021590E-1
4.200871410E0,3.965443969E-1,3.062632866E-3,1.355548054E-1
4.203359222E0,4.029359818E-1,1.478053257E-2,1.462074369E-1
4.205847035E0,4.061317742E-1,2.649843320E-2,1.557948142E-1
4.208334847E0,4.071970284E-1,3.928159550E-2,1.643169224E-1
4.210822660E0,4.050664902E-1,5.099949613E-2,1.707084924E-1
4.213310524E0,4.008054435E-1,6.271740049E-2,1.760348231E-1
4.215798389E0,3.954791129E-1,7.337003201E-2,1.792306006E-1
4.218286253E0,3.858917654E-1,8.402267098E-2,1.824263930E-1
4.220774118E0,3.763043880E-1,9.361004084E-2,1.824263930E-1
4.223261983E0,3.635212183E-1,1.021321490E-1,1.813611388E-1
4.225749847E0,3.486075401E-1,1.117195264E-1,1.792306006E-1
4.228237712E0,3.304980397E-1,1.191763729E-1,1.749695539E-1
4.230725576E0,3.113232851E-1,1.255679578E-1,1.685779691E-1
4.233213441E0,2.900180221E-1,1.308942735E-1,1.632516533E-1
4.235701306E0,2.676474750E-1,1.340900660E-1,1.547295451E-1
4.238189170E0,2.442116886E-1,1.362205893E-1,1.462074369E-1
4.240677035E0,2.186453640E-1,1.372858584E-1,1.366200596E-1
4.243164899E0,1.920137703E-1,1.383511126E-1,1.259674281E-1
4.245652764E0,1.653821766E-1,1.372858584E-1,1.142495275E-1
4.248140628E0,1.387505829E-1,1.362205893E-1,1.014663652E-1
4.250628493E0,1.110537350E-1,1.319595277E-1,8.868319541E-2
4.253116358E0,8.335687965E-2,1.287637353E-1,7.483477145E-2
4.255604222E0,5.352949724E-2,1.266332120E-1,6.098634377E-2
4.258092087E0,2.370211668E-2,1.255679578E-1,4.607265070E-2
4.260579951E0,-6.125265732E-3,1.255679578E-1,3.009369783E-2
4.263067816E0,-3.808317333E-2,1.245026886E-1,1.411474310E-2
4.265555681E0,-7.004108280E-2,1.245026886E-1,-1.864211401E-3
4.268043545E0,-1.009337306E-1,1.223721579E-1,-1.677790284E-2
4.270531410E0,-1.296958476E-1,1.191763729E-1,-3.169159219E-2
4.273019274E0,-1.584579647E-1,1.149153188E-1,-4.660528526E-2
4.275507139E0,-1.850895584E-1,1.095889956E-1,-6.151897460E-2
4.277995003E0,-2.106558830E-1,1.031974182E-1,-7.536740601E-2
4.280482868E0,-2.351569533E-1,9.680583328E-2,-8.815056831E-2
4.282970681E0,-2.585927546E-1,9.147951752E-2,-9.986846894E-2
4.285458493E0,-2.788327634E-1,8.508793265E-2,-1.115863696E-1
4.287946306E0,-2.969422340E-1,7.869634777E-2,-1.211737394E-1
4.290434118E0,-3.129211962E-1,7.230477035E-2,-1.286305785E-1
4.292921931E0,-3.267696202E-1,6.591318548E-2,-1.350221634E-1
4.295409743E0,-3.384875357E-1,5.952160433E-2,-1.392832249E-1
4.297897556E0,-3.480748832E-1,5.206476152E-2,-1.424790174E-1
4.300385368E0,-3.544664681E-1,4.567318037E-2,-1.435442716E-1
4.302873181E0,-3.597927988E-1,4.034686089E-2,-1.424790174E-1
4.305360993E0,-3.629885912E-1,3.608580679E-2,-1.392832249E-1
4.307848806E0,-3.629885912E-1,3.182475269E-2,-1.339569092E-1
4.310336618E0,-3.608580530E-1,2.969422378E-2,-1.296958476E-1
4.312824431E0,-3.555317521E-1,2.649843320E-2,-1.233042628E-1
4.315312243E0,-3.480748832E-1,2.330264263E-2,-1.158474237E-1
4.317800056E0,-3.395527899E-1,2.223737910E-2,-1.083905771E-1
4.320287868E0,-3.289001584E-1,2.010685205E-2,-9.986846894E-2
4.322775681E0,-3.161169887E-1,2.010685205E-2,-9.134636074E-2
4.325263493E0,-3.022685647E-1,1.904158667E-2,-8.388951421E-2
4.327751306E0,-2.884201407E-1,1.904158667E-2,-7.536740601E-2
4.330239118E0,-2.724411786E-1,2.010685205E-2,-6.684529036E-2
4.332726931E0,-2.553969622E-1,1.904158667E-2,-5.938844755E-2
4.335214743E0,-2.372874767E-1,1.904158667E-2,-5.193160102E-2
4.337702556E0,-2.202432603E-1,1.904158667E-2,-4.340949282E-2
4.340190368E0,-2.010685056E-1,2.010685205E-2,-3.595264629E-2
4.342678181E0,-1.829590350E-1,2.010685205E-2,-2.956106514E-2
4.345165993E0,-1.637842804E-1,2.117211558E-2,-2.316948399E-2
4.347653806E0,-1.467400640E-1,2.223737910E-2,-1.784316637E-2
4.350141618E0,-1.296958476E-1,2.330264263E-2,-1.251684781E-2
4.352629431E0,-1.126516312E-1,2.330264263E-2,-8.255792782E-3
4.355117243E0,-9.667267650E-2,2.223737910E-2,-3.994738683E-3
4.357605056E0,-8.175898343E-2,1.904158667E-2,-7.989477599E-4
4.360092868E0,-6.684529036E-2,1.478053257E-2,2.396843163E-3
4.362580681E0,-5.193160102E-2,8.388951421E-3,5.592633970E-3
4.365068493E0,-3.808317333E-2,1.997369342E-3,7.723161485E-3
4.367556306E0,-2.636527456E-2,-5.459476262E-3,1.091895252E-2
4.370044118E0,-1.677790284E-2,-1.398158539E-2,1.304947957E-2
4.372531931E0,-7.190529723E-3,-2.143843099E-2,1.518000662E-2
4.375019743E0,1.331579522E-3,-2.889527567E-2,1.731053367E-2
4.377507556E0,8.788425475E-3,-3.848264739E-2,1.837579720E-2
4.379995368E0,1.624527015E-2,-4.593949392E-2,1.837579720E-2
4.382483181E0,2.370211668E-2,-5.339634046E-2,1.731053367E-2
4.384970993E0,2.902843431E-2,-6.085318699E-2,1.624527015E-2
4.387458806E0,3.435475379E-2,-6.724476814E-2,1.304947957E-2
4.389946618E0,3.755054250E-2,-7.363634557E-2,7.723161485E-3
4.392434431E0,3.968106955E-2,-7.789740711E-2,2.396843163E-3
4.394922243E0,4.181159660E-2,-8.322372288E-2,-3.994738683E-3
4.397410056E0,4.074633494E-2,-8.961530030E-2,-1.145158429E-2
4.399897868E0,3.861580789E-2,-9.600688517E-2,-1.890842989E-2
4.402385681E0,3.648528084E-2,-1.023984700E-1,-2.636527456E-2
4.404873493E0,3.222422674E-2,-1.087900475E-1,-3.382211924E-2
4.407361306E0,2.583264373E-2,-1.151816323E-1,-4.234423116E-2
4.409849118E0,1.944106072E-2,-1.226384789E-1,-4.873581231E-2
4.412336931E0,1.091895252E-2,-1.300953180E-1,-5.725792050E-2
4.414824743E0,2.396843163E-3,-1.375521719E-1,-6.471476704E-2
4.417312556E0,-7.190529723E-3,-1.460742801E-1,-7.110634446E-2
4.419800368E0,-1.784316637E-2,-1.556616426E-1,-7.643266767E-2
4.422288181E0,-2.956106514E-2,-1.631184965E-1,-8.175898343E-2
4.424775993E0,-4.021370411E-2,-1.727058738E-1,-8.602003753E-2
4.427263806E0,-4.980107397E-2,-1.822932363E-1,-8.815056831E-2
4.429751618E0,-5.938844755E-2,-1.897500902E-1,-9.028109163E-2
4.432239431E0,-6.791055948E-2,-1.982721984E-1,-9.241162241E-2
4.434727243E0,-7.536740601E-2,-2.035985142E-1,-9.241162241E-2
4.437215056E0,-8.069372177E-2,-2.067943066E-1,-9.241162241E-2
4.439702868E0,-8.388951421E-2,-2.089248300E-1,-9.134636074E-2
4.442190681E0,-8.602003753E-2,-2.089248300E-1,-8.921582997E-2
4.444678493E0,-8.495477587E-2,-2.057290375E-1,-8.602003753E-2
4.447166306E0,-8.175898343E-2,-2.014679909E-1,-8.388951421E-2
4.449654118E0,-7.856319100E-2,-1.940111369E-1,-7.962846011E-2
4.452141931E0,-7.323687524E-2,-1.854890287E-1,-7.643266767E-2
4.454629743E0,-6.684529036E-2,-1.759016514E-1,-7.217161357E-2
4.457117556E0,-6.045371294E-2,-1.663142890E-1,-6.791055948E-2
4.459605368E0,-5.512739345E-2,-1.577921808E-1,-6.364950538E-2
4.462093181E0,-4.873581231E-2,-1.492700726E-1,-5.938844755E-2
4.464580993E0,-4.447475821E-2,-1.418132186E-1,-5.619265884E-2
4.467068806E0,-3.914843872E-2,-1.354216337E-1,-5.299686641E-2
4.469556618E0,-3.595264629E-2,-1.290300637E-1,-4.980107397E-2
4.472044431E0,-3.488738462E-2,-1.226384789E-1,-4.873581231E-2
4.474532243E0,-3.275685757E-2,-1.173121557E-1,-4.660528526E-2
4.477020056E0,-3.382211924E-2,-1.130511016E-1,-4.767054692E-2
4.479507868E0,-3.382211924E-2,-1.087900475E-1,-5.086633936E-2
4.481995681E0,-3.488738462E-2,-1.055942550E-1,-5.406212807E-2
4.484483493E0,-3.701791167E-2,-1.034637317E-1,-5.832318589E-2
4.486971306E0,-3.914843872E-2,-1.023984700E-1,-6.258423626E-2
4.489459118E0,-4.127896577E-2,-1.013332009E-1,-6.897582114E-2
4.491946931E0,-4.447475821E-2,-9.920267761E-2,-7.536740601E-2
4.494434743E0,-4.767054692E-2,-9.813741595E-2,-8.282424510E-2
4.496922556E0,-5.086633936E-2,-9.707214683E-2,-9.134636074E-2
4.499410368E0,-5.512739345E-2,-9.494162351E-2,-9.986846894E-2
4.501898181E0,-6.151897460E-2,-9.387636185E-2,-1.083905771E-1
4.504385993E0,-6.791055948E-2,-9.494162351E-2,-1.179779470E-1
4.506873806E0,-7.536740601E-2,-9.707214683E-2,-1.286305785E-1
4.509361618E0,-8.282424510E-2,-1.013332009E-1,-1.382179558E-1
4.511849431E0,-9.028109163E-2,-1.066595241E-1,-1.488705873E-1
4.514337243E0,-9.773793817E-2,-1.141163707E-1,-1.563274413E-1
4.516825056E0,-1.062600464E-1,-1.226384789E-1,-1.637842804E-1
4.519312868E0,-1.147821546E-1,-1.311605871E-1,-1.712411344E-1
4.521800681E0,-1.211737394E-1,-1.396826953E-1,-1.765674502E-1
4.524288493E0,-1.275653243E-1,-1.471395344E-1,-1.808284968E-1
4.526776306E0,-1.328916401E-1,-1.545963883E-1,-1.829590350E-1
4.529264118E0,-1.350221634E-1,-1.599227041E-1,-1.850895584E-1
4.531751931E0,-1.371526867E-1,-1.652490199E-1,-1.850895584E-1
4.534239743E0,-1.360874325E-1,-1.705753356E-1,-1.840242893E-1
4.536727556E0,-1.318263710E-1,-1.737711281E-1,-1.818937659E-1
4.539215368E0,-1.265000552E-1,-1.769669205E-1,-1.776327193E-1
4.541703181E0,-1.201084778E-1,-1.790974438E-1,-1.712411344E-1
4.544190993E0,-1.105211005E-1,-1.801627129E-1,-1.627190262E-1
4.546678806E0,-9.986846894E-2,-1.780321896E-1,-1.520663798E-1
4.549166618E0,-8.815056831E-2,-1.759016514E-1,-1.392832249E-1
4.551654431E0,-7.536740601E-2,-1.727058738E-1,-1.243695319E-1
4.554142243E0,-6.258423626E-2,-1.663142890E-1,-1.083905771E-1
4.556630056E0,-4.767054692E-2,-1.609879732E-1,-9.241162241E-2
4.559117868E0,-3.275685757E-2,-1.545963883E-1,-7.536740601E-2
4.561605681E0,-1.890842989E-2,-1.482048035E-1,-5.938844755E-2
4.564093493E0,-6.125265732E-3,-1.407479644E-1,-4.447475821E-2
4.566581306E0,6.657897960E-3,-1.311605871E-1,-3.169159219E-2
4.569069118E0,1.731053367E-2,-1.215732098E-1,-1.890842989E-2
4.571556931E0,2.689790726E-2,-1.130511016E-1,-8.255792782E-3
4.574044743E0,3.542001545E-2,-1.023984700E-1,1.331579522E-3
4.576532556E0,4.181159660E-2,-9.174583107E-2,8.788425475E-3
4.579020368E0,4.607265070E-2,-8.215846121E-2,1.518000662E-2
4.581508181E0,4.926844314E-2,-7.363634557E-2,2.050632425E-2
4.583995993E0,5.033370852E-2,-6.617950648E-2,2.476738021E-2
4.586483806E0,4.926844314E-2,-5.978792161E-2,2.689790726E-2
4.588971618E0,4.607265070E-2,-5.446160212E-2,2.583264373E-2
4.591459431E0,4.181159660E-2,-5.126581341E-2,2.476738021E-2
4.593947243E0,3.648528084E-2,-4.913528636E-2,2.050632425E-2
4.596435056E0,3.009369783E-2,-4.807002097E-2,1.518000662E-2
4.598922868E0,2.263685316E-2,-4.807002097E-2,7.723161485E-3
4.601410681E0,1.518000662E-2,-4.913528636E-2,-7.989477599E-4
4.603898858E0,8.788425475E-3,-5.233107507E-2,-1.038632076E-2
4.606387035E0,1.331579522E-3,-5.659212917E-2,-2.210422046E-2
4.608874951E0,-6.125265732E-3,-5.978792161E-2,-3.382211924E-2
4.611362764E0,-1.145158429E-2,-6.511423737E-2,-4.554001987E-2
4.613850576E0,-1.784316637E-2,-6.937529147E-2,-5.832318589E-2
4.616338389E0,-2.210422046E-2,-7.470161468E-2,-7.110634446E-2
4.618826201E0,-2.530001104E-2,-7.896266878E-2,-8.388951421E-2
4.621314014E0,-2.849580161E-2,-8.215846121E-2,-9.667267650E-2
4.623801826E0,-3.062633052E-2,-8.641951531E-2,-1.094558388E-1
4.626289639E0,-3.062633052E-2,-9.068056941E-2,-1.201084778E-1
4.628777451E0,-2.956106514E-2,-9.387636185E-2,-1.296958476E-1
4.631265264E0,-2.636527456E-2,-9.707214683E-2,-1.392832249E-1
4.633753076E0,-2.316948399E-2,-1.002679393E-1,-1.456748098E-1
4.636240889E0,-1.784316637E-2,-1.034637317E-1,-1.520663798E-1
4.638728701E0,-1.145158429E-2,-1.045289934E-1,-1.563274413E-1
4.641216514E0,-3.994738683E-3,-1.066595241E-1,-1.584579647E-1
4.643704326E0,4.527370445E-3,-1.066595241E-1,-1.584579647E-1
4.646192139E0,1.411474310E-2,-1.045289934E-1,-1.563274413E-1
4.648679951E0,2.476738021E-2,-1.013332009E-1,-1.520663798E-1
4.651167764E0,3.435475379E-2,-9.707214683E-2,-1.467400640E-1
4.653655576E0,4.500738904E-2,-9.068056941E-2,-1.382179558E-1
4.656143389E0,5.352949724E-2,-8.109319210E-2,-1.286305785E-1
4.658631201E0,6.311687082E-2,-7.150582224E-2,-1.179779470E-1
4.661119014E0,7.163897902E-2,-5.978792161E-2,-1.062600464E-1
4.663606826E0,7.803056389E-2,-4.700475931E-2,-9.454214573E-2
4.666094639E0,8.335687965E-2,-3.422159329E-2,-8.282424510E-2
4.668582451E0,8.761793375E-2,-2.143843099E-2,-7.110634446E-2
4.671070264E0,9.081372619E-2,-8.655266836E-3,-5.832318589E-2
4.673558076E0,9.081372619E-2,1.997369342E-3,-4.660528526E-2
4.676045889E0,8.974846452E-2,1.371526904E-2,-3.382211924E-2
4.678533701E0,8.655267209E-2,2.223737910E-2,-2.103895694E-2
4.681021514E0,8.122635633E-2,3.075948730E-2,-1.038632076E-2
4.683509326E0,7.376950979E-2,3.608580679E-2,-7.989477599E-4
4.685997139E0,6.524740160E-2,4.034686089E-2,7.723161485E-3
4.688484951E0,5.459476262E-2,4.460791498E-2,1.518000662E-2
4.690972764E0,4.287686199E-2,4.567318037E-2,2.157158963E-2
4.693460576E0,3.222422674E-2,4.567318037E-2,2.689790726E-2
4.695948389E0,1.944106072E-2,4.460791498E-2,2.902843431E-2
4.698436201E0,6.657897960E-3,4.247738793E-2,2.902843431E-2
4.700924014E0,-3.994738683E-3,3.928159550E-2,2.902843431E-2
4.703411826E0,-1.464737486E-2,3.502054140E-2,2.796317078E-2
4.705899639E0,-2.423474751E-2,3.075948730E-2,2.583264373E-2
4.708387451E0,-3.275685757E-2,2.649843320E-2,2.263685316E-2
4.710875264E0,-3.914843872E-2,2.330264263E-2,1.944106072E-2
4.713363076E0,-4.340949282E-2,1.904158667E-2,1.304947957E-2
4.715850889E0,-4.660528526E-2,1.584579609E-2,7.723161485E-3
4.718338701E0,-4.767054692E-2,1.265000552E-2,1.331579522E-3
4.720826514E0,-4.660528526E-2,1.051947847E-2,-5.060002208E-3
4.723314326E0,-4.340949282E-2,6.258423906E-3,-1.251684781E-2
4.725802139E0,-3.808317333E-2,3.062632866E-3,-1.997369342E-2
4.728289951E0,-3.169159219E-2,9.321057005E-4,-2.743053809E-2
4.730777764E0,-2.316948399E-2,-2.263685223E-3,-3.488738462E-2
4.733265576E0,-1.251684781E-2,-4.394212738E-3,-4.127896577E-2
4.735753389E0,-7.989477599E-4,-6.524739787E-3,-4.767054692E-2
4.738241201E0,1.198421605E-2,-8.655266836E-3,-5.299686641E-2
4.740729014E0,2.689790726E-2,-9.720530361E-3,-5.619265884E-2
4.743216826E0,4.181159660E-2,-9.720530361E-3,-5.832318589E-2
4.745704639E0,5.779055133E-2,-7.590003312E-3,-5.938844755E-2
4.748192451E0,7.483477145E-2,-4.394212738E-3,-5.938844755E-2
4.750680264E0,9.294424951E-2,-1.331579551E-4,-5.725792050E-2
4.753168076E0,1.089232042E-1,5.193160381E-3,-5.512739345E-2
4.755655889E0,1.249021590E-1,1.265000552E-2,-5.086633936E-2
4.758143701E0,1.408811212E-1,1.904158667E-2,-4.660528526E-2
4.760631514E0,1.547295451E-1,2.649843320E-2,-4.127896577E-2
4.763119326E0,1.664474458E-1,3.395527974E-2,-3.488738462E-2
4.765607139E0,1.771000773E-1,4.247738793E-2,-2.849580161E-2
4.768094951E0,1.856221855E-1,5.099949613E-2,-1.997369342E-2
4.770582764E0,1.909485012E-1,5.952160433E-2,-1.145158429E-2
4.773070576E0,1.941442937E-1,6.804371625E-2,-1.864211401E-3
4.775558389E0,1.941442937E-1,7.656582445E-2,6.657897960E-3
4.778046201E0,1.941442937E-1,8.508793265E-2,1.518000662E-2
4.780534014E0,1.898832470E-1,9.361004084E-2,2.370211668E-2
4.783021826E0,1.845569313E-1,1.021321490E-1,3.222422674E-2
4.785509639E0,1.781653464E-1,1.117195264E-1,3.861580789E-2
4.787997451E0,1.696432382E-1,1.202416345E-1,4.394212365E-2
4.790485264E0,1.579253376E-1,1.287637353E-1,4.820318148E-2
4.792973076E0,1.472726911E-1,1.372858584E-1,5.139897019E-2
4.795460889E0,1.334242672E-1,1.447426975E-1,5.352949724E-2
4.797948701E0,1.195758432E-1,1.511342824E-1,5.459476262E-2
4.800436514E0,1.046621501E-1,1.575258672E-1,5.352949724E-2
4.802924326E0,8.868319541E-2,1.617869139E-1,5.033370852E-2
4.805412139E0,7.270424068E-2,1.660479754E-1,4.500738904E-2
4.807899951E0,5.779055133E-2,1.681784987E-1,3.755054250E-2
4.810387764E0,4.181159660E-2,1.681784987E-1,2.796317078E-2
4.812875576E0,2.476738021E-2,1.660479754E-1,1.731053367E-2
4.815363389E0,8.788425475E-3,1.639174372E-1,3.462106921E-3
4.817851201E0,-7.190529723E-3,1.596563905E-1,-9.321057238E-3
4.820339014E0,-2.210422046E-2,1.532648057E-1,-2.423474751E-2
4.822826826E0,-3.701791167E-2,1.458079666E-1,-3.808317333E-2
4.825314639E0,-5.086633936E-2,1.362205893E-1,-5.193160102E-2
4.827802451E0,-6.258423626E-2,1.255679578E-1,-6.684529036E-2
4.830290264E0,-7.323687524E-2,1.149153188E-1,-8.069372177E-2
4.832778076E0,-8.175898343E-2,1.042626798E-1,-9.454214573E-2
4.835265889E0,-8.921582997E-2,9.254477918E-2,-1.083905771E-1
4.837753701E0,-9.560741484E-2,8.189214021E-2,-1.222390011E-1
4.840241514E0,-9.880319983E-2,7.123950869E-2,-1.360874325E-1
4.842729326E0,-1.030642539E-1,6.058686972E-2,-1.478053331E-1
4.845217139E0,-1.051947847E-1,4.993423447E-2,-1.584579647E-1
4.847704951E0,-1.073253155E-1,4.034686089E-2,-1.669800729E-1
4.850192764E0,-1.083905771E-1,2.969422378E-2,-1.733716577E-1
4.852680576E0,-1.083905771E-1,2.010685205E-2,-1.786979735E-1
4.855168389E0,-1.083905771E-1,1.051947847E-2,-1.808284968E-1
4.857656201E0,-1.083905771E-1,4.127896391E-3,-1.808284968E-1
4.860144014E0,-1.083905771E-1,-3.328948980E-3,-1.786979735E-1
4.862631826E0,-1.083905771E-1,-8.655266836E-3,-1.733716577E-1
4.865119639E0,-1.073253155E-1,-1.078579482E-2,-1.669800729E-1
4.867607451E0,-1.073253155E-1,-1.291632187E-2,-1.605884880E-1
4.870095264E0,-1.073253155E-1,-1.185105834E-2,-1.520663798E-1
4.872583076E0,-1.073253155E-1,-8.655266836E-3,-1.424790174E-1
4.875070889E0,-1.062600464E-1,-5.459476262E-3,-1.307611167E-1
4.877558701E0,-1.051947847E-1,-1.331579551E-4,-1.201084778E-1
4.880046514E0,-1.051947847E-1,5.193160381E-3,-1.073253155E-1
4.882534326E0,-1.051947847E-1,9.454214945E-3,-9.454214573E-2
4.885022139E0,-1.062600464E-1,1.371526904E-2,-8.175898343E-2
4.887509951E0,-1.073253155E-1,1.797632314E-2,-7.004108280E-2
4.889997764E0,-1.083905771E-1,2.010685205E-2,-5.725792050E-2
4.892485576E0,-1.083905771E-1,2.117211558E-2,-4.447475821E-2
4.894973389E0,-1.094558388E-1,2.117211558E-2,-3.275685757E-2
4.897461201E0,-1.094558388E-1,1.797632314E-2,-2.103895694E-2
4.899949014E0,-1.094558388E-1,1.478053257E-2,-1.145158429E-2
4.902436826E0,-1.073253155E-1,9.454214945E-3,-2.929474926E-3
4.904924639E0,-1.041295230E-1,3.062632866E-3,4.527370445E-3
4.907412451E0,-1.009337306E-1,-2.263685223E-3,1.198421605E-2
4.909900264E0,-9.667267650E-2,-7.590003312E-3,1.731053367E-2
4.912388076E0,-9.134636074E-2,-1.291632187E-2,2.050632425E-2
4.914875889E0,-8.495477587E-2,-1.824264042E-2,2.370211668E-2
4.917363701E0,-7.749792933E-2,-2.463422157E-2,2.476738021E-2
4.919851514E0,-7.004108280E-2,-2.996053919E-2,2.583264373E-2
4.922339326E0,-6.151897460E-2,-3.848264739E-2,2.476738021E-2
4.924827139E0,-5.406212807E-2,-4.593949392E-2,2.263685316E-2
4.927314951E0,-4.554001987E-2,-5.552686751E-2,2.157158963E-2
4.929802764E0,-3.701791167E-2,-6.617950648E-2,1.837579720E-2
4.932290576E0,-2.956106514E-2,-7.683213800E-2,1.624527015E-2
4.934778389E0,-2.210422046E-2,-8.641951531E-2,1.091895252E-2
4.937266201E0,-1.464737486E-2,-9.600688517E-2,6.657897960E-3
4.939754014E0,-8.255792782E-3,-1.055942550E-1,3.462106921E-3
4.942241826E0,-2.929474926E-3,-1.151816323E-1,2.663159103E-4
4.944729639E0,2.663159103E-4,-1.237037405E-1,-5.060002208E-3
4.947217451E0,3.462106921E-3,-1.322258562E-1,-1.038632076E-2
4.949705264E0,4.527370445E-3,-1.407479644E-1,-1.464737486E-2
4.952193076E0,4.527370445E-3,-1.492700726E-1,-1.890842989E-2
4.954680889E0,5.592633970E-3,-1.567269117E-1,-2.210422046E-2
4.957168701E0,5.592633970E-3,-1.641837656E-1,-2.316948399E-2
4.959656514E0,5.592633970E-3,-1.695100814E-1,-2.423474751E-2
4.962144326E0,6.657897960E-3,-1.737711281E-1,-2.423474751E-2
4.964632139E0,6.657897960E-3,-1.759016514E-1,-2.210422046E-2
4.967119951E0,7.723161485E-3,-1.748363972E-1,-1.997369342E-2
4.969607764E0,8.788425475E-3,-1.716406047E-1,-1.677790284E-2
4.972095576E0,8.788425475E-3,-1.673795432E-1,-1.145158429E-2
4.974583389E0,7.723161485E-3,-1.609879732E-1,-5.060002208E-3
4.977071201E0,5.592633970E-3,-1.545963883E-1,2.396843163E-3
4.979559014E0,3.462106921E-3,-1.482048035E-1,1.091895252E-2
