"Time (s)","Acceleration x (m/s^2)","Acceleration y (m/s^2)","Acceleration z (m/s^2)"
3.875578500E-2,8.256404877E0,3.463811398E0,-4.498106480E0
4.122677400E-2,8.299500465E0,3.415927172E0,-4.464587688E0
4.369937800E-2,8.313865662E0,3.382408381E0,-4.426280499E0
4.617385800E-2,8.323442459E0,3.329735994E0,-4.397550106E0
4.865068100E-2,8.333019257E0,3.301005602E0,-4.364031315E0
5.112750300E-2,8.361749649E0,3.281852007E0,-4.306570530E0
5.360745100E-2,8.347384453E0,3.272275209E0,-4.234744072E0
5.609068100E-2,8.323442459E0,3.233968019E0,-4.167706490E0
5.857724300E-2,8.309077263E0,3.229179621E0,-4.091092110E0
6.106708700E-2,8.289923668E0,3.219602823E0,-4.004900932E0
6.356000300E-2,8.251616478E0,3.195660830E0,-3.909132719E0
6.605562800E-2,8.232462883E0,3.171718597E0,-3.846883535E0
6.855354500E-2,8.194155693E0,3.157353401E0,-3.770269156E0
7.105328500E-2,8.160636902E0,3.147776604E0,-3.688866377E0
7.355427400E-2,8.136694908E0,3.138199806E0,-3.602674961E0
7.605594100E-2,8.103176117E0,3.138199806E0,-3.516483784E0
7.855771200E-2,8.069656372E0,3.128623009E0,-3.425503969E0
8.104864900E-2,8.031349182E0,3.123834610E0,-3.344101191E0
8.353646200E-2,8.007407188E0,3.123834610E0,-3.248333216E0
8.602427400E-2,7.993042469E0,3.109469414E0,-3.166930199E0
8.851208700E-2,7.983465672E0,3.095104218E0,-3.095104218E0
9.099989900E-2,7.978677273E0,3.080739021E0,-3.028066635E0
9.348771200E-2,7.997830868E0,3.047220230E0,-3.004124641E0
9.597552400E-2,8.026560783E0,3.018489838E0,-2.975394249E0
9.846333700E-2,8.060079575E0,3.008913040E0,-2.961029053E0
1.009511490E-1,8.103176117E0,2.984971046E0,-2.922721624E0
1.034389620E-1,8.127118111E0,2.956240654E0,-2.893991232E0
1.059267740E-1,8.160636902E0,2.917933226E0,-2.898779631E0
1.084145870E-1,8.189367294E0,2.874837637E0,-2.879626036E0
1.109023990E-1,8.227674484E0,2.836530447E0,-2.860472441E0
1.133902120E-1,8.261193275E0,2.807800055E0,-2.893991232E0
1.158780240E-1,8.256404877E0,2.759916067E0,-2.922721624E0
1.183658370E-1,8.299500465E0,2.726397276E0,-2.956240654E0
1.208536490E-1,8.309077263E0,2.702455282E0,-3.004124641E0
1.233414620E-1,8.318654060E0,2.668936253E0,-3.023278236E0
1.258292740E-1,8.342596054E0,2.649782658E0,-3.037643433E0
1.283170870E-1,8.376114845E0,2.644994259E0,-3.056797028E0
1.308048990E-1,8.400056839E0,2.611475468E0,-3.090315819E0
1.332927120E-1,8.438364029E0,2.597110271E0,-3.109469414E0
1.357805240E-1,8.471882820E0,2.597110271E0,-3.128623009E0
1.382683370E-1,8.486248016E0,2.582745075E0,-3.147776604E0
1.407561490E-1,8.467094421E0,2.563591480E0,-3.190872431E0
1.432439620E-1,8.462306023E0,2.563591480E0,-3.200449228E0
1.457317740E-1,8.443152428E0,2.534861088E0,-3.219602823E0
1.482195870E-1,8.414422035E0,2.501342297E0,-3.267486811E0
1.507073990E-1,8.395268440E0,2.467823505E0,-3.281852007E0
1.531952120E-1,8.390480042E0,2.429516077E0,-3.286640406E0
1.556830240E-1,8.390480042E0,2.415150881E0,-3.305794001E0
1.581708370E-1,8.390480042E0,2.395997286E0,-3.324947596E0
1.606586490E-1,8.404845238E0,2.352901697E0,-3.348889589E0
1.631464620E-1,8.423998833E0,2.324171305E0,-3.382408381E0
1.656342740E-1,8.438364029E0,2.285864115E0,-3.372831583E0
1.681220870E-1,8.452729225E0,2.261922121E0,-3.372831583E0
1.706098990E-1,8.462306023E0,2.237980127E0,-3.363254786E0
1.730977120E-1,8.486248016E0,2.218826532E0,-3.348889589E0
1.755855240E-1,8.476671219E0,2.185307503E0,-3.339312792E0
1.780733370E-1,8.471882820E0,2.180519104E0,-3.281852007E0
1.805611490E-1,8.467094421E0,2.161365509E0,-3.224391222E0
1.830489620E-1,8.505401611E0,2.123058319E0,-3.200449228E0
1.855367740E-1,8.529343605E0,2.094327927E0,-3.186083794E0
1.880245870E-1,8.543708801E0,2.065597534E0,-3.142988205E0
1.905123990E-1,8.558073997E0,2.032078743E0,-3.133411407E0
1.930002120E-1,8.577227592E0,2.008136749E0,-3.104681015E0
1.954880240E-1,8.615534782E0,1.974617839E0,-3.109469414E0
1.979758370E-1,8.625111580E0,1.931522250E0,-3.119046211E0
2.004636490E-1,8.663418770E0,1.883638144E0,-3.138199806E0
2.029514620E-1,8.687360764E0,1.845330954E0,-3.147776604E0
2.054392740E-1,8.720879555E0,1.821388960E0,-3.162141800E0
2.079270870E-1,8.768763542E0,1.773504853E0,-3.162141800E0
2.104148990E-1,8.821435928E0,1.735197663E0,-3.195660830E0
2.129027120E-1,8.883685112E0,1.677736878E0,-3.200449228E0
2.153905240E-1,8.902838707E0,1.649006367E0,-3.229179621E0
2.178783370E-1,8.936357498E0,1.639429569E0,-3.272275209E0
2.203661490E-1,8.984241486E0,1.620275974E0,-3.320159197E0
2.228539620E-1,9.032125473E0,1.601122379E0,-3.391985178E0
2.253417740E-1,9.075222015E0,1.572391987E0,-3.478176594E0
2.278295870E-1,9.103952408E0,1.558026791E0,-3.545214176E0
2.303173990E-1,9.118317604E0,1.567603588E0,-3.583521366E0
2.328052120E-1,9.127894402E0,1.581968784E0,-3.593098164E0
2.352930240E-1,9.151836395E0,1.581968784E0,-3.602674961E0
2.377808370E-1,9.170989990E0,1.581968784E0,-3.597886562E0
2.402686490E-1,9.199720383E0,1.615487576E0,-3.602674961E0
2.427564620E-1,9.233239174E0,1.625064373E0,-3.617040157E0
2.452442740E-1,9.281123161E0,1.634641171E0,-3.612251759E0
2.477320870E-1,9.314641953E0,1.649006367E0,-3.626616955E0
2.502198990E-1,9.333795547E0,1.639429569E0,-3.636193752E0
2.527077120E-1,9.348160744E0,1.658583283E0,-3.650558949E0
2.551955240E-1,9.381679535E0,1.668160081E0,-3.660135746E0
2.576833370E-1,9.405621529E0,1.682525277E0,-3.640982151E0
2.601711490E-1,9.424775124E0,1.677736878E0,-3.636193752E0
2.626589620E-1,9.434351921E0,1.687313676E0,-3.655347347E0
2.651467740E-1,9.463082314E0,1.682525277E0,-3.636193752E0
2.676345870E-1,9.477447510E0,1.692102075E0,-3.621828556E0
2.701223990E-1,9.472659111E0,1.701678872E0,-3.607463360E0
2.726102120E-1,9.491812706E0,1.701678872E0,-3.573944569E0
2.750980240E-1,9.506177902E0,1.687313676E0,-3.573944569E0
2.775858370E-1,9.515754700E0,1.682525277E0,-3.550002575E0
2.800736490E-1,9.554061890E0,1.653794765E0,-3.540425777E0
2.825614620E-1,9.563638687E0,1.653794765E0,-3.526060581E0
2.850492740E-1,9.597157478E0,1.634641171E0,-3.502118587E0
2.875370870E-1,9.592369080E0,1.634641171E0,-3.463811398E0
2.900248990E-1,9.635464668E0,1.639429569E0,-3.430292368E0
2.925127120E-1,9.659406662E0,1.639429569E0,-3.406350374E0
2.950005240E-1,9.678560257E0,1.644217968E0,-3.368043184E0
2.974883370E-1,9.688137054E0,1.644217968E0,-3.329735994E0
2.999761490E-1,9.692925453E0,1.629852772E0,-3.305794001E0
3.024639620E-1,9.707290649E0,1.601122379E0,-3.262698412E0
3.049517740E-1,9.716867447E0,1.591545582E0,-3.257910013E0
3.074395870E-1,9.726444244E0,1.567603588E0,-3.262698412E0
3.099273990E-1,9.745597839E0,1.505354285E0,-3.281852007E0
3.124152120E-1,9.783905029E0,1.471835494E0,-3.310582399E0
3.149030240E-1,9.783905029E0,1.390432596E0,-3.339312792E0
3.173908370E-1,9.779116631E0,1.347337008E0,-3.363254786E0
3.198786490E-1,9.769539833E0,1.304241419E0,-3.372831583E0
3.223664620E-1,9.759963036E0,1.256357312E0,-3.353677988E0
3.248542740E-1,9.745597839E0,1.241992116E0,-3.344101191E0
3.273420870E-1,9.736021042E0,1.213261724E0,-3.329735994E0
3.298298990E-1,9.707290649E0,1.174954534E0,-3.320159197E0
3.323177120E-1,9.697713852E0,1.160589218E0,-3.296217203E0
3.348055240E-1,9.664195061E0,1.122282028E0,-3.296217203E0
3.372933370E-1,9.645041466E0,1.107916832E0,-3.277063608E0
3.397811490E-1,9.601945877E0,1.069609642E0,-3.233968019E0
3.422689620E-1,9.582792282E0,1.074398041E0,-3.186083794E0
3.447567740E-1,9.539696693E0,1.069609642E0,-3.138199806E0
3.472445870E-1,9.510966301E0,1.055244446E0,-3.119046211E0
3.497323990E-1,9.477447510E0,1.040879130E0,-3.052008629E0
3.522202120E-1,9.463082314E0,1.026513934E0,-3.004124641E0
3.547080240E-1,9.453505516E0,1.007360339E0,-2.980182648E0
3.571958370E-1,9.429563522E0,9.786299467E-1,-2.961029053E0
3.596836490E-1,9.400833130E0,9.403226972E-1,-2.941875219E0
3.621714620E-1,9.386467934E0,9.211691022E-1,-2.922721624E0
3.646592740E-1,9.338583946E0,8.924387097E-1,-2.889202833E0
3.671470870E-1,9.300276756E0,8.684966564E-1,-2.865260839E0
3.696348990E-1,9.276334763E0,8.493430614E-1,-2.850895643E0
3.721227120E-1,9.257181168E0,8.254010081E-1,-2.836530447E0
3.746105240E-1,9.223662376E0,7.918822169E-1,-2.812588453E0
3.770983370E-1,9.194931984E0,7.727286220E-1,-2.822165251E0
3.795861490E-1,9.190143585E0,7.296329737E-1,-2.803011656E0
3.820739620E-1,9.194931984E0,6.961141229E-1,-2.793434858E0
3.845617740E-1,9.185355186E0,6.530185342E-1,-2.764704466E0
3.870495870E-1,9.194931984E0,6.147112846E-1,-2.745550871E0
3.895373990E-1,9.185355186E0,5.811924338E-1,-2.707243681E0
3.920252120E-1,9.190143585E0,5.476736426E-1,-2.688089848E0
3.945130240E-1,9.204508781E0,5.093663931E-1,-2.654571056E0
3.970008370E-1,9.218873978E0,4.519055784E-1,-2.640205860E0
3.994886490E-1,9.223662376E0,4.135983288E-1,-2.611475468E0
4.019764620E-1,9.218873978E0,3.848679364E-1,-2.577956676E0
4.044642740E-1,9.190143585E0,3.513490856E-1,-2.530072689E0
4.069520870E-1,9.194931984E0,3.130418658E-1,-2.515707493E0
4.094398990E-1,9.180566788E0,2.938882709E-1,-2.486977100E0
4.119277120E-1,9.170989990E0,2.507926226E-1,-2.443881273E0
4.144155240E-1,9.166201591E0,2.460042238E-1,-2.395997286E0
4.169033370E-1,9.156624794E0,2.076970041E-1,-2.357690096E0
4.193911490E-1,9.147047997E0,1.741781682E-1,-2.328959703E0
4.218789620E-1,9.161413193E0,1.550245583E-1,-2.300229311E0
4.243667740E-1,9.161413193E0,1.119289324E-1,-2.252345324E0
4.268545870E-1,9.156624794E0,1.071405262E-1,-2.199672699E0
4.293423990E-1,9.147047997E0,8.798690885E-2,-2.161365509E0
4.318302120E-1,9.142259598E0,8.319851011E-2,-2.118269920E0
4.343180240E-1,9.108740807E0,5.446808785E-2,-2.056020737E0
4.368058370E-1,9.103952408E0,3.531447425E-2,-2.003348351E0
4.392936490E-1,9.080010414E0,3.531447425E-2,-1.955464244E0
4.417814620E-1,9.032125473E0,4.489128292E-2,-1.898003340E0
4.442692740E-1,8.965087891E0,5.925649032E-2,-1.821388960E0
4.467570870E-1,8.921992302E0,6.404489279E-2,-1.749562860E0
4.492448990E-1,8.869319916E0,9.277531505E-2,-1.701678872E0
4.517327120E-1,8.831012726E0,1.215057373E-1,-1.639429569E0
4.542205240E-1,8.768763542E0,1.358709484E-1,-1.562815189E0
4.567083370E-1,8.706514359E0,1.502361596E-1,-1.505354285E0
4.591961490E-1,8.668207169E0,1.837549806E-1,-1.423951507E0
4.616839620E-1,8.610746384E0,2.029085904E-1,-1.361702204E0
4.641717740E-1,8.572439194E0,2.124854028E-1,-1.299453020E0
4.666595870E-1,8.543708801E0,2.268506140E-1,-1.256357312E0
4.691473990E-1,8.510190010E0,2.412158251E-1,-1.203684926E0
4.716352120E-1,8.481459618E0,2.507926226E-1,-1.174954534E0
4.741230240E-1,8.462306023E0,2.699462473E-1,-1.151012421E0
4.766108370E-1,8.457517624E0,2.747346461E-1,-1.151012421E0
4.790986490E-1,8.457517624E0,2.651578486E-1,-1.155800819E0
4.815864620E-1,8.443152428E0,2.603694201E-1,-1.155800819E0
4.840742740E-1,8.462306023E0,2.507926226E-1,-1.198896527E0
4.865620870E-1,8.491036415E0,2.316390127E-1,-1.261145711E0
4.890498990E-1,8.524555206E0,1.933317930E-1,-1.318606615E0
4.915377120E-1,8.553285599E0,1.550245583E-1,-1.366490602E0
4.940255240E-1,8.596381187E0,1.215057373E-1,-1.414374709E0
4.965133370E-1,8.639476776E0,8.798690885E-2,-1.476623893E0
4.990011490E-1,8.663418770E0,8.319851011E-2,-1.529296279E0
5.014889620E-1,8.701725960E0,5.446808785E-2,-1.572391987E0
5.039767740E-1,8.744821548E0,5.446808785E-2,-1.639429569E0
5.064645870E-1,8.787917137E0,4.489128292E-2,-1.668160081E0
5.089523990E-1,8.811859131E0,3.531447425E-2,-1.711255670E0
5.114402120E-1,8.845377922E0,1.137245819E-2,-1.749562860E0
5.139280240E-1,8.893261909E0,-1.256955881E-2,-1.792658567E0
5.164158370E-1,8.931569099E0,-4.129998013E-2,-1.830965757E0
5.189036490E-1,8.941145897E0,-6.524199992E-2,-1.830965757E0
5.213914620E-1,8.979453087E0,-7.481880486E-2,-1.854907751E0
5.238794830E-1,8.993818283E0,-8.918401599E-2,-1.902791858E0
5.263675030E-1,9.032125473E0,-9.876082093E-2,-1.912368655E0
5.288555240E-1,9.046490669E0,-1.131260321E-1,-1.921945453E0
5.313433370E-1,9.056067467E0,-1.083376259E-1,-1.960252643E0
5.338311490E-1,9.075222015E0,-1.035492271E-1,-1.988983035E0
5.363189620E-1,9.080010414E0,-1.035492271E-1,-1.988983035E0
5.388067740E-1,9.065644264E0,-9.397241473E-2,-2.017713547E0
5.412945870E-1,9.056067467E0,-7.481880486E-2,-2.022501945E0
5.437823990E-1,9.022548676E0,-7.481880486E-2,-2.008136749E0
5.462702120E-1,8.993818283E0,-7.003039867E-2,-2.012925148E0
5.487580240E-1,8.974664688E0,-6.524199992E-2,-2.003348351E0
5.512458370E-1,8.941145897E0,-6.045359373E-2,-2.012925148E0
5.537336490E-1,8.902838707E0,-6.045359373E-2,-2.008136749E0
5.562214620E-1,8.854954720E0,-5.087678507E-2,-2.003348351E0
5.587092740E-1,8.792705536E0,-4.608838260E-2,-2.003348351E0
5.611970870E-1,8.744821548E0,-3.172317147E-2,-2.017713547E0
5.636848990E-1,8.696937561E0,-2.992752008E-3,-2.060809135E0
5.661727120E-1,8.644265175E0,4.010287672E-2,-2.065597534E0
5.686605240E-1,8.610746384E0,2.094926499E-2,-2.094327927E0
5.711483370E-1,8.577227592E0,3.531447425E-2,-2.118269920E0
5.736361490E-1,8.553285599E0,3.531447425E-2,-2.161365509E0
5.761239620E-1,8.519766808E0,4.489128292E-2,-2.194884300E0
5.786117740E-1,8.505401611E0,5.446808785E-2,-2.214038134E0
5.810995870E-1,8.471882820E0,3.531447425E-2,-2.257133722E0
5.835873990E-1,8.433575630E0,3.531447425E-2,-2.285864115E0
5.860752120E-1,8.409633636E0,2.573766746E-2,-2.314594507E0
5.885630240E-1,8.371326447E0,3.531447425E-2,-2.343324900E0
5.910508370E-1,8.337807655E0,4.967968538E-2,-2.352901697E0
5.935386490E-1,8.323442459E0,7.362170517E-2,-2.352901697E0
5.960264620E-1,8.299500465E0,9.756372124E-2,-2.367266893E0
5.985142740E-1,8.275558472E0,1.119289324E-1,-2.372055292E0
6.010020870E-1,8.289923668E0,1.310825497E-1,-2.376843691E0
6.034898990E-1,8.289923668E0,1.406593472E-1,-2.400785685E0
6.059777120E-1,8.285135269E0,1.262941360E-1,-2.381632090E0
6.084655240E-1,8.285135269E0,1.071405262E-1,-2.372055292E0
6.109533370E-1,8.285135269E0,8.319851011E-2,-2.352901697E0
6.134411490E-1,8.299500465E0,6.883329898E-2,-2.333748102E0
6.159289620E-1,8.309077263E0,6.404489279E-2,-2.295440912E0
6.184167740E-1,8.280346870E0,4.489128292E-2,-2.276287317E0
6.209045870E-1,8.256404877E0,4.967968538E-2,-2.214038134E0
6.233923990E-1,8.246828079E0,5.925649032E-2,-2.161365509E0
6.258802120E-1,8.222886086E0,5.446808785E-2,-2.108693123E0
6.283680240E-1,8.218097687E0,4.489128292E-2,-2.046443939E0
6.308558370E-1,8.203732491E0,5.446808785E-2,-1.984194636E0
6.333436490E-1,8.203732491E0,4.489128292E-2,-1.917157054E0
6.358314620E-1,8.184578896E0,4.967968538E-2,-1.845330954E0
6.383192740E-1,8.155848503E0,5.446808785E-2,-1.792658567E0
6.408070870E-1,8.117541313E0,5.446808785E-2,-1.735197663E0
6.432948990E-1,8.098387718E0,4.010287672E-2,-1.672948480E0
6.457827120E-1,8.098387718E0,4.010287672E-2,-1.610699177E0
6.482705240E-1,8.084021568E0,3.052607179E-2,-1.562815189E0
6.507583370E-1,8.036137581E0,3.052607179E-2,-1.514931083E0
6.532461490E-1,8.016983986E0,3.531447425E-2,-1.476623893E0
6.557339620E-1,7.978677273E0,4.489128292E-2,-1.457470298E0
6.582217740E-1,7.935581684E0,6.883329898E-2,-1.428739905E0
6.607095870E-1,7.897274494E0,7.841010392E-2,-1.395220995E0
6.631973990E-1,7.858967304E0,1.071405262E-1,-1.361702204E0
6.656852120E-1,7.820659637E0,1.167173311E-1,-1.337760210E0
6.681730240E-1,7.801506042E0,1.406593472E-1,-1.323395014E0
6.706608370E-1,7.753622055E0,1.358709484E-1,-1.318606615E0
6.731486490E-1,7.739256859E0,1.310825497E-1,-1.337760210E0
6.756364620E-1,7.724891663E0,1.406593472E-1,-1.352125406E0
6.781242740E-1,7.686584473E0,1.550245583E-1,-1.376067400E0
6.806120870E-1,7.653065681E0,1.646013707E-1,-1.409586191E0
6.830998990E-1,7.619546890E0,1.550245583E-1,-1.438316703E0
6.855877120E-1,7.581239700E0,1.598129570E-1,-1.443105102E0
6.880755240E-1,7.528567314E0,1.502361596E-1,-1.467047095E0
6.905633370E-1,7.499836922E0,1.454477459E-1,-1.471835494E0
6.930511490E-1,7.466318130E0,1.406593472E-1,-1.490989089E0
6.955389620E-1,7.451952934E0,1.454477459E-1,-1.500565886E0
6.980267740E-1,7.451952934E0,1.454477459E-1,-1.486200690E0
7.005145870E-1,7.432799339E0,1.406593472E-1,-1.486200690E0
7.030023990E-1,7.428010941E0,1.310825497E-1,-1.495777488E0
7.054902120E-1,7.413645744E0,1.262941360E-1,-1.471835494E0
7.079780240E-1,7.408857346E0,1.119289324E-1,-1.447893500E0
7.104658370E-1,7.432799339E0,9.756372124E-2,-1.438316703E0
7.129536490E-1,7.432799339E0,6.404489279E-2,-1.414374709E0
7.154414620E-1,7.428010941E0,4.010287672E-2,-1.390432596E0
7.179292740E-1,7.437587738E0,6.584054790E-3,-1.376067400E0
7.204170870E-1,7.461529732E0,-1.735796221E-2,-1.347337008E0
7.229048990E-1,7.475894928E0,-4.608838260E-2,-1.313818216E0
7.253927120E-1,7.490260124E0,-7.481880486E-2,-1.270722508E0
7.278805240E-1,7.523778915E0,-1.035492271E-1,-1.213261724E0
7.303683370E-1,7.533355713E0,-1.322796494E-1,-1.174954534E0
7.328561490E-1,7.552509308E0,-1.466448605E-1,-1.098340034E0
7.353439620E-1,7.571662903E0,-1.610100716E-1,-1.021725535E0
7.378317740E-1,7.586028099E0,-1.705868691E-1,-9.594763517E-1
7.403195870E-1,7.605181694E0,-1.705868691E-1,-9.115923047E-1
7.428073990E-1,7.609970093E0,-1.753752679E-1,-8.397662640E-1
7.452952120E-1,7.629123688E0,-1.610100716E-1,-7.631517649E-1
7.477830240E-1,7.643488884E0,-1.610100716E-1,-6.961141229E-1
7.502708370E-1,7.633912086E0,-1.657984704E-1,-6.434416771E-1
7.527586490E-1,7.648277283E0,-1.849520802E-1,-5.907692909E-1
7.552464620E-1,7.653065681E0,-1.753752679E-1,-5.141547918E-1
7.577342740E-1,7.653065681E0,-1.801636815E-1,-4.519055784E-1
7.602220870E-1,7.629123688E0,-1.993172914E-1,-4.040215313E-1
7.627098990E-1,7.653065681E0,-2.041056901E-1,-3.321954906E-1
7.651977120E-1,7.677007675E0,-1.993172914E-1,-2.747346461E-1
7.676855240E-1,7.681796074E0,-2.088941038E-1,-2.076970041E-1
7.701733370E-1,7.672219276E0,-2.280477136E-1,-1.502361596E-1
7.726611490E-1,7.667430878E0,-2.376245260E-1,-1.119289324E-1
7.751489620E-1,7.643488884E0,-2.280477136E-1,-7.841010392E-2
7.776367740E-1,7.624335289E0,-2.184709013E-1,-4.967968538E-2
7.801245870E-1,7.586028099E0,-2.041056901E-1,-2.573766746E-2
7.826123990E-1,7.571662903E0,-1.993172914E-1,-1.795651275E-3
7.851002120E-1,7.552509308E0,-1.753752679E-1,2.214636654E-2
7.875880240E-1,7.533355713E0,-1.514332592E-1,3.172317147E-2
7.900758370E-1,7.514202118E0,-1.370680481E-1,3.651157767E-2
7.925636490E-1,7.533355713E0,-1.274912357E-1,2.693476900E-2
7.950514620E-1,7.533355713E0,-1.083376259E-1,1.256955881E-2
7.975392740E-1,7.538144112E0,-1.131260321E-1,-3.052607179E-2
8.000270870E-1,7.562086105E0,-1.322796494E-1,-8.798690885E-2
8.025148990E-1,7.576451302E0,-1.274912357E-1,-1.502361596E-1
8.050027120E-1,7.595604897E0,-1.370680481E-1,-2.412158251E-1
8.074905240E-1,7.586028099E0,-1.514332592E-1,-2.938882709E-1
8.099783370E-1,7.595604897E0,-1.610100716E-1,-3.561375141E-1
8.124661490E-1,7.552509308E0,-1.849520802E-1,-4.183867574E-1
8.149539620E-1,7.538144112E0,-1.801636815E-1,-4.662707746E-1
8.174417740E-1,7.495048523E0,-1.514332592E-1,-5.285200477E-1
8.199295870E-1,7.490260124E0,-1.322796494E-1,-5.859808922E-1
8.224173990E-1,7.475894928E0,-1.418564469E-1,-6.625953317E-1
8.249052120E-1,7.485471725E0,-1.418564469E-1,-7.344213724E-1
8.273930240E-1,7.485471725E0,-1.801636815E-1,-7.870938182E-1
8.298808370E-1,7.471106529E0,-1.801636815E-1,-8.110358119E-1
8.323686490E-1,7.485471725E0,-1.945288926E-1,-9.115923047E-1
8.348564620E-1,7.495048523E0,-2.232593149E-1,-9.594763517E-1
8.373442740E-1,7.514202118E0,-2.376245260E-1,-1.002571940E0
8.398320870E-1,7.528567314E0,-2.472013235E-1,-1.021725535E0
8.423198990E-1,7.547720909E0,-2.807201445E-1,-1.036090732E0
8.448077120E-1,7.571662903E0,-3.094505668E-1,-1.050456047E0
8.472955240E-1,7.609970093E0,-3.094505668E-1,-1.055244446E0
8.497833370E-1,7.672219276E0,-3.429693878E-1,-1.093551636E0
8.522711490E-1,7.705738068E0,-3.764882088E-1,-1.103128433E0
8.547589620E-1,7.744045258E0,-4.243722558E-1,-1.103128433E0
8.572467740E-1,7.806294441E0,-4.531026781E-1,-1.127070427E0
8.597345870E-1,7.887697697E0,-4.961982965E-1,-1.117493629E0
8.622223990E-1,7.969100475E0,-5.345055461E-1,-1.112705231E0
8.647102120E-1,8.031349182E0,-5.823895931E-1,-1.136647224E0
8.671980240E-1,8.127118111E0,-6.159083843E-1,-1.131858826E0
8.696858370E-1,8.218097687E0,-6.542156339E-1,-1.098340034E0
8.721736490E-1,8.309077263E0,-6.925228238E-1,-1.093551636E0
8.746614620E-1,8.400056839E0,-7.451952696E-1,-1.074398041E0
8.771492740E-1,8.476671219E0,-7.978677154E-1,-1.050456047E0
8.796370870E-1,8.534132004E0,-8.218097091E-1,-1.036090732E0
8.821248990E-1,8.562862396E0,-8.744821548E-1,-1.021725535E0
8.846127120E-1,8.634688377E0,-9.175778031E-1,-9.834183455E-1
8.871005240E-1,8.692149162E0,-9.558850527E-1,-9.546879530E-1
8.895883370E-1,8.754398346E0,-9.894038439E-1,-9.307458997E-1
8.920761490E-1,8.783128738E0,-1.022922635E0,-9.068039060E-1
8.945639620E-1,8.821435928E0,-1.051653147E0,-8.732850552E-1
8.970517740E-1,8.831012726E0,-1.085171938E0,-8.589198589E-1
8.995395870E-1,8.854954720E0,-1.118690729E0,-8.254010081E-1
9.020273990E-1,8.840589523E0,-1.133055925E0,-8.014590144E-1
9.045152120E-1,8.835801125E0,-1.113902330E0,-7.966706157E-1
9.070030240E-1,8.811859131E0,-1.104325533E0,-8.397662640E-1
9.094908370E-1,8.811859131E0,-1.080383539E0,-8.780734539E-1
9.119786490E-1,8.816647530E0,-1.051653147E0,-9.355342984E-1
9.144664620E-1,8.831012726E0,-1.032499433E0,-9.834183455E-1
9.169542740E-1,8.840589523E0,-1.013345838E0,-1.060032845E0
9.194420870E-1,8.840589523E0,-9.989806414E-1,-1.122282028E0
9.219298990E-1,8.835801125E0,-9.989806414E-1,-1.174954534E0
9.244177120E-1,8.821435928E0,-1.018134236E0,-1.246780515E0
9.269055240E-1,8.807070732E0,-1.022922635E0,-1.337760210E0
9.293933370E-1,8.802282333E0,-1.018134236E0,-1.409586191E0
9.318811490E-1,8.763975143E0,-9.989806414E-1,-1.476623893E0
9.343689620E-1,8.744821548E0,-9.558850527E-1,-1.562815189E0
9.368567740E-1,8.768763542E0,-9.271546006E-1,-1.658583283E0
9.393445870E-1,8.797493935E0,-9.080010056E-1,-1.744774461E0
9.418323990E-1,8.850166321E0,-8.744821548E-1,-1.850119352E0
9.443202120E-1,8.874108315E0,-8.505401611E-1,-1.960252643E0
9.468080240E-1,8.950722694E0,-8.361749649E-1,-2.060809135E0
9.492958370E-1,9.008183479E0,-8.361749649E-1,-2.156577110E0
9.517836490E-1,9.046490669E0,-8.313865662E-1,-2.214038134E0
9.542714620E-1,9.094375610E0,-8.265981078E-1,-2.271498919E0
9.567592740E-1,9.170989990E0,-8.409633636E-1,-2.319382906E0
9.592470870E-1,9.247604370E0,-8.313865662E-1,-2.352901697E0
9.617348990E-1,9.309853554E0,-8.218097091E-1,-2.376843691E0
9.642227120E-1,9.372102737E0,-8.170213103E-1,-2.372055292E0
9.667105240E-1,9.439140320E0,-8.265981078E-1,-2.405574083E0
9.691983370E-1,9.530119896E0,-8.457517624E-1,-2.415150881E0
9.716861490E-1,9.601945877E0,-8.601169586E-1,-2.434304476E0
9.741739620E-1,9.668983459E0,-9.080010056E-1,-2.453458309E0
9.766617740E-1,9.721655846E0,-9.319429994E-1,-2.458246708E0
9.791495870E-1,9.769539833E0,-9.750386477E-1,-2.458246708E0
9.816373990E-1,9.807847023E0,-1.013345838E0,-2.467823505E0
9.841252120E-1,9.841365814E0,-1.051653147E0,-2.439092875E0
9.866130240E-1,9.860519409E0,-1.080383539E0,-2.419939280E0
9.891008370E-1,9.879673004E0,-1.075595140E0,-2.419939280E0
9.915886490E-1,9.903614998E0,-1.094748735E0,-2.405574083E0
9.940764620E-1,9.922768593E0,-1.109113932E0,-2.386420488E0
9.965642740E-1,9.913191795E0,-1.118690729E0,-2.362478495E0
9.990520870E-1,9.917980194E0,-1.133055925E0,-2.348113298E0
1.001539899E0,9.908403397E0,-1.142632723E0,-2.333748102E0
1.004027712E0,9.903614998E0,-1.156997919E0,-2.314594507E0
1.006515524E0,9.903614998E0,-1.152209520E0,-2.305017710E0
1.009003337E0,9.917980194E0,-1.156997919E0,-2.276287317E0
1.011491149E0,9.913191795E0,-1.152209520E0,-2.252345324E0
1.013978962E0,9.917980194E0,-1.152209520E0,-2.233191729E0
1.016466774E0,9.917980194E0,-1.156997919E0,-2.233191729E0
1.018954587E0,9.917980194E0,-1.147421122E0,-2.237980127E0
1.021442399E0,9.927556992E0,-1.137844324E0,-2.233191729E0
1.023930837E0,9.913191795E0,-1.123479128E0,-2.252345324E0
1.026418910E0,9.865307808E0,-1.099537134E0,-2.285864115E0
1.028906722E0,9.803058624E0,-1.066018343E0,-2.300229311E0
1.031394535E0,9.764751434E0,-1.013345838E0,-2.333748102E0
1.033882347E0,9.750386238E0,-9.558850527E-1,-2.357690096E0
1.036370160E0,9.721655846E0,-9.175778031E-1,-2.381632090E0
1.038857972E0,9.736021042E0,-8.792705536E-1,-2.410362482E0
1.041345785E0,9.745597839E0,-8.505401611E-1,-2.419939280E0
1.043833597E0,9.783905029E0,-8.313865662E-1,-2.439092875E0
1.046321410E0,9.822212219E0,-8.218097091E-1,-2.458246708E0
1.048809222E0,9.836577415E0,-8.265981078E-1,-2.506130695E0
1.051297035E0,9.860519409E0,-8.457517624E-1,-2.554014683E0
1.053784847E0,9.879673004E0,-8.553285599E-1,-2.568379879E0
1.056272660E0,9.913191795E0,-8.792705536E-1,-2.573168278E0
1.058760472E0,9.937133789E0,-8.936358094E-1,-2.549226284E0
1.061248285E0,9.965864182E0,-8.696937561E-1,-2.530072689E0
1.063736097E0,1.001374817E1,-8.744821548E-1,-2.525284290E0
1.066223910E0,1.002332497E1,-8.696937561E-1,-2.477400303E0
1.068711722E0,1.005684471E1,-8.649053574E-1,-2.443881273E0
1.071199535E0,1.007120991E1,-8.696937561E-1,-2.429516077E0
1.073687347E0,1.008557510E1,-8.601169586E-1,-2.386420488E0
1.076175160E0,1.009515190E1,-8.744821548E-1,-2.362478495E0
1.078662972E0,1.011430550E1,-8.744821548E-1,-2.328959703E0
1.081150785E0,1.011909389E1,-8.792705536E-1,-2.328959703E0
1.083638597E0,1.013824749E1,-8.744821548E-1,-2.309806108E0
1.086126410E0,1.012867069E1,-8.840589523E-1,-2.328959703E0
1.088614222E0,1.013824749E1,-8.744821548E-1,-2.328959703E0
1.091102035E0,1.015261269E1,-8.696937561E-1,-2.338536501E0
1.093589847E0,1.016697788E1,-8.361749649E-1,-2.348113298E0
1.096077660E0,1.019091988E1,-8.218097091E-1,-2.343324900E0
1.098565472E0,1.021486187E1,-8.122329116E-1,-2.343324900E0
1.101053285E0,1.025316906E1,-7.978677154E-1,-2.357690096E0
1.103541097E0,1.027711105E1,-7.930793166E-1,-2.410362482E0
1.106028910E0,1.031062984E1,-7.978677154E-1,-2.458246708E0
1.108516722E0,1.031062984E1,-7.978677154E-1,-2.525284290E0
1.111004535E0,1.032499504E1,-7.930793166E-1,-2.630629063E0
1.113492347E0,1.030584145E1,-7.643488646E-1,-2.712032080E0
1.115980160E0,1.027232265E1,-7.356184721E-1,-2.826953650E0
1.118467972E0,1.025795746E1,-6.973112226E-1,-2.903568029E0
1.120955785E0,1.022922707E1,-6.542156339E-1,-2.975394249E0
1.123443597E0,1.019570827E1,-6.111199856E-1,-3.056797028E0
1.125931410E0,1.016697788E1,-5.632359385E-1,-3.138199806E0
1.128419222E0,1.015740108E1,-5.440823436E-1,-3.238756418E0
1.130907035E0,1.015740108E1,-5.057750940E-1,-3.305794001E0
1.133394847E0,1.012388229E1,-4.722562730E-1,-3.372831583E0
1.135882660E0,1.009036350E1,-4.531026781E-1,-3.444657803E0
1.138370472E0,1.005684471E1,-4.339490533E-1,-3.511695385E0
1.140858285E0,1.004247856E1,-4.004302323E-1,-3.573944569E0
1.143346097E0,1.001374817E1,-3.956418335E-1,-3.617040157E0
1.145833910E0,9.985017776E0,-3.860650361E-1,-3.679289579E0
1.148321722E0,9.965864182E0,-3.860650361E-1,-3.722385168E0
1.150809535E0,9.956287384E0,-3.716998100E-1,-3.775057554E0
1.153297347E0,9.946710587E0,-3.669114113E-1,-3.818153143E0
1.155785160E0,9.932345390E0,-3.429693878E-1,-3.818153143E0
1.158272972E0,9.956287384E0,-3.381809890E-1,-3.813364744E0
1.160760785E0,9.970652580E0,-3.190273643E-1,-3.818153143E0
1.163248597E0,9.989806175E0,-3.046621680E-1,-3.798999548E0
1.165736410E0,9.999382973E0,-2.950853705E-1,-3.803787947E0
1.168224222E0,1.000895977E1,-3.142389655E-1,-3.794211149E0
1.170712035E0,1.000895977E1,-3.190273643E-1,-3.741538763E0
1.173199847E0,1.000417137E1,-3.286041915E-1,-3.693654776E0
1.175687660E0,9.994594574E0,-3.190273643E-1,-3.597886562E0
1.178175472E0,9.994594574E0,-3.190273643E-1,-3.564367771E0
1.180663285E0,1.000895977E1,-3.238157928E-1,-3.487753391E0
1.183151097E0,1.003290176E1,-3.238157928E-1,-3.420715570E0
1.185638910E0,1.005684471E1,-3.238157928E-1,-3.377619982E0
1.188126722E0,1.007599831E1,-3.190273643E-1,-3.324947596E0
1.190614535E0,1.009994030E1,-3.333925903E-1,-3.243544817E0
1.193102347E0,1.013345909E1,-3.190273643E-1,-3.181295395E0
1.195590160E0,1.016218948E1,-3.046621680E-1,-3.095104218E0
1.198077972E0,1.019570827E1,-2.759317458E-1,-3.028066635E0
1.200565785E0,1.023880386E1,-2.855085433E-1,-2.970605850E0
1.203053597E0,1.027232265E1,-2.759317458E-1,-2.956240654E0
1.205541410E0,1.032499504E1,-2.759317458E-1,-2.984971046E0
1.208029222E0,1.035851383E1,-2.567781210E-1,-3.032855034E0
1.210517035E0,1.039203262E1,-2.376245260E-1,-3.109469414E0
1.213004847E0,1.040639782E1,-2.136825025E-1,-3.190872431E0
1.215492660E0,1.042555141E1,-2.184709013E-1,-3.281852007E0
1.217980472E0,1.040160942E1,-2.088941038E-1,-3.353677988E0
1.220468285E0,1.039682102E1,-1.705868691E-1,-3.420715570E0
1.222956097E0,1.036809063E1,-1.466448605E-1,-3.487753391E0
1.225443910E0,1.032499504E1,-1.227028370E-1,-3.578732967E0
1.227931722E0,1.030584145E1,-9.397241473E-2,-3.645770550E0
1.230419535E0,1.026753426E1,-7.960720360E-2,-3.736750364E0
1.232907347E0,1.020049667E1,-8.439560980E-2,-3.837306738E0
1.235395160E0,1.019091988E1,-6.045359373E-2,-3.909132719E0
1.237882972E0,1.016218948E1,-4.608838260E-2,-3.980958939E0
1.240370785E0,1.015261269E1,-4.608838260E-2,-4.052784920E0
1.242858597E0,1.016697788E1,-4.129998013E-2,-4.095880508E0
1.245346410E0,1.018613148E1,-5.087678507E-2,-4.129399300E0
1.247834222E0,1.020049667E1,-6.045359373E-2,-4.143764496E0
1.250322035E0,1.021965027E1,-8.439560980E-2,-4.124610901E0
1.252809847E0,1.024838066E1,-1.274912357E-1,-4.134187698E0
1.255297660E0,1.025795746E1,-1.562216580E-1,-4.124610901E0
1.257785472E0,1.030105305E1,-1.753752679E-1,-4.105457306E0
1.260273285E0,1.032978344E1,-2.136825025E-1,-4.071938515E0
1.262761097E0,1.034414864E1,-2.472013235E-1,-4.028842926E0
1.265248910E0,1.033457184E1,-2.472013235E-1,-4.014477730E0
1.267736722E0,1.036809063E1,-2.472013235E-1,-3.961805344E0
1.270224535E0,1.034893703E1,-2.472013235E-1,-3.942651749E0
1.272712347E0,1.033457184E1,-2.615665495E-1,-3.899555922E0
1.275200160E0,1.032978344E1,-2.711433470E-1,-3.885190725E0
1.277687972E0,1.034414864E1,-2.759317458E-1,-3.866037130E0
1.280175785E0,1.032020664E1,-2.902969420E-1,-3.851671934E0
1.282663597E0,1.030105305E1,-3.046621680E-1,-3.846883535E0
1.285151410E0,1.027711105E1,-3.286041915E-1,-3.842095137E0
1.287639222E0,1.025316906E1,-3.573346138E-1,-3.842095137E0
1.290127035E0,1.022922707E1,-3.669114113E-1,-3.856460333E0
1.292614847E0,1.022443867E1,-3.812766075E-1,-3.846883535E0
1.295102660E0,1.016218948E1,-3.860650361E-1,-3.827729940E0
1.297590472E0,1.010951710E1,-3.716998100E-1,-3.846883535E0
1.300078285E0,1.005684471E1,-3.716998100E-1,-3.866037130E0
1.302566097E0,1.003290176E1,-3.573346138E-1,-3.904344320E0
1.305053910E0,1.000417137E1,-3.525462151E-1,-3.933074951E0
1.307541722E0,9.975440979E0,-3.573346138E-1,-3.966593742E0
1.310029535E0,9.946710587E0,-3.621230125E-1,-3.976170540E0
1.312517347E0,9.908403397E0,-3.669114113E-1,-3.985747337E0
1.315005160E0,9.898826599E0,-3.860650361E-1,-4.009689331E0
1.317492972E0,9.879673004E0,-3.956418335E-1,-4.028842926E0
1.319980785E0,9.831789017E0,-4.147954583E-1,-4.028842926E0
1.322468597E0,9.793481827E0,-4.004302323E-1,-4.004900932E0
1.324956410E0,9.764751434E0,-4.004302323E-1,-3.995324135E0
1.327444222E0,9.726444244E0,-3.764882088E-1,-3.961805344E0
1.329932035E0,9.688137054E0,-3.621230125E-1,-3.937863350E0
1.332419847E0,9.640253067E0,-3.477577865E-1,-3.928286552E0
1.334907660E0,9.601945877E0,-3.286041915E-1,-3.870825529E0
1.337395472E0,9.597157478E0,-3.333925903E-1,-3.794211149E0
1.339883285E0,9.568427086E0,-3.190273643E-1,-3.708019972E0
1.342371097E0,9.554061890E0,-3.142389655E-1,-3.626616955E0
1.344858910E0,9.539696693E0,-3.238157928E-1,-3.526060581E0
1.347346722E0,9.530119896E0,-3.286041915E-1,-3.439869404E0
1.349834535E0,9.534908295E0,-3.381809890E-1,-3.377619982E0
1.352322347E0,9.520543098E0,-3.381809890E-1,-3.329735994E0
1.354810160E0,9.525331497E0,-3.573346138E-1,-3.272275209E0
1.357297972E0,9.539696693E0,-3.381809890E-1,-3.219602823E0
1.359785785E0,9.544485092E0,-3.286041915E-1,-3.190872431E0
1.362273597E0,9.544485092E0,-3.477577865E-1,-3.152565002E0
1.364761410E0,9.534908295E0,-3.669114113E-1,-3.090315819E0
1.367249222E0,9.525331497E0,-3.764882088E-1,-3.052008629E0
1.369737035E0,9.515754700E0,-3.956418335E-1,-3.013701439E0
1.372224847E0,9.487024307E0,-4.100070298E-1,-3.004124641E0
1.374712660E0,9.477447510E0,-4.195838571E-1,-3.013701439E0
1.377200472E0,9.453505516E0,-4.195838571E-1,-3.032855034E0
1.379688285E0,9.458293915E0,-4.291606545E-1,-3.066373825E0
1.382176097E0,9.453505516E0,-4.339490533E-1,-3.128623009E0
1.384663910E0,9.467870712E0,-4.674678743E-1,-3.190872431E0
1.387151722E0,9.482235909E0,-4.866214991E-1,-3.243544817E0
1.389639535E0,9.487024307E0,-5.153518915E-1,-3.315370798E0
1.392127347E0,9.520543098E0,-5.392939448E-1,-3.363254786E0
1.394615160E0,9.520543098E0,-5.776011348E-1,-3.420715570E0
1.397102972E0,9.496601105E0,-6.015431881E-1,-3.473388195E0
1.399590785E0,9.487024307E0,-6.159083843E-1,-3.482964993E0
1.402078597E0,9.458293915E0,-6.015431881E-1,-3.526060581E0
1.404566410E0,9.439140320E0,-5.967547894E-1,-3.554790974E0
1.407054222E0,9.405621529E0,-5.823895931E-1,-3.573944569E0
1.409542035E0,9.391256332E0,-5.632359385E-1,-3.612251759E0
1.412029847E0,9.396044731E0,-5.728127360E-1,-3.674500942E0
1.414517660E0,9.434351921E0,-6.015431881E-1,-3.722385168E0
1.417005472E0,9.467870712E0,-6.159083843E-1,-3.755903959E0
1.419493285E0,9.520543098E0,-6.446388364E-1,-3.794211149E0
1.421981097E0,9.554061890E0,-6.973112226E-1,-3.822941542E0
1.424468910E0,9.597157478E0,-7.356184721E-1,-3.851671934E0
1.426956722E0,9.635464668E0,-7.643488646E-1,-3.866037130E0
1.429444535E0,9.673771858E0,-8.026561141E-1,-3.909132719E0
1.431932347E0,9.702502251E0,-7.978677154E-1,-3.947440147E0
1.434420160E0,9.702502251E0,-8.026561141E-1,-3.990535736E0
1.436907972E0,9.740809441E0,-8.026561141E-1,-4.043208122E0
1.439395785E0,9.745597839E0,-7.787141204E-1,-4.110245705E0
1.441883597E0,9.750386238E0,-7.787141204E-1,-4.172494888E0
1.444371410E0,9.750386238E0,-7.643488646E-1,-4.253897667E0
1.446859222E0,9.740809441E0,-7.787141204E-1,-4.325724125E0
1.449347035E0,9.740809441E0,-7.787141204E-1,-4.392761707E0
1.451834847E0,9.750386238E0,-7.835025191E-1,-4.450222492E0
1.454322660E0,9.769539833E0,-7.787141204E-1,-4.488529682E0
1.456810472E0,9.793481827E0,-7.787141204E-1,-4.536413670E0
1.459298285E0,9.812635422E0,-7.882909179E-1,-4.622604847E0
1.461786097E0,9.850942612E0,-7.739257216E-1,-4.713584423E0
1.464273910E0,9.860519409E0,-7.547720671E-1,-4.780622005E0
1.466761722E0,9.898826599E0,-7.164648771E-1,-4.866813660E0
1.469249535E0,9.917980194E0,-7.020996213E-1,-4.957793236E0
1.471737347E0,9.913191795E0,-6.877344251E-1,-5.029619217E0
1.474225160E0,9.889249802E0,-6.781576276E-1,-5.091868401E0
1.476712972E0,9.889249802E0,-6.590040326E-1,-5.139752388E0
1.479200785E0,9.860519409E0,-6.446388364E-1,-5.202001572E0
1.481688597E0,9.846154213E0,-6.063315868E-1,-5.245097160E0
1.484176410E0,9.836577415E0,-5.680243373E-1,-5.302558422E0
1.486664222E0,9.841365814E0,-5.536591411E-1,-5.355230808E0
1.489152035E0,9.836577415E0,-5.249287486E-1,-5.417479992E0
1.491639847E0,9.822212219E0,-5.009866953E-1,-5.503671169E0
1.494127660E0,9.793481827E0,-4.961982965E-1,-5.575497150E0
1.496615472E0,9.779116631E0,-4.818331003E-1,-5.628169537E0
1.499103285E0,9.764751434E0,-4.626794755E-1,-5.699995518E0
1.501591097E0,9.759963036E0,-4.339490533E-1,-5.776610374E0
1.504078910E0,9.759963036E0,-4.243722558E-1,-5.824494362E0
1.506566722E0,9.755174637E0,-4.100070298E-1,-5.853224754E0
1.509054535E0,9.740809441E0,-4.004302323E-1,-5.862801552E0
1.511542347E0,9.736021042E0,-3.764882088E-1,-5.886743546E0
1.514030160E0,9.736021042E0,-3.573346138E-1,-5.886743546E0
1.516517972E0,9.731232643E0,-3.333925903E-1,-5.891531944E0
1.519005785E0,9.716867447E0,-3.238157928E-1,-5.915473938E0
1.521493597E0,9.736021042E0,-3.190273643E-1,-5.920262337E0
1.523981410E0,9.736021042E0,-3.046621680E-1,-5.934627533E0
1.526469222E0,9.745597839E0,-3.046621680E-1,-5.972934723E0
1.528957035E0,9.740809441E0,-3.046621680E-1,-5.992088318E0
1.531444847E0,9.716867447E0,-2.950853705E-1,-5.968146324E0
1.533932660E0,9.712079048E0,-3.094505668E-1,-5.982511520E0
1.536420472E0,9.712079048E0,-2.950853705E-1,-5.987299919E0
1.538908285E0,9.707290649E0,-3.046621680E-1,-5.963357925E0
1.541396097E0,9.726444244E0,-3.094505668E-1,-5.934627533E0
1.543883910E0,9.702502251E0,-3.286041915E-1,-5.920262337E0
1.546371722E0,9.712079048E0,-3.477577865E-1,-5.910685539E0
1.548859535E0,9.731232643E0,-3.525462151E-1,-5.910685539E0
1.551347347E0,9.726444244E0,-3.764882088E-1,-5.881955147E0
1.553835160E0,9.712079048E0,-3.860650361E-1,-5.877166748E0
1.556322972E0,9.702502251E0,-4.100070298E-1,-5.843647957E0
1.558810785E0,9.697713852E0,-4.483142793E-1,-5.814917564E0
1.561298597E0,9.692925453E0,-4.818331003E-1,-5.786187172E0
1.563786410E0,9.702502251E0,-5.249287486E-1,-5.767033577E0
1.566274222E0,9.707290649E0,-5.584475398E-1,-5.714360714E0
1.568762035E0,9.707290649E0,-5.871779919E-1,-5.671265125E0
1.571249847E0,9.683348656E0,-6.159083843E-1,-5.628169537E0
1.573737660E0,9.688137054E0,-6.590040326E-1,-5.561131954E0
1.576225472E0,9.683348656E0,-6.829460263E-1,-5.494094372E0
1.578713285E0,9.673771858E0,-6.925228238E-1,-5.431845188E0
1.581201097E0,9.664195061E0,-6.781576276E-1,-5.355230808E0
1.583688910E0,9.625887871E0,-6.877344251E-1,-5.297770023E0
1.586176722E0,9.625887871E0,-6.781576276E-1,-5.221155167E0
1.588664535E0,9.611522675E0,-6.637924314E-1,-5.139752388E0
1.591152347E0,9.606734276E0,-6.685808301E-1,-5.053561211E0
1.593640160E0,9.592369080E0,-6.446388364E-1,-4.972158432E0
1.596127972E0,9.597157478E0,-6.446388364E-1,-4.866813660E0
1.598615785E0,9.606734276E0,-6.590040326E-1,-4.766256809E0
1.601103597E0,9.630676270E0,-6.685808301E-1,-4.689642429E0
1.603591566E0,9.640253067E0,-6.781576276E-1,-4.641758442E0
1.606079535E0,9.659406662E0,-7.020996213E-1,-4.603451252E0
1.608567503E0,9.659406662E0,-7.499836683E-1,-4.526836872E0
1.611055472E0,9.664195061E0,-7.595604658E-1,-4.469376087E0
1.613543441E0,9.673771858E0,-7.835025191E-1,-4.435857296E0
1.616031410E0,9.688137054E0,-8.026561141E-1,-4.368819714E0
1.618519378E0,9.707290649E0,-8.170213103E-1,-4.287416458E0
1.621007295E0,9.712079048E0,-8.409633636E-1,-4.215590477E0
1.623495108E0,9.688137054E0,-8.457517624E-1,-4.172494888E0
1.625982920E0,9.668983459E0,-8.649053574E-1,-4.115034103E0
1.628470733E0,9.640253067E0,-8.696937561E-1,-4.057573318E0
1.630958545E0,9.621099472E0,-8.744821548E-1,-4.052784920E0
1.633446358E0,9.597157478E0,-9.032126069E-1,-4.057573318E0
1.635934170E0,9.592369080E0,-9.223662019E-1,-4.067150116E0
1.638421983E0,9.578003883E0,-9.558850527E-1,-4.100668907E0
1.640909795E0,9.554061890E0,-9.798270464E-1,-4.124610901E0
1.643397608E0,9.539696693E0,-9.702502489E-1,-4.129399300E0
1.645885420E0,9.525331497E0,-9.702502489E-1,-4.124610901E0
1.648373233E0,9.506177902E0,-9.558850527E-1,-4.134187698E0
1.650861045E0,9.496601105E0,-9.319429994E-1,-4.158129692E0
1.653348858E0,9.510966301E0,-9.367313981E-1,-4.167706490E0
1.655836670E0,9.520543098E0,-9.415197968E-1,-4.148552895E0
1.658324483E0,9.558850288E0,-9.463081956E-1,-4.158129692E0
1.660812295E0,9.582792282E0,-9.654618502E-1,-4.182071686E0
1.663300108E0,9.640253067E0,-9.798270464E-1,-4.210802078E0
1.665787920E0,9.707290649E0,-1.008557439E0,-4.234744072E0
1.668275733E0,9.779116631E0,-1.008557439E0,-4.268262863E0
1.670763545E0,9.855731010E0,-1.032499433E0,-4.316147327E0
1.673251358E0,9.927556992E0,-1.061229944E0,-4.359242916E0
1.675739170E0,1.002332497E1,-1.075595140E0,-4.387973309E0
1.678226983E0,1.011430550E1,-1.075595140E0,-4.392761707E0
1.680714795E0,1.022443867E1,-1.094748735E0,-4.373608112E0
1.683202608E0,1.030584145E1,-1.094748735E0,-4.387973309E0
1.685690420E0,1.039203262E1,-1.104325533E0,-4.397550106E0
1.688178233E0,1.043033981E1,-1.094748735E0,-4.426280499E0
1.690666045E0,1.046385860E1,-1.099537134E0,-4.435857296E0
1.693153858E0,1.052610779E1,-1.099537134E0,-4.459799290E0
1.695641670E0,1.057878017E1,-1.089960337E0,-4.502894878E0
1.698129483E0,1.060272217E1,-1.094748735E0,-4.550778866E0
1.700617295E0,1.063624096E1,-1.085171938E0,-4.613028049E0
1.703105108E0,1.069370174E1,-1.085171938E0,-4.675277233E0
1.705592920E0,1.073200893E1,-1.066018343E0,-4.751891613E0
1.708080733E0,1.077989292E1,-1.070806742E0,-4.838083267E0
1.710568545E0,1.081341171E1,-1.075595140E0,-4.914697647E0
1.713056358E0,1.083735371E1,-1.075595140E0,-4.986523628E0
1.715544170E0,1.083735371E1,-1.056441545E0,-5.091868401E0
1.718031983E0,1.081341171E1,-1.051653147E0,-5.230731964E0
1.720519795E0,1.079425812E1,-1.032499433E0,-5.336077213E0
1.723007608E0,1.077989292E1,-1.008557439E0,-5.460575581E0
1.725495420E0,1.076552773E1,-9.846154451E-1,-5.580285549E0
1.727983233E0,1.075116253E1,-9.654618502E-1,-5.666476727E0
1.730471045E0,1.073679733E1,-9.606734514E-1,-5.762245178E0
1.732958858E0,1.074158573E1,-9.558850527E-1,-5.834071159E0
1.735446670E0,1.074158573E1,-9.558850527E-1,-5.915473938E0
1.737934483E0,1.072722054E1,-9.271546006E-1,-5.992088318E0
1.740422295E0,1.073200893E1,-9.080010056E-1,-6.035183907E0
1.742910108E0,1.072722054E1,-9.223662019E-1,-6.083067894E0
1.745397920E0,1.072722054E1,-9.223662019E-1,-6.150105476E0
1.747885733E0,1.071285534E1,-9.032126069E-1,-6.212354660E0
1.750373545E0,1.071764374E1,-9.175778031E-1,-6.241085052E0
1.752861358E0,1.072243214E1,-9.032126069E-1,-6.274604321E0
1.755349170E0,1.073200893E1,-9.080010056E-1,-6.293757915E0
1.757836983E0,1.074637413E1,-9.032126069E-1,-6.317699909E0
1.760324795E0,1.077989292E1,-8.936358094E-1,-6.303334713E0
1.762812608E0,1.080383492E1,-8.744821548E-1,-6.308123112E0
1.765300420E0,1.082298851E1,-8.696937561E-1,-6.351218700E0
1.767788233E0,1.083735371E1,-8.601169586E-1,-6.394314289E0
1.770276045E0,1.084693050E1,-8.505401611E-1,-6.427833080E0
1.772763858E0,1.087566090E1,-8.601169586E-1,-6.470928669E0
1.775251670E0,1.089002609E1,-8.553285599E-1,-6.509235859E0
1.777739483E0,1.090917969E1,-8.505401611E-1,-6.547543049E0
1.780227295E0,1.095227528E1,-8.840589523E-1,-6.566696644E0
1.782715108E0,1.100973606E1,-8.792705536E-1,-6.571485043E0
1.785202920E0,1.104804420E1,-9.127894044E-1,-6.595427036E0
1.787690733E0,1.109592819E1,-9.510966539E-1,-6.605003834E0
1.790178545E0,1.113423538E1,-9.798270464E-1,-6.590638638E0
1.792666358E0,1.115817738E1,-9.989806414E-1,-6.600215435E0
1.795154170E0,1.118211937E1,-1.013345838E0,-6.581061840E0
1.797641983E0,1.119169617E1,-1.042076349E0,-6.581061840E0
1.800129795E0,1.121563816E1,-1.066018343E0,-6.561908245E0
1.802617608E0,1.123000336E1,-1.070806742E0,-6.552331448E0
1.805105420E0,1.123000336E1,-1.085171938E0,-6.528389454E0
1.807593233E0,1.121563816E1,-1.099537134E0,-6.509235859E0
1.810081045E0,1.120606136E1,-1.104325533E0,-6.494870663E0
1.812568858E0,1.119169617E1,-1.118690729E0,-6.470928669E0
1.815056670E0,1.115338898E1,-1.109113932E0,-6.451775074E0
1.817544483E0,1.112465858E1,-1.123479128E0,-6.423044682E0
1.820032295E0,1.111029339E1,-1.152209520E0,-6.365583897E0
1.822520108E0,1.107677460E1,-1.152209520E0,-6.308123112E0
1.825007920E0,1.104325581E1,-1.152209520E0,-6.269815922E0
1.827495733E0,1.098579407E1,-1.142632723E0,-6.221931458E0
1.829983545E0,1.095227528E1,-1.133055925E0,-6.140528679E0
1.832471358E0,1.090917969E1,-1.128267527E0,-6.087856293E0
1.834959170E0,1.084693050E1,-1.128267527E0,-6.049549103E0
1.837446983E0,1.081820011E1,-1.118690729E0,-6.011241913E0
1.839934795E0,1.078946972E1,-1.104325533E0,-5.977723122E0
1.842422608E0,1.076073933E1,-1.099537134E0,-5.953781128E0
1.844910420E0,1.074158573E1,-1.089960337E0,-5.934627533E0
1.847398233E0,1.070327854E1,-1.056441545E0,-5.920262337E0
1.849886045E0,1.065539455E1,-1.037287831E0,-5.910685539E0
1.852373858E0,1.059793377E1,-1.042076349E0,-5.896320343E0
1.854861670E0,1.055483818E1,-1.018134236E0,-5.896320343E0
1.857349483E0,1.052610779E1,-1.027711034E0,-5.901108742E0
1.859837295E0,1.047343540E1,-1.013345838E0,-5.891531944E0
1.862325108E0,1.043033981E1,-9.989806414E-1,-5.862801552E0
1.864812920E0,1.039203262E1,-9.702502489E-1,-5.829282761E0
1.867300733E0,1.034893703E1,-9.319429994E-1,-5.800552368E0
1.869788545E0,1.031541824E1,-8.984242082E-1,-5.795763969E0
1.872276358E0,1.028189945E1,-8.553285599E-1,-5.776610374E0
1.874764170E0,1.025795746E1,-8.265981078E-1,-5.757456303E0
1.877251983E0,1.028189945E1,-7.835025191E-1,-5.747879505E0
1.879739795E0,1.027232265E1,-7.739257216E-1,-5.738302708E0
1.882227608E0,1.028668785E1,-7.691373229E-1,-5.728725910E0
1.884715420E0,1.030105305E1,-7.835025191E-1,-5.728725910E0
1.887203233E0,1.032020664E1,-8.026561141E-1,-5.752667904E0
1.889691045E0,1.036809063E1,-8.122329116E-1,-5.733514309E0
1.892178858E0,1.040639782E1,-8.218097091E-1,-5.676053524E0
1.894666670E0,1.046385860E1,-8.265981078E-1,-5.666476727E0
1.897154483E0,1.049258900E1,-8.313865662E-1,-5.623381138E0
1.899642295E0,1.053568459E1,-8.457517624E-1,-5.589862347E0
1.902130108E0,1.056441498E1,-8.601169586E-1,-5.537189960E0
1.904617920E0,1.062187576E1,-8.649053574E-1,-5.470152378E0
1.907105733E0,1.064102936E1,-8.601169586E-1,-5.407903194E0
1.909593545E0,1.066018295E1,-8.553285599E-1,-5.336077213E0
1.912081358E0,1.068412495E1,-8.361749649E-1,-5.288193226E0
1.914569170E0,1.070806694E1,-8.170213103E-1,-5.240308762E0
1.917056983E0,1.073679733E1,-7.835025191E-1,-5.192424774E0
1.919544795E0,1.076552773E1,-7.691373229E-1,-5.149329185E0
1.922032608E0,1.075595093E1,-7.356184721E-1,-5.120598793E0
1.924520420E0,1.077031612E1,-7.308300734E-1,-5.096656799E0
1.927008233E0,1.076552773E1,-7.116764784E-1,-5.115810394E0
1.929496045E0,1.076073933E1,-6.925228238E-1,-5.101445198E0
1.931983858E0,1.076073933E1,-6.685808301E-1,-5.111021996E0
1.934471670E0,1.076073933E1,-6.398503780E-1,-5.111021996E0
1.936959483E0,1.075116253E1,-6.111199856E-1,-5.130175591E0
1.939447295E0,1.074158573E1,-6.015431881E-1,-5.154117584E0
1.941935108E0,1.073200893E1,-5.440823436E-1,-5.154117584E0
1.944422920E0,1.072722054E1,-5.153518915E-1,-5.187636375E0
1.946910733E0,1.069849014E1,-4.531026781E-1,-5.240308762E0
1.949398545E0,1.066975975E1,-4.004302323E-1,-5.292981625E0
1.951886358E0,1.064102936E1,-3.621230125E-1,-5.383961201E0
1.954374170E0,1.060751057E1,-3.238157928E-1,-5.465363979E0
1.956861983E0,1.056441498E1,-2.711433470E-1,-5.541978359E0
1.959349795E0,1.053089619E1,-2.232593149E-1,-5.637746334E0
1.961837608E0,1.048301220E1,-1.753752679E-1,-5.728725910E0
1.964325420E0,1.045428181E1,-1.179144308E-1,-5.819705963E0
1.966813233E0,1.041118622E1,-8.439560980E-2,-5.910685539E0
1.969301045E0,1.039682102E1,-5.087678507E-2,-6.006453514E0
1.971788858E0,1.038724422E1,-7.781155407E-3,-6.087856293E0
1.974276670E0,1.037766743E1,2.573766746E-2,-6.145317078E0
1.976764483E0,1.041118622E1,5.925649032E-2,-6.231508255E0
1.979252295E0,1.042076302E1,5.925649032E-2,-6.265027523E0
1.981740108E0,1.045428181E1,8.798690885E-2,-6.317699909E0
1.984227920E0,1.047822380E1,9.756372124E-2,-6.365583897E0
1.986715733E0,1.051174259E1,9.277531505E-2,-6.389525890E0
1.989203545E0,1.055962658E1,8.798690885E-2,-6.413467884E0
1.991691358E0,1.061708736E1,8.319851011E-2,-6.408679485E0
1.994179170E0,1.068412495E1,5.925649032E-2,-6.418256283E0
1.996666983E0,1.075116253E1,3.531447425E-2,-6.408679485E0
1.999154795E0,1.080383492E1,2.094926499E-2,-6.389525890E0
2.001642608E0,1.087087250E1,6.584054790E-3,-6.379949093E0
2.004130420E0,1.093312168E1,-1.735796221E-2,-6.360795498E0
2.006618233E0,1.098100567E1,-1.735796221E-2,-6.327276707E0
2.009106045E0,1.105762100E1,-2.214636654E-2,-6.284181118E0
2.011593858E0,1.108635139E1,-2.693476900E-2,-6.288969517E0
2.014081670E0,1.110550499E1,-7.003039867E-2,-6.284181118E0
2.016569483E0,1.110550499E1,-1.035492271E-1,-6.293757915E0
2.019057295E0,1.111029339E1,-1.322796494E-1,-6.265027523E0
2.021545108E0,1.112465858E1,-1.179144308E-1,-6.236296654E0
2.024032920E0,1.111987019E1,-1.179144308E-1,-6.212354660E0
2.026520733E0,1.111508179E1,-1.274912357E-1,-6.169259071E0
2.029008545E0,1.112465858E1,-1.035492271E-1,-6.116586685E0
2.031496358E0,1.109113979E1,-9.397241473E-2,-6.092644691E0
2.033984170E0,1.107198620E1,-8.918401599E-2,-6.059125900E0
2.036471983E0,1.106240940E1,-7.960720360E-2,-6.044760704E0
2.038959795E0,1.105283260E1,-9.397241473E-2,-6.025607109E0
2.041447608E0,1.101452446E1,-1.227028370E-1,-6.016030312E0
2.043935420E0,1.096185207E1,-1.227028370E-1,-6.001665115E0
2.046423233E0,1.089002609E1,-1.274912357E-1,-5.992088318E0
2.048911045E0,1.084693050E1,-1.131260321E-1,-5.958569527E0
2.051398858E0,1.077031612E1,-1.131260321E-1,-5.901108742E0
2.053886670E0,1.070806694E1,-9.876082093E-2,-5.843647957E0
2.056374483E0,1.064102936E1,-9.397241473E-2,-5.771821976E0
2.058862295E0,1.056920338E1,-8.918401599E-2,-5.704783916E0
2.061350108E0,1.050695419E1,-7.003039867E-2,-5.642534733E0
2.063838337E0,1.040160942E1,-3.651157767E-2,-5.585073948E0
2.066326514E0,1.030584145E1,-1.735796221E-2,-5.541978359E0
2.068814326E0,1.022443867E1,6.584054790E-3,-5.503671169E0
2.071302139E0,1.013824749E1,4.489128292E-2,-5.479729176E0
2.073789951E0,1.007120991E1,4.967968538E-2,-5.436633587E0
2.076277764E0,9.975440979E0,4.967968538E-2,-5.393537998E0
2.078765576E0,9.889249802E0,3.531447425E-2,-5.350442410E0
2.081253389E0,9.779116631E0,4.489128292E-2,-5.297770023E0
2.083741201E0,9.683348656E0,5.925649032E-2,-5.249885559E0
2.086229014E0,9.582792282E0,4.967968538E-2,-5.216366768E0
2.088716826E0,9.482235909E0,5.925649032E-2,-5.163694382E0
2.091204639E0,9.410409927E0,7.362170517E-2,-5.115810394E0
2.093692451E0,9.362525940E0,8.798690885E-2,-5.043984413E0
2.096180264E0,9.305065155E0,9.277531505E-2,-4.996100426E0
2.098668076E0,9.228450775E0,9.277531505E-2,-4.929062843E0
2.101155889E0,9.170989990E0,9.756372124E-2,-4.866813660E0
2.103644274E0,9.113529205E0,8.798690885E-2,-4.818929672E0
2.106131566E0,9.075222015E0,7.841010392E-2,-4.751891613E0
2.108618858E0,9.046490669E0,5.446808785E-2,-4.660912037E0
2.111106149E0,9.032125473E0,3.052607179E-2,-4.608239651E0
2.113593493E0,9.032125473E0,2.094926499E-2,-4.550778866E0
2.116080889E0,9.036913872E0,1.137245819E-2,-4.464587688E0
2.118568337E0,9.017760277E0,-2.992752008E-3,-4.407126904E0
2.121055889E0,9.003395081E0,-1.735796221E-2,-4.335300922E0
2.123543545E0,8.979453087E0,-1.256955881E-2,-4.234744072E0
2.126031306E0,8.974664688E0,-2.214636654E-2,-4.143764496E0
2.128519170E0,8.974664688E0,-2.693476900E-2,-4.057573318E0
2.131007139E0,8.965087891E0,-4.129998013E-2,-3.976170540E0
2.133495160E0,8.969876289E0,-5.566519126E-2,-3.928286552E0
2.135983233E0,8.974664688E0,-7.003039867E-2,-3.861248732E0
2.138471358E0,8.989029884E0,-7.481880486E-2,-3.798999548E0
2.140959535E0,8.989029884E0,-8.918401599E-2,-3.755903959E0
2.143447712E0,8.989029884E0,-1.131260321E-1,-3.708019972E0
2.145935889E0,8.969876289E0,-1.227028370E-1,-3.645770550E0
2.148424066E0,8.960299492E0,-1.322796494E-1,-3.583521366E0
2.150912243E0,8.931569099E0,-1.322796494E-1,-3.526060581E0
2.153400056E0,8.921992302E0,-1.131260321E-1,-3.459022999E0
2.155887868E0,8.898050308E0,-1.131260321E-1,-3.411138773E0
2.158375681E0,8.878896713E0,-1.131260321E-1,-3.391985178E0
2.160863493E0,8.864531517E0,-1.179144308E-1,-3.377619982E0
2.163351306E0,8.850166321E0,-1.179144308E-1,-3.344101191E0
2.165839118E0,8.831012726E0,-1.035492271E-1,-3.339312792E0
2.168326931E0,8.802282333E0,-1.227028370E-1,-3.339312792E0
2.170814743E0,8.783128738E0,-1.179144308E-1,-3.348889589E0
2.173302556E0,8.759186745E0,-1.274912357E-1,-3.324947596E0
2.175790368E0,8.744821548E0,-1.322796494E-1,-3.315370798E0
2.178278181E0,8.716091156E0,-1.418564469E-1,-3.315370798E0
2.180765993E0,8.658630371E0,-1.418564469E-1,-3.301005602E0
2.183253806E0,8.625111580E0,-1.466448605E-1,-3.296217203E0
2.185741618E0,8.596381187E0,-1.418564469E-1,-3.310582399E0
2.188229431E0,8.562862396E0,-1.370680481E-1,-3.291428804E0
2.190717243E0,8.534132004E0,-1.418564469E-1,-3.277063608E0
2.193205056E0,8.500613213E0,-1.466448605E-1,-3.243544817E0
2.195692868E0,8.452729225E0,-1.322796494E-1,-3.253121614E0
2.198180681E0,8.385691643E0,-1.179144308E-1,-3.233968019E0
2.200668493E0,8.323442459E0,-7.960720360E-2,-3.210026026E0
2.203156306E0,8.265981674E0,-4.608838260E-2,-3.200449228E0
2.205644118E0,8.227674484E0,-3.651157767E-2,-3.210026026E0
2.208131931E0,8.213309288E0,-1.735796221E-2,-3.200449228E0
2.210619743E0,8.194155693E0,1.137245819E-2,-3.186083794E0
2.213107556E0,8.184578896E0,1.616086066E-2,-3.181295395E0
2.215595368E0,8.184578896E0,6.584054790E-3,-3.181295395E0
2.218083181E0,8.213309288E0,1.137245819E-2,-3.176506996E0
2.220570993E0,8.242039680E0,-2.214636654E-2,-3.166930199E0
2.223058806E0,8.280346870E0,-5.087678507E-2,-3.162141800E0
2.225546618E0,8.313865662E0,-6.045359373E-2,-3.152565002E0
2.228034431E0,8.356961250E0,-8.439560980E-2,-3.128623009E0
2.230522243E0,8.419210434E0,-1.227028370E-1,-3.090315819E0
2.233010056E0,8.443152428E0,-1.370680481E-1,-3.090315819E0
2.235497868E0,8.476671219E0,-1.514332592E-1,-3.066373825E0
2.237985681E0,8.500613213E0,-1.753752679E-1,-3.080739021E0
2.240473493E0,8.519766808E0,-1.657984704E-1,-3.047220230E0
2.242961306E0,8.529343605E0,-1.610100716E-1,-3.023278236E0
2.245449118E0,8.519766808E0,-1.610100716E-1,-3.008913040E0
2.247936931E0,8.529343605E0,-1.657984704E-1,-2.970605850E0
2.250424743E0,8.538920403E0,-1.514332592E-1,-2.937086821E0
2.252912556E0,8.529343605E0,-1.514332592E-1,-2.913144827E0
2.255400368E0,8.538920403E0,-1.418564469E-1,-2.913144827E0
2.257888181E0,8.538920403E0,-1.466448605E-1,-2.927510023E0
2.260375993E0,8.514978409E0,-1.227028370E-1,-2.932298422E0
2.262863806E0,8.476671219E0,-1.083376259E-1,-2.941875219E0
2.265351618E0,8.443152428E0,-9.397241473E-2,-2.951452255E0
2.267839431E0,8.409633636E0,-8.918401599E-2,-2.965817451E0
2.270327243E0,8.361749649E0,-7.003039867E-2,-2.984971046E0
2.272815056E0,8.304288864E0,-6.045359373E-2,-3.008913040E0
2.275302868E0,8.289923668E0,-6.524199992E-2,-3.023278236E0
2.277790681E0,8.256404877E0,-6.524199992E-2,-3.023278236E0
2.280278493E0,8.203732491E0,-7.481880486E-2,-3.037643433E0
2.282766306E0,8.170213699E0,-7.481880486E-2,-3.037643433E0
2.285254118E0,8.151060104E0,-7.003039867E-2,-3.042431831E0
2.287741931E0,8.103176117E0,-7.960720360E-2,-3.047220230E0
2.290229743E0,8.074444771E0,-7.960720360E-2,-3.042431831E0
2.292717556E0,8.026560783E0,-1.035492271E-1,-3.013701439E0
2.295205368E0,7.983465672E0,-1.179144308E-1,-3.013701439E0
2.297693181E0,7.940370083E0,-1.322796494E-1,-2.994547844E0
2.300180993E0,7.930793285E0,-1.466448605E-1,-2.941875219E0
2.302668806E0,7.882909298E0,-1.657984704E-1,-2.917933226E0
2.305156618E0,7.844601631E0,-1.657984704E-1,-2.898779631E0
2.307644431E0,7.801506042E0,-1.657984704E-1,-2.865260839E0
2.310132243E0,7.763198853E0,-1.514332592E-1,-2.865260839E0
2.312620056E0,7.705738068E0,-1.610100716E-1,-2.865260839E0
2.315107868E0,7.653065681E0,-1.610100716E-1,-2.879626036E0
2.317595681E0,7.609970093E0,-1.562216580E-1,-2.855684042E0
2.320083493E0,7.557297707E0,-1.753752679E-1,-2.826953650E0
2.322571306E0,7.514202118E0,-2.041056901E-1,-2.817376852E0
2.325059118E0,7.466318130E0,-2.088941038E-1,-2.788646460E0
2.327546931E0,7.437587738E0,-2.232593149E-1,-2.769492865E0
2.330034743E0,7.413645744E0,-2.376245260E-1,-2.740762472E0
2.332522556E0,7.394492149E0,-2.615665495E-1,-2.707243681E0
2.335010368E0,7.389703751E0,-2.567781210E-1,-2.654571056E0
2.337498181E0,7.370550156E0,-2.663549483E-1,-2.616263866E0
2.339985993E0,7.365761757E0,-2.663549483E-1,-2.558803082E0
2.342473806E0,7.399280548E0,-2.615665495E-1,-2.491765499E0
2.344961618E0,7.413645744E0,-2.567781210E-1,-2.448669672E0
2.347449431E0,7.423222542E0,-2.615665495E-1,-2.424727678E0
2.349937243E0,7.432799339E0,-2.424129248E-1,-2.352901697E0
2.352425056E0,7.432799339E0,-2.232593149E-1,-2.324171305E0
2.354912868E0,7.437587738E0,-2.280477136E-1,-2.300229311E0
2.357400681E0,7.432799339E0,-2.088941038E-1,-2.233191729E0
2.359888493E0,7.413645744E0,-2.041056901E-1,-2.204461098E0
2.362376306E0,7.389703751E0,-2.041056901E-1,-2.170942307E0
2.364864118E0,7.394492149E0,-1.897404790E-1,-2.132635117E0
2.367351931E0,7.394492149E0,-1.849520802E-1,-2.137423515E0
2.369839743E0,7.394492149E0,-1.610100716E-1,-2.151788712E0
2.372327556E0,7.408857346E0,-1.562216580E-1,-2.175730705E0
2.374815368E0,7.408857346E0,-1.562216580E-1,-2.209249735E0
2.377303181E0,7.408857346E0,-1.322796494E-1,-2.247556925E0
2.379790993E0,7.399280548E0,-1.227028370E-1,-2.300229311E0
2.382278806E0,7.389703751E0,-1.274912357E-1,-2.348113298E0
2.384766618E0,7.384915352E0,-1.227028370E-1,-2.376843691E0
2.387254431E0,7.389703751E0,-9.876082093E-2,-2.424727678E0
2.389742243E0,7.370550156E0,-1.035492271E-1,-2.486977100E0
2.392230056E0,7.375338554E0,-1.035492271E-1,-2.515707493E0
2.394717868E0,7.380126953E0,-1.083376259E-1,-2.554014683E0
2.397205681E0,7.375338554E0,-9.397241473E-2,-2.597110271E0
2.399693493E0,7.370550156E0,-9.876082093E-2,-2.659359455E0
2.402181306E0,7.380126953E0,-9.397241473E-2,-2.735974073E0
2.404669118E0,7.394492149E0,-1.035492271E-1,-2.798223257E0
2.407156931E0,7.404068947E0,-1.274912357E-1,-2.831742048E0
2.409644743E0,7.404068947E0,-1.562216580E-1,-2.874837637E0
2.412132556E0,7.375338554E0,-1.657984704E-1,-2.908356428E0
2.414620368E0,7.356184959E0,-1.610100716E-1,-2.913144827E0
2.417108181E0,7.337030888E0,-1.610100716E-1,-2.932298422E0
2.419595993E0,7.308300495E0,-1.610100716E-1,-2.975394249E0
2.422083806E0,7.289146900E0,-1.610100716E-1,-2.994547844E0
2.424571618E0,7.274781704E0,-1.418564469E-1,-3.018489838E0
2.427059431E0,7.255628109E0,-1.227028370E-1,-3.042431831E0
2.429547243E0,7.246051311E0,-1.179144308E-1,-3.075950623E0
2.432035056E0,7.241262913E0,-9.397241473E-2,-3.123834610E0
2.434522868E0,7.226897717E0,-8.439560980E-2,-3.152565002E0
2.437010681E0,7.231686115E0,-7.003039867E-2,-3.176506996E0
2.439498493E0,7.226897717E0,-4.608838260E-2,-3.186083794E0
2.441986306E0,7.231686115E0,-4.608838260E-2,-3.186083794E0
2.444474118E0,7.241262913E0,-3.172317147E-2,-3.205237627E0
2.446961931E0,7.236474514E0,-1.735796221E-2,-3.224391222E0
2.449449743E0,7.231686115E0,-1.256955881E-2,-3.233968019E0
2.451937556E0,7.236474514E0,-1.735796221E-2,-3.229179621E0
2.454425368E0,7.241262913E0,-1.256955881E-2,-3.224391222E0
2.456913181E0,7.250839710E0,-1.735796221E-2,-3.219602823E0
2.459400993E0,7.265204906E0,-1.256955881E-2,-3.229179621E0
2.461888806E0,7.269993305E0,-2.693476900E-2,-3.243544817E0
2.464376618E0,7.289146900E0,-3.651157767E-2,-3.238756418E0
2.466864431E0,7.322665691E0,-4.608838260E-2,-3.248333216E0
2.469352243E0,7.327454090E0,-5.566519126E-2,-3.238756418E0
2.471840056E0,7.332242489E0,-6.524199992E-2,-3.224391222E0
2.474327868E0,7.346607685E0,-7.003039867E-2,-3.224391222E0
2.476815681E0,7.375338554E0,-5.087678507E-2,-3.210026026E0
2.479303493E0,7.389703751E0,-2.214636654E-2,-3.166930199E0
2.481791306E0,7.384915352E0,-2.693476900E-2,-3.162141800E0
2.484279118E0,7.380126953E0,-1.735796221E-2,-3.138199806E0
2.486766931E0,7.370550156E0,-1.256955881E-2,-3.123834610E0
2.489254743E0,7.360973358E0,1.795651275E-3,-3.066373825E0
2.491742556E0,7.337030888E0,6.584054790E-3,-3.047220230E0
2.494230368E0,7.317877293E0,1.616086066E-2,-2.994547844E0
2.496718181E0,7.303512096E0,1.616086066E-2,-2.970605850E0
2.499205993E0,7.308300495E0,1.616086066E-2,-2.927510023E0
2.501693806E0,7.293935299E0,1.616086066E-2,-2.898779631E0
2.504181618E0,7.298723698E0,1.137245819E-2,-2.889202833E0
2.506669431E0,7.284358501E0,1.616086066E-2,-2.879626036E0
2.509157243E0,7.279570103E0,3.052607179E-2,-2.860472441E0
2.511645056E0,7.298723698E0,2.094926499E-2,-2.846107244E0
2.514132868E0,7.279570103E0,2.573766746E-2,-2.826953650E0
2.516620681E0,7.265204906E0,2.094926499E-2,-2.793434858E0
2.519108493E0,7.246051311E0,2.573766746E-2,-2.764704466E0
2.521596306E0,7.241262913E0,1.616086066E-2,-2.716820478E0
2.524084118E0,7.236474514E0,1.137245819E-2,-2.659359455E0
2.526571931E0,7.246051311E0,6.584054790E-3,-2.606687069E0
2.529059743E0,7.226897717E0,1.795651275E-3,-2.554014683E0
2.531547556E0,7.207744122E0,1.795651275E-3,-2.515707493E0
2.534035368E0,7.188590527E0,-1.256955881E-2,-2.510919094E0
2.536523181E0,7.179013729E0,-1.735796221E-2,-2.467823505E0
2.539010993E0,7.159860134E0,-4.608838260E-2,-2.439092875E0
2.541498806E0,7.135918140E0,-6.045359373E-2,-2.410362482E0
2.543986618E0,7.116764545E0,-1.035492271E-1,-2.381632090E0
2.546474431E0,7.064092159E0,-1.035492271E-1,-2.343324900E0
2.548962243E0,7.030573368E0,-1.370680481E-1,-2.309806108E0
2.551450056E0,7.001842976E0,-1.562216580E-1,-2.276287317E0
2.553937868E0,6.997054577E0,-1.610100716E-1,-2.257133722E0
2.556425681E0,6.968324184E0,-1.801636815E-1,-2.218826532E0
2.558913493E0,6.944382191E0,-1.945288926E-1,-2.194884300E0
2.561401306E0,6.939593792E0,-2.136825025E-1,-2.180519104E0
2.563889118E0,6.920440197E0,-2.328361124E-1,-2.170942307E0
2.566376931E0,6.920440197E0,-2.615665495E-1,-2.147000313E0
2.568864743E0,6.920440197E0,-2.855085433E-1,-2.147000313E0
2.571352556E0,6.925228596E0,-3.190273643E-1,-2.147000313E0
2.573840368E0,6.930016994E0,-3.621230125E-1,-2.123058319E0
2.576328181E0,6.953958988E0,-4.052186310E-1,-2.108693123E0
2.578815993E0,6.958747387E0,-4.195838571E-1,-2.099116325E0
2.581303806E0,6.953958988E0,-4.339490533E-1,-2.075174332E0
2.583791618E0,6.934805393E0,-4.435258508E-1,-2.051232338E0
2.586279431E0,6.925228596E0,-4.531026781E-1,-2.027290344E0
2.588767243E0,6.896498203E0,-4.722562730E-1,-2.012925148E0
2.591255056E0,6.896498203E0,-4.770447016E-1,-1.993771434E0
2.593742868E0,6.901286602E0,-4.722562730E-1,-1.960252643E0
2.596230681E0,6.896498203E0,-4.674678743E-1,-1.931522250E0
2.598718493E0,6.853402138E0,-4.866214991E-1,-1.912368655E0
2.601206306E0,6.834248543E0,-5.009866953E-1,-1.888426542E0
2.603694118E0,6.824671745E0,-5.057750940E-1,-1.864484549E0
2.606181931E0,6.800729752E0,-5.201402903E-1,-1.835754156E0
2.608669743E0,6.800729752E0,-5.488707423E-1,-1.816600561E0
2.611157556E0,6.776787758E0,-5.680243373E-1,-1.802235365E0
2.613645368E0,6.771999359E0,-5.919663906E-1,-1.802235365E0
2.616133181E0,6.767210960E0,-6.159083843E-1,-1.792658567E0
2.618620993E0,6.762422562E0,-6.159083843E-1,-1.783081770E0
2.621108806E0,6.786364555E0,-6.159083843E-1,-1.787870169E0
2.623596618E0,6.791152954E0,-6.206967831E-1,-1.821388960E0
2.626084431E0,6.791152954E0,-6.398503780E-1,-1.840542555E0
2.628572243E0,6.800729752E0,-6.542156339E-1,-1.835754156E0
2.631060056E0,6.810306549E0,-6.542156339E-1,-1.840542555E0
2.633547868E0,6.819883347E0,-6.685808301E-1,-1.835754156E0
2.636035681E0,6.834248543E0,-6.733692288E-1,-1.840542555E0
2.638523493E0,6.848613739E0,-6.877344251E-1,-1.830965757E0
2.641011306E0,6.867767811E0,-7.116764784E-1,-1.816600561E0
2.643499118E0,6.877344608E0,-7.164648771E-1,-1.807023764E0
2.645986931E0,6.886921406E0,-7.212532759E-1,-1.778293371E0
2.648474743E0,6.901286602E0,-7.308300734E-1,-1.802235365E0
2.650962556E0,6.925228596E0,-7.212532759E-1,-1.821388960E0
2.653450368E0,6.949170589E0,-7.308300734E-1,-1.821388960E0
2.655938181E0,6.973112583E0,-7.356184721E-1,-1.845330954E0
2.658425993E0,7.001842976E0,-7.547720671E-1,-1.888426542E0
2.660913806E0,7.054515362E0,-7.643488646E-1,-1.926733851E0
2.663401618E0,7.083245754E0,-7.595604658E-1,-1.945887446E0
2.665889431E0,7.107187748E0,-7.739257216E-1,-1.955464244E0
2.668377243E0,7.159860134E0,-7.787141204E-1,-1.993771434E0
2.670865056E0,7.207744122E0,-7.930793166E-1,-2.022501945E0
2.673352868E0,7.265204906E0,-7.787141204E-1,-2.056020737E0
2.675840681E0,7.322665691E0,-7.691373229E-1,-2.065597534E0
2.678328493E0,7.389703751E0,-7.595604658E-1,-2.103904724E0
2.680816306E0,7.447164536E0,-7.595604658E-1,-2.118269920E0
2.683304118E0,7.518990517E0,-7.547720671E-1,-2.127846718E0
2.685791931E0,7.590816498E0,-7.787141204E-1,-2.166153908E0
2.688279743E0,7.662642479E0,-7.787141204E-1,-2.194884300E0
2.690767556E0,7.748833656E0,-7.787141204E-1,-2.209249735E0
2.693255368E0,7.815871239E0,-7.835025191E-1,-2.247556925E0
2.695743181E0,7.892486095E0,-8.026561141E-1,-2.266710520E0
2.698230993E0,7.949946880E0,-7.787141204E-1,-2.257133722E0
2.700718806E0,7.997830868E0,-7.643488646E-1,-2.276287317E0
2.703206618E0,8.064867973E0,-7.356184721E-1,-2.266710520E0
2.705694431E0,8.122329712E0,-7.164648771E-1,-2.223614931E0
2.708182243E0,8.189367294E0,-6.637924314E-1,-2.209249735E0
2.710670056E0,8.270770073E0,-6.254851818E-1,-2.185307503E0
2.713157868E0,8.333019257E0,-5.919663906E-1,-2.166153908E0
2.715645681E0,8.404845238E0,-5.632359385E-1,-2.127846718E0
2.718133493E0,8.481459618E0,-5.392939448E-1,-2.113481522E0
2.720621306E0,8.543708801E0,-5.153518915E-1,-2.123058319E0
2.723109118E0,8.620323181E0,-4.914098978E-1,-2.108693123E0
2.725596931E0,8.711302757E0,-4.961982965E-1,-2.113481522E0
2.728084743E0,8.773551941E0,-5.009866953E-1,-2.094327927E0
2.730572556E0,8.835801125E0,-4.674678743E-1,-2.089539528E0
2.733060368E0,8.907627106E0,-4.435258508E-1,-2.079962730E0
2.735548181E0,8.979453087E0,-4.291606545E-1,-2.075174332E0
2.738035993E0,9.032125473E0,-4.100070298E-1,-2.075174332E0
2.740523806E0,9.084798813E0,-3.716998100E-1,-2.065597534E0
2.743011618E0,9.142259598E0,-3.477577865E-1,-2.060809135E0
2.745499431E0,9.194931984E0,-3.238157928E-1,-2.079962730E0
2.747987243E0,9.266757965E0,-2.998737693E-1,-2.103904724E0
2.750475056E0,9.324218750E0,-2.902969420E-1,-2.156577110E0
2.752962868E0,9.381679535E0,-2.902969420E-1,-2.180519104E0
2.755450681E0,9.419986725E0,-2.950853705E-1,-2.214038134E0
2.757938493E0,9.472659111E0,-2.759317458E-1,-2.242768526E0
2.760426306E0,9.501389503E0,-2.855085433E-1,-2.290652514E0
2.762914118E0,9.539696693E0,-2.807201445E-1,-2.319382906E0
2.765401931E0,9.578003883E0,-2.855085433E-1,-2.352901697E0
2.767889743E0,9.606734276E0,-2.902969420E-1,-2.395997286E0
2.770377556E0,9.635464668E0,-2.855085433E-1,-2.443881273E0
2.772865368E0,9.683348656E0,-2.663549483E-1,-2.453458309E0
2.775353181E0,9.716867447E0,-2.711433470E-1,-2.482188702E0
2.777840993E0,9.750386238E0,-2.759317458E-1,-2.544437885E0
2.780328806E0,9.793481827E0,-2.759317458E-1,-2.582745075E0
2.782816618E0,9.836577415E0,-2.807201445E-1,-2.659359455E0
2.785304431E0,9.903614998E0,-2.807201445E-1,-2.716820478E0
2.787792243E0,9.951498985E0,-3.046621680E-1,-2.759916067E0
2.790280056E0,9.989806175E0,-3.094505668E-1,-2.788646460E0
2.792767868E0,1.002811337E1,-3.238157928E-1,-2.841318846E0
2.795255681E0,1.006642151E1,-3.286041915E-1,-2.889202833E0
2.797743493E0,1.010951710E1,-3.381809890E-1,-2.922721624E0
2.800231306E0,1.012867069E1,-3.573346138E-1,-2.961029053E0
2.802719118E0,1.016697788E1,-3.669114113E-1,-3.018489838E0
2.805206931E0,1.021486187E1,-3.812766075E-1,-3.042431831E0
2.807694743E0,1.024838066E1,-3.812766075E-1,-3.061585426E0
2.810182556E0,1.027232265E1,-3.812766075E-1,-3.109469414E0
2.812670368E0,1.031062984E1,-3.956418335E-1,-3.128623009E0
2.815158181E0,1.035372543E1,-4.004302323E-1,-3.138199806E0
2.817645993E0,1.040639782E1,-4.052186310E-1,-3.133411407E0
2.820133806E0,1.045907021E1,-4.147954583E-1,-3.157353401E0
2.822621618E0,1.052131939E1,-4.339490533E-1,-3.157353401E0
2.825109431E0,1.057399178E1,-4.578910768E-1,-3.147776604E0
2.827597243E0,1.060751057E1,-4.578910768E-1,-3.162141800E0
2.830085056E0,1.066975975E1,-4.722562730E-1,-3.142988205E0
2.832572868E0,1.071764374E1,-4.818331003E-1,-3.104681015E0
2.835060681E0,1.078468132E1,-5.105634928E-1,-3.056797028E0
2.837548493E0,1.083735371E1,-5.105634928E-1,-3.008913040E0
2.840036306E0,1.087087250E1,-5.057750940E-1,-2.946663857E0
2.842524118E0,1.093312168E1,-5.009866953E-1,-2.879626036E0
2.845011931E0,1.098579407E1,-4.961982965E-1,-2.798223257E0
2.847499743E0,1.100973606E1,-4.961982965E-1,-2.716820478E0
2.849987556E0,1.106719780E1,-4.818331003E-1,-2.644994259E0
2.852475368E0,1.110071659E1,-4.626794755E-1,-2.573168278E0
2.854963181E0,1.112465858E1,-4.387374520E-1,-2.491765499E0
2.857450993E0,1.115817738E1,-4.052186310E-1,-2.391208887E0
2.859938806E0,1.119169617E1,-3.764882088E-1,-2.295440912E0
2.862426618E0,1.119169617E1,-3.286041915E-1,-2.204461098E0
2.864914431E0,1.121084976E1,-2.855085433E-1,-2.113481522E0
2.867402243E0,1.121084976E1,-2.424129248E-1,-2.027290344E0
2.869890056E0,1.119648457E1,-1.945288926E-1,-1.941099048E0
2.872377868E0,1.117733097E1,-1.274912357E-1,-1.869272947E0
2.874865681E0,1.114381218E1,-7.003039867E-2,-1.807023764E0
2.877353493E0,1.110071659E1,-2.214636654E-2,-1.749562860E0
2.879841306E0,1.106240940E1,6.584054790E-3,-1.730409265E0
2.882329118E0,1.100494766E1,7.841010392E-2,-1.706467271E0
2.884816931E0,1.093312168E1,1.454477459E-1,-1.716044068E0
2.887304743E0,1.085171890E1,1.981201917E-1,-1.725620866E0
2.889792556E0,1.077989292E1,2.460042238E-1,-1.759139657E0
2.892280368E0,1.069849014E1,3.034650683E-1,-1.778293371E0
2.894768181E0,1.060272217E1,3.657143116E-1,-1.835754156E0
2.897255993E0,1.050216579E1,4.088099301E-1,-1.883638144E0
2.899743806E0,1.039682102E1,4.902127981E-1,-1.960252643E0
2.902231618E0,1.028668785E1,5.524620414E-1,-2.008136749E0
2.904719431E0,1.017176628E1,5.764040351E-1,-2.060809135E0
2.907207243E0,1.004247856E1,6.242880821E-1,-2.103904724E0
2.909695056E0,9.927556992E0,6.769605279E-1,-2.170942307E0
2.912182868E0,9.803058624E0,7.104793787E-1,-2.237980127E0
2.914670681E0,9.702502251E0,7.392097712E-1,-2.324171305E0
2.917158493E0,9.611522675E0,7.727286220E-1,-2.386420488E0
2.919646306E0,9.539696693E0,7.966706157E-1,-2.439092875E0
2.922134118E0,9.458293915E0,8.206126094E-1,-2.491765499E0
2.924621931E0,9.396044731E0,8.493430614E-1,-2.530072689E0
2.927109743E0,9.305065155E0,8.637082577E-1,-2.616263866E0
2.929597556E0,9.223662376E0,8.732850552E-1,-2.688089848E0
2.932085368E0,9.166201591E0,8.780734539E-1,-2.755127668E0
2.934573181E0,9.089587212E0,8.924387097E-1,-2.826953650E0
2.937060993E0,8.998606682E0,9.020155072E-1,-2.879626036E0
2.939548806E0,8.950722694E0,9.211691022E-1,-2.941875219E0
2.942036618E0,8.898050308E0,9.259575009E-1,-2.980182648E0
2.944524431E0,8.854954720E0,9.403226972E-1,-3.013701439E0
2.947012243E0,8.792705536E0,9.498994946E-1,-3.052008629E0
2.949500056E0,8.759186745E0,9.546879530E-1,-3.104681015E0
2.951987868E0,8.740033150E0,9.498994946E-1,-3.133411407E0
2.954475681E0,8.740033150E0,9.259575009E-1,-3.152565002E0
2.956963493E0,8.730456352E0,9.115923047E-1,-3.190872431E0
2.959451306E0,8.706514359E0,8.828618526E-1,-3.214814425E0
2.961939118E0,8.711302757E0,8.493430614E-1,-3.248333216E0
2.964426931E0,8.687360764E0,8.301894665E-1,-3.272275209E0
2.966914743E0,8.701725960E0,7.966706157E-1,-3.286640406E0
2.969402556E0,8.720879555E0,7.775170207E-1,-3.286640406E0
2.971890368E0,8.740033150E0,7.296329737E-1,-3.281852007E0
2.974378181E0,8.744821548E0,7.056909800E-1,-3.272275209E0
2.976865993E0,8.759186745E0,7.009025216E-1,-3.277063608E0
2.979353806E0,8.792705536E0,6.817489266E-1,-3.277063608E0
2.981841618E0,8.807070732E0,6.578069329E-1,-3.248333216E0
2.984329431E0,8.811859131E0,6.386532784E-1,-3.243544817E0
2.986817243E0,8.821435928E0,6.194996834E-1,-3.253121614E0
2.989305056E0,8.845377922E0,6.003460884E-1,-3.243544817E0
2.991792868E0,8.869319916E0,5.859808922E-1,-3.219602823E0
2.994280681E0,8.878896713E0,5.907692909E-1,-3.195660830E0
2.996768493E0,8.893261909E0,5.955576897E-1,-3.190872431E0
2.999256306E0,8.902838707E0,6.003460884E-1,-3.205237627E0
3.001744118E0,8.898050308E0,5.907692909E-1,-3.210026026E0
3.004231931E0,8.907627106E0,5.907692909E-1,-3.205237627E0
3.006719743E0,8.912415504E0,6.003460884E-1,-3.214814425E0
3.009207556E0,8.917203903E0,5.955576897E-1,-3.214814425E0
3.011695368E0,8.936357498E0,5.955576897E-1,-3.190872431E0
3.014183181E0,8.926780701E0,5.907692909E-1,-3.166930199E0
3.016670993E0,8.926780701E0,5.859808922E-1,-3.152565002E0
3.019158806E0,8.926780701E0,5.764040351E-1,-3.128623009E0
3.021646618E0,8.907627106E0,5.907692909E-1,-3.095104218E0
3.024134431E0,8.907627106E0,5.955576897E-1,-3.056797028E0
3.026622243E0,8.888473511E0,6.003460884E-1,-3.028066635E0
3.029110056E0,8.893261909E0,5.955576897E-1,-2.980182648E0
3.031597868E0,8.917203903E0,6.099228859E-1,-2.941875219E0
3.034085681E0,8.921992302E0,6.242880821E-1,-2.903568029E0
3.036573493E0,8.912415504E0,6.434416771E-1,-2.831742048E0
3.039061306E0,8.926780701E0,6.530185342E-1,-2.788646460E0
3.041549118E0,8.950722694E0,6.386532784E-1,-2.707243681E0
3.044036931E0,8.969876289E0,6.338648796E-1,-2.644994259E0
3.046524743E0,8.993818283E0,6.338648796E-1,-2.577956676E0
3.049012556E0,9.008183479E0,6.578069329E-1,-2.496553898E0
3.051500368E0,9.046490669E0,6.530185342E-1,-2.424727678E0
3.053988181E0,9.060855865E0,6.721721292E-1,-2.357690096E0
3.056475993E0,9.084798813E0,6.673837304E-1,-2.295440912E0
3.058963806E0,9.103952408E0,6.673837304E-1,-2.247556925E0
3.061451618E0,9.147047997E0,6.721721292E-1,-2.185307503E0
3.063939431E0,9.170989990E0,6.721721292E-1,-2.108693123E0
3.066427243E0,9.199720383E0,6.769605279E-1,-2.046443939E0
3.068915056E0,9.238027573E0,6.625953317E-1,-1.979406238E0
3.071402868E0,9.290699959E0,6.721721292E-1,-1.917157054E0
3.073890681E0,9.319430351E0,6.817489266E-1,-1.874061346E0
3.076378493E0,9.357737541E0,6.721721292E-1,-1.826177359E0
3.078866306E0,9.400833130E0,6.673837304E-1,-1.763928056E0
3.081354118E0,9.453505516E0,6.578069329E-1,-1.763928056E0
3.083842087E0,9.477447510E0,6.578069329E-1,-1.725620866E0
3.086330056E0,9.506177902E0,6.530185342E-1,-1.682525277E0
3.088818024E0,9.520543098E0,6.673837304E-1,-1.668160081E0
3.091305993E0,9.549273491E0,6.721721292E-1,-1.649006367E0
3.093793962E0,9.578003883E0,6.721721292E-1,-1.644217968E0
3.096281931E0,9.592369080E0,6.769605279E-1,-1.658583283E0
3.098769795E0,9.597157478E0,6.769605279E-1,-1.672948480E0
3.101257608E0,9.611522675E0,6.769605279E-1,-1.692102075E0
3.103745420E0,9.616311073E0,6.817489266E-1,-1.720832467E0
3.106233233E0,9.640253067E0,6.673837304E-1,-1.749562860E0
3.108721045E0,9.654618263E0,6.578069329E-1,-1.787870169E0
3.111208858E0,9.659406662E0,6.578069329E-1,-1.845330954E0
3.113696670E0,9.664195061E0,6.673837304E-1,-1.898003340E0
3.116184483E0,9.668983459E0,6.482301354E-1,-1.945887446E0
3.118672295E0,9.683348656E0,6.482301354E-1,-2.012925148E0
3.121160108E0,9.673771858E0,6.434416771E-1,-2.079962730E0
3.123648233E0,9.673771858E0,6.482301354E-1,-2.137423515E0
3.126135733E0,9.678560257E0,6.386532784E-1,-2.204461098E0
3.128623233E0,9.688137054E0,6.290764809E-1,-2.295440912E0
3.131110733E0,9.678560257E0,6.242880821E-1,-2.376843691E0
3.133598233E0,9.683348656E0,5.955576897E-1,-2.458246708E0
3.136085733E0,9.678560257E0,5.955576897E-1,-2.520495892E0
3.138573285E0,9.702502251E0,5.716156363E-1,-2.577956676E0
3.141060889E0,9.702502251E0,5.572504401E-1,-2.659359455E0
3.143548545E0,9.707290649E0,5.428852439E-1,-2.740762472E0
3.146036253E0,9.736021042E0,5.428852439E-1,-2.783858061E0
3.148524014E0,9.745597839E0,5.237316489E-1,-2.850895643E0
3.151011826E0,9.740809441E0,5.237316489E-1,-2.917933226E0
3.153499691E0,9.755174637E0,5.189431906E-1,-2.975394249E0
3.155987608E0,9.750386238E0,5.045779943E-1,-3.042431831E0
3.158475576E0,9.779116631E0,5.045779943E-1,-3.099892616E0
3.160963597E0,9.764751434E0,4.997895956E-1,-3.133411407E0
3.163451670E0,9.783905029E0,4.758476019E-1,-3.162141800E0
3.165939743E0,9.788693428E0,4.854243994E-1,-3.190872431E0
3.168427816E0,9.793481827E0,4.710591733E-1,-3.219602823E0
3.170915889E0,9.803058624E0,4.662707746E-1,-3.262698412E0
3.173403962E0,9.793481827E0,4.614823759E-1,-3.281852007E0
3.175892035E0,9.803058624E0,4.662707746E-1,-3.301005602E0
3.178379847E0,9.798270226E0,4.710591733E-1,-3.324947596E0
3.180867660E0,9.783905029E0,4.566939771E-1,-3.329735994E0
3.183355472E0,9.779116631E0,4.710591733E-1,-3.363254786E0
3.185843285E0,9.764751434E0,4.662707746E-1,-3.391985178E0
3.188331097E0,9.755174637E0,4.519055784E-1,-3.401561975E0
3.190818910E0,9.740809441E0,4.423287511E-1,-3.415927172E0
3.193306722E0,9.731232643E0,4.471171796E-1,-3.454234600E0
3.195794535E0,9.736021042E0,4.471171796E-1,-3.478176594E0
3.198282347E0,9.721655846E0,4.183867574E-1,-3.478176594E0
3.200770160E0,9.721655846E0,4.183867574E-1,-3.502118587E0
3.203257972E0,9.702502251E0,4.040215313E-1,-3.516483784E0
3.205745785E0,9.692925453E0,4.135983288E-1,-3.516483784E0
3.208233597E0,9.702502251E0,4.040215313E-1,-3.535637379E0
3.210721410E0,9.702502251E0,3.848679364E-1,-3.554790974E0
3.213209222E0,9.692925453E0,3.848679364E-1,-3.526060581E0
3.215697035E0,9.702502251E0,3.752911091E-1,-3.516483784E0
3.218184847E0,9.683348656E0,3.513490856E-1,-3.521272182E0
3.220672660E0,9.673771858E0,3.369838893E-1,-3.506906986E0
3.223160472E0,9.664195061E0,3.226186931E-1,-3.482964993E0
3.225648285E0,9.664195061E0,3.178302646E-1,-3.463811398E0
3.228136097E0,9.664195061E0,3.082534671E-1,-3.425503969E0
3.230623910E0,9.649829865E0,3.130418658E-1,-3.363254786E0
3.233111722E0,9.659406662E0,3.274070919E-1,-3.315370798E0
3.235599535E0,9.649829865E0,2.986766696E-1,-3.277063608E0
3.238087347E0,9.640253067E0,3.082534671E-1,-3.233968019E0
3.240575160E0,9.640253067E0,3.130418658E-1,-3.166930199E0
3.243062972E0,9.635464668E0,3.082534671E-1,-3.109469414E0
3.245550785E0,9.630676270E0,3.082534671E-1,-3.047220230E0
3.248038597E0,9.616311073E0,3.130418658E-1,-2.999336243E0
3.250526410E0,9.616311073E0,3.082534671E-1,-2.970605850E0
3.253014222E0,9.592369080E0,3.274070919E-1,-2.908356428E0
3.255502035E0,9.568427086E0,3.369838893E-1,-2.870049238E0
3.257989847E0,9.554061890E0,3.274070919E-1,-2.850895643E0
3.260477660E0,9.554061890E0,3.082534671E-1,-2.798223257E0
3.262965472E0,9.515754700E0,3.178302646E-1,-2.759916067E0
3.265453285E0,9.487024307E0,3.226186931E-1,-2.716820478E0
3.267941097E0,9.453505516E0,3.369838893E-1,-2.683301449E0
3.270428910E0,9.458293915E0,3.369838893E-1,-2.654571056E0
3.272916722E0,9.443928719E0,3.417722881E-1,-2.625840664E0
3.275404535E0,9.415198326E0,3.609259129E-1,-2.606687069E0
3.277892347E0,9.391256332E0,3.561375141E-1,-2.587533474E0
3.280380160E0,9.376891136E0,3.609259129E-1,-2.563591480E0
3.282867972E0,9.381679535E0,3.657143116E-1,-2.563591480E0
3.285355785E0,9.386467934E0,3.657143116E-1,-2.558803082E0
3.287843597E0,9.352949142E0,3.609259129E-1,-2.539649487E0
3.290331410E0,9.348160744E0,3.705027103E-1,-2.525284290E0
3.292819222E0,9.352949142E0,3.800795078E-1,-2.510919094E0
3.295307035E0,9.333795547E0,3.752911091E-1,-2.501342297E0
3.297794847E0,9.333795547E0,3.848679364E-1,-2.472611904E0
3.300282660E0,9.338583946E0,3.896563351E-1,-2.472611904E0
3.302770472E0,9.348160744E0,3.800795078E-1,-2.482188702E0
3.305258285E0,9.338583946E0,3.800795078E-1,-2.477400303E0
3.307746097E0,9.329007149E0,3.848679364E-1,-2.467823505E0
3.310233910E0,9.333795547E0,3.800795078E-1,-2.472611904E0
3.312721722E0,9.343372345E0,3.609259129E-1,-2.458246708E0
3.315209535E0,9.329007149E0,3.513490856E-1,-2.477400303E0
3.317697347E0,9.324218750E0,3.417722881E-1,-2.467823505E0
3.320185160E0,9.324218750E0,3.369838893E-1,-2.467823505E0
3.322672972E0,9.319430351E0,3.369838893E-1,-2.463035107E0
3.325160785E0,9.329007149E0,3.417722881E-1,-2.453458309E0
3.327648597E0,9.319430351E0,3.321954906E-1,-2.443881273E0
3.330136410E0,9.305065155E0,3.082534671E-1,-2.439092875E0
3.332624222E0,9.295488358E0,3.034650683E-1,-2.415150881E0
3.335112035E0,9.281123161E0,2.890998423E-1,-2.400785685E0
3.337599847E0,9.276334763E0,2.938882709E-1,-2.391208887E0
3.340087660E0,9.290699959E0,2.699462473E-1,-2.391208887E0
3.342575472E0,9.261969566E0,2.699462473E-1,-2.386420488E0
3.345063285E0,9.257181168E0,2.651578486E-1,-2.376843691E0
3.347551097E0,9.252392769E0,2.507926226E-1,-2.372055292E0
3.350038910E0,9.252392769E0,2.412158251E-1,-2.381632090E0
3.352526722E0,9.271546364E0,2.268506140E-1,-2.386420488E0
3.355014535E0,9.290699959E0,2.268506140E-1,-2.391208887E0
3.357502347E0,9.300276756E0,2.364274114E-1,-2.381632090E0
3.359990160E0,9.295488358E0,2.220622003E-1,-2.376843691E0
3.362477972E0,9.309853554E0,2.124854028E-1,-2.372055292E0
3.364965785E0,9.338583946E0,2.220622003E-1,-2.348113298E0
3.367453597E0,9.343372345E0,1.933317930E-1,-2.333748102E0
3.369941410E0,9.376891136E0,1.885433793E-1,-2.333748102E0
3.372429222E0,9.386467934E0,1.933317930E-1,-2.338536501E0
3.374917035E0,9.410409927E0,1.598129570E-1,-2.362478495E0
3.377404847E0,9.424775124E0,1.598129570E-1,-2.362478495E0
3.379892660E0,9.448717117E0,1.454477459E-1,-2.357690096E0
3.382380472E0,9.463082314E0,1.502361596E-1,-2.348113298E0
3.384868285E0,9.467870712E0,1.502361596E-1,-2.348113298E0
3.387356097E0,9.472659111E0,1.502361596E-1,-2.372055292E0
3.389843910E0,9.482235909E0,1.454477459E-1,-2.348113298E0
3.392331722E0,9.487024307E0,1.310825497E-1,-2.352901697E0
3.394819535E0,9.482235909E0,1.215057373E-1,-2.357690096E0
3.397307347E0,9.487024307E0,1.262941360E-1,-2.357690096E0
3.399795160E0,9.491812706E0,1.167173311E-1,-2.362478495E0
3.402282972E0,9.487024307E0,1.215057373E-1,-2.348113298E0
3.404770785E0,9.515754700E0,1.262941360E-1,-2.338536501E0
3.407258597E0,9.525331497E0,1.358709484E-1,-2.343324900E0
3.409746410E0,9.539696693E0,1.310825497E-1,-2.324171305E0
3.412234222E0,9.568427086E0,1.358709484E-1,-2.333748102E0
3.414722035E0,9.568427086E0,1.358709484E-1,-2.343324900E0
3.417209847E0,9.554061890E0,1.262941360E-1,-2.328959703E0
3.419697660E0,9.563638687E0,1.262941360E-1,-2.319382906E0
3.422185472E0,9.568427086E0,1.215057373E-1,-2.314594507E0
3.424673285E0,9.582792282E0,1.119289324E-1,-2.328959703E0
3.427161097E0,9.587580681E0,9.756372124E-2,-2.333748102E0
3.429648910E0,9.573215485E0,9.277531505E-2,-2.319382906E0
3.432136722E0,9.554061890E0,1.023521200E-1,-2.309806108E0
3.434624535E0,9.554061890E0,8.319851011E-2,-2.319382906E0
3.437112347E0,9.549273491E0,1.071405262E-1,-2.314594507E0
3.439600160E0,9.549273491E0,1.262941360E-1,-2.300229311E0
3.442087972E0,9.558850288E0,1.310825497E-1,-2.295440912E0
3.444575785E0,9.568427086E0,1.119289324E-1,-2.290652514E0
3.447063597E0,9.578003883E0,1.023521200E-1,-2.295440912E0
3.449551410E0,9.578003883E0,1.119289324E-1,-2.290652514E0
3.452039222E0,9.582792282E0,1.167173311E-1,-2.305017710E0
3.454527035E0,9.573215485E0,1.167173311E-1,-2.309806108E0
3.457014847E0,9.544485092E0,1.167173311E-1,-2.324171305E0
3.459502660E0,9.539696693E0,1.119289324E-1,-2.314594507E0
3.461990472E0,9.549273491E0,1.119289324E-1,-2.333748102E0
3.464478285E0,9.534908295E0,1.119289324E-1,-2.367266893E0
3.466966097E0,9.544485092E0,1.119289324E-1,-2.386420488E0
3.469453910E0,9.549273491E0,1.167173311E-1,-2.400785685E0
3.471941722E0,9.573215485E0,1.119289324E-1,-2.434304476E0
3.474429535E0,9.582792282E0,9.277531505E-2,-2.443881273E0
3.476917347E0,9.578003883E0,6.404489279E-2,-2.453458309E0
3.479405160E0,9.582792282E0,4.967968538E-2,-2.472611904E0
3.481892972E0,9.582792282E0,5.925649032E-2,-2.463035107E0
3.484380785E0,9.582792282E0,3.531447425E-2,-2.458246708E0
3.486868597E0,9.582792282E0,3.531447425E-2,-2.429516077E0
3.489356410E0,9.578003883E0,3.531447425E-2,-2.400785685E0
3.491844222E0,9.578003883E0,4.010287672E-2,-2.376843691E0
3.494332035E0,9.573215485E0,3.052607179E-2,-2.348113298E0
3.496819847E0,9.568427086E0,4.489128292E-2,-2.324171305E0
3.499307660E0,9.582792282E0,4.967968538E-2,-2.295440912E0
3.501795472E0,9.592369080E0,4.010287672E-2,-2.261922121E0
3.504283285E0,9.611522675E0,3.531447425E-2,-2.223614931E0
3.506771097E0,9.616311073E0,2.573766746E-2,-2.214038134E0
3.509258910E0,9.616311073E0,1.137245819E-2,-2.204461098E0
3.511746722E0,9.630676270E0,6.584054790E-3,-2.166153908E0
3.514234535E0,9.645041466E0,-7.781155407E-3,-2.151788712E0
3.516722347E0,9.649829865E0,-2.214636654E-2,-2.113481522E0
3.519210160E0,9.649829865E0,-1.256955881E-2,-2.084751129E0
3.521697972E0,9.659406662E0,-7.781155407E-3,-2.051232338E0
3.524185785E0,9.659406662E0,6.584054790E-3,-2.036867142E0
3.526673597E0,9.635464668E0,3.052607179E-2,-1.998559833E0
3.529161410E0,9.625887871E0,4.010287672E-2,-1.998559833E0
3.531649222E0,9.635464668E0,4.010287672E-2,-1.974617839E0
3.534137035E0,9.625887871E0,5.925649032E-2,-1.979406238E0
3.536624847E0,9.621099472E0,7.362170517E-2,-1.993771434E0
3.539112660E0,9.635464668E0,7.362170517E-2,-1.993771434E0
3.541600472E0,9.630676270E0,8.798690885E-2,-1.993771434E0
3.544088285E0,9.640253067E0,8.319851011E-2,-2.012925148E0
3.546576097E0,9.645041466E0,7.841010392E-2,-2.017713547E0
3.549063910E0,9.659406662E0,8.319851011E-2,-2.003348351E0
3.551551722E0,9.673771858E0,1.071405262E-1,-2.003348351E0
3.554039535E0,9.664195061E0,9.756372124E-2,-2.012925148E0
3.556527347E0,9.654618263E0,9.756372124E-2,-1.998559833E0
3.559015160E0,9.649829865E0,1.023521200E-1,-1.969829440E0
3.561502972E0,9.630676270E0,1.023521200E-1,-1.993771434E0
3.563990785E0,9.625887871E0,1.310825497E-1,-1.993771434E0
3.566478597E0,9.630676270E0,1.262941360E-1,-1.998559833E0
3.568966410E0,9.611522675E0,1.262941360E-1,-2.022501945E0
3.571454222E0,9.592369080E0,1.310825497E-1,-1.998559833E0
3.573942035E0,9.573215485E0,1.358709484E-1,-2.012925148E0
3.576429847E0,9.573215485E0,1.262941360E-1,-2.012925148E0
3.578917660E0,9.549273491E0,1.310825497E-1,-2.036867142E0
3.581405472E0,9.515754700E0,1.310825497E-1,-2.056020737E0
3.583893858E0,9.510966301E0,1.215057373E-1,-2.056020737E0
3.586381722E0,9.510966301E0,1.262941360E-1,-2.060809135E0
3.588869535E0,9.506177902E0,1.550245583E-1,-2.070385933E0
3.591357347E0,9.496601105E0,1.646013707E-1,-2.060809135E0
3.593845160E0,9.482235909E0,1.502361596E-1,-2.051232338E0
3.596332972E0,9.491812706E0,1.358709484E-1,-2.027290344E0
3.598820785E0,9.491812706E0,1.310825497E-1,-2.017713547E0
3.601308597E0,9.487024307E0,1.262941360E-1,-2.008136749E0
3.603796410E0,9.477447510E0,1.262941360E-1,-1.979406238E0
3.606284222E0,9.491812706E0,1.023521200E-1,-1.950675845E0
3.608772035E0,9.477447510E0,1.119289324E-1,-1.917157054E0
3.611259847E0,9.463082314E0,1.071405262E-1,-1.898003340E0
3.613747660E0,9.448717117E0,1.119289324E-1,-1.874061346E0
3.616235472E0,9.443928719E0,1.167173311E-1,-1.869272947E0
3.618723285E0,9.434351921E0,1.262941360E-1,-1.840542555E0
3.621211097E0,9.424775124E0,1.262941360E-1,-1.807023764E0
3.623698910E0,9.424775124E0,1.406593472E-1,-1.816600561E0
3.626186722E0,9.405621529E0,1.310825497E-1,-1.811812162E0
3.628674535E0,9.396044731E0,1.406593472E-1,-1.783081770E0
3.631162347E0,9.391256332E0,1.215057373E-1,-1.744774461E0
3.633650160E0,9.372102737E0,1.406593472E-1,-1.759139657E0
3.636137972E0,9.357737541E0,1.454477459E-1,-1.735197663E0
3.638625785E0,9.338583946E0,1.502361596E-1,-1.716044068E0
3.641113597E0,9.333795547E0,1.550245583E-1,-1.711255670E0
3.643601410E0,9.324218750E0,1.502361596E-1,-1.720832467E0
3.646089222E0,9.290699959E0,1.406593472E-1,-1.739986062E0
3.648577035E0,9.266757965E0,1.646013707E-1,-1.754351258E0
3.651064847E0,9.199720383E0,1.789665818E-1,-1.787870169E0
3.653552660E0,9.166201591E0,1.885433793E-1,-1.821388960E0
3.656040472E0,9.147047997E0,2.076970041E-1,-1.859696150E0
3.658528285E0,9.132682800E0,2.172738016E-1,-1.883638144E0
3.661016097E0,9.113529205E0,2.172738016E-1,-1.921945453E0
3.663503910E0,9.094375610E0,2.220622003E-1,-1.950675845E0
3.665991722E0,9.075222015E0,2.172738016E-1,-1.979406238E0
3.668479535E0,9.046490669E0,2.172738016E-1,-2.008136749E0
3.670967347E0,9.022548676E0,2.124854028E-1,-2.012925148E0
3.673455160E0,8.998606682E0,2.029085904E-1,-2.036867142E0
3.675942972E0,8.960299492E0,1.885433793E-1,-2.051232338E0
3.678430785E0,8.921992302E0,1.789665818E-1,-2.075174332E0
3.680918597E0,8.898050308E0,1.693897694E-1,-2.079962730E0
3.683406410E0,8.859743118E0,1.693897694E-1,-2.079962730E0
3.685894222E0,8.821435928E0,1.550245583E-1,-2.103904724E0
3.688382035E0,8.787917137E0,1.693897694E-1,-2.103904724E0
3.690869847E0,8.763975143E0,1.885433793E-1,-2.099116325E0
3.693357660E0,8.735244751E0,1.741781682E-1,-2.094327927E0
3.695845472E0,8.692149162E0,1.933317930E-1,-2.108693123E0
3.698333285E0,8.658630371E0,1.933317930E-1,-2.137423515E0
3.700821097E0,8.629899979E0,1.981201917E-1,-2.142211914E0
3.703308910E0,8.591592789E0,2.124854028E-1,-2.156577110E0
3.705796722E0,8.543708801E0,2.029085904E-1,-2.185307503E0
3.708284535E0,8.500613213E0,2.029085904E-1,-2.209249735E0
3.710772347E0,8.481459618E0,1.933317930E-1,-2.190095901E0
3.713260160E0,8.423998833E0,2.124854028E-1,-2.180519104E0
3.715747972E0,8.376114845E0,2.029085904E-1,-2.194884300E0
3.718235785E0,8.318654060E0,2.076970041E-1,-2.204461098E0
3.720723597E0,8.270770073E0,2.220622003E-1,-2.242768526E0
3.723211410E0,8.218097687E0,2.412158251E-1,-2.252345324E0
3.725699222E0,8.146271706E0,2.460042238E-1,-2.261922121E0
3.728187035E0,8.060079575E0,2.699462473E-1,-2.309806108E0
3.730674847E0,7.993042469E0,2.986766696E-1,-2.333748102E0
3.733162660E0,7.930793285E0,3.082534671E-1,-2.367266893E0
3.735650472E0,7.878120899E0,3.226186931E-1,-2.391208887E0
3.738138285E0,7.825448036E0,3.513490856E-1,-2.405574083E0
3.740626097E0,7.763198853E0,3.752911091E-1,-2.443881273E0
3.743113910E0,7.710526466E0,4.040215313E-1,-2.467823505E0
3.745601722E0,7.667430878E0,4.088099301E-1,-2.491765499E0
3.748089535E0,7.605181694E0,4.231751561E-1,-2.520495892E0
3.750577347E0,7.576451302E0,4.231751561E-1,-2.549226284E0
3.753065160E0,7.538144112E0,4.279635549E-1,-2.587533474E0
3.755552972E0,7.528567314E0,4.231751561E-1,-2.611475468E0
3.758040785E0,7.514202118E0,4.088099301E-1,-2.659359455E0
3.760528597E0,7.499836922E0,3.944447339E-1,-2.692878246E0
3.763016410E0,7.485471725E0,3.896563351E-1,-2.716820478E0
3.765504222E0,7.466318130E0,3.705027103E-1,-2.750339270E0
3.767992035E0,7.456741333E0,3.561375141E-1,-2.745550871E0
3.770479847E0,7.447164536E0,3.417722881E-1,-2.759916067E0
3.772967660E0,7.423222542E0,3.321954906E-1,-2.793434858E0
3.775455472E0,7.413645744E0,3.130418658E-1,-2.812588453E0
3.777943285E0,7.418434143E0,2.843114436E-1,-2.817376852E0
3.780431097E0,7.418434143E0,2.603694201E-1,-2.817376852E0
3.782918910E0,7.408857346E0,2.220622003E-1,-2.812588453E0
3.785406722E0,7.404068947E0,1.837549806E-1,-2.826953650E0
3.787894535E0,7.394492149E0,1.550245583E-1,-2.807800055E0
3.790382347E0,7.365761757E0,1.310825497E-1,-2.779069662E0
3.792870160E0,7.346607685E0,9.277531505E-2,-2.735974073E0
3.795357972E0,7.337030888E0,7.362170517E-2,-2.683301449E0
3.797845785E0,7.298723698E0,6.404489279E-2,-2.621052265E0
3.800333597E0,7.293935299E0,4.967968538E-2,-2.549226284E0
3.802821410E0,7.279570103E0,5.446808785E-2,-2.482188702E0
3.805309222E0,7.260416508E0,5.446808785E-2,-2.424727678E0
3.807797035E0,7.255628109E0,3.052607179E-2,-2.338536501E0
3.810284847E0,7.236474514E0,1.137245819E-2,-2.281075716E0
3.812772660E0,7.246051311E0,-2.693476900E-2,-2.185307503E0
3.815260472E0,7.250839710E0,-6.045359373E-2,-2.099116325E0
3.817748285E0,7.255628109E0,-9.876082093E-2,-2.022501945E0
3.820236097E0,7.274781704E0,-1.131260321E-1,-1.936310649E0
3.822723910E0,7.303512096E0,-1.466448605E-1,-1.854907751E0
3.825211722E0,7.313088894E0,-1.657984704E-1,-1.754351258E0
3.827699535E0,7.346607685E0,-1.753752679E-1,-1.668160081E0
3.830187347E0,7.365761757E0,-1.993172914E-1,-1.605910778E0
3.832675160E0,7.408857346E0,-1.897404790E-1,-1.538873196E0
3.835162972E0,7.437587738E0,-2.041056901E-1,-1.467047095E0
3.837650785E0,7.471106529E0,-2.376245260E-1,-1.423951507E0
3.840138597E0,7.485471725E0,-2.567781210E-1,-1.380855799E0
3.842626410E0,7.504625320E0,-2.855085433E-1,-1.342548609E0
3.845114222E0,7.523778915E0,-2.855085433E-1,-1.342548609E0
3.847602035E0,7.562086105E0,-2.902969420E-1,-1.352125406E0
3.850089847E0,7.562086105E0,-2.759317458E-1,-1.342548609E0
3.852577660E0,7.566874504E0,-2.759317458E-1,-1.352125406E0
3.855065472E0,7.576451302E0,-3.046621680E-1,-1.376067400E0
3.857553285E0,7.600393295E0,-3.190273643E-1,-1.409586191E0
3.860041097E0,7.629123688E0,-3.286041915E-1,-1.438316703E0
3.862528910E0,7.653065681E0,-3.333925903E-1,-1.471835494E0
3.865016722E0,7.686584473E0,-3.333925903E-1,-1.495777488E0
3.867504535E0,7.705738068E0,-3.238157928E-1,-1.529296279E0
3.869992347E0,7.696161270E0,-3.333925903E-1,-1.572391987E0
3.872480160E0,7.677007675E0,-3.381809890E-1,-1.639429569E0
3.874967972E0,7.662642479E0,-3.429693878E-1,-1.706467271E0
3.877455785E0,7.648277283E0,-3.477577865E-1,-1.749562860E0
3.879943597E0,7.624335289E0,-3.621230125E-1,-1.816600561E0
3.882431410E0,7.624335289E0,-3.621230125E-1,-1.869272947E0
3.884919222E0,7.629123688E0,-3.764882088E-1,-1.941099048E0
3.887407035E0,7.653065681E0,-4.052186310E-1,-2.003348351E0
3.889894847E0,7.662642479E0,-4.387374520E-1,-2.041655540E0
3.892382660E0,7.667430878E0,-4.770447016E-1,-2.070385933E0
3.894870472E0,7.696161270E0,-5.009866953E-1,-2.099116325E0
3.897358285E0,7.696161270E0,-5.201402903E-1,-2.108693123E0
3.899846097E0,7.715314865E0,-5.297171474E-1,-2.151788712E0
3.902333910E0,7.724891663E0,-5.345055461E-1,-2.218826532E0
3.904821722E0,7.748833656E0,-5.440823436E-1,-2.290652514E0
3.907309535E0,7.801506042E0,-5.440823436E-1,-2.338536501E0
3.909797347E0,7.849390507E0,-5.536591411E-1,-2.400785685E0
3.912285160E0,7.911639690E0,-5.632359385E-1,-2.458246708E0
3.914772972E0,7.964312077E0,-5.967547894E-1,-2.501342297E0
3.917260785E0,7.993042469E0,-6.302735806E-1,-2.525284290E0
3.919748597E0,8.045714378E0,-6.590040326E-1,-2.549226284E0
3.922236410E0,8.074444771E0,-6.781576276E-1,-2.582745075E0
3.924724222E0,8.098387718E0,-6.973112226E-1,-2.592321873E0
3.927212035E0,8.122329712E0,-7.260416746E-1,-2.592321873E0
3.929699847E0,8.151060104E0,-7.739257216E-1,-2.630629063E0
3.932187660E0,8.203732491E0,-7.835025191E-1,-2.668936253E0
3.934675472E0,8.256404877E0,-8.026561141E-1,-2.678513050E0
3.937163285E0,8.304288864E0,-8.026561141E-1,-2.692878246E0
3.939651097E0,8.352172852E0,-8.265981078E-1,-2.735974073E0
3.942138910E0,8.395268440E0,-8.553285599E-1,-2.745550871E0
3.944626722E0,8.419210434E0,-8.696937561E-1,-2.735974073E0
3.947114535E0,8.452729225E0,-9.080010056E-1,-2.764704466E0
3.949602347E0,8.471882820E0,-9.463081956E-1,-2.779069662E0
3.952090160E0,8.476671219E0,-9.750386477E-1,-2.779069662E0
3.954577972E0,8.481459618E0,-1.008557439E0,-2.803011656E0
3.957065785E0,8.462306023E0,-1.046864748E0,-2.817376852E0
3.959553597E0,8.438364029E0,-1.066018343E0,-2.850895643E0
3.962041410E0,8.428787231E0,-1.080383539E0,-2.874837637E0
3.964529222E0,8.400056839E0,-1.133055925E0,-2.898779631E0
3.967017035E0,8.380903244E0,-1.156997919E0,-2.937086821E0
3.969504847E0,8.380903244E0,-1.180940032E0,-2.946663857E0
3.971992660E0,8.395268440E0,-1.204882026E0,-2.961029053E0
3.974480472E0,8.361749649E0,-1.233612418E0,-2.975394249E0
3.976968285E0,8.318654060E0,-1.252766013E0,-2.961029053E0
3.979456097E0,8.285135269E0,-1.252766013E0,-2.956240654E0
3.981943910E0,8.227674484E0,-1.262342811E0,-2.932298422E0
3.984431722E0,8.194155693E0,-1.262342811E0,-2.884414434E0
3.986919535E0,8.151060104E0,-1.262342811E0,-2.822165251E0
3.989407347E0,8.122329712E0,-1.267131209E0,-2.764704466E0
3.991895160E0,8.069656372E0,-1.257554412E0,-2.726397276E0
3.994382972E0,8.031349182E0,-1.262342811E0,-2.673724651E0
3.996870785E0,8.012195587E0,-1.257554412E0,-2.616263866E0
3.999358597E0,7.973888874E0,-1.291073322E0,-2.554014683E0
4.001846410E0,7.945158482E0,-1.305438519E0,-2.486977100E0
4.004334222E0,7.940370083E0,-1.310226917E0,-2.400785685E0
4.006822035E0,7.916428089E0,-1.329380512E0,-2.314594507E0
4.009309847E0,7.926004887E0,-1.343745708E0,-2.209249735E0
4.011797660E0,7.945158482E0,-1.348534107E0,-2.132635117E0
4.014285472E0,7.949946880E0,-1.348534107E0,-2.056020737E0
4.016773285E0,7.973888874E0,-1.338957310E0,-1.945887446E0
4.019261097E0,8.002618790E0,-1.329380512E0,-1.864484549E0
4.021748910E0,8.021772385E0,-1.324592113E0,-1.763928056E0
4.024236722E0,8.040925980E0,-1.295861721E0,-1.677736878E0
4.026724535E0,8.045714378E0,-1.276708007E0,-1.591545582E0
4.029212347E0,8.050502777E0,-1.228824019E0,-1.519719481E0
4.031700160E0,8.016983986E0,-1.171363235E0,-1.428739905E0
4.034187972E0,7.997830868E0,-1.109113932E0,-1.371279001E0
4.036675785E0,7.973888874E0,-1.051653147E0,-1.313818216E0
4.039163597E0,7.935581684E0,-1.003769040E0,-1.256357312E0
4.041651410E0,7.926004887E0,-9.558850527E-1,-1.222838521E0
4.044139222E0,7.935581684E0,-8.936358094E-1,-1.155800819E0
4.046627035E0,7.940370083E0,-8.601169586E-1,-1.136647224E0
4.049114847E0,7.940370083E0,-8.361749649E-1,-1.146224022E0
4.051602660E0,7.935581684E0,-8.122329116E-1,-1.160589218E0
4.054090472E0,7.930793285E0,-8.074445128E-1,-1.198896527E0
4.056578285E0,7.916428089E0,-8.026561141E-1,-1.251568913E0
4.059066097E0,7.926004887E0,-7.930793166E-1,-1.342548609E0
4.061553910E0,7.916428089E0,-7.739257216E-1,-1.443105102E0
4.064041722E0,7.897274494E0,-7.499836683E-1,-1.553238392E0
4.066529535E0,7.873332500E0,-7.260416746E-1,-1.625064373E0
4.069017347E0,7.849390507E0,-6.733692288E-1,-1.711255670E0
4.071505160E0,7.815871239E0,-6.494272351E-1,-1.807023764E0
4.073992972E0,7.801506042E0,-5.919663906E-1,-1.888426542E0
4.076480785E0,7.777564049E0,-5.728127360E-1,-1.945887446E0
4.078968597E0,7.763198853E0,-5.536591411E-1,-1.993771434E0
4.081456410E0,7.753622055E0,-5.488707423E-1,-2.065597534E0
4.083944222E0,7.758410454E0,-5.584475398E-1,-2.142211914E0
4.086432035E0,7.791929245E0,-5.680243373E-1,-2.190095901E0
4.088919847E0,7.811082840E0,-6.015431881E-1,-2.233191729E0
4.091407660E0,7.815871239E0,-6.254851818E-1,-2.242768526E0
4.093895472E0,7.868544102E0,-6.637924314E-1,-2.252345324E0
4.096383285E0,7.906851292E0,-7.020996213E-1,-2.242768526E0
4.098871097E0,7.945158482E0,-7.308300734E-1,-2.180519104E0
4.101358910E0,7.973888874E0,-7.451952696E-1,-2.127846718E0
4.103846774E0,7.993042469E0,-7.691373229E-1,-2.060809135E0
4.106334639E0,8.069656372E0,-7.787141204E-1,-2.003348351E0
4.108822503E0,8.136694908E0,-7.978677154E-1,-1.945887446E0
4.111310368E0,8.194155693E0,-8.026561141E-1,-1.874061346E0
4.113798233E0,8.275558472E0,-8.170213103E-1,-1.811812162E0
4.116286097E0,8.352172852E0,-8.026561141E-1,-1.773504853E0
4.118773962E0,8.433575630E0,-8.122329116E-1,-1.720832467E0
4.121261826E0,8.495824814E0,-8.170213103E-1,-1.649006367E0
4.123749691E0,8.567650795E0,-8.074445128E-1,-1.586757183E0
4.126237556E0,8.663418770E0,-8.026561141E-1,-1.486200690E0
4.128725420E0,8.749609947E0,-7.978677154E-1,-1.433528304E0
4.131213285E0,8.821435928E0,-7.835025191E-1,-1.366490602E0
4.133701149E0,8.883685112E0,-7.547720671E-1,-1.309029818E0
4.136189014E0,8.965087891E0,-7.308300734E-1,-1.251568913E0
4.138676878E0,9.060855865E0,-6.877344251E-1,-1.203684926E0
4.141164743E0,9.113529205E0,-6.590040326E-1,-1.160589218E0
4.143652920E0,9.147047997E0,-6.159083843E-1,-1.155800819E0
4.146140681E0,9.180566788E0,-5.680243373E-1,-1.198896527E0
4.148628441E0,9.214085579E0,-5.105634928E-1,-1.246780515E0
4.151116201E0,9.223662376E0,-4.435258508E-1,-1.299453020E0
4.153603962E0,9.228450775E0,-4.100070298E-1,-1.376067400E0
4.156091722E0,9.257181168E0,-3.573346138E-1,-1.447893500E0
4.158579483E0,9.295488358E0,-3.094505668E-1,-1.534084797E0
4.161067243E0,9.333795547E0,-2.615665495E-1,-1.620275974E0
4.163555003E0,9.352949142E0,-2.184709013E-1,-1.701678872E0
4.166042764E0,9.396044731E0,-1.753752679E-1,-1.807023764E0
4.168530524E0,9.429563522E0,-1.657984704E-1,-1.955464244E0
4.171018285E0,9.472659111E0,-1.418564469E-1,-2.094327927E0
4.173506045E0,9.520543098E0,-1.131260321E-1,-2.223614931E0
4.175993806E0,9.582792282E0,-1.131260321E-1,-2.348113298E0
4.178481566E0,9.640253067E0,-1.035492271E-1,-2.496553898E0
4.180969326E0,9.683348656E0,-9.876082093E-2,-2.601898670E0
4.183457087E0,9.707290649E0,-1.274912357E-1,-2.726397276E0
4.185944847E0,9.726444244E0,-1.370680481E-1,-2.822165251E0
4.188432608E0,9.774328232E0,-1.514332592E-1,-2.932298422E0
4.190920368E0,9.817423820E0,-1.562216580E-1,-3.037643433E0
4.193408128E0,9.889249802E0,-1.610100716E-1,-3.138199806E0
4.195895889E0,9.951498985E0,-1.705868691E-1,-3.238756418E0
4.198383649E0,1.000895977E1,-1.849520802E-1,-3.344101191E0
4.200871410E0,1.008078671E1,-2.184709013E-1,-3.420715570E0
4.203359222E0,1.016218948E1,-2.519897223E-1,-3.540425777E0
4.205847035E0,1.024359226E1,-2.711433470E-1,-3.621828556E0
4.208334847E0,1.032499504E1,-3.238157928E-1,-3.693654776E0
4.210822660E0,1.038724422E1,-3.573346138E-1,-3.746327162E0
4.213310524E0,1.048301220E1,-3.860650361E-1,-3.813364744E0
4.215798389E0,1.058356857E1,-4.291606545E-1,-3.861248732E0
4.218286253E0,1.066497135E1,-4.578910768E-1,-3.923498154E0
4.220774118E0,1.077510452E1,-5.105634928E-1,-3.957016945E0
4.223261983E0,1.084693050E1,-5.536591411E-1,-4.009689331E0
4.225749847E0,1.092833328E1,-5.967547894E-1,-4.004900932E0
4.228237712E0,1.099537086E1,-6.494272351E-1,-4.019266129E0
4.230725576E0,1.105283260E1,-6.829460263E-1,-4.024054527E0
4.233213441E0,1.111029339E1,-6.829460263E-1,-4.019266129E0
4.235701306E0,1.116296577E1,-7.164648771E-1,-4.019266129E0
4.238189170E0,1.121084976E1,-7.164648771E-1,-3.990535736E0
4.240677035E0,1.125394535E1,-7.164648771E-1,-3.937863350E0
4.243164899E0,1.129704094E1,-7.212532759E-1,-3.870825529E0
4.245652764E0,1.134013653E1,-7.068880796E-1,-3.789422750E0
4.248140628E0,1.135929012E1,-7.020996213E-1,-3.746327162E0
4.250628493E0,1.136886692E1,-7.164648771E-1,-3.765480757E0
4.253116358E0,1.135450172E1,-7.595604658E-1,-3.779845953E0
4.255604222E0,1.133534813E1,-7.978677154E-1,-3.755903959E0
4.258092087E0,1.132577133E1,-8.218097091E-1,-3.703231573E0
4.260579951E0,1.128746414E1,-8.361749649E-1,-3.597886562E0
4.263067816E0,1.123479176E1,-8.409633636E-1,-3.468599796E0
4.265555681E0,1.115817738E1,-8.457517624E-1,-3.363254786E0
4.268043545E0,1.106719780E1,-8.265981078E-1,-3.253121614E0
4.270531410E0,1.097621727E1,-8.265981078E-1,-3.128623009E0
4.273019274E0,1.089481449E1,-8.170213103E-1,-3.018489838E0
4.275507139E0,1.082298851E1,-7.882909179E-1,-2.908356428E0
4.277995003E0,1.076073933E1,-8.026561141E-1,-2.798223257E0
4.280482868E0,1.069370174E1,-7.930793166E-1,-2.688089848E0
4.282970681E0,1.061229897E1,-7.691373229E-1,-2.597110271E0
4.285458493E0,1.052131939E1,-7.451952696E-1,-2.501342297E0
4.287946306E0,1.042076302E1,-7.308300734E-1,-2.415150881E0
4.290434118E0,1.034414864E1,-6.973112226E-1,-2.305017710E0
4.292921931E0,1.027711105E1,-6.685808301E-1,-2.199672699E0
4.295409743E0,1.019570827E1,-6.302735806E-1,-2.123058319E0
4.297897556E0,1.011909389E1,-5.871779919E-1,-2.056020737E0
4.300385368E0,1.007120991E1,-5.680243373E-1,-1.974617839E0
4.302873181E0,1.003290176E1,-5.440823436E-1,-1.917157054E0
4.305360993E0,1.002332497E1,-5.249287486E-1,-1.864484549E0
4.307848806E0,1.000895977E1,-5.057750940E-1,-1.797446966E0
4.310336618E0,9.999382973E0,-5.057750940E-1,-1.735197663E0
4.312824431E0,9.975440979E0,-5.057750940E-1,-1.672948480E0
4.315312243E0,9.975440979E0,-4.914098978E-1,-1.644217968E0
4.317800056E0,9.956287384E0,-4.626794755E-1,-1.596333981E0
4.320287868E0,9.917980194E0,-4.578910768E-1,-1.567603588E0
4.322775681E0,9.908403397E0,-4.722562730E-1,-1.543661594E0
4.325263493E0,9.913191795E0,-4.914098978E-1,-1.505354285E0
4.327751306E0,9.898826599E0,-4.914098978E-1,-1.467047095E0
4.330239118E0,9.917980194E0,-4.866214991E-1,-1.443105102E0
4.332726931E0,9.937133789E0,-4.818331003E-1,-1.414374709E0
4.335214743E0,9.941922188E0,-4.770447016E-1,-1.400009394E0
4.337702556E0,9.946710587E0,-4.961982965E-1,-1.414374709E0
4.340190368E0,9.946710587E0,-4.818331003E-1,-1.423951507E0
4.342678181E0,9.941922188E0,-5.057750940E-1,-1.438316703E0
4.345165993E0,9.927556992E0,-5.345055461E-1,-1.428739905E0
4.347653806E0,9.913191795E0,-5.488707423E-1,-1.423951507E0
4.350141618E0,9.908403397E0,-5.632359385E-1,-1.414374709E0
4.352629431E0,9.903614998E0,-5.680243373E-1,-1.400009394E0
4.355117243E0,9.894038200E0,-5.728127360E-1,-1.385644197E0
4.357605056E0,9.894038200E0,-5.680243373E-1,-1.371279001E0
4.360092868E0,9.898826599E0,-5.584475398E-1,-1.400009394E0
4.362580681E0,9.913191795E0,-5.680243373E-1,-1.423951507E0
4.365068493E0,9.908403397E0,-5.488707423E-1,-1.467047095E0
4.367556306E0,9.903614998E0,-5.440823436E-1,-1.495777488E0
4.370044118E0,9.922768593E0,-5.680243373E-1,-1.534084797E0
4.372531931E0,9.937133789E0,-5.967547894E-1,-1.567603588E0
4.375019743E0,9.980229378E0,-6.015431881E-1,-1.586757183E0
4.377507556E0,1.001853657E1,-6.254851818E-1,-1.625064373E0
4.379995368E0,1.004247856E1,-6.494272351E-1,-1.668160081E0
4.382483181E0,1.006642151E1,-6.637924314E-1,-1.725620866E0
4.384970993E0,1.008557510E1,-6.877344251E-1,-1.768716455E0
4.387458806E0,1.010472870E1,-7.164648771E-1,-1.830965757E0
4.389946618E0,1.010472870E1,-7.356184721E-1,-1.893214941E0
4.392434431E0,1.011909389E1,-7.643488646E-1,-1.926733851E0
4.394922243E0,1.011909389E1,-7.595604658E-1,-1.969829440E0
4.397410056E0,1.011909389E1,-7.691373229E-1,-2.003348351E0
4.399897868E0,1.010472870E1,-7.643488646E-1,-2.056020737E0
4.402385681E0,1.009994030E1,-7.739257216E-1,-2.094327927E0
4.404873493E0,1.008557510E1,-7.930793166E-1,-2.132635117E0
4.407361306E0,1.009036350E1,-7.978677154E-1,-2.170942307E0
4.409849118E0,1.010472870E1,-7.643488646E-1,-2.199672699E0
4.412336931E0,1.009515190E1,-7.547720671E-1,-2.223614931E0
4.414824743E0,1.007599831E1,-7.451952696E-1,-2.247556925E0
4.417312556E0,1.006163311E1,-7.164648771E-1,-2.261922121E0
4.419800368E0,1.004726696E1,-6.877344251E-1,-2.281075716E0
4.422288181E0,1.001853657E1,-6.494272351E-1,-2.333748102E0
4.424775993E0,1.001374817E1,-6.111199856E-1,-2.362478495E0
4.427263806E0,9.980229378E0,-5.967547894E-1,-2.372055292E0
4.429751618E0,9.961075783E0,-5.680243373E-1,-2.391208887E0
4.432239431E0,9.937133789E0,-5.632359385E-1,-2.419939280E0
4.434727243E0,9.927556992E0,-5.392939448E-1,-2.463035107E0
4.437215056E0,9.917980194E0,-5.440823436E-1,-2.501342297E0
4.439702868E0,9.898826599E0,-5.488707423E-1,-2.544437885E0
4.442190681E0,9.913191795E0,-5.297171474E-1,-2.587533474E0
4.444678493E0,9.917980194E0,-5.153518915E-1,-2.616263866E0
4.447166306E0,9.922768593E0,-4.961982965E-1,-2.654571056E0
4.449654118E0,9.913191795E0,-4.866214991E-1,-2.683301449E0
4.452141931E0,9.927556992E0,-4.818331003E-1,-2.716820478E0
4.454629743E0,9.941922188E0,-4.914098978E-1,-2.735974073E0
4.457117556E0,9.970652580E0,-4.914098978E-1,-2.755127668E0
4.459605368E0,9.999382973E0,-5.057750940E-1,-2.764704466E0
4.462093181E0,1.002332497E1,-5.009866953E-1,-2.783858061E0
4.464580993E0,1.005684471E1,-5.249287486E-1,-2.846107244E0
4.467068806E0,1.007599831E1,-5.392939448E-1,-2.865260839E0
4.469556618E0,1.013824749E1,-5.584475398E-1,-2.870049238E0
4.472044431E0,1.019091988E1,-5.680243373E-1,-2.889202833E0
4.474532243E0,1.023401546E1,-5.919663906E-1,-2.903568029E0
4.477020056E0,1.027711105E1,-6.015431881E-1,-2.908356428E0
4.479507868E0,1.031062984E1,-6.254851818E-1,-2.913144827E0
4.481995681E0,1.032499504E1,-6.398503780E-1,-2.913144827E0
4.484483493E0,1.037766743E1,-6.685808301E-1,-2.922721624E0
4.486971306E0,1.041597462E1,-6.733692288E-1,-2.932298422E0
4.489459118E0,1.044470501E1,-6.733692288E-1,-2.932298422E0
4.491946931E0,1.045428181E1,-6.733692288E-1,-2.951452255E0
4.494434743E0,1.046864700E1,-6.829460263E-1,-2.965817451E0
4.496922556E0,1.046864700E1,-6.925228238E-1,-2.956240654E0
4.499410368E0,1.044470501E1,-7.020996213E-1,-2.956240654E0
4.501898181E0,1.041118622E1,-7.308300734E-1,-2.941875219E0
4.504385993E0,1.038724422E1,-7.260416746E-1,-2.913144827E0
4.506873806E0,1.037766743E1,-7.164648771E-1,-2.870049238E0
4.509361618E0,1.032978344E1,-6.925228238E-1,-2.846107244E0
4.511849431E0,1.028189945E1,-6.590040326E-1,-2.836530447E0
4.514337243E0,1.023880386E1,-6.111199856E-1,-2.826953650E0
4.516825056E0,1.021486187E1,-5.823895931E-1,-2.836530447E0
4.519312868E0,1.015740108E1,-5.488707423E-1,-2.831742048E0
4.521800681E0,1.011430550E1,-5.249287486E-1,-2.841318846E0
4.524288493E0,1.007599831E1,-5.057750940E-1,-2.831742048E0
4.526776306E0,1.002811337E1,-4.770447016E-1,-2.817376852E0
4.529264118E0,9.985017776E0,-4.626794755E-1,-2.803011656E0
4.531751931E0,9.903614998E0,-4.195838571E-1,-2.793434858E0
4.534239743E0,9.841365814E0,-3.764882088E-1,-2.817376852E0
4.536727556E0,9.764751434E0,-3.046621680E-1,-2.841318846E0
4.539215368E0,9.678560257E0,-2.328361124E-1,-2.865260839E0
4.541703181E0,9.601945877E0,-1.897404790E-1,-2.927510023E0
4.544190993E0,9.554061890E0,-1.370680481E-1,-2.989759445E0
4.546678806E0,9.525331497E0,-9.876082093E-2,-3.037643433E0
4.549166618E0,9.501389503E0,-7.481880486E-2,-3.104681015E0
4.551654431E0,9.491812706E0,-7.003039867E-2,-3.138199806E0
4.554142243E0,9.506177902E0,-8.439560980E-2,-3.200449228E0
4.556630056E0,9.534908295E0,-1.083376259E-1,-3.257910013E0
4.559117868E0,9.568427086E0,-1.322796494E-1,-3.315370798E0
4.561605681E0,9.601945877E0,-1.753752679E-1,-3.382408381E0
4.564093493E0,9.664195061E0,-2.136825025E-1,-3.459022999E0
4.566581306E0,9.712079048E0,-2.519897223E-1,-3.516483784E0
4.569069118E0,9.788693428E0,-2.807201445E-1,-3.583521366E0
4.571556931E0,9.870096207E0,-2.950853705E-1,-3.626616955E0
4.574044743E0,9.932345390E0,-3.381809890E-1,-3.664924145E0
4.576532556E0,1.000895977E1,-3.573346138E-1,-3.679289579E0
4.579020368E0,1.006642151E1,-3.669114113E-1,-3.703231573E0
4.581508181E0,1.013824749E1,-4.004302323E-1,-3.717596769E0
4.583995993E0,1.018613148E1,-4.531026781E-1,-3.712808371E0
4.586483806E0,1.026753426E1,-4.961982965E-1,-3.708019972E0
4.588971618E0,1.032020664E1,-5.536591411E-1,-3.688866377E0
4.591459431E0,1.038245583E1,-6.111199856E-1,-3.660135746E0
4.593947243E0,1.044470501E1,-6.350619793E-1,-3.631405354E0
4.596435056E0,1.047343540E1,-6.829460263E-1,-3.564367771E0
4.598922868E0,1.051653099E1,-7.020996213E-1,-3.521272182E0
4.601410681E0,1.053568459E1,-7.116764784E-1,-3.478176594E0
4.603898858E0,1.055483818E1,-7.068880796E-1,-3.430292368E0
4.606387035E0,1.057399178E1,-7.116764784E-1,-3.411138773E0
4.608874951E0,1.060751057E1,-7.116764784E-1,-3.382408381E0
4.611362764E0,1.062187576E1,-7.116764784E-1,-3.334524393E0
4.613850576E0,1.064102936E1,-7.260416746E-1,-3.320159197E0
4.616338389E0,1.063624096E1,-7.020996213E-1,-3.272275209E0
4.618826201E0,1.063145256E1,-7.068880796E-1,-3.243544817E0
4.621314014E0,1.062666416E1,-6.781576276E-1,-3.205237627E0
4.623801826E0,1.059793377E1,-6.685808301E-1,-3.200449228E0
4.626289639E0,1.057399178E1,-6.398503780E-1,-3.147776604E0
4.628777451E0,1.052131939E1,-5.871779919E-1,-3.128623009E0
4.631265264E0,1.046385860E1,-5.440823436E-1,-3.119046211E0
4.633753076E0,1.041118622E1,-4.914098978E-1,-3.123834610E0
4.636240889E0,1.033457184E1,-4.100070298E-1,-3.114257812E0
4.638728701E0,1.026753426E1,-3.381809890E-1,-3.152565002E0
4.641216514E0,1.021007347E1,-2.663549483E-1,-3.181295395E0
4.643704326E0,1.016697788E1,-1.993172914E-1,-3.205237627E0
4.646192139E0,1.010951710E1,-1.466448605E-1,-3.253121614E0
4.648679951E0,1.005684471E1,-1.418564469E-1,-3.334524393E0
4.651167764E0,9.994594574E0,-1.179144308E-1,-3.391985178E0
4.653655576E0,9.937133789E0,-9.876082093E-2,-3.468599796E0
4.656143389E0,9.865307808E0,-8.918401599E-2,-3.530848980E0
4.658631201E0,9.831789017E0,-8.918401599E-2,-3.540425777E0
4.661119014E0,9.793481827E0,-9.397241473E-2,-3.573944569E0
4.663606826E0,9.759963036E0,-7.960720360E-2,-3.597886562E0
4.666094639E0,9.755174637E0,-6.524199992E-2,-3.617040157E0
4.668582451E0,9.740809441E0,-6.524199992E-2,-3.607463360E0
4.671070264E0,9.745597839E0,-8.439560980E-2,-3.602674961E0
4.673558076E0,9.779116631E0,-1.035492271E-1,-3.612251759E0
4.676045889E0,9.822212219E0,-1.370680481E-1,-3.602674961E0
4.678533701E0,9.860519409E0,-1.753752679E-1,-3.588309765E0
4.681021514E0,9.898826599E0,-2.280477136E-1,-3.578732967E0
4.683509326E0,9.922768593E0,-2.663549483E-1,-3.540425777E0
4.685997139E0,9.961075783E0,-3.142389655E-1,-3.482964993E0
4.688484951E0,9.989806175E0,-3.669114113E-1,-3.435081005E0
4.690972764E0,9.994594574E0,-4.195838571E-1,-3.368043184E0
4.693460576E0,1.002811337E1,-4.578910768E-1,-3.305794001E0
4.695948389E0,1.008078671E1,-5.057750940E-1,-3.219602823E0
4.698436201E0,1.009994030E1,-5.345055461E-1,-3.142988205E0
4.700924014E0,1.014303589E1,-5.680243373E-1,-3.085527420E0
4.703411826E0,1.016697788E1,-6.015431881E-1,-3.028066635E0
4.705899639E0,1.019570827E1,-6.111199856E-1,-2.956240654E0
4.708387451E0,1.021486187E1,-6.446388364E-1,-2.874837637E0
4.710875264E0,1.022922707E1,-6.494272351E-1,-2.817376852E0
4.713363076E0,1.025316906E1,-6.446388364E-1,-2.774281263E0
4.715850889E0,1.028189945E1,-6.446388364E-1,-2.702455282E0
4.718338701E0,1.028668785E1,-6.542156339E-1,-2.644994259E0
4.720826514E0,1.027711105E1,-6.494272351E-1,-2.563591480E0
4.723314326E0,1.025795746E1,-6.494272351E-1,-2.520495892E0
4.725802139E0,1.024359226E1,-6.302735806E-1,-2.477400303E0
4.728289951E0,1.021007347E1,-5.967547894E-1,-2.458246708E0
4.730777764E0,1.016697788E1,-5.632359385E-1,-2.453458309E0
4.733265576E0,1.009515190E1,-5.345055461E-1,-2.467823505E0
4.735753389E0,1.003290176E1,-4.818331003E-1,-2.491765499E0
4.738241201E0,9.965864182E0,-4.243722558E-1,-2.530072689E0
4.740729014E0,9.889249802E0,-3.860650361E-1,-2.558803082E0
4.743216826E0,9.836577415E0,-3.429693878E-1,-2.625840664E0
4.745704639E0,9.779116631E0,-3.238157928E-1,-2.692878246E0
4.748192451E0,9.721655846E0,-2.998737693E-1,-2.779069662E0
4.750680264E0,9.659406662E0,-2.807201445E-1,-2.850895643E0
4.753168076E0,9.582792282E0,-2.472013235E-1,-2.908356428E0
4.755655889E0,9.510966301E0,-2.376245260E-1,-2.975394249E0
4.758143701E0,9.453505516E0,-2.041056901E-1,-3.052008629E0
4.760631514E0,9.381679535E0,-1.897404790E-1,-3.128623009E0
4.763119326E0,9.324218750E0,-1.657984704E-1,-3.195660830E0
4.765607139E0,9.276334763E0,-1.610100716E-1,-3.267486811E0
4.768094951E0,9.228450775E0,-1.705868691E-1,-3.315370798E0
4.770582764E0,9.204508781E0,-1.849520802E-1,-3.372831583E0
4.773070576E0,9.214085579E0,-1.897404790E-1,-3.425503969E0
4.775558389E0,9.209297180E0,-1.945288926E-1,-3.430292368E0
4.778046201E0,9.228450775E0,-2.184709013E-1,-3.430292368E0
4.780534014E0,9.252392769E0,-2.376245260E-1,-3.449446201E0
4.783021826E0,9.271546364E0,-2.759317458E-1,-3.444657803E0
4.785509639E0,9.329007149E0,-3.142389655E-1,-3.430292368E0
4.787997451E0,9.367314339E0,-3.429693878E-1,-3.411138773E0
4.790485264E0,9.415198326E0,-3.764882088E-1,-3.368043184E0
4.792973076E0,9.467870712E0,-4.291606545E-1,-3.315370798E0
4.795460889E0,9.520543098E0,-4.531026781E-1,-3.253121614E0
4.797948701E0,9.568427086E0,-4.626794755E-1,-3.138199806E0
4.800436514E0,9.649829865E0,-5.105634928E-1,-3.023278236E0
4.802924326E0,9.697713852E0,-5.536591411E-1,-2.937086821E0
4.805412139E0,9.769539833E0,-5.967547894E-1,-2.836530447E0
4.807899951E0,9.812635422E0,-6.302735806E-1,-2.702455282E0
4.810387764E0,9.836577415E0,-6.590040326E-1,-2.601898670E0
4.812875576E0,9.841365814E0,-6.877344251E-1,-2.515707493E0
4.815363389E0,9.874884605E0,-6.781576276E-1,-2.419939280E0
4.817851201E0,9.894038200E0,-6.590040326E-1,-2.319382906E0
4.820339014E0,9.913191795E0,-6.446388364E-1,-2.199672699E0
4.822826826E0,9.927556992E0,-6.111199856E-1,-2.103904724E0
4.825314639E0,9.937133789E0,-5.632359385E-1,-2.012925148E0
4.827802451E0,9.922768593E0,-5.249287486E-1,-1.936310649E0
4.830290264E0,9.870096207E0,-5.105634928E-1,-1.869272947E0
4.832778076E0,9.865307808E0,-4.818331003E-1,-1.816600561E0
4.835265889E0,9.850942612E0,-4.531026781E-1,-1.778293371E0
4.837753701E0,9.817423820E0,-4.195838571E-1,-1.735197663E0
4.840241514E0,9.769539833E0,-3.956418335E-1,-1.716044068E0
4.842729326E0,9.702502251E0,-3.429693878E-1,-1.711255670E0
4.845217139E0,9.611522675E0,-2.902969420E-1,-1.725620866E0
4.847704951E0,9.525331497E0,-2.280477136E-1,-1.759139657E0
4.850192764E0,9.439140320E0,-1.610100716E-1,-1.754351258E0
4.852680576E0,9.376891136E0,-1.035492271E-1,-1.783081770E0
4.855168389E0,9.295488358E0,-4.608838260E-2,-1.826177359E0
4.857656201E0,9.247604370E0,1.137245819E-2,-1.878849745E0
4.860144014E0,9.190143585E0,4.967968538E-2,-1.926733851E0
4.862631826E0,9.151836395E0,7.362170517E-2,-1.969829440E0
4.865119639E0,9.103952408E0,9.277531505E-2,-2.022501945E0
4.867607451E0,9.080010414E0,9.277531505E-2,-2.060809135E0
4.870095264E0,9.065644264E0,9.756372124E-2,-2.094327927E0
4.872583076E0,9.041702271E0,1.119289324E-1,-2.118269920E0
4.875070889E0,9.027337074E0,1.262941360E-1,-2.103904724E0
4.877558701E0,9.022548676E0,1.167173311E-1,-2.084751129E0
4.880046514E0,9.046490669E0,1.262941360E-1,-2.051232338E0
4.882534326E0,9.056067467E0,1.262941360E-1,-2.022501945E0
4.885022139E0,9.075222015E0,1.167173311E-1,-1.993771434E0
4.887509951E0,9.099164009E0,1.023521200E-1,-1.931522250E0
4.889997764E0,9.137471199E0,9.277531505E-2,-1.898003340E0
4.892485576E0,9.170989990E0,7.841010392E-2,-1.845330954E0
4.894973389E0,9.199720383E0,5.446808785E-2,-1.773504853E0
4.897461201E0,9.247604370E0,3.531447425E-2,-1.735197663E0
4.899949014E0,9.324218750E0,1.616086066E-2,-1.687313676E0
4.902436826E0,9.391256332E0,-3.172317147E-2,-1.672948480E0
4.904924639E0,9.453505516E0,-4.608838260E-2,-1.639429569E0
4.907412451E0,9.530119896E0,-5.566519126E-2,-1.629852772E0
4.909900264E0,9.592369080E0,-8.918401599E-2,-1.625064373E0
4.912388076E0,9.635464668E0,-1.083376259E-1,-1.615487576E0
4.914875889E0,9.678560257E0,-9.876082093E-2,-1.581968784E0
4.917363701E0,9.726444244E0,-1.274912357E-1,-1.572391987E0
4.919851514E0,9.783905029E0,-1.227028370E-1,-1.572391987E0
4.922339326E0,9.827000618E0,-1.322796494E-1,-1.581968784E0
4.924827139E0,9.879673004E0,-1.466448605E-1,-1.615487576E0
4.927314951E0,9.913191795E0,-1.514332592E-1,-1.658583283E0
4.929802764E0,9.927556992E0,-1.514332592E-1,-1.735197663E0
4.932290576E0,9.951498985E0,-1.514332592E-1,-1.787870169E0
4.934778389E0,9.961075783E0,-1.562216580E-1,-1.888426542E0
4.937266201E0,9.961075783E0,-1.514332592E-1,-1.969829440E0
4.939754014E0,9.951498985E0,-1.514332592E-1,-2.051232338E0
4.942241826E0,9.956287384E0,-1.562216580E-1,-2.161365509E0
4.944729639E0,9.951498985E0,-1.562216580E-1,-2.257133722E0
4.947217451E0,9.917980194E0,-1.370680481E-1,-2.348113298E0
4.949705264E0,9.898826599E0,-1.227028370E-1,-2.419939280E0
4.952193076E0,9.874884605E0,-7.960720360E-2,-2.491765499E0
4.954680889E0,9.846154213E0,-5.087678507E-2,-2.573168278E0
4.957168701E0,9.812635422E0,-1.735796221E-2,-2.654571056E0
4.959656514E0,9.774328232E0,1.616086066E-2,-2.740762472E0
4.962144326E0,9.759963036E0,2.573766746E-2,-2.870049238E0
4.964632139E0,9.745597839E0,3.052607179E-2,-2.975394249E0
4.967119951E0,9.712079048E0,2.573766746E-2,-3.075950623E0
4.969607764E0,9.688137054E0,2.573766746E-2,-3.171718597E0
4.972095576E0,9.649829865E0,6.584054790E-3,-3.257910013E0
4.974583389E0,9.621099472E0,-1.256955881E-2,-3.305794001E0
4.977071201E0,9.601945877E0,-2.214636654E-2,-3.358466387E0
4.979559014E0,9.606734276E0,-1.735796221E-2,-3.377619982E0
4.982046826E0,9.616311073E0,-2.214636654E-2,-3.401561975E0
4.984534639E0,9.640253067E0,-4.129998013E-2,-3.430292368E0
4.987022451E0,9.692925453E0,-3.172317147E-2,-3.425503969E0
4.989510264E0,9.750386238E0,-6.524199992E-2,-3.449446201E0
4.991998076E0,9.822212219E0,-1.083376259E-1,-3.463811398E0
4.994485889E0,9.879673004E0,-1.657984704E-1,-3.487753391E0
4.996973701E0,9.941922188E0,-2.136825025E-1,-3.473388195E0
4.999461514E0,1.001374817E1,-2.663549483E-1,-3.463811398E0
5.001949326E0,1.008557510E1,-3.142389655E-1,-3.439869404E0
5.004437139E0,1.015740108E1,-3.764882088E-1,-3.430292368E0
5.006924951E0,1.021965027E1,-4.291606545E-1,-3.382408381E0
5.009412764E0,1.031062984E1,-4.674678743E-1,-3.329735994E0
5.011900576E0,1.036330223E1,-4.914098978E-1,-3.262698412E0
5.014388389E0,1.041118622E1,-5.392939448E-1,-3.205237627E0
5.016876201E0,1.048301220E1,-5.632359385E-1,-3.138199806E0
5.019364014E0,1.052131939E1,-5.823895931E-1,-3.061585426E0
5.021851826E0,1.057878017E1,-6.159083843E-1,-2.994547844E0
5.024339639E0,1.063624096E1,-6.254851818E-1,-2.961029053E0
5.026827451E0,1.068891335E1,-6.494272351E-1,-2.913144827E0
5.029315264E0,1.073200893E1,-6.733692288E-1,-2.908356428E0
5.031803076E0,1.074158573E1,-7.020996213E-1,-2.889202833E0
5.034290889E0,1.074637413E1,-7.116764784E-1,-2.874837637E0
5.036778701E0,1.073679733E1,-7.116764784E-1,-2.841318846E0
5.039266514E0,1.073200893E1,-6.973112226E-1,-2.788646460E0
5.041754326E0,1.071285534E1,-6.590040326E-1,-2.750339270E0
5.044242139E0,1.069849014E1,-6.159083843E-1,-2.721608877E0
5.046729951E0,1.067454815E1,-5.632359385E-1,-2.688089848E0
5.049217764E0,1.062666416E1,-5.153518915E-1,-2.692878246E0
5.051705576E0,1.056920338E1,-4.626794755E-1,-2.721608877E0
5.054193389E0,1.051653099E1,-4.100070298E-1,-2.755127668E0
5.056681201E0,1.046864700E1,-3.860650361E-1,-2.822165251E0
5.059169014E0,1.039203262E1,-3.477577865E-1,-2.874837637E0
5.061656826E0,1.031541824E1,-3.238157928E-1,-2.927510023E0
5.064144639E0,1.022443867E1,-2.807201445E-1,-2.970605850E0
5.066632451E0,1.014782429E1,-2.376245260E-1,-3.018489838E0
5.069120264E0,1.007599831E1,-2.376245260E-1,-3.047220230E0
5.071608076E0,1.001374817E1,-2.088941038E-1,-3.123834610E0
5.074095889E0,9.970652580E0,-1.945288926E-1,-3.171718597E0
5.076583701E0,9.927556992E0,-1.466448605E-1,-3.205237627E0
5.079071514E0,9.903614998E0,-1.227028370E-1,-3.262698412E0
5.081559326E0,9.879673004E0,-8.918401599E-2,-3.291428804E0
5.084047139E0,9.860519409E0,-7.481880486E-2,-3.320159197E0
5.086534951E0,9.836577415E0,-5.566519126E-2,-3.344101191E0
5.089022764E0,9.822212219E0,-6.524199992E-2,-3.358466387E0
5.091510576E0,9.831789017E0,-7.481880486E-2,-3.368043184E0
5.093998389E0,9.850942612E0,-1.035492271E-1,-3.358466387E0
5.096486253E0,9.879673004E0,-1.274912357E-1,-3.348889589E0
5.098974118E0,9.908403397E0,-1.849520802E-1,-3.315370798E0
5.101461983E0,9.951498985E0,-2.184709013E-1,-3.324947596E0
5.103949847E0,9.985017776E0,-2.711433470E-1,-3.310582399E0
5.106437712E0,1.002811337E1,-3.190273643E-1,-3.281852007E0
5.108925576E0,1.009036350E1,-3.860650361E-1,-3.238756418E0
5.111413441E0,1.014782429E1,-4.483142793E-1,-3.171718597E0
5.113901306E0,1.020049667E1,-4.866214991E-1,-3.133411407E0
