"Time (s)","Acceleration x (m/s^2)","Acceleration y (m/s^2)","Acceleration z (m/s^2)"
5.137000000E-2,7.921216488E0,6.078279495E0,-8.493430614E-1
5.385786500E-2,7.911639690E0,6.092644691E0,-8.732850552E-1
5.634572900E-2,7.906851292E0,6.097433090E0,-8.541314602E-1
5.883359400E-2,7.887697697E0,6.121375084E0,-8.684966564E-1
6.132145800E-2,7.849390507E0,6.135740280E0,-8.493430614E-1
6.380932300E-2,7.806294441E0,6.150105476E0,-8.397662640E-1
6.629718700E-2,7.777564049E0,6.159682274E0,-8.445546627E-1
6.878505200E-2,7.744045258E0,6.183624268E0,-8.541314602E-1
7.127291700E-2,7.724891663E0,6.178835869E0,-8.541314602E-1
7.376078100E-2,7.700949669E0,6.183624268E0,-8.349778652E-1
7.624864600E-2,7.710526466E0,6.178835869E0,-8.349778652E-1
7.873651000E-2,7.696161270E0,6.159682274E0,-8.445546627E-1
8.122437500E-2,7.710526466E0,6.150105476E0,-8.541314602E-1
8.371224000E-2,7.705738068E0,6.140528679E0,-8.637082577E-1
8.620010400E-2,7.681796074E0,6.126163483E0,-8.732850552E-1
8.868796900E-2,7.696161270E0,6.107009888E0,-8.924387097E-1
9.117583300E-2,7.724891663E0,6.078279495E0,-8.732850552E-1
9.366369800E-2,7.734468460E0,6.030395508E0,-8.684966564E-1
9.615156200E-2,7.748833656E0,5.992088318E0,-8.541314602E-1
9.863942700E-2,7.772775650E0,5.968146324E0,-8.732850552E-1
1.011272920E-1,7.787140846E0,5.948992729E0,-8.732850552E-1
1.036151560E-1,7.787140846E0,5.910685539E0,-8.876502514E-1
1.061030210E-1,7.796717644E0,5.881955147E0,-8.972271085E-1
1.085908850E-1,7.806294441E0,5.853224754E0,-8.924387097E-1
1.110787500E-1,7.787140846E0,5.834071159E0,-9.355342984E-1
1.135666150E-1,7.787140846E0,5.814917564E0,-9.355342984E-1
1.160544790E-1,7.811082840E0,5.790975571E0,-9.498994946E-1
1.185423440E-1,7.811082840E0,5.752667904E0,-9.738415480E-1
1.210302080E-1,7.801506042E0,5.714360714E0,-9.977835417E-1
1.235180730E-1,7.772775650E0,5.666476727E0,-1.055244446E0
1.260059370E-1,7.772775650E0,5.609015942E0,-1.098340034E0
1.284938020E-1,7.772775650E0,5.570708752E0,-1.160589218E0
1.309816670E-1,7.758410454E0,5.518036366E0,-1.246780515E0
1.334695310E-1,7.767987251E0,5.484517574E0,-1.313818216E0
1.359573960E-1,7.825448036E0,5.427056789E0,-1.409586191E0
1.384452600E-1,7.878120899E0,5.379172802E0,-1.462258697E0
1.409331250E-1,7.935581684E0,5.379172802E0,-1.529296279E0
1.434209900E-1,7.993042469E0,5.355230808E0,-1.577180386E0
1.459088540E-1,8.036137581E0,5.364807606E0,-1.629852772E0
1.483967190E-1,8.074444771E0,5.345654011E0,-1.658583283E0
1.508845830E-1,8.088809967E0,5.336077213E0,-1.701678872E0
1.533724480E-1,8.141483307E0,5.336077213E0,-1.730409265E0
1.558603120E-1,8.151060104E0,5.350442410E0,-1.735197663E0
1.583481770E-1,8.136694908E0,5.369596004E0,-1.739986062E0
1.608360420E-1,8.131906509E0,5.398326397E0,-1.735197663E0
1.633239060E-1,8.131906509E0,5.441421986E0,-1.749562860E0
1.658117710E-1,8.127118111E0,5.479729176E0,-1.768716455E0
1.682996350E-1,8.107964516E0,5.522824764E0,-1.797446966E0
1.707875000E-1,8.069656372E0,5.565920353E0,-1.854907751E0
1.732753650E-1,8.007407188E0,5.609015942E0,-1.893214941E0
1.757632290E-1,7.940370083E0,5.647323132E0,-1.917157054E0
1.782510940E-1,7.868544102E0,5.709572315E0,-1.955464244E0
1.807389580E-1,7.796717644E0,5.752667904E0,-1.965041041E0
1.832268230E-1,7.724891663E0,5.814917564E0,-1.950675845E0
1.857146870E-1,7.662642479E0,5.877166748E0,-1.941099048E0
1.882025520E-1,7.605181694E0,5.915473938E0,-1.931522250E0
1.906904170E-1,7.542932510E0,5.968146324E0,-1.921945453E0
1.931782810E-1,7.509413719E0,5.996876717E0,-1.898003340E0
1.956661460E-1,7.466318130E0,6.011241913E0,-1.878849745E0
1.981540100E-1,7.418434143E0,6.039972305E0,-1.840542555E0
2.006418750E-1,7.375338554E0,6.068702698E0,-1.797446966E0
2.031297400E-1,7.351396084E0,6.092644691E0,-1.759139657E0
2.056176040E-1,7.341819286E0,6.126163483E0,-1.720832467E0
2.081054690E-1,7.327454090E0,6.150105476E0,-1.653794765E0
2.105933330E-1,7.313088894E0,6.193201065E0,-1.605910778E0
2.130811980E-1,7.279570103E0,6.217143059E0,-1.553238392E0
2.155690620E-1,7.246051311E0,6.236296654E0,-1.481412292E0
2.180569270E-1,7.202955723E0,6.245873451E0,-1.414374709E0
2.205447920E-1,7.155071735E0,6.274604321E0,-1.366490602E0
2.230326560E-1,7.107187748E0,6.317699909E0,-1.289876223E0
2.255205210E-1,7.073668957E0,6.346430302E0,-1.232415318E0
2.280083850E-1,7.044938564E0,6.375160694E0,-1.170166135E0
2.304962500E-1,7.020996571E0,6.394314289E0,-1.107916832E0
2.329841150E-1,7.025784969E0,6.432621479E0,-1.040879130E0
2.354719790E-1,7.020996571E0,6.432621479E0,-1.007360339E0
2.379598440E-1,7.016208172E0,6.427833080E0,-9.738415480E-1
2.404477080E-1,7.016208172E0,6.432621479E0,-9.546879530E-1
2.429355730E-1,7.054515362E0,6.427833080E0,-9.355342984E-1
2.454234370E-1,7.078457355E0,6.418256283E0,-9.020155072E-1
2.479113020E-1,7.111976147E0,6.375160694E0,-9.020155072E-1
2.503991670E-1,7.150283337E0,6.356007099E0,-9.020155072E-1
2.528870310E-1,7.188590527E0,6.356007099E0,-8.828618526E-1
2.553748960E-1,7.236474514E0,6.327276707E0,-8.828618526E-1
2.578627600E-1,7.269993305E0,6.312911510E0,-9.020155072E-1
2.603506250E-1,7.289146900E0,6.265027523E0,-8.876502514E-1
2.628384900E-1,7.327454090E0,6.221931458E0,-8.684966564E-1
2.653263540E-1,7.375338554E0,6.159682274E0,-8.924387097E-1
2.678142190E-1,7.428010941E0,6.121375084E0,-8.876502514E-1
2.703020830E-1,7.471106529E0,6.059125900E0,-8.828618526E-1
2.727899480E-1,7.518990517E0,6.016030312E0,-8.780734539E-1
2.752778120E-1,7.586028099E0,5.972934723E0,-8.589198589E-1
2.777656770E-1,7.653065681E0,5.929839134E0,-8.493430614E-1
2.802535420E-1,7.724891663E0,5.877166748E0,-8.110358119E-1
2.827414060E-1,7.787140846E0,5.848436356E0,-7.727286220E-1
2.852292710E-1,7.868544102E0,5.824494362E0,-7.439981699E-1
2.877171350E-1,7.935581684E0,5.786187172E0,-7.104793787E-1
2.902050000E-1,7.983465672E0,5.743091106E0,-6.769605279E-1
2.926928650E-1,8.064867973E0,5.695207119E0,-6.482301354E-1
2.951807290E-1,8.107964516E0,5.656899929E0,-6.051344872E-1
2.976685940E-1,8.175002098E0,5.609015942E0,-5.620388389E-1
3.001564580E-1,8.218097687E0,5.585073948E0,-5.285200477E-1
3.026443230E-1,8.251616478E0,5.556343555E0,-4.710591733E-1
3.051321870E-1,8.265981674E0,5.551555157E0,-4.040215313E-1
3.076200520E-1,8.265981674E0,5.561131954E0,-3.609259129E-1
3.101079170E-1,8.232462883E0,5.589862347E0,-3.034650683E-1
3.125957810E-1,8.208520889E0,5.623381138E0,-2.603694201E-1
3.150836460E-1,8.179790497E0,5.642534733E0,-2.076970041E-1
3.175715100E-1,8.117541313E0,5.666476727E0,-1.502361596E-1
3.200593750E-1,8.064867973E0,5.709572315E0,-1.215057373E-1
3.225472400E-1,8.012195587E0,5.738302708E0,-8.319851011E-2
3.250351040E-1,7.949946880E0,5.781398773E0,-5.925649032E-2
3.275229690E-1,7.902062893E0,5.805340767E0,-2.094926499E-2
3.300108330E-1,7.878120899E0,5.858013153E0,-1.137245819E-2
3.324986980E-1,7.863755703E0,5.905897141E0,2.992752008E-3
3.349865620E-1,7.839813232E0,5.963357925E0,-1.795651275E-3
3.374744270E-1,7.858967304E0,5.992088318E0,-6.584054790E-3
3.399622920E-1,7.825448036E0,6.025607109E0,-2.094926499E-2
3.424501560E-1,7.830236435E0,6.039972305E0,-4.967968538E-2
3.449380210E-1,7.815871239E0,6.039972305E0,-3.531447425E-2
3.474258850E-1,7.830236435E0,6.044760704E0,-5.925649032E-2
3.499137500E-1,7.858967304E0,6.044760704E0,-8.798690885E-2
3.524016150E-1,7.873332500E0,6.059125900E0,-1.071405262E-1
3.548894790E-1,7.902062893E0,6.102221489E0,-1.262941360E-1
3.573773440E-1,7.916428089E0,6.140528679E0,-1.550245583E-1
3.598652080E-1,7.940370083E0,6.202777863E0,-1.885433793E-1
3.623530730E-1,7.954735279E0,6.269815922E0,-2.172738016E-1
3.648409370E-1,7.945158482E0,6.346430302E0,-2.316390127E-1
3.673288020E-1,7.940370083E0,6.427833080E0,-2.699462473E-1
3.698166670E-1,7.935581684E0,6.509235859E0,-2.938882709E-1
3.723045310E-1,7.921216488E0,6.576273441E0,-3.274070919E-1
3.747923960E-1,7.949946880E0,6.652887821E0,-3.226186931E-1
3.772802600E-1,7.959523678E0,6.734290600E0,-3.369838893E-1
3.797681250E-1,8.002618790E0,6.806117058E0,-3.513490856E-1
3.822559900E-1,8.040925980E0,6.873154640E0,-3.657143116E-1
3.847438540E-1,8.107964516E0,6.954557419E0,-3.944447339E-1
3.872317190E-1,8.160636902E0,7.012018204E0,-4.471171796E-1
3.897195830E-1,8.246828079E0,7.074267387E0,-4.997895956E-1
3.922074480E-1,8.352172852E0,7.160458565E0,-5.333084464E-1
3.946953120E-1,8.462306023E0,7.213130951E0,-5.524620414E-1
3.971831770E-1,8.562862396E0,7.256227016E0,-5.811924338E-1
3.996710420E-1,8.629899979E0,7.284957409E0,-6.051344872E-1
4.021589060E-1,8.720879555E0,7.294534206E0,-6.194996834E-1
4.046467710E-1,8.821435928E0,7.299322605E0,-6.386532784E-1
4.071346350E-1,8.931569099E0,7.304111004E0,-6.242880821E-1
4.096225000E-1,9.046490669E0,7.299322605E0,-6.530185342E-1
4.121103650E-1,9.147047997E0,7.299322605E0,-6.530185342E-1
4.145982290E-1,9.257181168E0,7.313687801E0,-6.242880821E-1
4.170860940E-1,9.362525940E0,7.351994991E0,-6.003460884E-1
4.195739580E-1,9.472659111E0,7.371148586E0,-5.716156363E-1
4.220618230E-1,9.578003883E0,7.390302181E0,-5.237316489E-1
4.245496870E-1,9.707290649E0,7.404667377E0,-4.854243994E-1
4.270375520E-1,9.793481827E0,7.371148586E0,-4.279635549E-1
4.295254170E-1,9.898826599E0,7.351994991E0,-4.088099301E-1
4.320132810E-1,9.965864182E0,7.328052998E0,-3.561375141E-1
4.345011460E-1,1.002332497E1,7.308899403E0,-3.178302646E-1
4.369890100E-1,1.005205631E1,7.304111004E0,-3.082534671E-1
4.394768750E-1,1.005205631E1,7.299322605E0,-3.465606868E-1
4.419647400E-1,1.004726696E1,7.328052998E0,-3.082534671E-1
4.444526040E-1,1.000895977E1,7.337629795E0,-1.837549806E-1
4.469404690E-1,1.002811337E1,7.351994991E0,-1.837549806E-1
4.494283330E-1,1.003769016E1,7.366360188E0,-1.310825497E-1
4.519161980E-1,1.006642151E1,7.371148586E0,-9.756372124E-2
4.544040620E-1,1.008078671E1,7.423820972E0,-8.798690885E-2
4.568919270E-1,1.007120991E1,7.433397770E0,-1.215057373E-1
4.593797920E-1,1.004726696E1,7.490858555E0,-1.550245583E-1
4.618676560E-1,1.001853657E1,7.538742542E0,-2.172738016E-1
4.643555210E-1,1.000417137E1,7.615356922E0,-2.651578486E-1
4.668433850E-1,9.999382973E0,7.653664112E0,-2.986766696E-1
4.693312500E-1,9.994594574E0,7.682394505E0,-3.465606868E-1
4.718191150E-1,9.985017776E0,7.730278969E0,-3.944447339E-1
4.743069790E-1,9.965864182E0,7.759009361E0,-4.566939771E-1
4.767948440E-1,9.951498985E0,7.787739754E0,-5.333084464E-1
4.792827080E-1,9.970652580E0,7.816470146E0,-6.003460884E-1
4.817705730E-1,9.961075783E0,7.864354134E0,-6.386532784E-1
4.842584370E-1,9.980229378E0,7.917026520E0,-6.961141229E-1
4.867463020E-1,9.951498985E0,7.950545311E0,-7.535749674E-1
4.892341670E-1,9.922768593E0,7.974487305E0,-7.966706157E-1
4.917220310E-1,9.874884605E0,7.969698906E0,-8.541314602E-1
4.942098960E-1,9.817423820E0,7.993640900E0,-9.211691022E-1
4.966977600E-1,9.764751434E0,7.998429298E0,-9.786299467E-1
4.991856250E-1,9.736021042E0,7.974487305E0,-9.977835417E-1
5.016734900E-1,9.678560257E0,7.945756912E0,-1.012148738E0
5.041613540E-1,9.611522675E0,7.945756912E0,-1.016937137E0
5.066492190E-1,9.578003883E0,7.926603317E0,-1.021725535E0
5.091370830E-1,9.530119896E0,7.917026520E0,-1.007360339E0
5.116249480E-1,9.501389503E0,7.893084526E0,-9.929951429E-1
5.141128120E-1,9.496601105E0,7.854777336E0,-1.002571940E0
5.166006770E-1,9.487024307E0,7.840412140E0,-1.002571940E0
5.190885420E-1,9.467870712E0,7.830835342E0,-9.977835417E-1
5.215764060E-1,9.429563522E0,7.816470146E0,-1.012148738E0
5.240642710E-1,9.415198326E0,7.787739754E0,-1.060032845E0
5.265521350E-1,9.424775124E0,7.735067368E0,-1.122282028E0
5.290400000E-1,9.424775124E0,7.677606106E0,-1.165377736E0
5.315278650E-1,9.429563522E0,7.615356922E0,-1.208473325E0
5.340157290E-1,9.439140320E0,7.557896137E0,-1.227626920E0
5.365035940E-1,9.453505516E0,7.481281757E0,-1.246780515E0
5.389914580E-1,9.477447510E0,7.423820972E0,-1.251568913E0
5.414793230E-1,9.453505516E0,7.351994991E0,-1.251568913E0
5.439671870E-1,9.439140320E0,7.280169010E0,-1.261145711E0
5.464550520E-1,9.396044731E0,7.222707748E0,-1.275510907E0
5.489429170E-1,9.357737541E0,7.174823761E0,-1.309029818E0
5.514307810E-1,9.319430351E0,7.136516571E0,-1.328183413E0
5.539186460E-1,9.242815971E0,7.093420982E0,-1.376067400E0
5.564065100E-1,9.204508781E0,7.040748596E0,-1.414374709E0
5.588943750E-1,9.199720383E0,7.002441406E0,-1.452681899E0
5.613822400E-1,9.214085579E0,6.959345818E0,-1.514931083E0
5.638701040E-1,9.242815971E0,6.887519836E0,-1.553238392E0
5.663579690E-1,9.295488358E0,6.815693855E0,-1.586757183E0
5.688458330E-1,9.333795547E0,6.705560207E0,-1.610699177E0
5.713336980E-1,9.367314339E0,6.585850239E0,-1.634641171E0
5.738215620E-1,9.357737541E0,6.499659061E0,-1.658583283E0
5.763094270E-1,9.343372345E0,6.403891087E0,-1.677736878E0
5.787972920E-1,9.333795547E0,6.322488308E0,-1.706467271E0
5.812851560E-1,9.329007149E0,6.279392719E0,-1.725620866E0
5.837730210E-1,9.300276756E0,6.260239124E0,-1.720832467E0
5.862608850E-1,9.276334763E0,6.207566261E0,-1.730409265E0
5.887487500E-1,9.266757965E0,6.174047470E0,-1.744774461E0
5.912366150E-1,9.257181168E0,6.154893875E0,-1.759139657E0
5.937244790E-1,9.257181168E0,6.116586685E0,-1.811812162E0
5.962123440E-1,9.266757965E0,6.059125900E0,-1.816600561E0
5.987002080E-1,9.281123161E0,6.011241913E0,-1.840542555E0
6.011880730E-1,9.295488358E0,5.948992729E0,-1.830965757E0
6.036759370E-1,9.314641953E0,5.886743546E0,-1.816600561E0
6.061638020E-1,9.391256332E0,5.814917564E0,-1.797446966E0
6.086516670E-1,9.453505516E0,5.762245178E0,-1.792658567E0
6.111395310E-1,9.477447510E0,5.743091106E0,-1.754351258E0
6.136273960E-1,9.482235909E0,5.714360714E0,-1.730409265E0
6.161152600E-1,9.487024307E0,5.695207119E0,-1.696890473E0
6.186031250E-1,9.510966301E0,5.680841923E0,-1.649006367E0
6.210909900E-1,9.568427086E0,5.676053524E0,-1.562815189E0
6.235788540E-1,9.630676270E0,5.652111530E0,-1.476623893E0
6.260667190E-1,9.688137054E0,5.618592739E0,-1.380855799E0
6.285545830E-1,9.726444244E0,5.585073948E0,-1.261145711E0
6.310424480E-1,9.726444244E0,5.551555157E0,-1.127070427E0
6.335303120E-1,9.683348656E0,5.551555157E0,-9.834183455E-1
6.360181770E-1,9.654618263E0,5.561131954E0,-8.589198589E-1
6.385060420E-1,9.601945877E0,5.580285549E0,-7.296329737E-1
6.409939060E-1,9.539696693E0,5.580285549E0,-6.290764809E-1
6.434817710E-1,9.482235909E0,5.623381138E0,-5.380968451E-1
6.459696350E-1,9.410409927E0,5.647323132E0,-4.662707746E-1
6.484575000E-1,9.338583946E0,5.652111530E0,-3.848679364E-1
6.509454170E-1,9.266757965E0,5.652111530E0,-3.274070919E-1
6.534333330E-1,9.161413193E0,5.666476727E0,-2.986766696E-1
6.559212500E-1,9.065644264E0,5.699995518E0,-2.699462473E-1
6.584091670E-1,8.965087891E0,5.743091106E0,-2.603694201E-1
6.608970830E-1,8.883685112E0,5.776610374E0,-2.603694201E-1
6.633850000E-1,8.811859131E0,5.790975571E0,-2.938882709E-1
6.658729170E-1,8.740033150E0,5.795763969E0,-3.321954906E-1
6.683608330E-1,8.677783966E0,5.814917564E0,-3.657143116E-1
6.708487500E-1,8.663418770E0,5.853224754E0,-4.040215313E-1
6.733366670E-1,8.620323181E0,5.881955147E0,-4.375403523E-1
6.758245830E-1,8.596381187E0,5.877166748E0,-5.045779943E-1
6.783125000E-1,8.582015991E0,5.867589951E0,-5.716156363E-1
6.808004170E-1,8.548497200E0,5.867589951E0,-6.625953317E-1
6.832883330E-1,8.505401611E0,5.843647957E0,-7.487865686E-1
6.857762500E-1,8.409633636E0,5.843647957E0,-8.301894665E-1
6.882641670E-1,8.333019257E0,5.853224754E0,-8.780734539E-1
6.907520830E-1,8.265981674E0,5.848436356E0,-9.163807034E-1
6.932400000E-1,8.265981674E0,5.853224754E0,-9.020155072E-1
6.957279170E-1,8.289923668E0,5.834071159E0,-8.541314602E-1
6.982158330E-1,8.337807655E0,5.767033577E0,-7.870938182E-1
7.007037500E-1,8.400056839E0,5.676053524E0,-7.056909800E-1
7.031916670E-1,8.481459618E0,5.580285549E0,-6.386532784E-1
7.056795830E-1,8.543708801E0,5.470152378E0,-5.955576897E-1
7.081675000E-1,8.558073997E0,5.388749599E0,-5.716156363E-1
7.106554170E-1,8.562862396E0,5.321712017E0,-5.476736426E-1
7.131433330E-1,8.543708801E0,5.278616428E0,-5.189431906E-1
7.156312500E-1,8.524555206E0,5.254673958E0,-5.093663931E-1
7.181191670E-1,8.467094421E0,5.240308762E0,-5.045779943E-1
7.206070830E-1,8.376114845E0,5.225943565E0,-4.662707746E-1
7.230950000E-1,8.289923668E0,5.245097160E0,-4.327519536E-1
7.255829170E-1,8.146271706E0,5.288193226E0,-4.040215313E-1
7.280707810E-1,8.002618790E0,5.336077213E0,-4.327519536E-1
7.305586460E-1,7.882909298E0,5.388749599E0,-4.758476019E-1
7.330465100E-1,7.782352448E0,5.460575581E0,-5.476736426E-1
7.355343750E-1,7.734468460E0,5.508459568E0,-6.242880821E-1
7.380222400E-1,7.667430878E0,5.508459568E0,-6.721721292E-1
7.405101040E-1,7.629123688E0,5.518036366E0,-6.961141229E-1
7.429979690E-1,7.605181694E0,5.522824764E0,-7.104793787E-1
7.454858330E-1,7.542932510E0,5.575497150E0,-7.487865686E-1
7.479736980E-1,7.442376137E0,5.623381138E0,-7.631517649E-1
7.504615620E-1,7.322665691E0,5.695207119E0,-8.014590144E-1
7.529494270E-1,7.236474514E0,5.786187172E0,-8.589198589E-1
7.554372920E-1,7.193378925E0,5.858013153E0,-9.068039060E-1
7.579251560E-1,7.188590527E0,5.958569527E0,-9.594763517E-1
7.604130210E-1,7.212532520E0,6.035183907E0,-1.060032845E0
7.629008850E-1,7.226897717E0,6.092644691E0,-1.155800819E0
7.653887500E-1,7.289146900E0,6.135740280E0,-1.280299306E0
7.678766150E-1,7.384915352E0,6.159682274E0,-1.390432596E0
7.703644790E-1,7.480683327E0,6.159682274E0,-1.514931083E0
7.728523440E-1,7.566874504E0,6.164470673E0,-1.596333981E0
7.753402080E-1,7.667430878E0,6.174047470E0,-1.677736878E0
7.778280730E-1,7.772775650E0,6.169259071E0,-1.759139657E0
7.803159370E-1,7.882909298E0,6.135740280E0,-1.850119352E0
7.828038020E-1,7.978677273E0,6.073491096E0,-1.921945453E0
7.852916670E-1,8.084021568E0,6.001665115E0,-1.998559833E0
7.877795310E-1,8.218097687E0,5.944204330E0,-2.079962730E0
7.902673960E-1,8.309077263E0,5.872378349E0,-2.166153908E0
7.927552600E-1,8.404845238E0,5.814917564E0,-2.223614931E0
7.952431250E-1,8.500613213E0,5.723937511E0,-2.271498919E0
7.977309900E-1,8.558073997E0,5.613804340E0,-2.314594507E0
8.002188540E-1,8.586804390E0,5.503671169E0,-2.362478495E0
8.027067190E-1,8.577227592E0,5.383961201E0,-2.400785685E0
8.051945830E-1,8.467094421E0,5.302558422E0,-2.381632090E0
8.076824480E-1,8.237251282E0,5.273828030E0,-2.372055292E0
8.101703120E-1,7.964312077E0,5.297770023E0,-2.324171305E0
8.126581770E-1,7.739256859E0,5.379172802E0,-2.257133722E0
8.151460420E-1,7.562086105E0,5.422268391E0,-2.185307503E0
8.176339060E-1,7.437587738E0,5.436633587E0,-2.118269920E0
8.201217710E-1,7.341819286E0,5.412691593E0,-2.079962730E0
8.226096350E-1,7.226897717E0,5.360019207E0,-2.113481522E0
8.250975000E-1,7.131129742E0,5.321712017E0,-2.156577110E0
8.275853650E-1,7.025784969E0,5.273828030E0,-2.218826532E0
8.300732290E-1,6.949170589E0,5.249885559E0,-2.305017710E0
8.325610940E-1,6.877344608E0,5.249885559E0,-2.372055292E0
8.350489580E-1,6.834248543E0,5.230731964E0,-2.443881273E0
8.375368230E-1,6.834248543E0,5.206789970E0,-2.510919094E0
8.400246870E-1,6.872556210E0,5.149329185E0,-2.597110271E0
8.425125520E-1,6.934805393E0,5.096656799E0,-2.668936253E0
8.450004170E-1,7.001842976E0,5.010465622E0,-2.755127668E0
8.474882810E-1,7.111976147E0,4.924274445E0,-2.865260839E0
8.499761460E-1,7.231686115E0,4.804564476E0,-2.946663857E0
8.524640100E-1,7.360973358E0,4.689642429E0,-3.061585426E0
8.549518750E-1,7.471106529E0,4.569932461E0,-3.181295395E0
8.574397400E-1,7.523778915E0,4.445434093E0,-3.324947596E0
8.599276040E-1,7.566874504E0,4.335300922E0,-3.444657803E0
8.624154690E-1,7.609970093E0,4.268262863E0,-3.530848980E0
8.649033330E-1,7.648277283E0,4.191648483E0,-3.597886562E0
8.673911980E-1,7.686584473E0,4.100668907E0,-3.664924145E0
8.698790620E-1,7.724891663E0,4.014477730E0,-3.703231573E0
8.723669270E-1,7.787140846E0,3.933074951E0,-3.698443174E0
8.748547920E-1,7.858967304E0,3.837306738E0,-3.693654776E0
8.773426560E-1,7.935581684E0,3.746327162E0,-3.669712543E0
8.798305210E-1,7.973888874E0,3.679289579E0,-3.679289579E0
8.823183850E-1,7.954735279E0,3.636193752E0,-3.679289579E0
8.848062500E-1,7.882909298E0,3.626616955E0,-3.660135746E0
8.872941150E-1,7.767987251E0,3.660135746E0,-3.640982151E0
8.897819790E-1,7.643488884E0,3.708019972E0,-3.588309765E0
8.922698440E-1,7.557297707E0,3.760692358E0,-3.506906986E0
8.947577080E-1,7.447164536E0,3.808576345E0,-3.406350374E0
8.972455730E-1,7.322665691E0,3.866037130E0,-3.305794001E0
8.997334370E-1,7.202955723E0,3.937863350E0,-3.238756418E0
9.022213020E-1,7.073668957E0,4.004900932E0,-3.205237627E0
9.047091670E-1,7.020996571E0,4.043208122E0,-3.219602823E0
9.071970310E-1,7.001842976E0,4.091092110E0,-3.205237627E0
9.096848960E-1,7.030573368E0,4.091092110E0,-3.214814425E0
9.121727600E-1,7.078457355E0,4.100668907E0,-3.210026026E0
9.146606250E-1,7.116764545E0,4.119822502E0,-3.224391222E0
9.171484900E-1,7.131129742E0,4.129399300E0,-3.253121614E0
9.196363540E-1,7.140706539E0,4.158129692E0,-3.253121614E0
9.221242190E-1,7.164648533E0,4.167706490E0,-3.291428804E0
9.246120830E-1,7.188590527E0,4.158129692E0,-3.320159197E0
9.270999480E-1,7.236474514E0,4.138976097E0,-3.363254786E0
9.295878120E-1,7.308300495E0,4.081515312E0,-3.435081005E0
9.320756770E-1,7.404068947E0,4.043208122E0,-3.540425777E0
9.345635420E-1,7.509413719E0,4.000112534E0,-3.660135746E0
9.370514060E-1,7.576451302E0,3.966593742E0,-3.798999548E0
9.395392710E-1,7.614758492E0,3.985747337E0,-3.904344320E0
9.420271350E-1,7.619546890E0,4.009689331E0,-4.028842926E0
9.445150000E-1,7.657854080E0,4.062361717E0,-4.143764496E0
9.470028650E-1,7.681796074E0,4.105457306E0,-4.234744072E0
9.494907290E-1,7.696161270E0,4.134187698E0,-4.296993732E0
9.519785940E-1,7.696161270E0,4.148552895E0,-4.330512524E0
9.544664580E-1,7.724891663E0,4.148552895E0,-4.344877720E0
9.569543230E-1,7.696161270E0,4.134187698E0,-4.359242916E0
9.594421870E-1,7.681796074E0,4.129399300E0,-4.359242916E0
9.619300520E-1,7.643488884E0,4.167706490E0,-4.373608112E0
9.644179170E-1,7.571662903E0,4.206013680E0,-4.373608112E0
9.669057810E-1,7.432799339E0,4.273051262E0,-4.349666119E0
9.693936460E-1,7.284358501E0,4.354454517E0,-4.277839661E0
9.718815100E-1,7.150283337E0,4.431068897E0,-4.244320869E0
9.743693750E-1,7.016208172E0,4.512471676E0,-4.182071686E0
9.768572920E-1,6.968324184E0,4.569932461E0,-4.124610901E0
9.793452080E-1,6.930016994E0,4.584297657E0,-4.062361717E0
9.818331250E-1,6.968324184E0,4.574720860E0,-3.971382141E0
9.843210420E-1,7.049726963E0,4.550778866E0,-3.918709517E0
9.868089580E-1,7.135918140E0,4.522048473E0,-3.856460333E0
9.892968750E-1,7.222109318E0,4.507683277E0,-3.784634352E0
9.917847920E-1,7.260416508E0,4.550778866E0,-3.741538763E0
9.942727080E-1,7.308300495E0,4.608239651E0,-3.727173567E0
9.967606250E-1,7.337030888E0,4.680065632E0,-3.688866377E0
9.992485420E-1,7.327454090E0,4.747103214E0,-3.655347347E0
1.001736458E0,7.322665691E0,4.794987679E0,-3.626616955E0
1.004224375E0,7.332242489E0,4.833294868E0,-3.593098164E0
1.006712292E0,7.337030888E0,4.871602058E0,-3.564367771E0
1.009200208E0,7.346607685E0,4.909909248E0,-3.554790974E0
1.011688125E0,7.404068947E0,4.943428040E0,-3.526060581E0
1.014176042E0,7.447164536E0,4.943428040E0,-3.521272182E0
1.016663958E0,7.466318130E0,4.929062843E0,-3.482964993E0
1.019151875E0,7.471106529E0,4.905120850E0,-3.454234600E0
1.021639792E0,7.442376137E0,4.890755653E0,-3.406350374E0
1.024127708E0,7.418434143E0,4.895544052E0,-3.358466387E0
1.026615625E0,7.389703751E0,4.900332451E0,-3.272275209E0
1.029103542E0,7.380126953E0,4.895544052E0,-3.181295395E0
1.031591458E0,7.413645744E0,4.905120850E0,-3.066373825E0
1.034079375E0,7.461529732E0,4.909909248E0,-2.922721624E0
1.036567292E0,7.471106529E0,4.876390457E0,-2.793434858E0
1.039055208E0,7.485471725E0,4.814141273E0,-2.707243681E0
1.041543125E0,7.490260124E0,4.756680012E0,-2.606687069E0
1.044031042E0,7.480683327E0,4.727949619E0,-2.558803082E0
1.046518958E0,7.442376137E0,4.756680012E0,-2.443881273E0
1.049006875E0,7.423222542E0,4.780622005E0,-2.324171305E0
1.051494792E0,7.423222542E0,4.790199280E0,-2.233191729E0
1.053982708E0,7.423222542E0,4.766256809E0,-2.147000313E0
1.056470625E0,7.413645744E0,4.704007626E0,-2.099116325E0
1.058958542E0,7.375338554E0,4.670488834E0,-2.099116325E0
1.061446406E0,7.322665691E0,4.641758442E0,-2.118269920E0
1.063934271E0,7.246051311E0,4.660912037E0,-2.156577110E0
1.066422135E0,7.159860134E0,4.718372822E0,-2.228403330E0
1.068910000E0,7.073668957E0,4.775833607E0,-2.319382906E0
1.071397865E0,7.011419773E0,4.847660065E0,-2.367266893E0
1.073885729E0,6.963535786E0,4.866813660E0,-2.405574083E0
1.076373594E0,6.939593792E0,4.847660065E0,-2.448669672E0
1.078861458E0,6.934805393E0,4.809352875E0,-2.496553898E0
1.081349323E0,6.944382191E0,4.737526417E0,-2.554014683E0
1.083837187E0,6.977900982E0,4.660912037E0,-2.601898670E0
1.086325052E0,7.025784969E0,4.603451252E0,-2.625840664E0
1.088813385E0,7.059303761E0,4.541202068E0,-2.659359455E0
1.091300990E0,7.078457355E0,4.483741283E0,-2.678513050E0
1.093788594E0,7.111976147E0,4.411915302E0,-2.692878246E0
1.096276198E0,7.174225330E0,4.368819714E0,-2.697666883E0
1.098763802E0,7.284358501E0,4.301782131E0,-2.673724651E0
1.101251406E0,7.399280548E0,4.201225281E0,-2.649782658E0
1.103739062E0,7.499836922E0,4.095880508E0,-2.582745075E0
1.106226771E0,7.595604897E0,3.990535736E0,-2.458246708E0
1.108714531E0,7.700949669E0,3.866037130E0,-2.324171305E0
1.111202344E0,7.820659637E0,3.775057554E0,-2.209249735E0
1.113690208E0,7.906851292E0,3.712808371E0,-2.113481522E0
1.116178125E0,7.969100475E0,3.674500942E0,-2.041655540E0
1.118666094E0,7.993042469E0,3.660135746E0,-1.974617839E0
1.121154115E0,8.012195587E0,3.703231573E0,-1.945887446E0
1.123642135E0,8.012195587E0,3.751115561E0,-1.921945453E0
1.126130156E0,8.012195587E0,3.784634352E0,-1.907580256E0
1.128618177E0,8.007407188E0,3.803787947E0,-1.931522250E0
1.131106198E0,7.964312077E0,3.794211149E0,-1.955464244E0
1.133594219E0,7.902062893E0,3.813364744E0,-2.012925148E0
1.136082240E0,7.811082840E0,3.842095137E0,-2.099116325E0
1.138570260E0,7.739256859E0,3.875613928E0,-2.204461098E0
1.141058281E0,7.686584473E0,3.923498154E0,-2.281075716E0
1.143546302E0,7.605181694E0,3.990535736E0,-2.372055292E0
1.146034323E0,7.552509308E0,4.024054527E0,-2.491765499E0
1.148522187E0,7.475894928E0,4.081515312E0,-2.577956676E0
1.151010052E0,7.408857346E0,4.110245705E0,-2.659359455E0
1.153497917E0,7.341819286E0,4.143764496E0,-2.759916067E0
1.155985781E0,7.269993305E0,4.167706490E0,-2.850895643E0
1.158473646E0,7.198167324E0,4.182071686E0,-2.975394249E0
1.160961510E0,7.188590527E0,4.206013680E0,-3.052008629E0
1.163449375E0,7.198167324E0,4.234744072E0,-3.114257812E0
1.165937240E0,7.274781704E0,4.244320869E0,-3.181295395E0
1.168425104E0,7.365761757E0,4.220378876E0,-3.195660830E0
1.170912969E0,7.490260124E0,4.225167274E0,-3.210026026E0
1.173400833E0,7.624335289E0,4.177283287E0,-3.205237627E0
1.175888698E0,7.744045258E0,4.153341293E0,-3.233968019E0
1.178376562E0,7.835024834E0,4.105457306E0,-3.253121614E0
1.180864427E0,7.897274494E0,4.062361717E0,-3.301005602E0
1.183352292E0,7.921216488E0,4.052784920E0,-3.348889589E0
1.185840156E0,7.921216488E0,4.091092110E0,-3.377619982E0
1.188328021E0,7.916428089E0,4.138976097E0,-3.401561975E0
1.190815885E0,7.892486095E0,4.196436882E0,-3.449446201E0
1.193303750E0,7.839813232E0,4.258686066E0,-3.478176594E0
1.195791615E0,7.715314865E0,4.316147327E0,-3.478176594E0
1.198279479E0,7.600393295E0,4.354454517E0,-3.487753391E0
1.200767344E0,7.523778915E0,4.392761707E0,-3.492541790E0
1.203255208E0,7.461529732E0,4.431068897E0,-3.473388195E0
1.205743073E0,7.418434143E0,4.455010891E0,-3.497330189E0
1.208230937E0,7.380126953E0,4.464587688E0,-3.506906986E0
1.210718802E0,7.346607685E0,4.512471676E0,-3.506906986E0
1.213206667E0,7.327454090E0,4.560355663E0,-3.511695385E0
1.215694531E0,7.308300495E0,4.603451252E0,-3.516483784E0
1.218182396E0,7.289146900E0,4.656123638E0,-3.540425777E0
1.220670260E0,7.274781704E0,4.665700436E0,-3.578732967E0
1.223158125E0,7.313088894E0,4.680065632E0,-3.640982151E0
1.225645990E0,7.365761757E0,4.684854031E0,-3.698443174E0
1.228133854E0,7.432799339E0,4.651335239E0,-3.760692358E0
1.230621719E0,7.504625320E0,4.603451252E0,-3.827729940E0
1.233109583E0,7.586028099E0,4.589086056E0,-3.885190725E0
1.235597448E0,7.667430878E0,4.574720860E0,-3.942651749E0
1.238085312E0,7.772775650E0,4.541202068E0,-3.952228546E0
1.240573177E0,7.835024834E0,4.498106480E0,-3.899555922E0
1.243061042E0,7.935581684E0,4.416703701E0,-3.789422750E0
1.245548906E0,8.050502777E0,4.364031315E0,-3.650558949E0
1.248036771E0,8.117541313E0,4.287416458E0,-3.535637379E0
1.250524635E0,8.165425301E0,4.244320869E0,-3.449446201E0
1.253012500E0,8.151060104E0,4.249109268E0,-3.401561975E0
1.255500365E0,8.146271706E0,4.253897667E0,-3.372831583E0
1.257988229E0,8.151060104E0,4.258686066E0,-3.348889589E0
1.260476094E0,8.160636902E0,4.258686066E0,-3.324947596E0
1.262963958E0,8.189367294E0,4.239532471E0,-3.329735994E0
1.265451823E0,8.227674484E0,4.244320869E0,-3.363254786E0
1.267939687E0,8.198944092E0,4.225167274E0,-3.435081005E0
1.270427552E0,8.160636902E0,4.229955673E0,-3.545214176E0
1.272915417E0,8.103176117E0,4.258686066E0,-3.664924145E0
1.275403281E0,8.026560783E0,4.292205334E0,-3.775057554E0
1.277891146E0,7.945158482E0,4.340089321E0,-3.851671934E0
1.280379010E0,7.854178905E0,4.387973309E0,-3.899555922E0
1.282866875E0,7.748833656E0,4.450222492E0,-3.933074951E0
1.285354740E0,7.590816498E0,4.502894878E0,-3.971382141E0
1.287842604E0,7.442376137E0,4.550778866E0,-3.980958939E0
1.290330469E0,7.322665691E0,4.593874454E0,-3.947440147E0
1.292818333E0,7.222109318E0,4.608239651E0,-3.904344320E0
1.295306198E0,7.155071735E0,4.613028049E0,-3.779845953E0
1.297794062E0,7.088034153E0,4.622604847E0,-3.679289579E0
1.300281927E0,7.044938564E0,4.603451252E0,-3.540425777E0
1.302769792E0,7.049726963E0,4.579509258E0,-3.411138773E0
1.305257656E0,7.078457355E0,4.565144062E0,-3.286640406E0
1.307745521E0,7.155071735E0,4.493318081E0,-3.138199806E0
1.310233385E0,7.279570103E0,4.426280499E0,-3.004124641E0
1.312721250E0,7.418434143E0,4.349666119E0,-2.908356428E0
1.315209115E0,7.566874504E0,4.287416458E0,-2.826953650E0
1.317696979E0,7.710526466E0,4.244320869E0,-2.764704466E0
1.320184844E0,7.839813232E0,4.177283287E0,-2.740762472E0
1.322672708E0,7.930793285E0,4.124610901E0,-2.721608877E0
1.325160573E0,7.993042469E0,4.071938515E0,-2.721608877E0
1.327648437E0,8.060079575E0,4.019266129E0,-2.673724651E0
1.330136302E0,8.103176117E0,3.971382141E0,-2.649782658E0
1.332624167E0,8.141483307E0,3.928286552E0,-2.630629063E0
1.335112031E0,8.194155693E0,3.909132719E0,-2.635417461E0
1.337599896E0,8.246828079E0,3.880402327E0,-2.678513050E0
1.340087760E0,8.265981674E0,3.894767523E0,-2.735974073E0
1.342575625E0,8.270770073E0,3.904344320E0,-2.812588453E0
1.345063542E0,8.261193275E0,3.933074951E0,-2.898779631E0
1.347551458E0,8.227674484E0,3.957016945E0,-2.999336243E0
1.350039375E0,8.151060104E0,3.995324135E0,-3.123834610E0
1.352527292E0,8.060079575E0,4.019266129E0,-3.253121614E0
1.355015208E0,7.964312077E0,4.076726913E0,-3.348889589E0
1.357503125E0,7.878120899E0,4.110245705E0,-3.415927172E0
1.359991042E0,7.806294441E0,4.172494888E0,-3.463811398E0
1.362478958E0,7.748833656E0,4.225167274E0,-3.516483784E0
1.364966875E0,7.715314865E0,4.258686066E0,-3.564367771E0
1.367454792E0,7.686584473E0,4.287416458E0,-3.612251759E0
1.369942708E0,7.653065681E0,4.311358929E0,-3.640982151E0
1.372430625E0,7.629123688E0,4.373608112E0,-3.688866377E0
1.374918542E0,7.600393295E0,4.431068897E0,-3.693654776E0
1.377406458E0,7.581239700E0,4.445434093E0,-3.731961966E0
1.379894375E0,7.576451302E0,4.483741283E0,-3.784634352E0
1.382382292E0,7.571662903E0,4.488529682E0,-3.846883535E0
1.384870208E0,7.566874504E0,4.469376087E0,-3.913921118E0
1.387358125E0,7.576451302E0,4.440645695E0,-3.933074951E0
1.389846042E0,7.619546890E0,4.402338505E0,-3.952228546E0
1.392333958E0,7.672219276E0,4.373608112E0,-3.937863350E0
1.394821875E0,7.720103264E0,4.368819714E0,-3.904344320E0
1.397309792E0,7.767987251E0,4.373608112E0,-3.861248732E0
1.399797708E0,7.830236435E0,4.354454517E0,-3.870825529E0
1.402285625E0,7.906851292E0,4.344877720E0,-3.851671934E0
1.404773542E0,7.959523678E0,4.330512524E0,-3.808576345E0
1.407261458E0,8.036137581E0,4.301782131E0,-3.779845953E0
1.409749375E0,8.107964516E0,4.244320869E0,-3.703231573E0
1.412237292E0,8.165425301E0,4.225167274E0,-3.650558949E0
1.414725208E0,8.232462883E0,4.206013680E0,-3.640982151E0
1.417213125E0,8.309077263E0,4.201225281E0,-3.660135746E0
1.419701042E0,8.380903244E0,4.196436882E0,-3.674500942E0
1.422188958E0,8.443152428E0,4.210802078E0,-3.708019972E0
1.424676875E0,8.510190010E0,4.201225281E0,-3.746327162E0
1.427164792E0,8.586804390E0,4.210802078E0,-3.784634352E0
1.429652708E0,8.658630371E0,4.234744072E0,-3.813364744E0
1.432140625E0,8.744821548E0,4.263474464E0,-3.870825529E0
1.434628490E0,8.778340340E0,4.301782131E0,-3.918709517E0
1.437116354E0,8.773551941E0,4.378396511E0,-3.990535736E0
1.439604219E0,8.682572365E0,4.450222492E0,-4.038419724E0
1.442092083E0,8.558073997E0,4.531625271E0,-4.138976097E0
1.444579948E0,8.419210434E0,4.651335239E0,-4.258686066E0
1.447067812E0,8.270770073E0,4.751891613E0,-4.378396511E0
1.449555677E0,8.141483307E0,4.876390457E0,-4.493318081E0
1.452043542E0,8.031349182E0,4.986523628E0,-4.617816448E0
1.454531406E0,7.897274494E0,5.077503204E0,-4.756680012E0
1.457019271E0,7.734468460E0,5.173271179E0,-4.895544052E0
1.459507135E0,7.557297707E0,5.288193226E0,-4.996100426E0
1.461995000E0,7.394492149E0,5.364807606E0,-5.120598793E0
1.464482865E0,7.284358501E0,5.446210384E0,-5.225943565E0
1.466970729E0,7.198167324E0,5.508459568E0,-5.288193226E0
1.469458594E0,7.169436932E0,5.551555157E0,-5.336077213E0
1.471946458E0,7.193378925E0,5.532401562E0,-5.360019207E0
1.474434323E0,7.226897717E0,5.494094372E0,-5.374384403E0
1.476922187E0,7.293935299E0,5.460575581E0,-5.350442410E0
1.479410052E0,7.384915352E0,5.398326397E0,-5.273828030E0
1.481897917E0,7.475894928E0,5.345654011E0,-5.187636375E0
1.484385781E0,7.557297707E0,5.254673958E0,-5.111021996E0
1.486873646E0,7.614758492E0,5.187636375E0,-5.024830818E0
1.489361510E0,7.653065681E0,5.101445198E0,-4.943428040E0
1.491849375E0,7.700949669E0,5.029619217E0,-4.833294868E0
1.494337240E0,7.686584473E0,4.929062843E0,-4.713584423E0
1.496825104E0,7.700949669E0,4.809352875E0,-4.574720860E0
1.499312969E0,7.758410454E0,4.723161221E0,-4.426280499E0
1.501800833E0,7.830236435E0,4.641758442E0,-4.239532471E0
1.504288698E0,7.906851292E0,4.555567265E0,-4.071938515E0
1.506776562E0,8.050502777E0,4.464587688E0,-3.947440147E0
1.509264427E0,8.151060104E0,4.373608112E0,-3.842095137E0
1.511752292E0,8.265981674E0,4.268262863E0,-3.693654776E0
1.514240156E0,8.385691643E0,4.167706490E0,-3.593098164E0
1.516728021E0,8.476671219E0,4.052784920E0,-3.526060581E0
1.519215885E0,8.538920403E0,3.942651749E0,-3.468599796E0
1.521703750E0,8.577227592E0,3.880402327E0,-3.425503969E0
1.524191615E0,8.577227592E0,3.856460333E0,-3.339312792E0
1.526679479E0,8.548497200E0,3.846883535E0,-3.281852007E0
1.529167344E0,8.491036415E0,3.904344320E0,-3.243544817E0
1.531655208E0,8.356961250E0,3.957016945E0,-3.253121614E0
1.534143073E0,8.175002098E0,4.024054527E0,-3.272275209E0
1.536630937E0,7.988254070E0,4.062361717E0,-3.286640406E0
1.539118802E0,7.835024834E0,4.081515312E0,-3.334524393E0
1.541606667E0,7.748833656E0,4.115034103E0,-3.382408381E0
1.544094531E0,7.705738068E0,4.138976097E0,-3.420715570E0
1.546582396E0,7.729680061E0,4.172494888E0,-3.478176594E0
1.549070937E0,7.777564049E0,4.196436882E0,-3.559579372E0
1.551558906E0,7.839813232E0,4.215590477E0,-3.650558949E0
1.554046771E0,7.916428089E0,4.201225281E0,-3.703231573E0
1.556534635E0,7.978677273E0,4.186860085E0,-3.770269156E0
1.559022500E0,8.026560783E0,4.143764496E0,-3.832518339E0
1.561510365E0,8.103176117E0,4.129399300E0,-3.880402327E0
1.563998229E0,8.203732491E0,4.115034103E0,-3.918709517E0
1.566486094E0,8.256404877E0,4.110245705E0,-3.957016945E0
1.568973958E0,8.328230858E0,4.124610901E0,-4.004900932E0
1.571461823E0,8.385691643E0,4.119822502E0,-4.047996521E0
1.573949687E0,8.447940826E0,4.119822502E0,-4.100668907E0
1.576437552E0,8.476671219E0,4.129399300E0,-4.124610901E0
1.578925417E0,8.471882820E0,4.148552895E0,-4.158129692E0
1.581413281E0,8.467094421E0,4.167706490E0,-4.177283287E0
1.583901146E0,8.457517624E0,4.162918091E0,-4.201225281E0
1.586389010E0,8.447940826E0,4.167706490E0,-4.258686066E0
1.588876875E0,8.404845238E0,4.138976097E0,-4.273051262E0
1.591364740E0,8.337807655E0,4.115034103E0,-4.258686066E0
1.593852604E0,8.251616478E0,4.105457306E0,-4.215590477E0
1.596340469E0,8.175002098E0,4.129399300E0,-4.124610901E0
1.598828333E0,8.122329712E0,4.162918091E0,-3.985747337E0
1.601316198E0,8.084021568E0,4.206013680E0,-3.870825529E0
1.603804062E0,8.026560783E0,4.249109268E0,-3.779845953E0
1.606291927E0,7.969100475E0,4.263474464E0,-3.731961966E0
1.608779792E0,7.916428089E0,4.277839661E0,-3.688866377E0
1.611267656E0,7.873332500E0,4.263474464E0,-3.650558949E0
1.613755521E0,7.830236435E0,4.249109268E0,-3.564367771E0
1.616243385E0,7.825448036E0,4.215590477E0,-3.454234600E0
1.618731250E0,7.868544102E0,4.148552895E0,-3.334524393E0
1.621219115E0,7.930793285E0,4.091092110E0,-3.176506996E0
1.623706979E0,8.007407188E0,4.047996521E0,-3.042431831E0
1.626194844E0,8.098387718E0,3.990535736E0,-2.937086821E0
1.628682708E0,8.198944092E0,3.980958939E0,-2.807800055E0
1.631170573E0,8.242039680E0,3.990535736E0,-2.707243681E0
1.633658437E0,8.222886086E0,4.014477730E0,-2.683301449E0
1.636146302E0,8.136694908E0,4.024054527E0,-2.688089848E0
1.638634167E0,7.983465672E0,4.014477730E0,-2.707243681E0
1.641122031E0,7.868544102E0,3.995324135E0,-2.707243681E0
1.643609896E0,7.806294441E0,3.971382141E0,-2.668936253E0
1.646097760E0,7.777564049E0,3.957016945E0,-2.649782658E0
1.648585625E0,7.801506042E0,3.952228546E0,-2.625840664E0
1.651073490E0,7.882909298E0,3.961805344E0,-2.649782658E0
1.653561354E0,7.945158482E0,3.966593742E0,-2.697666883E0
1.656049219E0,8.026560783E0,3.980958939E0,-2.774281263E0
1.658537083E0,8.045714378E0,4.004900932E0,-2.903568029E0
1.661024948E0,7.993042469E0,4.000112534E0,-3.042431831E0
1.663512812E0,7.878120899E0,3.980958939E0,-3.166930199E0
1.666000677E0,7.772775650E0,3.957016945E0,-3.262698412E0
1.668488542E0,7.672219276E0,3.961805344E0,-3.291428804E0
1.670976406E0,7.633912086E0,3.942651749E0,-3.253121614E0
1.673464271E0,7.624335289E0,3.942651749E0,-3.200449228E0
1.675952135E0,7.705738068E0,3.918709517E0,-3.138199806E0
1.678440000E0,7.825448036E0,3.885190725E0,-3.085527420E0
1.680927865E0,7.930793285E0,3.832518339E0,-3.042431831E0
1.683415729E0,8.007407188E0,3.741538763E0,-3.032855034E0
1.685903594E0,8.098387718E0,3.664924145E0,-3.037643433E0
1.688391458E0,8.146271706E0,3.597886562E0,-3.023278236E0
1.690879323E0,8.179790497E0,3.545214176E0,-2.999336243E0
1.693367187E0,8.189367294E0,3.516483784E0,-2.932298422E0
1.695855052E0,8.189367294E0,3.521272182E0,-2.879626036E0
1.698342917E0,8.208520889E0,3.530848980E0,-2.822165251E0
1.700830781E0,8.203732491E0,3.554790974E0,-2.779069662E0
1.703318646E0,8.213309288E0,3.564367771E0,-2.735974073E0
1.705806510E0,8.213309288E0,3.559579372E0,-2.707243681E0
1.708294375E0,8.218097687E0,3.569156170E0,-2.697666883E0
1.710782240E0,8.213309288E0,3.545214176E0,-2.726397276E0
1.713270104E0,8.213309288E0,3.550002575E0,-2.788646460E0
1.715757969E0,8.189367294E0,3.550002575E0,-2.870049238E0
1.718245833E0,8.155848503E0,3.588309765E0,-2.956240654E0
1.720733698E0,8.098387718E0,3.640982151E0,-3.075950623E0
1.723221562E0,8.002618790E0,3.727173567E0,-3.195660830E0
1.725709427E0,7.892486095E0,3.784634352E0,-3.320159197E0
1.728197292E0,7.767987251E0,3.866037130E0,-3.473388195E0
1.730685156E0,7.605181694E0,3.928286552E0,-3.636193752E0
1.733173021E0,7.447164536E0,3.961805344E0,-3.760692358E0
1.735660885E0,7.308300495E0,3.966593742E0,-3.813364744E0
1.738148802E0,7.207744122E0,3.995324135E0,-3.770269156E0
1.740636719E0,7.179013729E0,4.019266129E0,-3.722385168E0
1.743124635E0,7.202955723E0,4.024054527E0,-3.645770550E0
1.745612552E0,7.298723698E0,4.009689331E0,-3.602674961E0
1.748100469E0,7.399280548E0,3.985747337E0,-3.612251759E0
1.750588385E0,7.504625320E0,3.980958939E0,-3.636193752E0
1.753076302E0,7.576451302E0,3.966593742E0,-3.684077978E0
1.755564219E0,7.590816498E0,3.957016945E0,-3.741538763E0
1.758052135E0,7.562086105E0,3.937863350E0,-3.822941542E0
1.760540052E0,7.528567314E0,3.899555922E0,-3.918709517E0
1.763027969E0,7.509413719E0,3.880402327E0,-3.961805344E0
1.765515885E0,7.518990517E0,3.899555922E0,-3.966593742E0
1.768003802E0,7.576451302E0,3.942651749E0,-3.923498154E0
1.770491719E0,7.657854080E0,3.942651749E0,-3.894767523E0
1.772979635E0,7.767987251E0,3.928286552E0,-3.894767523E0
1.775467552E0,7.849390507E0,3.904344320E0,-3.933074951E0
1.777955469E0,7.954735279E0,3.846883535E0,-3.966593742E0
1.780443385E0,8.093599319E0,3.765480757E0,-4.052784920E0
1.782931302E0,8.222886086E0,3.664924145E0,-4.153341293E0
1.785419219E0,8.371326447E0,3.597886562E0,-4.229955673E0
1.787907135E0,8.495824814E0,3.550002575E0,-4.301782131E0
1.790395052E0,8.586804390E0,3.535637379E0,-4.378396511E0
1.792882969E0,8.620323181E0,3.535637379E0,-4.478952885E0
1.795370885E0,8.629899979E0,3.573944569E0,-4.555567265E0
1.797858802E0,8.591592789E0,3.621828556E0,-4.636970043E0
1.800346719E0,8.510190010E0,3.679289579E0,-4.689642429E0
1.802834635E0,8.414422035E0,3.741538763E0,-4.723161221E0
1.805322552E0,8.289923668E0,3.813364744E0,-4.771045208E0
1.807810469E0,8.112752914E0,3.870825529E0,-4.857236862E0
1.810298385E0,7.892486095E0,3.933074951E0,-4.953004837E0
1.812786302E0,7.662642479E0,4.000112534E0,-5.048772812E0
1.815274219E0,7.480683327E0,4.057573318E0,-5.163694382E0
1.817762135E0,7.327454090E0,4.115034103E0,-5.283404827E0
1.820250052E0,7.193378925E0,4.124610901E0,-5.398326397E0
1.822737969E0,7.111976147E0,4.110245705E0,-5.494094372E0
1.825225885E0,7.083245754E0,4.119822502E0,-5.565920353E0
1.827713750E0,7.068880558E0,4.110245705E0,-5.594650745E0
1.830201615E0,7.078457355E0,4.119822502E0,-5.585073948E0
1.832689479E0,7.054515362E0,4.086303711E0,-5.546766758E0
1.835177344E0,7.044938564E0,4.052784920E0,-5.441421986E0
1.837665208E0,7.016208172E0,3.995324135E0,-5.307346821E0
1.840153073E0,6.977900982E0,3.904344320E0,-5.154117584E0
1.842640937E0,6.958747387E0,3.794211149E0,-4.962581635E0
1.845128802E0,6.944382191E0,3.684077978E0,-4.732738018E0
1.847616667E0,6.949170589E0,3.583521366E0,-4.498106480E0
1.850104531E0,6.973112583E0,3.473388195E0,-4.296993732E0
1.852592396E0,7.064092159E0,3.344101191E0,-4.110245705E0
1.855080260E0,7.188590527E0,3.214814425E0,-3.985747337E0
1.857568125E0,7.317877293E0,3.114257812E0,-3.928286552E0
1.860055990E0,7.384915352E0,3.018489838E0,-3.866037130E0
1.862543854E0,7.432799339E0,2.898779631E0,-3.818153143E0
1.865031719E0,7.485471725E0,2.764704466E0,-3.784634352E0
1.867519583E0,7.547720909E0,2.635417461E0,-3.760692358E0
1.870007448E0,7.619546890E0,2.520495892E0,-3.741538763E0
1.872495312E0,7.681796074E0,2.429516077E0,-3.717596769E0
1.874983177E0,7.724891663E0,2.367266893E0,-3.679289579E0
1.877471042E0,7.772775650E0,2.333748102E0,-3.645770550E0
1.879958906E0,7.830236435E0,2.343324900E0,-3.607463360E0
1.882446771E0,7.849390507E0,2.391208887E0,-3.569156170E0
1.884934635E0,7.878120899E0,2.448669672E0,-3.564367771E0
1.887422500E0,7.906851292E0,2.530072689E0,-3.550002575E0
1.889910365E0,7.949946880E0,2.625840664E0,-3.559579372E0
1.892398229E0,7.978677273E0,2.692878246E0,-3.621828556E0
1.894886094E0,7.983465672E0,2.745550871E0,-3.722385168E0
1.897373958E0,7.940370083E0,2.807800055E0,-3.827729940E0
1.899861823E0,7.868544102E0,2.908356428E0,-3.942651749E0
1.902349687E0,7.758410454E0,3.004124641E0,-4.095880508E0
1.904837552E0,7.590816498E0,3.095104218E0,-4.234744072E0
1.907325417E0,7.437587738E0,3.166930199E0,-4.354454517E0
1.909813281E0,7.341819286E0,3.233968019E0,-4.435857296E0
1.912301146E0,7.289146900E0,3.305794001E0,-4.488529682E0
1.914789010E0,7.255628109E0,3.396773577E0,-4.550778866E0
1.917276875E0,7.202955723E0,3.497330189E0,-4.579509258E0
1.919764740E0,7.073668957E0,3.550002575E0,-4.617816448E0
1.922252604E0,6.910863400E0,3.559579372E0,-4.636970043E0
1.924740469E0,6.771999359E0,3.530848980E0,-4.656123638E0
1.927228333E0,6.652289391E0,3.492541790E0,-4.632181644E0
1.929716198E0,6.585251808E0,3.454234600E0,-4.579509258E0
1.932204062E0,6.537367821E0,3.368043184E0,-4.474164486E0
1.934691927E0,6.484695435E0,3.281852007E0,-4.344877720E0
1.937179792E0,6.446388245E0,3.186083794E0,-4.162918091E0
1.939667656E0,6.455965042E0,3.075950623E0,-3.933074951E0
1.942155521E0,6.523002625E0,3.004124641E0,-3.708019972E0
1.944643385E0,6.618770599E0,2.951452255E0,-3.463811398E0
1.947131250E0,6.719326973E0,2.884414434E0,-3.272275209E0
1.949619115E0,6.776787758E0,2.807800055E0,-3.047220230E0
1.952106979E0,6.824671745E0,2.726397276E0,-2.817376852E0
1.954594844E0,6.867767811E0,2.616263866E0,-2.587533474E0
1.957082708E0,6.915651798E0,2.534861088E0,-2.419939280E0
1.959570573E0,6.939593792E0,2.477400303E0,-2.328959703E0
1.962058437E0,6.953958988E0,2.482188702E0,-2.281075716E0
1.964546302E0,6.906075001E0,2.482188702E0,-2.237980127E0
1.967034167E0,6.886921406E0,2.510919094E0,-2.147000313E0
1.969522031E0,6.953958988E0,2.558803082E0,-1.988983035E0
1.972009896E0,7.116764545E0,2.678513050E0,-1.787870169E0
1.974497760E0,7.313088894E0,2.841318846E0,-1.596333981E0
1.976985625E0,7.490260124E0,3.008913040E0,-1.553238392E0
1.979473490E0,7.605181694E0,3.157353401E0,-1.696890473E0
1.981961354E0,7.648277283E0,3.272275209E0,-2.041655540E0
1.984449219E0,7.590816498E0,3.368043184E0,-2.496553898E0
1.986937083E0,7.471106529E0,3.449446201E0,-3.052008629E0
1.989424948E0,7.337030888E0,3.530848980E0,-3.607463360E0
1.991912812E0,7.212532520E0,3.674500942E0,-4.153341293E0
1.994400677E0,7.116764545E0,3.837306738E0,-4.656123638E0
1.996888542E0,7.054515362E0,4.014477730E0,-5.111021996E0
1.999376406E0,7.016208172E0,4.201225281E0,-5.532401562E0
2.001864271E0,6.968324184E0,4.344877720E0,-5.901108742E0
2.004352135E0,6.910863400E0,4.445434093E0,-6.250661850E0
2.006840000E0,6.800729752E0,4.507683277E0,-6.624157429E0
2.009327865E0,6.633135796E0,4.550778866E0,-6.978499413E0
2.011815729E0,6.470330238E0,4.560355663E0,-7.275380611E0
2.014303594E0,6.336254597E0,4.531625271E0,-7.529165745E0
2.016791510E0,6.216544628E0,4.483741283E0,-7.730278969E0
2.019279427E0,6.115988255E0,4.378396511E0,-7.869142532E0
2.021767344E0,6.029797077E0,4.273051262E0,-7.864354134E0
2.024255260E0,6.034585476E0,4.206013680E0,-7.749432564E0
2.026743177E0,6.092046261E0,4.148552895E0,-7.548319340E0
2.029231094E0,6.130353451E0,4.091092110E0,-7.294534206E0
2.031719010E0,6.178237438E0,4.019266129E0,-6.983287811E0
2.034206927E0,6.202179432E0,3.937863350E0,-6.595427036E0
2.036694844E0,6.159083843E0,3.827729940E0,-6.183624268E0
2.039182760E0,6.144718647E0,3.731961966E0,-5.714360714E0
2.041670677E0,6.139930248E0,3.612251759E0,-5.225943565E0
2.044158594E0,6.183025837E0,3.511695385E0,-4.708796024E0
2.046646510E0,6.250063419E0,3.382408381E0,-4.182071686E0
2.049134427E0,6.355408192E0,3.267486811E0,-3.679289579E0
2.051622344E0,6.499060631E0,3.162141800E0,-3.186083794E0
2.054110260E0,6.676231384E0,3.066373825E0,-2.697666883E0
2.056598177E0,6.896498203E0,2.980182648E0,-2.257133722E0
2.059086094E0,7.107187748E0,2.937086821E0,-1.854907751E0
2.061574010E0,7.289146900E0,2.922721624E0,-1.553238392E0
2.064061927E0,7.404068947E0,2.951452255E0,-1.352125406E0
2.066549844E0,7.423222542E0,2.975394249E0,-1.309029818E0
2.069037760E0,7.384915352E0,2.980182648E0,-1.404797792E0
2.071525677E0,7.351396084E0,2.975394249E0,-1.620275974E0
2.074013594E0,7.308300495E0,2.965817451E0,-1.917157054E0
2.076501510E0,7.269993305E0,2.989759445E0,-2.276287317E0
2.078989427E0,7.236474514E0,3.056797028E0,-2.635417461E0
2.081477344E0,7.198167324E0,3.142988205E0,-2.994547844E0
2.083965260E0,7.183802128E0,3.238756418E0,-3.368043184E0
2.086453177E0,7.169436932E0,3.344101191E0,-3.794211149E0
2.088941094E0,7.131129742E0,3.396773577E0,-4.196436882E0
2.091429010E0,7.102399349E0,3.439869404E0,-4.574720860E0
2.093916927E0,7.107187748E0,3.435081005E0,-4.852448463E0
2.096404844E0,7.159860134E0,3.439869404E0,-5.039196014E0
2.098892760E0,7.226897717E0,3.473388195E0,-5.144540787E0
2.101380677E0,7.293935299E0,3.482964993E0,-5.259462357E0
2.103868594E0,7.313088894E0,3.463811398E0,-5.417479992E0
2.106356458E0,7.322665691E0,3.439869404E0,-5.652111530E0
2.108844323E0,7.265204906E0,3.435081005E0,-5.929839134E0
2.111332187E0,7.207744122E0,3.430292368E0,-6.164470673E0
2.113820052E0,7.131129742E0,3.444657803E0,-6.360795498E0
2.116307917E0,7.044938564E0,3.463811398E0,-6.537966251E0
2.118795781E0,6.953958988E0,3.516483784E0,-6.662464619E0
2.121283646E0,6.858190536E0,3.597886562E0,-6.739078999E0
2.123771510E0,6.762422562E0,3.693654776E0,-6.767809868E0
2.126259375E0,6.719326973E0,3.798999548E0,-6.743867874E0
2.128747448E0,6.661866188E0,3.894767523E0,-6.624157429E0
2.131235260E0,6.618770599E0,3.980958939E0,-6.403891087E0
2.133723073E0,6.618770599E0,3.995324135E0,-6.135740280E0
2.136210885E0,6.652289391E0,3.971382141E0,-5.862801552E0
2.138698698E0,6.733692169E0,3.942651749E0,-5.589862347E0
2.141186510E0,6.824671745E0,3.942651749E0,-5.288193226E0
2.143674323E0,6.872556210E0,3.966593742E0,-5.000888824E0
2.146162135E0,6.882133007E0,4.028842926E0,-4.713584423E0
2.148649948E0,6.867767811E0,4.086303711E0,-4.431068897E0
2.151137760E0,6.810306549E0,4.143764496E0,-4.153341293E0
2.153625573E0,6.757634163E0,4.210802078E0,-3.870825529E0
2.156113385E0,6.709750175E0,4.239532471E0,-3.564367771E0
2.158601198E0,6.681019783E0,4.268262863E0,-3.291428804E0
2.161089010E0,6.618770599E0,4.311358929E0,-3.080739021E0
2.163576823E0,6.570886612E0,4.378396511E0,-2.898779631E0
2.166064635E0,6.518214226E0,4.411915302E0,-2.764704466E0
2.168552448E0,6.513425827E0,4.469376087E0,-2.678513050E0
2.171040260E0,6.499060631E0,4.517260075E0,-2.664147854E0
2.173528073E0,6.503849030E0,4.569932461E0,-2.697666883E0
2.176015885E0,6.518214226E0,4.622604847E0,-2.783858061E0
2.178503750E0,6.523002625E0,4.670488834E0,-2.922721624E0
2.180991667E0,6.561309814E0,4.680065632E0,-3.066373825E0
2.183479583E0,6.604405403E0,4.708796024E0,-3.210026026E0
2.185967500E0,6.657077789E0,4.684854031E0,-3.315370798E0
2.188455417E0,6.743268967E0,4.675277233E0,-3.391985178E0
2.190943333E0,6.862978935E0,4.680065632E0,-3.482964993E0
2.193431250E0,6.973112583E0,4.675277233E0,-3.612251759E0
2.195919167E0,7.035361767E0,4.665700436E0,-3.813364744E0
2.198407083E0,7.054515362E0,4.632181644E0,-4.062361717E0
2.200895000E0,7.044938564E0,4.593874454E0,-4.287416458E0
2.203382917E0,7.020996571E0,4.536413670E0,-4.483741283E0
2.205870833E0,7.006631374E0,4.478952885E0,-4.656123638E0
2.208358750E0,6.992266178E0,4.450222492E0,-4.799776077E0
2.210846667E0,7.011419773E0,4.421492100E0,-4.881178856E0
2.213334583E0,7.049726963E0,4.383184910E0,-4.957793236E0
2.215822500E0,7.059303761E0,4.316147327E0,-5.043984413E0
2.218310417E0,7.102399349E0,4.282628059E0,-5.115810394E0
2.220798333E0,7.155071735E0,4.215590477E0,-5.187636375E0
2.223286250E0,7.202955723E0,4.162918091E0,-5.216366768E0
2.225774167E0,7.269993305E0,4.110245705E0,-5.230731964E0
2.228262083E0,7.322665691E0,4.052784920E0,-5.259462357E0
2.230750000E0,7.346607685E0,4.038419724E0,-5.283404827E0
2.233237917E0,7.332242489E0,4.047996521E0,-5.292981625E0
2.235725833E0,7.279570103E0,4.071938515E0,-5.292981625E0
2.238213750E0,7.198167324E0,4.091092110E0,-5.297770023E0
2.240701667E0,7.088034153E0,4.119822502E0,-5.292981625E0
2.243189583E0,7.001842976E0,4.153341293E0,-5.211578369E0
2.245677500E0,6.920440197E0,4.210802078E0,-5.072714806E0
2.248165417E0,6.829460144E0,4.253897667E0,-4.905120850E0
2.250653333E0,6.757634163E0,4.316147327E0,-4.732738018E0
2.253141250E0,6.709750175E0,4.320935726E0,-4.536413670E0
2.255629167E0,6.704961777E0,4.287416458E0,-4.364031315E0
2.258117083E0,6.709750175E0,4.244320869E0,-4.210802078E0
2.260605000E0,6.690596581E0,4.196436882E0,-4.095880508E0
2.263092917E0,6.657077789E0,4.134187698E0,-3.985747337E0
2.265580833E0,6.580463409E0,4.067150116E0,-3.904344320E0
2.268068698E0,6.508637428E0,3.985747337E0,-3.813364744E0
2.270556562E0,6.451176643E0,3.923498154E0,-3.703231573E0
2.273044427E0,6.393715858E0,3.909132719E0,-3.578732967E0
2.275532292E0,6.422446251E0,3.889979124E0,-3.449446201E0
2.278020156E0,6.513425827E0,3.856460333E0,-3.286640406E0
2.280508021E0,6.676231384E0,3.779845953E0,-3.128623009E0
2.282995885E0,6.915651798E0,3.640982151E0,-2.946663857E0
2.285483750E0,7.207744122E0,3.444657803E0,-2.807800055E0
2.287971615E0,7.542932510E0,3.253121614E0,-2.697666883E0
2.290459479E0,7.892486095E0,3.061585426E0,-2.649782658E0
2.292947344E0,8.165425301E0,2.879626036E0,-2.621052265E0
2.295435208E0,8.366538048E0,2.735974073E0,-2.582745075E0
2.297923073E0,8.467094421E0,2.606687069E0,-2.544437885E0
2.300410937E0,8.615534782E0,2.486977100E0,-2.453458309E0
2.302898802E0,8.754398346E0,2.367266893E0,-2.362478495E0
2.305386667E0,8.883685112E0,2.261922121E0,-2.333748102E0
2.307874531E0,9.008183479E0,2.214038134E0,-2.372055292E0
2.310362396E0,9.123106003E0,2.151788712E0,-2.501342297E0
2.312850260E0,9.161413193E0,2.161365509E0,-2.721608877E0
2.315338125E0,9.147047997E0,2.190095901E0,-2.965817451E0
2.317825990E0,9.089587212E0,2.214038134E0,-3.248333216E0
2.320313854E0,8.974664688E0,2.247556925E0,-3.535637379E0
2.322801719E0,8.802282333E0,2.295440912E0,-3.798999548E0
2.325289583E0,8.629899979E0,2.386420488E0,-4.004900932E0
2.327777448E0,8.505401611E0,2.491765499E0,-4.206013680E0
2.330265312E0,8.347384453E0,2.616263866E0,-4.354454517E0
2.332753177E0,8.170213699E0,2.750339270E0,-4.502894878E0
2.335241042E0,7.921216488E0,2.884414434E0,-4.617816448E0
2.337728906E0,7.638700485E0,3.032855034E0,-4.718372822E0
2.340216771E0,7.317877293E0,3.176506996E0,-4.794987679E0
2.342704635E0,7.049726963E0,3.329735994E0,-4.876390457E0
2.345192500E0,6.848613739E0,3.439869404E0,-4.909909248E0
2.347680365E0,6.724115372E0,3.511695385E0,-4.914697647E0
2.350168229E0,6.743268967E0,3.535637379E0,-4.857236862E0
2.352656094E0,6.872556210E0,3.511695385E0,-4.718372822E0
2.355143958E0,7.078457355E0,3.482964993E0,-4.536413670E0
2.357631823E0,7.298723698E0,3.482964993E0,-4.320935726E0
2.360119687E0,7.485471725E0,3.473388195E0,-4.143764496E0
2.362607552E0,7.657854080E0,3.391985178E0,-4.000112534E0
2.365095417E0,7.801506042E0,3.286640406E0,-3.851671934E0
2.367583281E0,7.926004887E0,3.186083794E0,-3.717596769E0
2.370071146E0,8.084021568E0,3.071162224E0,-3.564367771E0
2.372559010E0,8.251616478E0,2.937086821E0,-3.348889589E0
2.375046875E0,8.471882820E0,2.807800055E0,-3.095104218E0
2.377534740E0,8.754398346E0,2.683301449E0,-2.841318846E0
2.380022604E0,8.984241486E0,2.606687069E0,-2.616263866E0
2.382510469E0,9.166201591E0,2.539649487E0,-2.463035107E0
2.384998333E0,9.214085579E0,2.539649487E0,-2.381632090E0
2.387486198E0,9.214085579E0,2.544437885E0,-2.357690096E0
2.389974062E0,9.080010414E0,2.558803082E0,-2.391208887E0
2.392461927E0,8.907627106E0,2.582745075E0,-2.376843691E0
2.394949792E0,8.711302757E0,2.644994259E0,-2.300229311E0
2.397437656E0,8.519766808E0,2.712032080E0,-2.242768526E0
2.399925521E0,8.347384453E0,2.793434858E0,-2.233191729E0
2.402413385E0,8.194155693E0,2.913144827E0,-2.247556925E0
2.404901250E0,8.036137581E0,3.042431831E0,-2.328959703E0
2.407389115E0,7.887697697E0,3.157353401E0,-2.467823505E0
2.409876979E0,7.744045258E0,3.262698412E0,-2.654571056E0
2.412364844E0,7.562086105E0,3.363254786E0,-2.917933226E0
2.414852708E0,7.408857346E0,3.492541790E0,-3.224391222E0
2.417340573E0,7.207744122E0,3.655347347E0,-3.540425777E0
2.419828437E0,7.020996571E0,3.827729940E0,-3.875613928E0
2.422316302E0,6.858190536E0,3.957016945E0,-4.158129692E0
2.424804167E0,6.748057365E0,4.071938515E0,-4.402338505E0
2.427292031E0,6.676231384E0,4.172494888E0,-4.622604847E0
2.429779896E0,6.681019783E0,4.229955673E0,-4.794987679E0
2.432267760E0,6.743268967E0,4.296993732E0,-4.986523628E0
2.434755625E0,6.618770599E0,4.407126904E0,-5.005677223E0
2.437243490E0,6.532579422E0,4.512471676E0,-4.857236862E0
2.439731354E0,6.513425827E0,4.579509258E0,-4.751891613E0
2.442219219E0,6.537367821E0,4.603451252E0,-4.617816448E0
2.444707083E0,6.613982201E0,4.598662853E0,-4.464587688E0
2.447194948E0,6.738480568E0,4.545990467E0,-4.306570530E0
2.449682812E0,6.920440197E0,4.455010891E0,-4.115034103E0
2.452170677E0,7.159860134E0,4.340089321E0,-3.909132719E0
2.454658542E0,7.428010941E0,4.234744072E0,-3.669712543E0
2.457146406E0,7.691372871E0,4.129399300E0,-3.430292368E0
2.459634271E0,7.945158482E0,3.995324135E0,-3.214814425E0
2.462122135E0,8.194155693E0,3.889979124E0,-3.085527420E0
2.464610052E0,8.352172852E0,3.798999548E0,-3.023278236E0
2.467097969E0,8.423998833E0,3.770269156E0,-2.989759445E0
2.469585885E0,8.400056839E0,3.712808371E0,-2.999336243E0
2.472073802E0,8.333019257E0,3.669712543E0,-3.032855034E0
2.474561719E0,8.256404877E0,3.602674961E0,-3.071162224E0
2.477049635E0,8.213309288E0,3.526060581E0,-3.099892616E0
2.479537552E0,8.175002098E0,3.463811398E0,-3.142988205E0
2.482025469E0,8.175002098E0,3.425503969E0,-3.133411407E0
2.484513385E0,8.213309288E0,3.406350374E0,-3.142988205E0
2.487001302E0,8.165425301E0,3.406350374E0,-3.190872431E0
2.489489219E0,8.050502777E0,3.430292368E0,-3.229179621E0
2.491977135E0,7.911639690E0,3.468599796E0,-3.320159197E0
2.494465052E0,7.796717644E0,3.516483784E0,-3.492541790E0
2.496952969E0,7.705738068E0,3.564367771E0,-3.727173567E0
2.499440885E0,7.700949669E0,3.593098164E0,-3.990535736E0
2.501928802E0,7.772775650E0,3.583521366E0,-4.258686066E0
2.504416719E0,7.887697697E0,3.573944569E0,-4.474164486E0
2.506904635E0,7.973888874E0,3.597886562E0,-4.660912037E0
2.509392552E0,8.007407188E0,3.664924145E0,-4.838083267E0
2.511880469E0,8.007407188E0,3.741538763E0,-4.991312027E0
2.514368385E0,7.969100475E0,3.798999548E0,-5.125387192E0
2.516856302E0,7.887697697E0,3.837306738E0,-5.245097160E0
2.519344219E0,7.782352448E0,3.923498154E0,-5.393537998E0
2.521832135E0,7.667430878E0,4.033631325E0,-5.527613163E0
2.524320052E0,7.538144112E0,4.124610901E0,-5.647323132E0
2.526807969E0,7.432799339E0,4.206013680E0,-5.762245178E0
2.529295885E0,7.375338554E0,4.253897667E0,-5.853224754E0
2.531783802E0,7.351396084E0,4.253897667E0,-5.848436356E0
2.534271719E0,7.389703751E0,4.229955673E0,-5.819705963E0
2.536759635E0,7.461529732E0,4.158129692E0,-5.771821976E0
2.539247552E0,7.576451302E0,4.057573318E0,-5.656899929E0
2.541735469E0,7.677007675E0,3.990535736E0,-5.489305973E0
2.544223385E0,7.748833656E0,3.928286552E0,-5.312135220E0
2.546711302E0,7.787140846E0,3.880402327E0,-5.106233597E0
2.549199219E0,7.801506042E0,3.822941542E0,-4.905120850E0
2.551687083E0,7.777564049E0,3.751115561E0,-4.723161221E0
2.554174948E0,7.753622055E0,3.698443174E0,-4.493318081E0
2.556662812E0,7.696161270E0,3.645770550E0,-4.273051262E0
2.559150677E0,7.619546890E0,3.617040157E0,-4.019266129E0
2.561638542E0,7.586028099E0,3.578732967E0,-3.727173567E0
2.564126406E0,7.629123688E0,3.540425777E0,-3.449446201E0
2.566614271E0,7.763198853E0,3.473388195E0,-3.229179621E0
2.569102135E0,7.945158482E0,3.439869404E0,-3.071162224E0
2.571590000E0,8.117541313E0,3.411138773E0,-2.999336243E0
2.574077865E0,8.232462883E0,3.444657803E0,-3.008913040E0
2.576565729E0,8.256404877E0,3.473388195E0,-3.133411407E0
2.579053594E0,8.237251282E0,3.492541790E0,-3.320159197E0
2.581541458E0,8.222886086E0,3.526060581E0,-3.559579372E0
2.584029323E0,8.213309288E0,3.554790974E0,-3.822941542E0
2.586517187E0,8.179790497E0,3.569156170E0,-4.124610901E0
2.589005052E0,8.151060104E0,3.617040157E0,-4.478952885E0
2.591492917E0,8.074444771E0,3.688866377E0,-4.828506470E0
2.593980781E0,8.040925980E0,3.775057554E0,-5.139752388E0
2.596468646E0,8.002618790E0,3.822941542E0,-5.498882771E0
2.598956510E0,7.916428089E0,3.851671934E0,-5.834071159E0
2.601444375E0,7.796717644E0,3.904344320E0,-6.159682274E0
2.603932240E0,7.657854080E0,3.933074951E0,-6.427833080E0
2.606420104E0,7.523778915E0,3.980958939E0,-6.633734226E0
2.608907969E0,7.442376137E0,4.009689331E0,-6.758233070E0
2.611395833E0,7.423222542E0,3.990535736E0,-6.820482254E0
2.613883698E0,7.432799339E0,3.923498154E0,-6.858789444E0
2.616371562E0,7.456741333E0,3.832518339E0,-6.854001045E0
2.618859427E0,7.451952934E0,3.727173567E0,-6.810905457E0
2.621347292E0,7.384915352E0,3.655347347E0,-6.710348606E0
2.623835156E0,7.269993305E0,3.597886562E0,-6.585850239E0
2.626323021E0,7.116764545E0,3.554790974E0,-6.456563473E0
2.628811042E0,7.020996571E0,3.487753391E0,-6.336853504E0
2.631299062E0,6.963535786E0,3.396773577E0,-6.183624268E0
2.633787083E0,6.992266178E0,3.262698412E0,-5.996876717E0
2.636275000E0,7.092822552E0,3.138199806E0,-5.733514309E0
2.638762865E0,7.255628109E0,3.004124641E0,-5.489305973E0
2.641250729E0,7.428010941E0,2.874837637E0,-5.225943565E0
2.643738594E0,7.600393295E0,2.740762472E0,-4.996100426E0
2.646226458E0,7.796717644E0,2.611475468E0,-4.780622005E0
2.648714323E0,7.983465672E0,2.458246708E0,-4.574720860E0
2.651202187E0,8.103176117E0,2.328959703E0,-4.373608112E0
2.653690052E0,8.189367294E0,2.228403330E0,-4.119822502E0
2.656177917E0,8.251616478E0,2.190095901E0,-3.808576345E0
2.658665781E0,8.347384453E0,2.161365509E0,-3.564367771E0
2.661153646E0,8.433575630E0,2.142211914E0,-3.377619982E0
2.663641510E0,8.476671219E0,2.132635117E0,-3.272275209E0
2.666129375E0,8.457517624E0,2.166153908E0,-3.257910013E0
2.668617240E0,8.395268440E0,2.233191729E0,-3.305794001E0
2.671105104E0,8.337807655E0,2.343324900E0,-3.415927172E0
2.673592969E0,8.232462883E0,2.472611904E0,-3.564367771E0
2.676080833E0,8.112752914E0,2.606687069E0,-3.784634352E0
2.678568698E0,8.016983986E0,2.721608877E0,-4.076726913E0
2.681056562E0,7.949946880E0,2.803011656E0,-4.435857296E0
2.683544427E0,7.897274494E0,2.860472441E0,-4.799776077E0
2.686032292E0,7.882909298E0,2.908356428E0,-5.130175591E0
2.688520156E0,7.878120899E0,2.941875219E0,-5.441421986E0
2.691008021E0,7.892486095E0,2.946663857E0,-5.690418720E0
2.693495885E0,7.858967304E0,2.965817451E0,-5.910685539E0
2.695983750E0,7.825448036E0,2.984971046E0,-6.092644691E0
2.698471615E0,7.782352448E0,3.018489838E0,-6.274604321E0
2.700959479E0,7.748833656E0,3.047220230E0,-6.456563473E0
2.703447344E0,7.724891663E0,3.061585426E0,-6.619369030E0
2.705935208E0,7.729680061E0,3.056797028E0,-6.815693855E0
2.708423073E0,7.753622055E0,3.037643433E0,-6.968922615E0
2.710910937E0,7.767987251E0,3.028066635E0,-7.093420982E0
2.713398802E0,7.748833656E0,3.023278236E0,-7.155670166E0
2.715886667E0,7.715314865E0,3.071162224E0,-7.160458565E0
2.718374531E0,7.657854080E0,3.119046211E0,-7.107786179E0
2.720862396E0,7.624335289E0,3.162141800E0,-7.050325394E0
2.723350260E0,7.629123688E0,3.152565002E0,-6.944980621E0
2.725838125E0,7.662642479E0,3.114257812E0,-6.801328659E0
2.728325990E0,7.705738068E0,3.066373825E0,-6.585850239E0
2.730813854E0,7.782352448E0,3.047220230E0,-6.356007099E0
2.733301719E0,7.858967304E0,3.056797028E0,-6.111798286E0
2.735789583E0,7.993042469E0,3.109469414E0,-5.838859558E0
2.738277448E0,8.131906509E0,3.147776604E0,-5.565920353E0
2.740765312E0,8.251616478E0,3.152565002E0,-5.278616428E0
2.743253177E0,8.342596054E0,3.152565002E0,-5.039196014E0
2.745741042E0,8.380903244E0,3.114257812E0,-4.818929672E0
2.748228906E0,8.414422035E0,3.109469414E0,-4.622604847E0
2.750716771E0,8.443152428E0,3.114257812E0,-4.431068897E0
2.753204635E0,8.471882820E0,3.147776604E0,-4.268262863E0
2.755692500E0,8.495824814E0,3.190872431E0,-4.129399300E0
2.758180365E0,8.514978409E0,3.229179621E0,-4.052784920E0
2.760668229E0,8.529343605E0,3.310582399E0,-4.024054527E0
2.763156094E0,8.529343605E0,3.415927172E0,-4.115034103E0
2.765643958E0,8.500613213E0,3.502118587E0,-4.335300922E0
2.768131823E0,8.447940826E0,3.578732967E0,-4.627393246E0
2.770619687E0,8.371326447E0,3.655347347E0,-4.976946831E0
2.773107552E0,8.218097687E0,3.736750364E0,-5.379172802E0
2.775595417E0,8.026560783E0,3.851671934E0,-5.728725910E0
2.778083281E0,7.796717644E0,4.000112534E0,-6.025607109E0
2.780571146E0,7.609970093E0,4.143764496E0,-6.265027523E0
2.783059010E0,7.490260124E0,4.244320869E0,-6.403891087E0
2.785546875E0,7.456741333E0,4.316147327E0,-6.451775074E0
2.788034740E0,7.461529732E0,4.354454517E0,-6.451775074E0
2.790522604E0,7.485471725E0,4.335300922E0,-6.442198277E0
2.793010469E0,7.495048523E0,4.301782131E0,-6.413467884E0
2.795498333E0,7.528567314E0,4.277839661E0,-6.389525890E0
2.797986198E0,7.590816498E0,4.277839661E0,-6.336853504E0
2.800474062E0,7.686584473E0,4.292205334E0,-6.260239124E0
2.802961927E0,7.801506042E0,4.287416458E0,-6.183624268E0
2.805449792E0,7.930793285E0,4.282628059E0,-6.092644691E0
2.807937656E0,8.064867973E0,4.234744072E0,-6.001665115E0
2.810425521E0,8.155848503E0,4.201225281E0,-5.872378349E0
2.812913385E0,8.213309288E0,4.129399300E0,-5.738302708E0
2.815401250E0,8.242039680E0,4.086303711E0,-5.575497150E0
2.817889115E0,8.270770073E0,4.067150116E0,-5.388749599E0
2.820376979E0,8.242039680E0,4.028842926E0,-5.216366768E0
2.822864844E0,8.184578896E0,4.014477730E0,-5.072714806E0
2.825352708E0,8.107964516E0,4.009689331E0,-4.948216438E0
2.827840573E0,8.040925980E0,4.009689331E0,-4.838083267E0
2.830328437E0,7.983465672E0,4.024054527E0,-4.704007626E0
2.832816302E0,7.945158482E0,4.019266129E0,-4.579509258E0
2.835304167E0,7.949946880E0,4.009689331E0,-4.478952885E0
2.837792031E0,7.964312077E0,3.971382141E0,-4.349666119E0
2.840279896E0,7.945158482E0,3.942651749E0,-4.239532471E0
2.842767760E0,7.825448036E0,3.928286552E0,-4.129399300E0
2.845255625E0,7.662642479E0,3.947440147E0,-4.043208122E0
2.847743490E0,7.509413719E0,3.980958939E0,-3.980958939E0
2.850231354E0,7.399280548E0,4.004900932E0,-3.909132719E0
2.852719219E0,7.322665691E0,4.009689331E0,-3.851671934E0
2.855207083E0,7.313088894E0,3.966593742E0,-3.760692358E0
2.857695000E0,7.337030888E0,3.909132719E0,-3.736750364E0
2.860182917E0,7.337030888E0,3.842095137E0,-3.688866377E0
2.862670833E0,7.389703751E0,3.770269156E0,-3.664924145E0
2.865158750E0,7.428010941E0,3.765480757E0,-3.655347347E0
2.867646667E0,7.428010941E0,3.775057554E0,-3.645770550E0
2.870134583E0,7.423222542E0,3.779845953E0,-3.650558949E0
2.872622500E0,7.432799339E0,3.784634352E0,-3.660135746E0
2.875110417E0,7.447164536E0,3.779845953E0,-3.679289579E0
2.877598333E0,7.451952934E0,3.760692358E0,-3.679289579E0
2.880086250E0,7.471106529E0,3.736750364E0,-3.693654776E0
2.882574167E0,7.480683327E0,3.688866377E0,-3.708019972E0
2.885062083E0,7.471106529E0,3.674500942E0,-3.736750364E0
2.887550000E0,7.442376137E0,3.669712543E0,-3.770269156E0
2.890037917E0,7.418434143E0,3.703231573E0,-3.760692358E0
2.892525833E0,7.370550156E0,3.736750364E0,-3.765480757E0
2.895013750E0,7.337030888E0,3.770269156E0,-3.775057554E0
2.897501667E0,7.308300495E0,3.775057554E0,-3.779845953E0
2.899989583E0,7.303512096E0,3.727173567E0,-3.808576345E0
2.902477500E0,7.341819286E0,3.684077978E0,-3.837306738E0
2.904965417E0,7.394492149E0,3.636193752E0,-3.913921118E0
2.907453333E0,7.432799339E0,3.607463360E0,-3.985747337E0
2.909941250E0,7.456741333E0,3.578732967E0,-4.067150116E0
2.912429167E0,7.451952934E0,3.545214176E0,-4.162918091E0
2.914917083E0,7.428010941E0,3.521272182E0,-4.249109268E0
2.917405000E0,7.389703751E0,3.516483784E0,-4.325724125E0
2.919892917E0,7.322665691E0,3.521272182E0,-4.359242916E0
2.922380833E0,7.198167324E0,3.550002575E0,-4.435857296E0
2.924868750E0,7.068880558E0,3.602674961E0,-4.555567265E0
2.927356667E0,6.915651798E0,3.708019972E0,-4.708796024E0
2.929844583E0,6.791152954E0,3.827729940E0,-4.866813660E0
2.932332500E0,6.704961777E0,3.933074951E0,-5.058349609E0
2.934820417E0,6.637924194E0,4.004900932E0,-5.211578369E0
2.937308333E0,6.657077789E0,4.024054527E0,-5.374384403E0
2.939796250E0,6.700173378E0,4.038419724E0,-5.494094372E0
2.942284115E0,6.791152954E0,4.033631325E0,-5.580285549E0
2.944771979E0,6.901286602E0,4.038419724E0,-5.632957935E0
2.947259844E0,6.992266178E0,4.067150116E0,-5.656899929E0
2.949747708E0,7.064092159E0,4.100668907E0,-5.613804340E0
2.952235573E0,7.073668957E0,4.138976097E0,-5.570708752E0
2.954723437E0,7.097610950E0,4.172494888E0,-5.565920353E0
2.957211302E0,7.150283337E0,4.153341293E0,-5.546766758E0
2.959699167E0,7.207744122E0,4.129399300E0,-5.479729176E0
2.962187031E0,7.289146900E0,4.081515312E0,-5.379172802E0
2.964674896E0,7.418434143E0,4.014477730E0,-5.259462357E0
2.967162760E0,7.571662903E0,3.966593742E0,-5.120598793E0
2.969650625E0,7.705738068E0,3.899555922E0,-5.005677223E0
2.972138490E0,7.863755703E0,3.832518339E0,-4.890755653E0
2.974626354E0,7.993042469E0,3.731961966E0,-4.771045208E0
2.977114219E0,8.093599319E0,3.645770550E0,-4.656123638E0
2.979602083E0,8.155848503E0,3.569156170E0,-4.555567265E0
2.982089948E0,8.184578896E0,3.573944569E0,-4.445434093E0
2.984577812E0,8.222886086E0,3.607463360E0,-4.330512524E0
2.987065677E0,8.251616478E0,3.631405354E0,-4.182071686E0
2.989553542E0,8.280346870E0,3.664924145E0,-3.990535736E0
2.992041406E0,8.289923668E0,3.703231573E0,-3.813364744E0
2.994529271E0,8.299500465E0,3.717596769E0,-3.631405354E0
2.997017135E0,8.280346870E0,3.731961966E0,-3.492541790E0
2.999505000E0,8.227674484E0,3.741538763E0,-3.411138773E0
3.001992865E0,8.170213699E0,3.770269156E0,-3.348889589E0
3.004480729E0,8.069656372E0,3.822941542E0,-3.329735994E0
3.006968594E0,7.935581684E0,3.894767523E0,-3.358466387E0
3.009456458E0,7.772775650E0,3.976170540E0,-3.430292368E0
3.011944323E0,7.629123688E0,4.076726913E0,-3.540425777E0
3.014432187E0,7.523778915E0,4.148552895E0,-3.655347347E0
3.016920052E0,7.432799339E0,4.225167274E0,-3.866037130E0
3.019407917E0,7.413645744E0,4.273051262E0,-4.004900932E0
3.021895781E0,7.475894928E0,4.316147327E0,-4.129399300E0
3.024383646E0,7.619546890E0,4.316147327E0,-4.206013680E0
3.026871510E0,7.791929245E0,4.296993732E0,-4.225167274E0
3.029359375E0,7.983465672E0,4.249109268E0,-4.273051262E0
3.031847240E0,8.227674484E0,4.229955673E0,-4.335300922E0
3.034335104E0,8.491036415E0,4.201225281E0,-4.431068897E0
3.036822969E0,8.744821548E0,4.182071686E0,-4.598662853E0
3.039310833E0,8.998606682E0,4.162918091E0,-4.756680012E0
3.041798698E0,9.238027573E0,4.115034103E0,-4.909909248E0
3.044286562E0,9.391256332E0,4.062361717E0,-5.034407616E0
3.046774427E0,9.453505516E0,4.024054527E0,-5.120598793E0
3.049262292E0,9.487024307E0,3.995324135E0,-5.130175591E0
3.051750156E0,9.482235909E0,3.947440147E0,-5.067926407E0
3.054238021E0,9.439140320E0,3.937863350E0,-4.953004837E0
3.056725885E0,9.415198326E0,3.913921118E0,-4.794987679E0
3.059213750E0,9.405621529E0,3.899555922E0,-4.608239651E0
3.061701615E0,9.415198326E0,3.899555922E0,-4.455010891E0
3.064189479E0,9.453505516E0,3.880402327E0,-4.316147327E0
3.066677344E0,9.463082314E0,3.846883535E0,-4.220378876E0
3.069165208E0,9.458293915E0,3.827729940E0,-4.162918091E0
3.071653073E0,9.424775124E0,3.837306738E0,-4.138976097E0
3.074140937E0,9.362525940E0,3.856460333E0,-4.105457306E0
3.076628802E0,9.276334763E0,3.899555922E0,-4.076726913E0
3.079116667E0,9.151836395E0,3.952228546E0,-4.043208122E0
3.081604531E0,9.036913872E0,4.019266129E0,-3.990535736E0
3.084092396E0,8.936357498E0,4.067150116E0,-3.942651749E0
3.086580260E0,8.816647530E0,4.095880508E0,-3.880402327E0
3.089068177E0,8.730456352E0,4.110245705E0,-3.842095137E0
3.091556094E0,8.610746384E0,4.119822502E0,-3.775057554E0
3.094044010E0,8.505401611E0,4.167706490E0,-3.708019972E0
3.096531927E0,8.376114845E0,4.239532471E0,-3.660135746E0
3.099019844E0,8.270770073E0,4.325724125E0,-3.588309765E0
3.101507760E0,8.155848503E0,4.397550106E0,-3.492541790E0
3.103995677E0,8.036137581E0,4.440645695E0,-3.368043184E0
3.106483594E0,7.949946880E0,4.488529682E0,-3.200449228E0
3.108971510E0,7.897274494E0,4.507683277E0,-3.004124641E0
3.111459427E0,7.906851292E0,4.512471676E0,-2.807800055E0
3.113947344E0,7.954735279E0,4.502894878E0,-2.625840664E0
3.116435260E0,8.026560783E0,4.483741283E0,-2.467823505E0
3.118923177E0,8.074444771E0,4.474164486E0,-2.395997286E0
3.121411094E0,8.146271706E0,4.450222492E0,-2.381632090E0
3.123899010E0,8.242039680E0,4.440645695E0,-2.372055292E0
3.126386927E0,8.352172852E0,4.431068897E0,-2.386420488E0
3.128874844E0,8.467094421E0,4.431068897E0,-2.453458309E0
3.131362760E0,8.591592789E0,4.435857296E0,-2.563591480E0
3.133850677E0,8.701725960E0,4.411915302E0,-2.697666883E0
3.136338594E0,8.792705536E0,4.407126904E0,-2.850895643E0
3.138826510E0,8.898050308E0,4.397550106E0,-3.018489838E0
3.141314375E0,8.960299492E0,4.364031315E0,-3.152565002E0
3.143802240E0,8.989029884E0,4.296993732E0,-3.277063608E0
3.146290104E0,9.008183479E0,4.239532471E0,-3.334524393E0
3.148777969E0,9.041702271E0,4.196436882E0,-3.387196779E0
3.151265833E0,9.032125473E0,4.191648483E0,-3.444657803E0
3.153753698E0,9.027337074E0,4.186860085E0,-3.463811398E0
3.156241562E0,9.017760277E0,4.191648483E0,-3.526060581E0
3.158729427E0,8.998606682E0,4.172494888E0,-3.612251759E0
3.161217292E0,8.960299492E0,4.124610901E0,-3.746327162E0
3.163705156E0,8.941145897E0,4.052784920E0,-3.918709517E0
3.166193021E0,8.950722694E0,3.980958939E0,-4.091092110E0
3.168680885E0,8.936357498E0,3.928286552E0,-4.229955673E0
3.171168750E0,8.854954720E0,3.899555922E0,-4.325724125E0
3.173656615E0,8.749609947E0,3.885190725E0,-4.368819714E0
3.176144479E0,8.644265175E0,3.889979124E0,-4.397550106E0
3.178632344E0,8.548497200E0,3.894767523E0,-4.407126904E0
3.181120208E0,8.443152428E0,3.889979124E0,-4.440645695E0
3.183608073E0,8.366538048E0,3.870825529E0,-4.440645695E0
3.186095937E0,8.285135269E0,3.827729940E0,-4.426280499E0
3.188583802E0,8.189367294E0,3.808576345E0,-4.378396511E0
3.191071667E0,8.136694908E0,3.789422750E0,-4.306570530E0
3.193559531E0,8.098387718E0,3.755903959E0,-4.201225281E0
3.196047396E0,8.117541313E0,3.727173567E0,-4.062361717E0
3.198535260E0,8.189367294E0,3.674500942E0,-3.899555922E0
3.201023125E0,8.261193275E0,3.640982151E0,-3.765480757E0
3.203510990E0,8.285135269E0,3.612251759E0,-3.650558949E0
3.205998854E0,8.323442459E0,3.631405354E0,-3.564367771E0
3.208486719E0,8.304288864E0,3.693654776E0,-3.487753391E0
3.210974583E0,8.289923668E0,3.794211149E0,-3.439869404E0
3.213462448E0,8.251616478E0,3.870825529E0,-3.396773577E0
3.215950312E0,8.232462883E0,3.942651749E0,-3.348889589E0
3.218438177E0,8.232462883E0,3.961805344E0,-3.296217203E0
3.220926042E0,8.242039680E0,3.942651749E0,-3.243544817E0
3.223413906E0,8.275558472E0,3.928286552E0,-3.210026026E0
3.225901771E0,8.304288864E0,3.957016945E0,-3.205237627E0
3.228389635E0,8.275558472E0,4.028842926E0,-3.286640406E0
3.230877500E0,8.179790497E0,4.138976097E0,-3.406350374E0
3.233365365E0,8.036137581E0,4.268262863E0,-3.607463360E0
3.235853229E0,7.911639690E0,4.392761707E0,-3.808576345E0
3.238341094E0,7.791929245E0,4.483741283E0,-3.976170540E0
3.240828958E0,7.705738068E0,4.531625271E0,-4.100668907E0
3.243316823E0,7.605181694E0,4.569932461E0,-4.172494888E0
3.245804687E0,7.552509308E0,4.593874454E0,-4.229955673E0
3.248292552E0,7.471106529E0,4.660912037E0,-4.225167274E0
3.250780417E0,7.432799339E0,4.708796024E0,-4.182071686E0
3.253268281E0,7.408857346E0,4.747103214E0,-4.124610901E0
3.255756146E0,7.384915352E0,4.747103214E0,-4.091092110E0
3.258244010E0,7.384915352E0,4.727949619E0,-4.043208122E0
3.260731875E0,7.418434143E0,4.727949619E0,-4.000112534E0
3.263219740E0,7.432799339E0,4.708796024E0,-3.961805344E0
3.265707604E0,7.466318130E0,4.699219227E0,-3.889979124E0
3.268195469E0,7.504625320E0,4.699219227E0,-3.808576345E0
3.270683333E0,7.557297707E0,4.680065632E0,-3.708019972E0
3.273171198E0,7.643488884E0,4.622604847E0,-3.559579372E0
3.275659062E0,7.734468460E0,4.569932461E0,-3.420715570E0
3.278146927E0,7.830236435E0,4.502894878E0,-3.262698412E0
3.280634792E0,7.921216488E0,4.416703701E0,-3.123834610E0
3.283122656E0,7.973888874E0,4.368819714E0,-2.999336243E0
3.285610521E0,8.021772385E0,4.335300922E0,-2.893991232E0
3.288098385E0,8.079233170E0,4.311358929E0,-2.807800055E0
3.290586250E0,8.141483307E0,4.311358929E0,-2.716820478E0
3.293074115E0,8.175002098E0,4.301782131E0,-2.664147854E0
3.295561979E0,8.208520889E0,4.296993732E0,-2.616263866E0
3.298049844E0,8.242039680E0,4.273051262E0,-2.611475468E0
3.300537708E0,8.251616478E0,4.249109268E0,-2.621052265E0
3.303025573E0,8.285135269E0,4.220378876E0,-2.630629063E0
3.305513437E0,8.318654060E0,4.210802078E0,-2.621052265E0
3.308001302E0,8.371326447E0,4.182071686E0,-2.611475468E0
3.310489167E0,8.419210434E0,4.134187698E0,-2.630629063E0
3.312977031E0,8.467094421E0,4.086303711E0,-2.649782658E0
3.315464896E0,8.471882820E0,4.062361717E0,-2.712032080E0
3.317952760E0,8.433575630E0,4.071938515E0,-2.831742048E0
3.320440625E0,8.457517624E0,4.081515312E0,-2.951452255E0
3.322928490E0,8.510190010E0,4.119822502E0,-3.071162224E0
3.325416354E0,8.596381187E0,4.119822502E0,-3.166930199E0
3.327904219E0,8.668207169E0,4.110245705E0,-3.233968019E0
3.330392083E0,8.716091156E0,4.086303711E0,-3.281852007E0
3.332879948E0,8.763975143E0,4.038419724E0,-3.267486811E0
3.335367812E0,8.831012726E0,4.000112534E0,-3.166930199E0
3.337855677E0,8.878896713E0,3.971382141E0,-3.052008629E0
3.340343542E0,8.931569099E0,3.899555922E0,-2.946663857E0
3.342831406E0,8.993818283E0,3.846883535E0,-2.836530447E0
3.345319271E0,9.022548676E0,3.808576345E0,-2.779069662E0
3.347807135E0,9.032125473E0,3.775057554E0,-2.721608877E0
3.350295000E0,9.032125473E0,3.775057554E0,-2.683301449E0
3.352782865E0,9.041702271E0,3.775057554E0,-2.635417461E0
3.355270729E0,9.041702271E0,3.775057554E0,-2.587533474E0
3.357758594E0,9.075222015E0,3.751115561E0,-2.515707493E0
3.360246510E0,9.103952408E0,3.736750364E0,-2.458246708E0
3.362734427E0,9.132682800E0,3.688866377E0,-2.376843691E0
3.365222344E0,9.175778389E0,3.650558949E0,-2.300229311E0
3.367710260E0,9.214085579E0,3.612251759E0,-2.223614931E0
3.370198177E0,9.247604370E0,3.554790974E0,-2.127846718E0
3.372686094E0,9.242815971E0,3.502118587E0,-2.032078743E0
3.375174010E0,9.228450775E0,3.516483784E0,-1.941099048E0
3.377661927E0,9.266757965E0,3.554790974E0,-1.845330954E0
3.380149844E0,9.290699959E0,3.631405354E0,-1.802235365E0
3.382637760E0,9.324218750E0,3.693654776E0,-1.773504853E0
3.385125677E0,9.333795547E0,3.722385168E0,-1.773504853E0
3.387613594E0,9.348160744E0,3.703231573E0,-1.754351258E0
3.390101510E0,9.381679535E0,3.674500942E0,-1.759139657E0
3.392589427E0,9.391256332E0,3.621828556E0,-1.759139657E0
3.395077344E0,9.391256332E0,3.588309765E0,-1.768716455E0
3.397565260E0,9.357737541E0,3.545214176E0,-1.792658567E0
3.400053177E0,9.295488358E0,3.540425777E0,-1.854907751E0
3.402541094E0,9.214085579E0,3.545214176E0,-1.878849745E0
3.405029010E0,9.113529205E0,3.602674961E0,-1.907580256E0
3.407516927E0,9.036913872E0,3.679289579E0,-1.945887446E0
3.410004844E0,9.012971878E0,3.751115561E0,-1.969829440E0
3.412492760E0,8.993818283E0,3.813364744E0,-1.974617839E0
3.414980677E0,8.989029884E0,3.832518339E0,-2.003348351E0
3.417468594E0,9.012971878E0,3.798999548E0,-2.032078743E0
3.419956510E0,9.080010414E0,3.770269156E0,-2.065597534E0
3.422444427E0,9.127894402E0,3.722385168E0,-2.089539528E0
3.424932344E0,9.214085579E0,3.698443174E0,-2.084751129E0
3.427420260E0,9.290699959E0,3.679289579E0,-2.065597534E0
3.429908177E0,9.372102737E0,3.693654776E0,-2.022501945E0
3.432396094E0,9.419986725E0,3.708019972E0,-2.027290344E0
3.434884010E0,9.443928719E0,3.741538763E0,-2.060809135E0
3.437371927E0,9.439140320E0,3.746327162E0,-2.079962730E0
3.439859844E0,9.400833130E0,3.751115561E0,-2.094327927E0
3.442347760E0,9.381679535E0,3.755903959E0,-2.065597534E0
3.444835625E0,9.362525940E0,3.779845953E0,-2.003348351E0
3.447323490E0,9.352949142E0,3.842095137E0,-1.912368655E0
3.449811354E0,9.338583946E0,3.937863350E0,-1.816600561E0
3.452299219E0,9.348160744E0,4.043208122E0,-1.720832467E0
3.454787083E0,9.343372345E0,4.129399300E0,-1.615487576E0
3.457274948E0,9.362525940E0,4.177283287E0,-1.534084797E0
3.459762812E0,9.357737541E0,4.206013680E0,-1.433528304E0
3.462250677E0,9.329007149E0,4.186860085E0,-1.328183413E0
3.464738542E0,9.285911560E0,4.182071686E0,-1.241992116E0
3.467226406E0,9.257181168E0,4.191648483E0,-1.146224022E0
3.469714271E0,9.261969566E0,4.220378876E0,-1.040879130E0
3.472202135E0,9.276334763E0,4.244320869E0,-9.594763517E-1
3.474690000E0,9.290699959E0,4.277839661E0,-8.493430614E-1
3.477177865E0,9.333795547E0,4.311358929E0,-7.248445749E-1
3.479665729E0,9.381679535E0,4.335300922E0,-6.530185342E-1
3.482153594E0,9.439140320E0,4.354454517E0,-6.290764809E-1
3.484641458E0,9.463082314E0,4.392761707E0,-6.434416771E-1
3.487129323E0,9.472659111E0,4.402338505E0,-6.769605279E-1
3.489617187E0,9.477447510E0,4.416703701E0,-7.344213724E-1
3.492105052E0,9.448717117E0,4.416703701E0,-7.392097712E-1
3.494592917E0,9.386467934E0,4.445434093E0,-7.535749674E-1
3.497080781E0,9.305065155E0,4.464587688E0,-7.823054194E-1
3.499568646E0,9.185355186E0,4.502894878E0,-8.014590144E-1
3.502056510E0,9.056067467E0,4.574720860E0,-8.158242106E-1
3.504544375E0,8.941145897E0,4.622604847E0,-8.254010081E-1
3.507032240E0,8.831012726E0,4.636970043E0,-8.158242106E-1
3.509520104E0,8.735244751E0,4.617816448E0,-7.727286220E-1
3.512007969E0,8.672995567E0,4.584297657E0,-7.248445749E-1
3.514495833E0,8.672995567E0,4.507683277E0,-6.865373254E-1
3.516983698E0,8.725667953E0,4.435857296E0,-6.721721292E-1
3.519471562E0,8.835801125E0,4.392761707E0,-6.817489266E-1
3.521959427E0,8.945934296E0,4.335300922E0,-7.344213724E-1
3.524447292E0,9.012971878E0,4.268262863E0,-8.014590144E-1
3.526935156E0,9.070432663E0,4.148552895E0,-8.972271085E-1
3.529423021E0,9.132682800E0,4.047996521E0,-9.690531492E-1
3.531910885E0,9.161413193E0,3.961805344E0,-1.060032845E0
3.534398750E0,9.204508781E0,3.889979124E0,-1.141435623E0
3.536886615E0,9.223662376E0,3.842095137E0,-1.189319730E0
3.539374479E0,9.218873978E0,3.827729940E0,-1.256357312E0
3.541862344E0,9.170989990E0,3.846883535E0,-1.332971811E0
3.544350208E0,9.094375610E0,3.880402327E0,-1.419163108E0
3.546838073E0,9.051279068E0,3.952228546E0,-1.457470298E0
3.549325937E0,9.065644264E0,4.000112534E0,-1.462258697E0
3.551813802E0,9.089587212E0,4.009689331E0,-1.452681899E0
3.554301667E0,9.118317604E0,3.995324135E0,-1.414374709E0
3.556789531E0,9.166201591E0,3.947440147E0,-1.366490602E0
3.559277396E0,9.199720383E0,3.947440147E0,-1.342548609E0
3.561765260E0,9.214085579E0,3.990535736E0,-1.294664621E0
3.564253125E0,9.257181168E0,4.071938515E0,-1.232415318E0
3.566740990E0,9.295488358E0,4.148552895E0,-1.174954534E0
3.569228854E0,9.314641953E0,4.244320869E0,-1.117493629E0
3.571716719E0,9.338583946E0,4.359242916E0,-1.098340034E0
3.574204583E0,9.352949142E0,4.488529682E0,-1.069609642E0
3.576692448E0,9.357737541E0,4.593874454E0,-1.036090732E0
3.579180312E0,9.391256332E0,4.684854031E0,-9.834183455E-1
3.581668177E0,9.400833130E0,4.766256809E0,-9.163807034E-1
3.584156042E0,9.396044731E0,4.818929672E0,-8.828618526E-1
3.586643906E0,9.424775124E0,4.847660065E0,-8.924387097E-1
3.589131771E0,9.458293915E0,4.871602058E0,-9.020155072E-1
3.591619635E0,9.501389503E0,4.919486046E0,-9.307458997E-1
3.594107500E0,9.520543098E0,4.933851242E0,-9.594763517E-1
3.596595365E0,9.554061890E0,4.924274445E0,-1.002571940E0
3.599083229E0,9.601945877E0,4.885967255E0,-1.036090732E0
3.601571094E0,9.664195061E0,4.804564476E0,-1.050456047E0
3.604058958E0,9.688137054E0,4.742314816E0,-1.064821243E0
3.606546823E0,9.721655846E0,4.704007626E0,-1.045667648E0
3.609034687E0,9.731232643E0,4.694430828E0,-1.021725535E0
3.611522552E0,9.716867447E0,4.694430828E0,-1.002571940E0
3.614010417E0,9.668983459E0,4.708796024E0,-9.786299467E-1
3.616498281E0,9.640253067E0,4.713584423E0,-9.307458997E-1
3.618986146E0,9.597157478E0,4.694430828E0,-8.972271085E-1
3.621474010E0,9.544485092E0,4.675277233E0,-8.876502514E-1
3.623961875E0,9.477447510E0,4.660912037E0,-8.876502514E-1
3.626449740E0,9.439140320E0,4.632181644E0,-8.924387097E-1
3.628937604E0,9.424775124E0,4.603451252E0,-9.259575009E-1
3.631425469E0,9.415198326E0,4.617816448E0,-9.834183455E-1
3.633913333E0,9.415198326E0,4.656123638E0,-1.055244446E0
3.636401198E0,9.410409927E0,4.713584423E0,-1.079186440E0
3.638889062E0,9.391256332E0,4.771045208E0,-1.112705231E0
3.641376927E0,9.352949142E0,4.842871666E0,-1.136647224E0
3.643864792E0,9.319430351E0,4.857236862E0,-1.179742932E0
3.646352708E0,9.300276756E0,4.871602058E0,-1.227626920E0
3.648840625E0,9.266757965E0,4.852448463E0,-1.280299306E0
3.651328542E0,9.242815971E0,4.833294868E0,-1.318606615E0
3.653816458E0,9.223662376E0,4.847660065E0,-1.347337008E0
3.656304375E0,9.218873978E0,4.895544052E0,-1.371279001E0
3.658792292E0,9.185355186E0,4.943428040E0,-1.419163108E0
3.661280208E0,9.156624794E0,4.972158432E0,-1.467047095E0
3.663768125E0,9.137471199E0,5.010465622E0,-1.510142684E0
3.666256042E0,9.103952408E0,5.010465622E0,-1.558026791E0
3.668744375E0,9.099164009E0,4.986523628E0,-1.581968784E0
3.671232708E0,9.094375610E0,4.919486046E0,-1.601122379E0
3.673720625E0,9.089587212E0,4.852448463E0,-1.620275974E0
3.676208490E0,9.065644264E0,4.809352875E0,-1.649006367E0
3.678696354E0,9.036913872E0,4.804564476E0,-1.692102075E0
3.681184219E0,9.036913872E0,4.828506470E0,-1.677736878E0
3.683672083E0,9.056067467E0,4.876390457E0,-1.653794765E0
3.686159948E0,9.099164009E0,4.905120850E0,-1.629852772E0
3.688647812E0,9.080010414E0,4.914697647E0,-1.629852772E0
3.691135677E0,9.051279068E0,4.890755653E0,-1.601122379E0
3.693623542E0,9.012971878E0,4.857236862E0,-1.581968784E0
3.696111406E0,8.993818283E0,4.823718071E0,-1.548449993E0
3.698599271E0,8.955511093E0,4.785410881E0,-1.481412292E0
3.701087135E0,8.941145897E0,4.775833607E0,-1.390432596E0
3.703575000E0,8.941145897E0,4.751891613E0,-1.299453020E0
3.706062865E0,8.974664688E0,4.737526417E0,-1.203684926E0
3.708550729E0,9.017760277E0,4.694430828E0,-1.117493629E0
3.711038594E0,9.065644264E0,4.617816448E0,-1.040879130E0
3.713526458E0,9.123106003E0,4.507683277E0,-9.786299467E-1
3.716014323E0,9.204508781E0,4.397550106E0,-9.355342984E-1
3.718502187E0,9.228450775E0,4.296993732E0,-9.115923047E-1
3.720990052E0,9.266757965E0,4.249109268E0,-8.972271085E-1
3.723477917E0,9.300276756E0,4.244320869E0,-8.828618526E-1
3.725965781E0,9.319430351E0,4.229955673E0,-8.349778652E-1
3.728453646E0,9.338583946E0,4.215590477E0,-7.870938182E-1
3.730941510E0,9.329007149E0,4.182071686E0,-7.392097712E-1
3.733429375E0,9.333795547E0,4.134187698E0,-6.578069329E-1
3.735917240E0,9.357737541E0,4.091092110E0,-5.764040351E-1
3.738405104E0,9.343372345E0,4.052784920E0,-5.285200477E-1
3.740892969E0,9.324218750E0,4.052784920E0,-4.710591733E-1
3.743380833E0,9.271546364E0,4.057573318E0,-4.614823759E-1
3.745868698E0,9.199720383E0,4.091092110E0,-4.279635549E-1
3.748356562E0,9.137471199E0,4.124610901E0,-4.231751561E-1
3.750844427E0,9.089587212E0,4.158129692E0,-4.279635549E-1
3.753332292E0,9.027337074E0,4.182071686E0,-4.566939771E-1
3.755820156E0,8.965087891E0,4.206013680E0,-4.614823759E-1
3.758308021E0,8.883685112E0,4.239532471E0,-4.614823759E-1
3.760795885E0,8.811859131E0,4.268262863E0,-4.662707746E-1
3.763283750E0,8.740033150E0,4.292205334E0,-4.566939771E-1
3.765771615E0,8.663418770E0,4.340089321E0,-4.806360006E-1
3.768259479E0,8.562862396E0,4.387973309E0,-4.950011969E-1
3.770747344E0,8.486248016E0,4.464587688E0,-5.141547918E-1
3.773235208E0,8.423998833E0,4.545990467E0,-5.333084464E-1
3.775723073E0,8.404845238E0,4.593874454E0,-5.428852439E-1
3.778210937E0,8.380903244E0,4.651335239E0,-5.572504401E-1
3.780698802E0,8.376114845E0,4.684854031E0,-5.572504401E-1
3.783186667E0,8.352172852E0,4.708796024E0,-5.620388389E-1
3.785674531E0,8.323442459E0,4.732738018E0,-5.716156363E-1
3.788162396E0,8.294712067E0,4.727949619E0,-6.003460884E-1
3.790650260E0,8.280346870E0,4.699219227E0,-6.194996834E-1
3.793138125E0,8.309077263E0,4.670488834E0,-6.673837304E-1
3.795625990E0,8.385691643E0,4.670488834E0,-6.961141229E-1
3.798113854E0,8.462306023E0,4.680065632E0,-7.918822169E-1
3.800601719E0,8.519766808E0,4.704007626E0,-9.020155072E-1
3.803089583E0,8.577227592E0,4.737526417E0,-1.050456047E0
3.805577448E0,8.658630371E0,4.751891613E0,-1.174954534E0
3.808065312E0,8.740033150E0,4.751891613E0,-1.318606615E0
3.810553177E0,8.787917137E0,4.723161221E0,-1.481412292E0
3.813041042E0,8.826224327E0,4.641758442E0,-1.615487576E0
3.815528906E0,8.859743118E0,4.550778866E0,-1.744774461E0
3.818016771E0,8.874108315E0,4.455010891E0,-1.850119352E0
3.820504635E0,8.921992302E0,4.368819714E0,-1.921945453E0
3.822992500E0,9.008183479E0,4.292205334E0,-1.965041041E0
3.825480365E0,9.084798813E0,4.239532471E0,-1.998559833E0
3.827968229E0,9.147047997E0,4.201225281E0,-2.046443939E0
3.830456094E0,9.238027573E0,4.138976097E0,-2.012925148E0
3.832943958E0,9.324218750E0,4.081515312E0,-1.979406238E0
3.835431823E0,9.381679535E0,4.019266129E0,-1.988983035E0
3.837919687E0,9.419986725E0,3.976170540E0,-1.998559833E0
3.840407552E0,9.396044731E0,3.947440147E0,-1.979406238E0
3.842895417E0,9.381679535E0,3.980958939E0,-1.979406238E0
3.845383281E0,9.372102737E0,4.038419724E0,-1.950675845E0
3.847871146E0,9.329007149E0,4.086303711E0,-1.917157054E0
3.850359010E0,9.281123161E0,4.134187698E0,-1.878849745E0
3.852846875E0,9.228450775E0,4.167706490E0,-1.845330954E0
3.855334740E0,9.175778389E0,4.201225281E0,-1.811812162E0
3.857822604E0,9.137471199E0,4.263474464E0,-1.763928056E0
3.860310469E0,9.132682800E0,4.292205334E0,-1.706467271E0
3.862798333E0,9.118317604E0,4.320935726E0,-1.653794765E0
3.865286198E0,9.142259598E0,4.335300922E0,-1.620275974E0
3.867774062E0,9.156624794E0,4.354454517E0,-1.591545582E0
3.870261979E0,9.137471199E0,4.320935726E0,-1.591545582E0
3.872749896E0,9.137471199E0,4.292205334E0,-1.567603588E0
3.875237812E0,9.142259598E0,4.296993732E0,-1.529296279E0
3.877725729E0,9.199720383E0,4.263474464E0,-1.471835494E0
3.880213646E0,9.261969566E0,4.215590477E0,-1.443105102E0
3.882701562E0,9.314641953E0,4.153341293E0,-1.371279001E0
3.885189479E0,9.362525940E0,4.091092110E0,-1.332971811E0
3.887677396E0,9.424775124E0,4.004900932E0,-1.275510907E0
3.890165312E0,9.491812706E0,3.933074951E0,-1.213261724E0
3.892653229E0,9.539696693E0,3.856460333E0,-1.146224022E0
3.895141146E0,9.573215485E0,3.784634352E0,-1.107916832E0
3.897629062E0,9.645041466E0,3.727173567E0,-1.069609642E0
3.900116979E0,9.668983459E0,3.655347347E0,-1.060032845E0
3.902604896E0,9.654618263E0,3.621828556E0,-1.045667648E0
3.905092812E0,9.625887871E0,3.617040157E0,-1.050456047E0
3.907580729E0,9.592369080E0,3.660135746E0,-1.060032845E0
3.910068646E0,9.568427086E0,3.736750364E0,-1.060032845E0
3.912556562E0,9.534908295E0,3.827729940E0,-1.136647224E0
3.915044479E0,9.506177902E0,3.904344320E0,-1.194108129E0
3.917532396E0,9.439140320E0,3.961805344E0,-1.241992116E0
3.920020312E0,9.352949142E0,4.033631325E0,-1.265934110E0
3.922508229E0,9.252392769E0,4.115034103E0,-1.285087705E0
3.924996146E0,9.175778389E0,4.229955673E0,-1.299453020E0
3.927484062E0,9.099164009E0,4.364031315E0,-1.361702204E0
3.929971979E0,9.017760277E0,4.507683277E0,-1.428739905E0
3.932459896E0,8.941145897E0,4.660912037E0,-1.476623893E0
3.934947812E0,8.869319916E0,4.790199280E0,-1.534084797E0
3.937435729E0,8.811859131E0,4.885967255E0,-1.610699177E0
3.939923646E0,8.783128738E0,4.933851242E0,-1.663371682E0
3.942411562E0,8.778340340E0,4.953004837E0,-1.706467271E0
3.944899479E0,8.797493935E0,4.972158432E0,-1.739986062E0
3.947387396E0,8.835801125E0,4.996100426E0,-1.739986062E0
3.949875312E0,8.878896713E0,5.000888824E0,-1.744774461E0
3.952363229E0,8.912415504E0,5.010465622E0,-1.725620866E0
3.954851146E0,8.912415504E0,5.000888824E0,-1.692102075E0
3.957339062E0,8.921992302E0,4.991312027E0,-1.639429569E0
3.959826927E0,8.941145897E0,4.938639641E0,-1.596333981E0
3.962314792E0,8.984241486E0,4.900332451E0,-1.538873196E0
3.964802656E0,9.027337074E0,4.818929672E0,-1.476623893E0
3.967290521E0,9.084798813E0,4.747103214E0,-1.414374709E0
3.969778385E0,9.151836395E0,4.708796024E0,-1.328183413E0
3.972266250E0,9.204508781E0,4.699219227E0,-1.251568913E0
3.974754115E0,9.185355186E0,4.684854031E0,-1.170166135E0
3.977241979E0,9.156624794E0,4.704007626E0,-1.112705231E0
3.979729844E0,9.113529205E0,4.737526417E0,-1.050456047E0
3.982217708E0,9.075222015E0,4.727949619E0,-9.738415480E-1
3.984705573E0,9.070432663E0,4.704007626E0,-9.307458997E-1
3.987193437E0,9.075222015E0,4.689642429E0,-8.541314602E-1
3.989681302E0,9.036913872E0,4.675277233E0,-7.727286220E-1
3.992169167E0,8.979453087E0,4.689642429E0,-7.009025216E-1
3.994657031E0,8.926780701E0,4.727949619E0,-6.673837304E-1
3.997144896E0,8.874108315E0,4.766256809E0,-6.386532784E-1
3.999632760E0,8.821435928E0,4.838083267E0,-6.386532784E-1
4.002120625E0,8.778340340E0,4.900332451E0,-6.721721292E-1
4.004608490E0,8.787917137E0,4.962581635E0,-7.104793787E-1
4.007096354E0,8.797493935E0,5.000888824E0,-7.775170207E-1
4.009584219E0,8.821435928E0,5.029619217E0,-8.541314602E-1
4.012072083E0,8.840589523E0,5.043984413E0,-9.020155072E-1
4.014559948E0,8.902838707E0,5.039196014E0,-9.690531492E-1
4.017047812E0,8.945934296E0,5.005677223E0,-1.050456047E0
4.019535677E0,8.979453087E0,4.953004837E0,-1.103128433E0
4.022023542E0,9.041702271E0,4.895544052E0,-1.146224022E0
4.024511406E0,9.084798813E0,4.838083267E0,-1.155800819E0
4.026999271E0,9.137471199E0,4.790199280E0,-1.155800819E0
4.029487135E0,9.161413193E0,4.723161221E0,-1.136647224E0
4.031975000E0,9.180566788E0,4.684854031E0,-1.098340034E0
4.034462865E0,9.204508781E0,4.598662853E0,-1.055244446E0
4.036950729E0,9.228450775E0,4.541202068E0,-9.929951429E-1
4.039438594E0,9.266757965E0,4.440645695E0,-9.163807034E-1
4.041926458E0,9.290699959E0,4.330512524E0,-8.493430614E-1
4.044414323E0,9.329007149E0,4.234744072E0,-7.918822169E-1
4.046902187E0,9.386467934E0,4.167706490E0,-7.200561762E-1
4.049390052E0,9.429563522E0,4.062361717E0,-6.673837304E-1
4.051877917E0,9.439140320E0,3.990535736E0,-6.290764809E-1
4.054365781E0,9.443928719E0,3.913921118E0,-5.668272376E-1
4.056853646E0,9.424775124E0,3.856460333E0,-5.285200477E-1
4.059341510E0,9.386467934E0,3.798999548E0,-4.997895956E-1
4.061829375E0,9.352949142E0,3.755903959E0,-4.854243994E-1
4.064317240E0,9.281123161E0,3.727173567E0,-4.950011969E-1
4.066805104E0,9.175778389E0,3.736750364E0,-5.045779943E-1
4.069292969E0,9.070432663E0,3.779845953E0,-5.237316489E-1
4.071780833E0,9.017760277E0,3.818153143E0,-5.524620414E-1
4.074268698E0,8.955511093E0,3.856460333E0,-5.764040351E-1
4.076756562E0,8.926780701E0,3.885190725E0,-5.955576897E-1
4.079244427E0,8.941145897E0,3.894767523E0,-6.147112846E-1
4.081732292E0,8.993818283E0,3.918709517E0,-6.290764809E-1
4.084220156E0,9.022548676E0,3.918709517E0,-6.721721292E-1
4.086708021E0,9.036913872E0,3.923498154E0,-7.248445749E-1
4.089195885E0,9.065644264E0,3.942651749E0,-7.775170207E-1
4.091683750E0,9.099164009E0,3.947440147E0,-8.254010081E-1
4.094171615E0,9.156624794E0,3.957016945E0,-8.637082577E-1
4.096659479E0,9.228450775E0,3.961805344E0,-9.068039060E-1
4.099147344E0,9.285911560E0,3.937863350E0,-9.546879530E-1
4.101635208E0,9.309853554E0,3.928286552E0,-9.834183455E-1
4.104123073E0,9.319430351E0,3.933074951E0,-9.882067442E-1
4.106610937E0,9.309853554E0,3.971382141E0,-1.007360339E0
4.109098802E0,9.290699959E0,4.024054527E0,-1.036090732E0
4.111586667E0,9.276334763E0,4.067150116E0,-1.069609642E0
4.114074531E0,9.257181168E0,4.105457306E0,-1.107916832E0
4.116562396E0,9.223662376E0,4.162918091E0,-1.141435623E0
4.119050260E0,9.218873978E0,4.206013680E0,-1.136647224E0
4.121538125E0,9.214085579E0,4.210802078E0,-1.141435623E0
4.124025990E0,9.209297180E0,4.220378876E0,-1.131858826E0
4.126513854E0,9.238027573E0,4.215590477E0,-1.117493629E0
4.129001979E0,9.300276756E0,4.191648483E0,-1.079186440E0
4.131490104E0,9.343372345E0,4.177283287E0,-1.074398041E0
4.133978229E0,9.376891136E0,4.167706490E0,-1.064821243E0
4.136466354E0,9.415198326E0,4.201225281E0,-1.040879130E0
4.138954427E0,9.434351921E0,4.244320869E0,-1.002571940E0
4.141442292E0,9.405621529E0,4.282628059E0,-9.977835417E-1
4.143930156E0,9.348160744E0,4.316147327E0,-1.016937137E0
4.146418021E0,9.281123161E0,4.349666119E0,-1.021725535E0
4.148905885E0,9.209297180E0,4.402338505E0,-1.026513934E0
4.151393750E0,9.166201591E0,4.435857296E0,-1.012148738E0
4.153881615E0,9.147047997E0,4.459799290E0,-1.021725535E0
4.156369479E0,9.142259598E0,4.474164486E0,-1.021725535E0
4.158857344E0,9.127894402E0,4.478952885E0,-1.031302333E0
4.161345208E0,9.127894402E0,4.469376087E0,-1.060032845E0
4.163833073E0,9.123106003E0,4.488529682E0,-1.088763237E0
4.166320937E0,9.127894402E0,4.507683277E0,-1.127070427E0
4.168809271E0,9.132682800E0,4.502894878E0,-1.151012421E0
4.171296875E0,9.127894402E0,4.536413670E0,-1.165377736E0
4.173784479E0,9.123106003E0,4.541202068E0,-1.189319730E0
4.176272083E0,9.123106003E0,4.541202068E0,-1.208473325E0
4.178759687E0,9.123106003E0,4.541202068E0,-1.218050122E0
4.181247292E0,9.156624794E0,4.522048473E0,-1.232415318E0
4.183734948E0,9.194931984E0,4.522048473E0,-1.256357312E0
4.186222656E0,9.261969566E0,4.517260075E0,-1.256357312E0
4.188710417E0,9.309853554E0,4.517260075E0,-1.218050122E0
4.191198229E0,9.372102737E0,4.522048473E0,-1.198896527E0
4.193686094E0,9.396044731E0,4.550778866E0,-1.189319730E0
4.196174010E0,9.386467934E0,4.593874454E0,-1.198896527E0
4.198661979E0,9.338583946E0,4.660912037E0,-1.179742932E0
4.201150000E0,9.266757965E0,4.713584423E0,-1.151012421E0
4.203638073E0,9.180566788E0,4.780622005E0,-1.160589218E0
4.206126146E0,9.089587212E0,4.852448463E0,-1.174954534E0
4.208614219E0,9.022548676E0,4.905120850E0,-1.170166135E0
4.211102292E0,8.979453087E0,4.933851242E0,-1.136647224E0
4.213590365E0,8.974664688E0,4.957793236E0,-1.117493629E0
4.216078437E0,9.008183479E0,4.972158432E0,-1.088763237E0
4.218566510E0,9.075222015E0,4.996100426E0,-1.036090732E0
4.221054531E0,9.170989990E0,4.996100426E0,-1.036090732E0
4.223542448E0,9.252392769E0,4.996100426E0,-1.021725535E0
4.226030312E0,9.324218750E0,5.020042419E0,-1.031302333E0
4.228518177E0,9.391256332E0,5.063138008E0,-1.040879130E0
4.231006042E0,9.467870712E0,5.082291603E0,-1.064821243E0
4.233493906E0,9.534908295E0,5.120598793E0,-1.088763237E0
4.235981771E0,9.573215485E0,5.173271179E0,-1.127070427E0
4.238469635E0,9.592369080E0,5.221155167E0,-1.151012421E0
4.240957500E0,9.611522675E0,5.273828030E0,-1.151012421E0
4.243445365E0,9.630676270E0,5.360019207E0,-1.146224022E0
4.245933229E0,9.630676270E0,5.427056789E0,-1.146224022E0
4.248421094E0,9.640253067E0,5.498882771E0,-1.131858826E0
4.250908958E0,9.611522675E0,5.604227543E0,-1.098340034E0
4.253396823E0,9.530119896E0,5.704783916E0,-1.060032845E0
4.255884687E0,9.434351921E0,5.829282761E0,-1.045667648E0
4.258372552E0,9.343372345E0,5.968146324E0,-1.002571940E0
4.260860417E0,9.233239174E0,6.087856293E0,-9.834183455E-1
4.263348281E0,9.156624794E0,6.207566261E0,-9.546879530E-1
4.265836146E0,9.147047997E0,6.255450726E0,-9.451110959E-1
4.268324010E0,9.156624794E0,6.269815922E0,-9.451110959E-1
4.270811875E0,9.180566788E0,6.265027523E0,-9.738415480E-1
4.273299740E0,9.228450775E0,6.202777863E0,-9.977835417E-1
4.275787604E0,9.329007149E0,6.150105476E0,-1.021725535E0
4.278275469E0,9.424775124E0,6.083067894E0,-1.021725535E0
4.280763333E0,9.525331497E0,6.001665115E0,-1.016937137E0
4.283251198E0,9.635464668E0,5.896320343E0,-1.036090732E0
4.285739062E0,9.759963036E0,5.790975571E0,-1.040879130E0
4.288226927E0,9.855731010E0,5.695207119E0,-1.055244446E0
4.290714792E0,9.941922188E0,5.604227543E0,-1.088763237E0
4.293202656E0,1.000417137E1,5.484517574E0,-1.112705231E0
4.295690521E0,1.007120991E1,5.340865612E0,-1.112705231E0
4.298178385E0,1.012867069E1,5.168482780E0,-1.155800819E0
4.300666250E0,1.017176628E1,5.000888824E0,-1.222838521E0
4.303154115E0,1.018613148E1,4.881178856E0,-1.275510907E0
4.305641979E0,1.016218948E1,4.771045208E0,-1.347337008E0
4.308129844E0,1.009036350E1,4.704007626E0,-1.400009394E0
4.310617708E0,9.989806175E0,4.636970043E0,-1.447893500E0
4.313105573E0,9.874884605E0,4.541202068E0,-1.452681899E0
4.315593437E0,9.788693428E0,4.478952885E0,-1.395220995E0
4.318081302E0,9.736021042E0,4.383184910E0,-1.270722508E0
4.320569167E0,9.697713852E0,4.296993732E0,-1.117493629E0
4.323057031E0,9.697713852E0,4.220378876E0,-9.690531492E-1
4.325544896E0,9.707290649E0,4.134187698E0,-7.918822169E-1
4.328032760E0,9.707290649E0,4.067150116E0,-6.242880821E-1
4.330520625E0,9.688137054E0,4.028842926E0,-4.614823759E-1
4.333008490E0,9.640253067E0,3.995324135E0,-3.369838893E-1
4.335496354E0,9.563638687E0,3.995324135E0,-2.220622003E-1
4.337984219E0,9.515754700E0,4.009689331E0,-1.310825497E-1
4.340472083E0,9.487024307E0,4.009689331E0,-5.446808785E-2
4.342959948E0,9.467870712E0,4.000112534E0,-1.616086066E-2
4.345447812E0,9.448717117E0,4.004900932E0,1.256955881E-2
4.347935677E0,9.463082314E0,3.985747337E0,2.693476900E-2
4.350423542E0,9.458293915E0,3.995324135E0,-6.584054790E-3
4.352911406E0,9.453505516E0,4.024054527E0,-8.319851011E-2
4.355399271E0,9.424775124E0,4.062361717E0,-1.406593472E-1
4.357887135E0,9.376891136E0,4.091092110E0,-2.172738016E-1
4.360375000E0,9.319430351E0,4.119822502E0,-3.130418658E-1
4.362862865E0,9.261969566E0,4.153341293E0,-4.040215313E-1
4.365350729E0,9.204508781E0,4.186860085E0,-5.093663931E-1
4.367838594E0,9.147047997E0,4.210802078E0,-6.434416771E-1
4.370326458E0,9.099164009E0,4.215590477E0,-7.727286220E-1
4.372814323E0,9.036913872E0,4.225167274E0,-8.972271085E-1
4.375302187E0,8.984241486E0,4.206013680E0,-1.040879130E0
4.377790052E0,8.902838707E0,4.167706490E0,-1.117493629E0
4.380277917E0,8.826224327E0,4.134187698E0,-1.151012421E0
4.382765781E0,8.783128738E0,4.129399300E0,-1.151012421E0
4.385253646E0,8.759186745E0,4.115034103E0,-1.112705231E0
4.387741510E0,8.778340340E0,4.081515312E0,-1.036090732E0
4.390229375E0,8.821435928E0,4.052784920E0,-9.690531492E-1
4.392717240E0,8.869319916E0,3.995324135E0,-8.780734539E-1
4.395205104E0,8.941145897E0,3.971382141E0,-7.775170207E-1
4.397692969E0,9.008183479E0,3.937863350E0,-6.578069329E-1
4.400180833E0,9.041702271E0,3.933074951E0,-5.572504401E-1
4.402668698E0,9.075222015E0,3.923498154E0,-4.806360006E-1
4.405156562E0,9.084798813E0,3.913921118E0,-3.992331326E-1
4.407644479E0,9.108740807E0,3.928286552E0,-3.465606868E-1
4.410132396E0,9.161413193E0,3.923498154E0,-3.465606868E-1
4.412620312E0,9.204508781E0,3.913921118E0,-3.705027103E-1
4.415108229E0,9.266757965E0,3.957016945E0,-3.944447339E-1
4.417596146E0,9.305065155E0,4.014477730E0,-4.327519536E-1
4.420084062E0,9.329007149E0,4.076726913E0,-4.758476019E-1
4.422571979E0,9.357737541E0,4.158129692E0,-5.524620414E-1
4.425059896E0,9.386467934E0,4.234744072E0,-6.290764809E-1
4.427547812E0,9.400833130E0,4.311358929E0,-7.200561762E-1
4.430035729E0,9.419986725E0,4.368819714E0,-8.254010081E-1
4.432523646E0,9.424775124E0,4.421492100E0,-9.307458997E-1
4.435011562E0,9.410409927E0,4.455010891E0,-1.026513934E0
4.437499479E0,9.391256332E0,4.488529682E0,-1.112705231E0
4.439987396E0,9.410409927E0,4.536413670E0,-1.194108129E0
4.442475312E0,9.448717117E0,4.555567265E0,-1.270722508E0
4.444963229E0,9.506177902E0,4.545990467E0,-1.347337008E0
4.447451146E0,9.558850288E0,4.536413670E0,-1.428739905E0
4.449939062E0,9.592369080E0,4.531625271E0,-1.490989089E0
4.452426979E0,9.611522675E0,4.512471676E0,-1.543661594E0
4.454914896E0,9.640253067E0,4.459799290E0,-1.591545582E0
4.457402812E0,9.659406662E0,4.368819714E0,-1.605910778E0
4.459890729E0,9.702502251E0,4.268262863E0,-1.610699177E0
4.462378646E0,9.774328232E0,4.172494888E0,-1.591545582E0
4.464866562E0,9.807847023E0,4.076726913E0,-1.558026791E0
4.467354479E0,9.831789017E0,3.990535736E0,-1.538873196E0
4.469842396E0,9.831789017E0,3.947440147E0,-1.514931083E0
4.472330312E0,9.827000618E0,3.861248732E0,-1.481412292E0
4.474818229E0,9.831789017E0,3.794211149E0,-1.380855799E0
4.477306146E0,9.841365814E0,3.746327162E0,-1.285087705E0
4.479794062E0,9.884461403E0,3.664924145E0,-1.198896527E0
4.482281979E0,9.908403397E0,3.602674961E0,-1.131858826E0
4.484769896E0,9.908403397E0,3.550002575E0,-1.131858826E0
4.487257812E0,9.894038200E0,3.521272182E0,-1.151012421E0
4.489745729E0,9.917980194E0,3.511695385E0,-1.184531331E0
4.492233646E0,9.961075783E0,3.516483784E0,-1.194108129E0
4.494721562E0,1.000895977E1,3.511695385E0,-1.208473325E0
4.497209479E0,1.000417137E1,3.521272182E0,-1.203684926E0
4.499697344E0,1.002332497E1,3.502118587E0,-1.208473325E0
4.502185208E0,1.002332497E1,3.497330189E0,-1.222838521E0
4.504673073E0,1.000417137E1,3.497330189E0,-1.261145711E0
4.507160937E0,9.975440979E0,3.530848980E0,-1.313818216E0
4.509648802E0,9.937133789E0,3.554790974E0,-1.361702204E0
4.512136667E0,9.908403397E0,3.626616955E0,-1.380855799E0
4.514624531E0,9.884461403E0,3.703231573E0,-1.404797792E0
4.517112396E0,9.865307808E0,3.765480757E0,-1.428739905E0
4.519600260E0,9.889249802E0,3.813364744E0,-1.452681899E0
4.522088125E0,9.894038200E0,3.837306738E0,-1.514931083E0
4.524575990E0,9.941922188E0,3.837306738E0,-1.572391987E0
4.527063854E0,9.970652580E0,3.803787947E0,-1.629852772E0
4.529551719E0,9.970652580E0,3.794211149E0,-1.653794765E0
4.532039583E0,9.985017776E0,3.794211149E0,-1.653794765E0
4.534527448E0,1.003290176E1,3.779845953E0,-1.639429569E0
4.537015312E0,1.007120991E1,3.731961966E0,-1.538873196E0
4.539503177E0,1.011909389E1,3.669712543E0,-1.414374709E0
4.541991042E0,1.014782429E1,3.583521366E0,-1.309029818E0
4.544478906E0,1.018613148E1,3.511695385E0,-1.198896527E0
4.546966771E0,1.020528507E1,3.435081005E0,-1.103128433E0
4.549454635E0,1.021486187E1,3.377619982E0,-1.002571940E0
4.551942500E0,1.018613148E1,3.344101191E0,-9.068039060E-1
4.554430365E0,1.017176628E1,3.324947596E0,-8.349778652E-1
4.556918229E0,1.015261269E1,3.291428804E0,-7.727286220E-1
4.559406094E0,1.012388229E1,3.277063608E0,-7.296329737E-1
4.561893958E0,1.010951710E1,3.267486811E0,-7.009025216E-1
4.564381823E0,1.007120991E1,3.262698412E0,-6.625953317E-1
4.566869687E0,1.002332497E1,3.262698412E0,-6.721721292E-1
4.569357552E0,9.922768593E0,3.301005602E0,-6.961141229E-1
4.571845417E0,9.750386238E0,3.348889589E0,-7.296329737E-1
4.574333281E0,9.558850288E0,3.430292368E0,-7.775170207E-1
4.576821146E0,9.372102737E0,3.526060581E0,-8.541314602E-1
4.579309010E0,9.266757965E0,3.626616955E0,-9.355342984E-1
4.581796875E0,9.209297180E0,3.712808371E0,-9.786299467E-1
4.584284740E0,9.199720383E0,3.751115561E0,-1.021725535E0
4.586772604E0,9.199720383E0,3.751115561E0,-1.103128433E0
4.589260469E0,9.247604370E0,3.755903959E0,-1.213261724E0
4.591748333E0,9.314641953E0,3.736750364E0,-1.299453020E0
4.594236198E0,9.376891136E0,3.741538763E0,-1.404797792E0
4.596724062E0,9.429563522E0,3.751115561E0,-1.500565886E0
4.599211927E0,9.448717117E0,3.770269156E0,-1.553238392E0
4.601699792E0,9.467870712E0,3.808576345E0,-1.620275974E0
4.604187656E0,9.467870712E0,3.832518339E0,-1.692102075E0
4.606675521E0,9.439140320E0,3.846883535E0,-1.754351258E0
4.609163385E0,9.391256332E0,3.856460333E0,-1.807023764E0
4.611651250E0,9.362525940E0,3.851671934E0,-1.864484549E0
4.614139115E0,9.352949142E0,3.837306738E0,-1.859696150E0
4.616626979E0,9.362525940E0,3.832518339E0,-1.864484549E0
4.619114844E0,9.381679535E0,3.818153143E0,-1.830965757E0
4.621602708E0,9.405621529E0,3.789422750E0,-1.778293371E0
4.624090573E0,9.467870712E0,3.741538763E0,-1.725620866E0
4.626578437E0,9.525331497E0,3.664924145E0,-1.672948480E0
4.629066302E0,9.539696693E0,3.597886562E0,-1.553238392E0
4.631554167E0,9.525331497E0,3.506906986E0,-1.462258697E0
4.634042031E0,9.506177902E0,3.473388195E0,-1.380855799E0
4.636529896E0,9.467870712E0,3.478176594E0,-1.299453020E0
4.639017760E0,9.424775124E0,3.478176594E0,-1.241992116E0
4.641505625E0,9.314641953E0,3.497330189E0,-1.246780515E0
4.643993490E0,9.180566788E0,3.516483784E0,-1.251568913E0
4.646481354E0,9.046490669E0,3.511695385E0,-1.208473325E0
4.648969219E0,8.945934296E0,3.511695385E0,-1.117493629E0
4.651457083E0,8.864531517E0,3.492541790E0,-9.929951429E-1
4.653944948E0,8.826224327E0,3.459022999E0,-9.068039060E-1
4.656432812E0,8.802282333E0,3.444657803E0,-8.158242106E-1
4.658920677E0,8.831012726E0,3.435081005E0,-7.727286220E-1
4.661408542E0,8.864531517E0,3.406350374E0,-7.583633661E-1
4.663896406E0,8.917203903E0,3.372831583E0,-7.583633661E-1
4.666384271E0,8.993818283E0,3.348889589E0,-8.158242106E-1
4.668872135E0,9.041702271E0,3.301005602E0,-9.115923047E-1
4.671360000E0,9.108740807E0,3.296217203E0,-1.074398041E0
4.673847865E0,9.185355186E0,3.324947596E0,-1.213261724E0
4.676335729E0,9.242815971E0,3.344101191E0,-1.342548609E0
4.678823594E0,9.333795547E0,3.363254786E0,-1.467047095E0
4.681311458E0,9.386467934E0,3.353677988E0,-1.591545582E0
4.683799375E0,9.415198326E0,3.329735994E0,-1.692102075E0
4.686287292E0,9.448717117E0,3.334524393E0,-1.826177359E0
4.688775208E0,9.463082314E0,3.358466387E0,-1.979406238E0
4.691263125E0,9.448717117E0,3.377619982E0,-2.113481522E0
4.693751042E0,9.434351921E0,3.411138773E0,-2.228403330E0
4.696238958E0,9.400833130E0,3.425503969E0,-2.343324900E0
4.698726875E0,9.324218750E0,3.435081005E0,-2.453458309E0
4.701214792E0,9.233239174E0,3.468599796E0,-2.549226284E0
4.703702708E0,9.147047997E0,3.497330189E0,-2.606687069E0
4.706190625E0,9.084798813E0,3.521272182E0,-2.644994259E0
4.708678542E0,9.060855865E0,3.530848980E0,-2.640205860E0
4.711166458E0,9.094375610E0,3.497330189E0,-2.625840664E0
4.713654375E0,9.113529205E0,3.468599796E0,-2.587533474E0
4.716142292E0,9.084798813E0,3.449446201E0,-2.515707493E0
4.718630208E0,9.065644264E0,3.473388195E0,-2.453458309E0
4.721118125E0,9.046490669E0,3.492541790E0,-2.381632090E0
4.723606042E0,9.027337074E0,3.497330189E0,-2.295440912E0
4.726093958E0,9.008183479E0,3.482964993E0,-2.151788712E0
4.728581875E0,8.998606682E0,3.444657803E0,-1.998559833E0
4.731069792E0,9.003395081E0,3.430292368E0,-1.830965757E0
4.733557708E0,9.012971878E0,3.387196779E0,-1.687313676E0
4.736045625E0,8.989029884E0,3.391985178E0,-1.567603588E0
4.738533542E0,8.960299492E0,3.391985178E0,-1.438316703E0
4.741021458E0,8.974664688E0,3.435081005E0,-1.332971811E0
4.743509375E0,8.998606682E0,3.463811398E0,-1.265934110E0
4.745997292E0,9.032125473E0,3.473388195E0,-1.203684926E0
4.748485208E0,9.070432663E0,3.459022999E0,-1.170166135E0
4.750973125E0,9.113529205E0,3.439869404E0,-1.184531331E0
4.753461042E0,9.142259598E0,3.415927172E0,-1.241992116E0
4.755948958E0,9.099164009E0,3.430292368E0,-1.342548609E0
4.758436875E0,9.022548676E0,3.497330189E0,-1.452681899E0
4.760924792E0,8.998606682E0,3.569156170E0,-1.567603588E0
4.763412708E0,8.989029884E0,3.636193752E0,-1.692102075E0
4.765900625E0,9.003395081E0,3.684077978E0,-1.811812162E0
4.768388542E0,9.012971878E0,3.708019972E0,-1.926733851E0
4.770876458E0,9.041702271E0,3.731961966E0,-2.036867142E0
4.773364375E0,9.070432663E0,3.755903959E0,-2.108693123E0
4.775852240E0,9.113529205E0,3.794211149E0,-2.180519104E0
4.778340104E0,9.137471199E0,3.818153143E0,-2.290652514E0
4.780827969E0,9.209297180E0,3.856460333E0,-2.376843691E0
4.783315833E0,9.261969566E0,3.870825529E0,-2.515707493E0
4.785803698E0,9.314641953E0,3.851671934E0,-2.625840664E0
4.788291562E0,9.338583946E0,3.861248732E0,-2.726397276E0
4.790779427E0,9.305065155E0,3.889979124E0,-2.841318846E0
4.793267292E0,9.257181168E0,3.937863350E0,-2.961029053E0
4.795755156E0,9.180566788E0,4.000112534E0,-3.090315819E0
4.798243021E0,9.108740807E0,4.057573318E0,-3.181295395E0
4.800730885E0,8.998606682E0,4.105457306E0,-3.281852007E0
4.803218750E0,8.864531517E0,4.134187698E0,-3.353677988E0
4.805706615E0,8.711302757E0,4.158129692E0,-3.401561975E0
4.808194479E0,8.601169586E0,4.186860085E0,-3.430292368E0
4.810682344E0,8.524555206E0,4.225167274E0,-3.430292368E0
4.813170208E0,8.495824814E0,4.258686066E0,-3.387196779E0
4.815658073E0,8.510190010E0,4.249109268E0,-3.344101191E0
4.818145937E0,8.577227592E0,4.206013680E0,-3.296217203E0
4.820633802E0,8.672995567E0,4.153341293E0,-3.243544817E0
4.823121667E0,8.754398346E0,4.095880508E0,-3.142988205E0
4.825609531E0,8.807070732E0,4.052784920E0,-3.037643433E0
4.828097396E0,8.821435928E0,4.038419724E0,-2.932298422E0
4.830585260E0,8.802282333E0,4.033631325E0,-2.870049238E0
4.833073125E0,8.763975143E0,4.043208122E0,-2.798223257E0
4.835560990E0,8.744821548E0,4.062361717E0,-2.721608877E0
4.838048854E0,8.706514359E0,4.081515312E0,-2.659359455E0
4.840536719E0,8.658630371E0,4.115034103E0,-2.587533474E0
4.843024583E0,8.615534782E0,4.119822502E0,-2.534861088E0
4.845512448E0,8.596381187E0,4.129399300E0,-2.506130695E0
4.848000312E0,8.577227592E0,4.158129692E0,-2.486977100E0
4.850488177E0,8.605957985E0,4.196436882E0,-2.486977100E0
4.852976042E0,8.653841972E0,4.234744072E0,-2.482188702E0
4.855463906E0,8.658630371E0,4.273051262E0,-2.467823505E0
4.857951771E0,8.672995567E0,4.316147327E0,-2.463035107E0
4.860439635E0,8.672995567E0,4.325724125E0,-2.472611904E0
4.862927500E0,8.720879555E0,4.349666119E0,-2.496553898E0
4.865415365E0,8.778340340E0,4.344877720E0,-2.506130695E0
4.867903229E0,8.854954720E0,4.349666119E0,-2.491765499E0
4.870391094E0,8.955511093E0,4.344877720E0,-2.496553898E0
4.872878958E0,9.051279068E0,4.306570530E0,-2.486977100E0
4.875366823E0,9.132682800E0,4.273051262E0,-2.472611904E0
4.877854687E0,9.194931984E0,4.258686066E0,-2.506130695E0
4.880342552E0,9.190143585E0,4.249109268E0,-2.563591480E0
4.882830417E0,9.142259598E0,4.239532471E0,-2.630629063E0
4.885318281E0,9.065644264E0,4.239532471E0,-2.721608877E0
4.887806146E0,8.936357498E0,4.277839661E0,-2.783858061E0
4.890294010E0,8.811859131E0,4.320935726E0,-2.850895643E0
4.892781875E0,8.720879555E0,4.344877720E0,-2.941875219E0
4.895269740E0,8.639476776E0,4.335300922E0,-2.984971046E0
4.897757604E0,8.538920403E0,4.330512524E0,-3.004124641E0
4.900245469E0,8.385691643E0,4.311358929E0,-3.056797028E0
4.902733333E0,8.198944092E0,4.301782131E0,-3.085527420E0
4.905221198E0,8.026560783E0,4.316147327E0,-3.099892616E0
4.907709062E0,7.887697697E0,4.354454517E0,-3.128623009E0
4.910196927E0,7.748833656E0,4.392761707E0,-3.119046211E0
4.912684792E0,7.681796074E0,4.402338505E0,-3.104681015E0
4.915172656E0,7.653065681E0,4.383184910E0,-3.071162224E0
4.917660521E0,7.677007675E0,4.344877720E0,-3.047220230E0
4.920148385E0,7.720103264E0,4.292205334E0,-3.018489838E0
4.922636250E0,7.791929245E0,4.234744072E0,-2.980182648E0
4.925124115E0,7.921216488E0,4.172494888E0,-2.917933226E0
4.927611979E0,8.088809967E0,4.119822502E0,-2.812588453E0
4.930099844E0,8.256404877E0,4.052784920E0,-2.697666883E0
4.932587708E0,8.423998833E0,3.966593742E0,-2.625840664E0
4.935075573E0,8.596381187E0,3.889979124E0,-2.577956676E0
4.937563437E0,8.730456352E0,3.832518339E0,-2.534861088E0
4.940051302E0,8.883685112E0,3.784634352E0,-2.520495892E0
4.942539167E0,9.027337074E0,3.770269156E0,-2.539649487E0
4.945027031E0,9.170989990E0,3.751115561E0,-2.549226284E0
4.947514896E0,9.309853554E0,3.741538763E0,-2.573168278E0
4.950002760E0,9.400833130E0,3.712808371E0,-2.582745075E0
4.952490625E0,9.491812706E0,3.703231573E0,-2.582745075E0
4.954978490E0,9.587580681E0,3.674500942E0,-2.534861088E0
4.957466354E0,9.668983459E0,3.640982151E0,-2.439092875E0
4.959954219E0,9.750386238E0,3.612251759E0,-2.362478495E0
4.962442083E0,9.812635422E0,3.588309765E0,-2.242768526E0
4.964929948E0,9.850942612E0,3.593098164E0,-2.190095901E0
4.967417865E0,9.850942612E0,3.607463360E0,-2.175730705E0
4.969905781E0,9.827000618E0,3.660135746E0,-2.233191729E0
4.972393698E0,9.769539833E0,3.688866377E0,-2.348113298E0
4.974881615E0,9.707290649E0,3.751115561E0,-2.443881273E0
4.977369531E0,9.616311073E0,3.808576345E0,-2.544437885E0
4.979857448E0,9.525331497E0,3.880402327E0,-2.644994259E0
4.982345365E0,9.443928719E0,3.942651749E0,-2.712032080E0
4.984833281E0,9.329007149E0,4.000112534E0,-2.788646460E0
4.987321198E0,9.180566788E0,4.081515312E0,-2.860472441E0
4.989809115E0,8.974664688E0,4.186860085E0,-2.927510023E0
4.992297031E0,8.740033150E0,4.296993732E0,-3.004124641E0
4.994784948E0,8.500613213E0,4.435857296E0,-3.075950623E0
4.997272865E0,8.289923668E0,4.565144062E0,-3.123834610E0
4.999760781E0,8.112752914E0,4.646546841E0,-3.138199806E0
5.002248698E0,8.002618790E0,4.708796024E0,-3.128623009E0
5.004736615E0,7.983465672E0,4.737526417E0,-3.109469414E0
5.007224531E0,8.036137581E0,4.732738018E0,-3.047220230E0
5.009712448E0,8.160636902E0,4.718372822E0,-2.946663857E0
5.012200365E0,8.333019257E0,4.651335239E0,-2.855684042E0
5.014688281E0,8.548497200E0,4.555567265E0,-2.740762472E0
5.017176198E0,8.802282333E0,4.450222492E0,-2.644994259E0
5.019664115E0,9.065644264E0,4.340089321E0,-2.563591480E0
5.022152031E0,9.338583946E0,4.249109268E0,-2.482188702E0
5.024639948E0,9.568427086E0,4.186860085E0,-2.434304476E0
5.027127865E0,9.740809441E0,4.167706490E0,-2.391208887E0
5.029615781E0,9.894038200E0,4.186860085E0,-2.381632090E0
5.032103698E0,1.000895977E1,4.229955673E0,-2.419939280E0
5.034591615E0,1.005684471E1,4.277839661E0,-2.467823505E0
5.037079531E0,1.008557510E1,4.311358929E0,-2.534861088E0
5.039567448E0,1.009036350E1,4.330512524E0,-2.577956676E0
5.042055365E0,1.010951710E1,4.330512524E0,-2.582745075E0
5.044543281E0,1.011430550E1,4.364031315E0,-2.573168278E0
5.047031198E0,1.011430550E1,4.387973309E0,-2.558803082E0
5.049519115E0,1.009994030E1,4.455010891E0,-2.577956676E0
5.052007031E0,1.007120991E1,4.502894878E0,-2.673724651E0
5.054494948E0,1.005205631E1,4.526836872E0,-2.779069662E0
5.056982812E0,1.001853657E1,4.522048473E0,-2.879626036E0
5.059470677E0,9.994594574E0,4.502894878E0,-2.994547844E0
5.061958542E0,9.917980194E0,4.469376087E0,-3.080739021E0
5.064446406E0,9.769539833E0,4.459799290E0,-3.166930199E0
5.066934271E0,9.549273491E0,4.483741283E0,-3.219602823E0
5.069422135E0,9.228450775E0,4.522048473E0,-3.248333216E0
5.071910000E0,8.845377922E0,4.593874454E0,-3.253121614E0
5.074397865E0,8.457517624E0,4.689642429E0,-3.243544817E0
5.076885729E0,8.117541313E0,4.775833607E0,-3.200449228E0
5.079373594E0,7.815871239E0,4.866813660E0,-3.138199806E0
5.081861458E0,7.609970093E0,4.943428040E0,-3.071162224E0
5.084349323E0,7.509413719E0,4.962581635E0,-2.965817451E0
5.086837187E0,7.485471725E0,4.962581635E0,-2.826953650E0
5.089325052E0,7.542932510E0,4.895544052E0,-2.721608877E0
5.091812917E0,7.653065681E0,4.828506470E0,-2.625840664E0
5.094300781E0,7.796717644E0,4.751891613E0,-2.506130695E0
5.096788646E0,7.988254070E0,4.646546841E0,-2.386420488E0
5.099276510E0,8.189367294E0,4.589086056E0,-2.266710520E0
5.101764375E0,8.395268440E0,4.550778866E0,-2.142211914E0
5.104252240E0,8.605957985E0,4.541202068E0,-1.998559833E0
5.106740104E0,8.792705536E0,4.545990467E0,-1.883638144E0
5.109227969E0,8.955511093E0,4.545990467E0,-1.773504853E0
5.111715833E0,9.113529205E0,4.536413670E0,-1.701678872E0
5.114203698E0,9.257181168E0,4.541202068E0,-1.682525277E0
5.116691562E0,9.381679535E0,4.579509258E0,-1.730409265E0
5.119179427E0,9.487024307E0,4.617816448E0,-1.907580256E0
5.121667292E0,9.549273491E0,4.670488834E0,-2.180519104E0
5.124155156E0,9.616311073E0,4.723161221E0,-2.501342297E0
5.126643021E0,9.649829865E0,4.756680012E0,-2.855684042E0
5.129130885E0,9.654618263E0,4.794987679E0,-3.219602823E0
5.131618750E0,9.616311073E0,4.818929672E0,-3.564367771E0
5.134106615E0,9.573215485E0,4.842871666E0,-3.851671934E0
5.136594479E0,9.453505516E0,4.890755653E0,-4.115034103E0
5.139082344E0,9.252392769E0,4.919486046E0,-4.316147327E0
5.141570208E0,8.960299492E0,4.933851242E0,-4.483741283E0
5.144058073E0,8.596381187E0,4.981735229E0,-4.632181644E0
5.146545937E0,8.170213699E0,5.077503204E0,-4.794987679E0
5.149033802E0,7.691372871E0,5.202001572E0,-4.962581635E0
5.151521667E0,7.164648533E0,5.326500416E0,-5.115810394E0
5.154009531E0,6.666654587E0,5.460575581E0,-5.230731964E0
5.156497396E0,6.293159008E0,5.570708752E0,-5.336077213E0
5.158985260E0,6.015431881E0,5.585073948E0,-5.374384403E0
5.161473125E0,5.934029102E0,5.494094372E0,-5.340865612E0
5.163960990E0,6.005855083E0,5.360019207E0,-5.221155167E0
5.166448854E0,6.163872242E0,5.158905983E0,-5.063138008E0
5.168936719E0,6.364984989E0,4.972158432E0,-4.876390457E0
5.171424583E0,6.599617004E0,4.804564476E0,-4.613028049E0
5.173912448E0,6.848613739E0,4.632181644E0,-4.292205334E0
5.176400312E0,7.116764545E0,4.464587688E0,-3.947440147E0
5.178888177E0,7.394492149E0,4.287416458E0,-3.612251759E0
5.181376042E0,7.662642479E0,4.119822502E0,-3.291428804E0
5.183863906E0,7.902062893E0,3.966593742E0,-3.018489838E0
5.186351771E0,8.151060104E0,3.818153143E0,-2.740762472E0
5.188839635E0,8.376114845E0,3.674500942E0,-2.496553898E0
5.191327500E0,8.567650795E0,3.530848980E0,-2.285864115E0
5.193815365E0,8.716091156E0,3.406350374E0,-2.113481522E0
5.196303229E0,8.835801125E0,3.329735994E0,-1.974617839E0
5.198791094E0,8.931569099E0,3.281852007E0,-1.898003340E0
5.201278958E0,9.012971878E0,3.248333216E0,-1.854907751E0
5.203766823E0,9.137471199E0,3.181295395E0,-1.850119352E0
5.206254687E0,9.252392769E0,3.114257812E0,-1.859696150E0
5.208743021E0,9.362525940E0,3.042431831E0,-1.835754156E0
5.211231354E0,9.372102737E0,2.984971046E0,-1.826177359E0
5.213719323E0,9.348160744E0,2.956240654E0,-1.840542555E0
5.216207187E0,9.247604370E0,2.975394249E0,-1.878849745E0
5.218695052E0,9.089587212E0,3.052008629E0,-1.936310649E0
5.221182917E0,8.859743118E0,3.138199806E0,-2.051232338E0
5.223670781E0,8.538920403E0,3.267486811E0,-2.185307503E0
5.226158646E0,8.107964516E0,3.420715570E0,-2.333748102E0
5.228646510E0,7.629123688E0,3.612251759E0,-2.525284290E0
5.231134375E0,7.169436932E0,3.851671934E0,-2.673724651E0
5.233622240E0,6.719326973E0,4.043208122E0,-2.779069662E0
5.236110104E0,6.341042995E0,4.215590477E0,-2.836530447E0
5.238597969E0,6.044162273E0,4.364031315E0,-2.865260839E0
5.241085833E0,5.843049049E0,4.488529682E0,-2.850895643E0
5.243573698E0,5.747281075E0,4.603451252E0,-2.831742048E0
5.246061562E0,5.766434669E0,4.665700436E0,-2.817376852E0
5.248549427E0,5.881356239E0,4.651335239E0,-2.750339270E0
