"Time (s)","Gyroscope x (rad/s)","Gyroscope y (rad/s)","Gyroscope z (rad/s)"
6.878505200E-2,-7.190529723E-3,-5.233107507E-2,1.198421605E-2
7.127291700E-2,-5.060002208E-3,-5.126581341E-2,1.411474310E-2
7.376078100E-2,-1.864211401E-3,-5.020054802E-2,1.624527015E-2
7.624864600E-2,1.331579522E-3,-4.807002097E-2,1.837579720E-2
7.873651000E-2,4.527370445E-3,-4.700475931E-2,2.157158963E-2
8.122437500E-2,7.723161485E-3,-4.700475931E-2,2.370211668E-2
8.371224000E-2,9.853689000E-3,-4.593949392E-2,2.689790726E-2
8.620010400E-2,1.198421605E-2,-4.487423226E-2,3.009369783E-2
8.868796900E-2,1.411474310E-2,-4.487423226E-2,3.222422674E-2
9.117583300E-2,1.518000662E-2,-4.380896688E-2,3.648528084E-2
9.366369800E-2,1.731053367E-2,-4.380896688E-2,3.861580789E-2
9.615156200E-2,1.837579720E-2,-4.487423226E-2,3.968106955E-2
9.863942700E-2,1.944106072E-2,-4.700475931E-2,4.181159660E-2
1.011272920E-1,1.944106072E-2,-4.807002097E-2,4.181159660E-2
1.036151560E-1,1.944106072E-2,-5.020054802E-2,4.287686199E-2
1.061030210E-1,1.837579720E-2,-5.339634046E-2,4.181159660E-2
1.085908850E-1,1.837579720E-2,-5.659212917E-2,4.074633494E-2
1.110787500E-1,1.731053367E-2,-6.085318699E-2,3.968106955E-2
1.135666150E-1,1.731053367E-2,-6.404897571E-2,3.861580789E-2
1.160544790E-1,1.731053367E-2,-6.724476814E-2,3.648528084E-2
1.185423440E-1,1.837579720E-2,-7.044056058E-2,3.435475379E-2
1.210302080E-1,2.050632425E-2,-7.363634557E-2,3.222422674E-2
1.235180730E-1,2.476738021E-2,-7.576687634E-2,2.902843431E-2
1.260059370E-1,2.796317078E-2,-7.789740711E-2,2.583264373E-2
1.284938020E-1,3.222422674E-2,-7.789740711E-2,2.370211668E-2
1.309816670E-1,3.861580789E-2,-7.789740711E-2,2.157158963E-2
1.334695310E-1,4.500738904E-2,-7.576687634E-2,1.731053367E-2
1.359573960E-1,5.246423557E-2,-7.257108390E-2,1.411474310E-2
1.384452600E-1,6.098634377E-2,-6.724476814E-2,1.091895252E-2
1.409331250E-1,6.950845569E-2,-6.085318699E-2,6.657897960E-3
1.434209900E-1,7.909582555E-2,-5.126581341E-2,1.331579522E-3
1.459088540E-1,8.868319541E-2,-4.061317816E-2,-3.994738683E-3
1.483967190E-1,9.933583438E-2,-2.783001214E-2,-1.145158429E-2
1.508845830E-1,1.089232042E-1,-1.398158539E-2,-1.997369342E-2
1.533724480E-1,1.185105816E-1,-1.331579551E-4,-2.956106514E-2
1.558603120E-1,1.259674281E-1,1.371526904E-2,-3.914843872E-2
1.583481770E-1,1.344895363E-1,2.649843320E-2,-4.980107397E-2
1.608360420E-1,1.398158520E-1,3.821633384E-2,-6.151897460E-2
1.633239060E-1,1.451421678E-1,4.780370742E-2,-7.217161357E-2
1.658117710E-1,1.472726911E-1,5.526055023E-2,-8.495477587E-2
1.682996350E-1,1.483379602E-1,6.058686972E-2,-9.773793817E-2
1.707875000E-1,1.462074369E-1,6.378266215E-2,-1.105211005E-1
1.732753650E-1,1.398158520E-1,6.484792382E-2,-1.233042628E-1
1.757632290E-1,1.323590130E-1,6.484792382E-2,-1.350221634E-1
1.782510940E-1,1.227716357E-1,6.378266215E-2,-1.456748098E-1
1.807389580E-1,1.099884734E-1,6.165213138E-2,-1.541969180E-1
1.832268230E-1,9.507478029E-2,5.845634267E-2,-1.627190262E-1
1.857146870E-1,7.909582555E-2,5.526055023E-2,-1.691105962E-1
1.882025520E-1,6.205160543E-2,5.313002318E-2,-1.733716577E-1
1.906904170E-1,4.394212365E-2,5.099949613E-2,-1.765674502E-1
1.931782810E-1,2.583264373E-2,4.780370742E-2,-1.776327193E-1
1.956661460E-1,8.788425475E-3,4.567318037E-2,-1.786979735E-1
1.981540100E-1,-9.321057238E-3,4.460791498E-2,-1.776327193E-1
2.006418750E-1,-2.423474751E-2,4.460791498E-2,-1.755021811E-1
2.031297400E-1,-3.914843872E-2,4.673844203E-2,-1.733716577E-1
2.056176040E-1,-5.193160102E-2,4.886896908E-2,-1.691105962E-1
2.081054690E-1,-6.364950538E-2,5.313002318E-2,-1.659148186E-1
2.105933330E-1,-7.323687524E-2,5.845634267E-2,-1.605884880E-1
2.130811980E-1,-8.069372177E-2,6.484792382E-2,-1.552621722E-1
2.155690620E-1,-8.708529919E-2,7.230477035E-2,-1.488705873E-1
2.180569270E-1,-9.134636074E-2,7.976161689E-2,-1.435442716E-1
2.205447920E-1,-9.347688407E-2,8.934898674E-2,-1.371526867E-1
2.230326560E-1,-9.241162241E-2,9.893636405E-2,-1.296958476E-1
2.255205210E-1,-9.134636074E-2,1.095889956E-1,-1.211737394E-1
2.280083850E-1,-8.815056831E-2,1.202416345E-1,-1.126516312E-1
2.304962500E-1,-8.495477587E-2,1.308942735E-1,-1.030642539E-1
2.329841150E-1,-8.069372177E-2,1.404816359E-1,-9.241162241E-2
2.354719790E-1,-7.643266767E-2,1.490037590E-1,-8.175898343E-2
2.379598440E-1,-7.217161357E-2,1.564605981E-1,-7.004108280E-2
2.404477080E-1,-6.684529036E-2,1.628521830E-1,-5.832318589E-2
2.429355730E-1,-6.364950538E-2,1.692437679E-1,-4.447475821E-2
2.454234370E-1,-6.045371294E-2,1.745700836E-1,-3.275685757E-2
2.479113020E-1,-5.938844755E-2,1.767006069E-1,-1.997369342E-2
2.503991670E-1,-5.832318589E-2,1.788311303E-1,-8.255792782E-3
2.528870310E-1,-5.938844755E-2,1.788311303E-1,3.462106921E-3
2.553748960E-1,-6.258423626E-2,1.777658761E-1,1.411474310E-2
2.578627600E-1,-6.684529036E-2,1.767006069E-1,2.476738021E-2
2.603506250E-1,-7.217161357E-2,1.735048145E-1,3.542001545E-2
2.628384900E-1,-7.856319100E-2,1.692437679E-1,4.394212365E-2
2.653263540E-1,-8.602003753E-2,1.649827063E-1,5.352949724E-2
2.678142190E-1,-9.347688407E-2,1.585911214E-1,6.205160543E-2
2.703020830E-1,-1.019989923E-1,1.532648057E-1,6.950845569E-2
2.727899480E-1,-1.115863696E-1,1.458079666E-1,7.590003312E-2
2.752778120E-1,-1.211737394E-1,1.394163817E-1,8.229161799E-2
2.777656770E-1,-1.307611167E-1,1.319595277E-1,8.868319541E-2
2.802535420E-1,-1.403484792E-1,1.255679578E-1,9.294424951E-2
2.827414060E-1,-1.488705873E-1,1.202416345E-1,9.720530361E-2
2.852292710E-1,-1.573926955E-1,1.149153188E-1,1.004010960E-1
2.877171350E-1,-1.637842804E-1,1.117195264E-1,1.014663652E-1
2.902050000E-1,-1.691105962E-1,1.085237339E-1,1.014663652E-1
2.926928650E-1,-1.733716577E-1,1.063932031E-1,1.004010960E-1
2.951807290E-1,-1.755021811E-1,1.042626798E-1,9.720530361E-2
2.976685940E-1,-1.776327193E-1,1.031974182E-1,9.294424951E-2
3.001564580E-1,-1.786979735E-1,1.031974182E-1,8.761793375E-2
3.026443230E-1,-1.776327193E-1,1.021321490E-1,7.909582555E-2
3.051321870E-1,-1.755021811E-1,1.021321490E-1,6.950845569E-2
3.076200520E-1,-1.723063886E-1,1.021321490E-1,5.992107838E-2
3.101079170E-1,-1.669800729E-1,1.021321490E-1,4.820318148E-2
3.125957810E-1,-1.616537571E-1,1.021321490E-1,3.755054250E-2
3.150836460E-1,-1.541969180E-1,1.021321490E-1,2.583264373E-2
3.175715100E-1,-1.467400640E-1,1.031974182E-1,1.518000662E-2
3.200593750E-1,-1.392832249E-1,1.042626798E-1,5.592633970E-3
3.225472400E-1,-1.307611167E-1,1.031974182E-1,-2.929474926E-3
3.250351040E-1,-1.211737394E-1,1.021321490E-1,-1.038632076E-2
3.275229690E-1,-1.105211005E-1,1.000016257E-1,-1.571263932E-2
3.300108330E-1,-1.009337306E-1,9.680583328E-2,-2.103895694E-2
3.324986980E-1,-9.134636074E-2,9.361004084E-2,-2.316948399E-2
3.349865620E-1,-8.069372177E-2,9.041424841E-2,-2.423474751E-2
3.374744270E-1,-7.110634446E-2,8.615319431E-2,-2.530001104E-2
3.399622920E-1,-6.151897460E-2,8.082687855E-2,-2.423474751E-2
3.424501560E-1,-5.299686641E-2,7.550056279E-2,-2.316948399E-2
3.449380210E-1,-4.554001987E-2,6.910897791E-2,-2.210422046E-2
3.474258850E-1,-3.914843872E-2,5.952160433E-2,-2.103895694E-2
3.499137500E-1,-3.382211924E-2,4.993423447E-2,-1.997369342E-2
3.524016150E-1,-3.169159219E-2,3.715106845E-2,-1.890842989E-2
3.548894790E-1,-2.956106514E-2,2.223737910E-2,-1.784316637E-2
3.573773440E-1,-2.849580161E-2,7.323687430E-3,-1.571263932E-2
3.598652080E-1,-2.956106514E-2,-7.590003312E-3,-1.464737486E-2
3.623530730E-1,-3.062633052E-2,-2.250369452E-2,-1.145158429E-2
3.648409370E-1,-3.169159219E-2,-3.635212034E-2,-8.255792782E-3
3.673288020E-1,-3.382211924E-2,-4.913528636E-2,-3.994738683E-3
3.698166670E-1,-3.488738462E-2,-5.978792161E-2,2.396843163E-3
3.723045310E-1,-3.488738462E-2,-6.831002980E-2,9.853689000E-3
3.747923960E-1,-3.488738462E-2,-7.470161468E-2,1.837579720E-2
3.772802600E-1,-3.382211924E-2,-8.002793044E-2,2.796317078E-2
3.797681250E-1,-3.275685757E-2,-8.428898454E-2,4.074633494E-2
3.822559900E-1,-2.956106514E-2,-8.748477697E-2,5.246423557E-2
3.847438540E-1,-2.636527456E-2,-8.961530030E-2,6.631266326E-2
3.872317190E-1,-2.423474751E-2,-8.961530030E-2,7.909582555E-2
3.897195830E-1,-2.210422046E-2,-8.961530030E-2,9.294424951E-2
3.922074480E-1,-1.997369342E-2,-8.855003864E-2,1.067926809E-1
3.946953120E-1,-1.997369342E-2,-8.535424620E-2,1.206411049E-1
3.971831770E-1,-2.103895694E-2,-8.428898454E-2,1.355548054E-1
3.996710420E-1,-2.316948399E-2,-8.215846121E-2,1.504684836E-1
4.021589060E-1,-2.636527456E-2,-8.322372288E-2,1.653821766E-1
4.046467710E-1,-3.169159219E-2,-8.322372288E-2,1.781653464E-1
4.071346350E-1,-3.914843872E-2,-8.748477697E-2,1.909485012E-1
4.096225000E-1,-4.873581231E-2,-9.174583107E-2,2.016011477E-1
4.121103650E-1,-6.045371294E-2,-1.002679393E-1,2.133190483E-1
4.145982290E-1,-7.430213690E-2,-1.087900475E-1,2.229064107E-1
4.170860940E-1,-8.921582997E-2,-1.205079481E-1,2.335590571E-1
4.195739580E-1,-1.041295230E-1,-1.322258562E-1,2.410158962E-1
4.220618230E-1,-1.201084778E-1,-1.471395344E-1,2.474074811E-1
4.245496870E-1,-1.360874325E-1,-1.609879732E-1,2.527337968E-1
4.270375520E-1,-1.520663798E-1,-1.769669205E-1,2.569948435E-1
4.295254170E-1,-1.680453420E-1,-1.940111369E-1,2.591253817E-1
4.320132810E-1,-1.829590350E-1,-2.131858915E-1,2.591253817E-1
4.345011460E-1,-1.978727281E-1,-2.312953621E-1,2.569948435E-1
4.369890100E-1,-2.106558830E-1,-2.494048476E-1,2.548643351E-1
4.394768750E-1,-2.213085145E-1,-2.675143182E-1,2.516685426E-1
4.419647400E-1,-2.319611609E-1,-2.824280262E-1,2.484727502E-1
4.444526040E-1,-2.383527458E-1,-2.973417044E-1,2.442116886E-1
4.469404690E-1,-2.415485233E-1,-3.101248741E-1,2.410158962E-1
4.494283330E-1,-2.415485233E-1,-3.218427896E-1,2.378201038E-1
4.519161980E-1,-2.394180000E-1,-3.324954212E-1,2.346243113E-1
4.544040620E-1,-2.340916842E-1,-3.420827985E-1,2.314285189E-1
4.568919270E-1,-2.255695760E-1,-3.516701460E-1,2.292979956E-1
4.593797920E-1,-2.138516754E-1,-3.612575233E-1,2.261022031E-1
4.618676560E-1,-2.000032514E-1,-3.687143922E-1,2.250369489E-1
4.643555210E-1,-1.840242893E-1,-3.751059473E-1,2.250369489E-1
4.668433850E-1,-1.659148186E-1,-3.783017397E-1,2.261022031E-1
4.693312500E-1,-1.467400640E-1,-3.804322779E-1,2.282327414E-1
4.718191150E-1,-1.265000552E-1,-3.783017397E-1,2.303632647E-1
4.743069790E-1,-1.051947847E-1,-3.740406930E-1,2.335590571E-1
4.767948440E-1,-8.175898343E-2,-3.676491082E-1,2.367548496E-1
4.792827080E-1,-5.725792050E-2,-3.569964767E-1,2.410158962E-1
4.817705730E-1,-3.382211924E-2,-3.442133069E-1,2.452769578E-1
4.842584370E-1,-9.321057238E-3,-3.282343447E-1,2.506032586E-1
4.867463020E-1,1.411474310E-2,-3.090596199E-1,2.548643351E-1
4.892341670E-1,3.648528084E-2,-2.920154035E-1,2.591253817E-1
4.917220310E-1,5.566002429E-2,-2.739059031E-1,2.633864284E-1
4.942098960E-1,7.163897902E-2,-2.589922249E-1,2.676474750E-1
4.966977600E-1,8.335687965E-2,-2.451438010E-1,2.719085515E-1
4.991856250E-1,9.187898785E-2,-2.344911546E-1,2.761695981E-1
5.016734900E-1,9.720530361E-2,-2.291648388E-1,2.793653905E-1
5.041613540E-1,9.720530361E-2,-2.270343155E-1,2.836264372E-1
5.066492190E-1,9.507478029E-2,-2.302301079E-1,2.868222296E-1
5.091370830E-1,8.868319541E-2,-2.366216928E-1,2.900180221E-1
5.116249480E-1,8.016108721E-2,-2.494048476E-1,2.932138145E-1
5.141128120E-1,6.950845569E-2,-2.632532716E-1,2.953443527E-1
5.166006770E-1,5.779055133E-2,-2.813627720E-1,2.985401452E-1
5.190885420E-1,4.607265070E-2,-3.016027808E-1,3.017359376E-1
5.215764060E-1,3.222422674E-2,-3.218427896E-1,3.049317300E-1
5.240642710E-1,1.837579720E-2,-3.452785909E-1,3.081275225E-1
5.265521350E-1,4.527370445E-3,-3.676491082E-1,3.113232851E-1
5.290400000E-1,-1.038632076E-2,-3.900196552E-1,3.145190775E-1
5.315278650E-1,-2.530001104E-2,-4.134554565E-1,3.166496158E-1
5.340157290E-1,-3.808317333E-2,-4.336954653E-1,3.187801540E-1
5.365035940E-1,-5.086633936E-2,-4.528702199E-1,3.198454082E-1
5.389914580E-1,-6.151897460E-2,-4.709796906E-1,3.219759464E-1
5.414793230E-1,-7.004108280E-2,-4.869586527E-1,3.219759464E-1
5.439671870E-1,-7.643266767E-2,-5.018723607E-1,3.219759464E-1
5.464550520E-1,-8.069372177E-2,-5.135902166E-1,3.219759464E-1
5.489429170E-1,-8.175898343E-2,-5.242428780E-1,3.209106624E-1
5.514307810E-1,-7.962846011E-2,-5.327649713E-1,3.219759464E-1
5.539186460E-1,-7.536740601E-2,-5.391565561E-1,3.219759464E-1
5.564065100E-1,-6.897582114E-2,-5.423523784E-1,3.241064548E-1
5.588943750E-1,-5.938844755E-2,-5.423523784E-1,3.262369931E-1
5.613822400E-1,-4.660528526E-2,-5.380913019E-1,3.283675313E-1
5.638701040E-1,-3.382211924E-2,-5.285038948E-1,3.315632939E-1
5.663579690E-1,-1.890842989E-2,-5.157207847E-1,3.347590864E-1
5.688458330E-1,-5.060002208E-3,-5.008070469E-1,3.368896246E-1
5.713336980E-1,9.853689000E-3,-4.826975763E-1,3.390201628E-1
5.738215620E-1,2.476738021E-2,-4.656533599E-1,3.390201628E-1
5.763094270E-1,3.861580789E-2,-4.475438893E-1,3.400854170E-1
5.787972920E-1,5.033370852E-2,-4.315649271E-1,3.411506712E-1
5.812851560E-1,5.992107838E-2,-4.177165031E-1,3.400854170E-1
5.837730210E-1,6.737792492E-2,-4.038680792E-1,3.390201628E-1
5.862608850E-1,7.270424068E-2,-3.921501637E-1,3.379548788E-1
5.887487500E-1,7.696529478E-2,-3.814975321E-1,3.368896246E-1
5.912366150E-1,7.909582555E-2,-3.729754388E-1,3.368896246E-1
5.937244790E-1,8.122635633E-2,-3.633880615E-1,3.358243704E-1
5.962123440E-1,8.229161799E-2,-3.548659384E-1,3.358243704E-1
5.987002080E-1,8.122635633E-2,-3.452785909E-1,3.368896246E-1
6.011880730E-1,7.909582555E-2,-3.367564678E-1,3.368896246E-1
6.036759370E-1,7.696529478E-2,-3.292996287E-1,3.358243704E-1
6.061638020E-1,7.376950979E-2,-3.218427896E-1,3.347590864E-1
6.086516670E-1,6.844318658E-2,-3.175817132E-1,3.326285779E-1
6.111395310E-1,6.311687082E-2,-3.133206666E-1,3.304980397E-1
6.136273960E-1,5.885581672E-2,-3.111901283E-1,3.273022473E-1
6.161152600E-1,5.246423557E-2,-3.090596199E-1,3.219759464E-1
6.186031250E-1,4.607265070E-2,-3.069290817E-1,3.166496158E-1
6.210909900E-1,3.968106955E-2,-3.058638275E-1,3.113232851E-1
6.235788540E-1,3.435475379E-2,-3.026680350E-1,3.059969842E-1
6.260667190E-1,2.902843431E-2,-3.005374968E-1,2.985401452E-1
6.285545830E-1,2.370211668E-2,-3.005374968E-1,2.910832763E-1
6.310424480E-1,1.837579720E-2,-2.994722426E-1,2.814959288E-1
6.335303120E-1,1.518000662E-2,-3.005374968E-1,2.719085515E-1
6.360181770E-1,1.198421605E-2,-3.026680350E-1,2.601906359E-1
6.385060420E-1,1.091895252E-2,-3.069290817E-1,2.484727502E-1
6.409939060E-1,1.198421605E-2,-3.111901283E-1,2.367548496E-1
6.434817710E-1,1.411474310E-2,-3.175817132E-1,2.250369489E-1
6.459696350E-1,1.837579720E-2,-3.239732981E-1,2.143843025E-1
6.484575000E-1,2.370211668E-2,-3.314301372E-1,2.037316710E-1
6.509454170E-1,3.115896136E-2,-3.388870060E-1,1.930790395E-1
6.534333330E-1,4.074633494E-2,-3.452785909E-1,1.834916621E-1
6.559212500E-1,5.139897019E-2,-3.527354300E-1,1.749695539E-1
6.584091670E-1,6.418213248E-2,-3.580617309E-1,1.675127149E-1
6.608970830E-1,7.696529478E-2,-3.623228073E-1,1.600558609E-1
6.633850000E-1,9.081372619E-2,-3.687143922E-1,1.536642760E-1
6.658729170E-1,1.046621501E-1,-3.729754388E-1,1.472726911E-1
6.683608330E-1,1.185105816E-1,-3.772364855E-1,1.419463754E-1
6.708487500E-1,1.312937438E-1,-3.804322779E-1,1.366200596E-1
6.733366670E-1,1.440769136E-1,-3.836280704E-1,1.312937438E-1
6.758245830E-1,1.557948142E-1,-3.878891170E-1,1.270326823E-1
6.783125000E-1,1.653821766E-1,-3.910849094E-1,1.238368973E-1
6.808004170E-1,1.728390306E-1,-3.953459561E-1,1.185105816E-1
6.832883330E-1,1.781653464E-1,-4.006722867E-1,1.142495275E-1
6.857762500E-1,1.802958697E-1,-4.059986174E-1,1.099884734E-1
6.882641670E-1,1.802958697E-1,-4.113249183E-1,1.057274193E-1
6.907520830E-1,1.781653464E-1,-4.187817574E-1,1.025316268E-1
6.932400000E-1,1.717737615E-1,-4.251733422E-1,1.014663652E-1
6.957279170E-1,1.643169224E-1,-4.336954653E-1,1.004010960E-1
6.982158330E-1,1.557948142E-1,-4.422175586E-1,1.004010960E-1
7.007037500E-1,1.472726911E-1,-4.518049359E-1,9.827057272E-2
7.031916670E-1,1.398158520E-1,-4.624575675E-1,9.507478029E-2
7.056795830E-1,1.312937438E-1,-4.741754830E-1,8.974846452E-2
7.081675000E-1,1.238368973E-1,-4.880239069E-1,8.122635633E-2
7.106554170E-1,1.185105816E-1,-5.018723607E-1,7.270424068E-2
7.131433330E-1,1.142495275E-1,-5.146554708E-1,6.098634377E-2
7.156312500E-1,1.131842583E-1,-5.285038948E-1,4.820318148E-2
7.181191670E-1,1.142495275E-1,-5.412870646E-1,3.542001545E-2
7.206070830E-1,1.174453199E-1,-5.530049801E-1,2.157158963E-2
7.230950000E-1,1.238368973E-1,-5.636576414E-1,8.788425475E-3
7.255829170E-1,1.323590130E-1,-5.732449889E-1,-2.929474926E-3
7.280707810E-1,1.430116445E-1,-5.817670822E-1,-1.251684781E-2
7.305586460E-1,1.568600684E-1,-5.881586671E-1,-1.890842989E-2
7.330465100E-1,1.717737615E-1,-5.934849977E-1,-2.316948399E-2
7.355343750E-1,1.888179779E-1,-5.966808200E-1,-2.530001104E-2
7.380222400E-1,2.058621943E-1,-5.988113284E-1,-2.423474751E-2
7.405101040E-1,2.239716798E-1,-5.988113284E-1,-2.103895694E-2
7.429979690E-1,2.442116886E-1,-5.966808200E-1,-1.677790284E-2
7.454858330E-1,2.644517124E-1,-5.934849977E-1,-1.145158429E-2
7.479736980E-1,2.846917212E-1,-5.902892351E-1,-5.060002208E-3
7.504615620E-1,3.059969842E-1,-5.870934129E-1,2.396843163E-3
7.529494270E-1,3.273022473E-1,-5.828323960E-1,1.091895252E-2
7.554372920E-1,3.486075401E-1,-5.796365738E-1,2.050632425E-2
7.579251560E-1,3.699128032E-1,-5.753754973E-1,3.328948840E-2
7.604130210E-1,3.890875578E-1,-5.732449889E-1,4.607265070E-2
7.629008850E-1,4.050664902E-1,-5.721797347E-1,5.885581672E-2
7.653887500E-1,4.178496599E-1,-5.721797347E-1,7.270424068E-2
7.678766150E-1,4.274370372E-1,-5.753754973E-1,8.655267209E-2
7.703644790E-1,4.327633679E-1,-5.817670822E-1,1.004010960E-1
7.728523440E-1,4.338286221E-1,-5.892239809E-1,1.121189967E-1
7.753402080E-1,4.285022914E-1,-5.998765826E-1,1.238368973E-1
7.778280730E-1,4.199801981E-1,-6.126597524E-1,1.334242672E-1
7.803159370E-1,4.071970284E-1,-6.275734305E-1,1.408811212E-1
7.828038020E-1,3.901528120E-1,-6.456829309E-1,1.472726911E-1
7.852916670E-1,3.677822649E-1,-6.659229398E-1,1.504684836E-1
7.877795310E-1,3.422159553E-1,-6.882934570E-1,1.504684836E-1
7.902673960E-1,3.145190775E-1,-7.106640339E-1,1.483379602E-1
7.927552600E-1,2.846917212E-1,-7.340998054E-1,1.430116445E-1
7.952431250E-1,2.548643351E-1,-7.564703226E-1,1.355548054E-1
7.977309900E-1,2.239716798E-1,-7.788408995E-1,1.249021590E-1
8.002188540E-1,1.952095628E-1,-7.990809083E-1,1.121189967E-1
8.027067190E-1,1.664474458E-1,-8.193209171E-1,9.614004195E-2
8.051945830E-1,1.408811212E-1,-8.363651037E-1,7.696529478E-2
8.076824480E-1,1.185105816E-1,-8.534093499E-1,5.779055133E-2
8.101703120E-1,9.933583438E-2,-8.661925197E-1,3.861580789E-2
8.126581770E-1,8.655267209E-2,-8.757798672E-1,2.370211668E-2
8.151460420E-1,8.122635633E-2,-8.811061978E-1,1.198421605E-2
8.176339060E-1,8.335687965E-2,-8.843019605E-1,5.592633970E-3
8.201217710E-1,9.400951862E-2,-8.832367063E-1,3.462106921E-3
8.226096350E-1,1.121189967E-1,-8.779103756E-1,3.462106921E-3
8.250975000E-1,1.366200596E-1,-8.683230281E-1,6.657897960E-3
8.275853650E-1,1.664474458E-1,-8.523440957E-1,1.304947957E-2
8.300732290E-1,2.037316710E-1,-8.299735188E-1,2.157158963E-2
8.325610940E-1,2.442116886E-1,-8.033419251E-1,3.435475379E-2
8.350489580E-1,2.889527678E-1,-7.724493146E-1,4.926844314E-2
8.375368230E-1,3.347590864E-1,-7.372955680E-1,6.631266326E-2
8.400246870E-1,3.826959729E-1,-6.978808641E-1,8.335687965E-2
8.425125520E-1,4.306328297E-1,-6.552702785E-1,1.025316268E-1
8.450004170E-1,4.775044322E-1,-6.126597524E-1,1.217063740E-1
8.474882810E-1,5.211802125E-1,-5.711144805E-1,1.398158520E-1
8.499761460E-1,5.605949759E-1,-5.295692086E-1,1.557948142E-1
8.524640100E-1,5.957486629E-1,-4.922849536E-1,1.685779691E-1
8.549518750E-1,6.245108247E-1,-4.592617750E-1,1.792306006E-1
8.574397400E-1,6.468813419E-1,-4.315649271E-1,1.856221855E-1
8.599276040E-1,6.617950201E-1,-4.070638716E-1,1.898832470E-1
8.624154690E-1,6.692518592E-1,-3.878891170E-1,1.909485012E-1
8.649033330E-1,6.724476814E-1,-3.708449006E-1,1.909485012E-1
8.673911980E-1,6.692518592E-1,-3.580617309E-1,1.866874546E-1
8.698790620E-1,6.617950201E-1,-3.463438451E-1,1.824263930E-1
8.723669270E-1,6.500771642E-1,-3.356912136E-1,1.739042848E-1
8.748547920E-1,6.362286806E-1,-3.261038363E-1,1.643169224E-1
8.773426560E-1,6.191844940E-1,-3.197122514E-1,1.515337527E-1
8.798305210E-1,6.010749936E-1,-3.143859208E-1,1.355548054E-1
8.823183850E-1,5.797697306E-1,-3.111901283E-1,1.185105816E-1
8.848062500E-1,5.573992133E-1,-3.101248741E-1,9.933583438E-2
8.872941150E-1,5.328981280E-1,-3.122554123E-1,7.803056389E-2
8.897819790E-1,5.062665343E-1,-3.154512048E-1,5.885581672E-2
8.922698440E-1,4.785696864E-1,-3.207775056E-1,4.181159660E-2
8.947577080E-1,4.508728385E-1,-3.271690905E-1,2.476738021E-2
8.972455730E-1,4.242412448E-1,-3.367564678E-1,1.198421605E-2
8.997334370E-1,3.986749053E-1,-3.474090993E-1,2.663159103E-4
9.022213020E-1,3.741738498E-1,-3.601922691E-1,-8.255792782E-3
9.047091670E-1,3.518033028E-1,-3.719101548E-1,-1.358211134E-2
9.071970310E-1,3.315632939E-1,-3.846933246E-1,-1.677790284E-2
9.096848960E-1,3.145190775E-1,-3.932154477E-1,-1.677790284E-2
9.121727600E-1,2.996053994E-1,-4.006722867E-1,-1.571263932E-2
9.146606250E-1,2.889527678E-1,-4.059986174E-1,-1.464737486E-2
9.171484900E-1,2.814959288E-1,-4.070638716E-1,-1.464737486E-2
9.196363540E-1,2.783001363E-1,-4.059986174E-1,-1.358211134E-2
9.221242190E-1,2.793653905E-1,-4.006722867E-1,-1.358211134E-2
9.246120830E-1,2.836264372E-1,-3.921501637E-1,-1.251684781E-2
9.270999480E-1,2.910832763E-1,-3.814975321E-1,-1.251684781E-2
9.295878120E-1,3.006706536E-1,-3.708449006E-1,-1.145158429E-2
9.320756770E-1,3.113232851E-1,-3.569964767E-1,-1.358211134E-2
9.345635420E-1,3.219759464E-1,-3.442133069E-1,-1.677790284E-2
9.370514060E-1,3.326285779E-1,-3.282343447E-1,-2.423474751E-2
9.395392710E-1,3.443464637E-1,-3.133206666E-1,-3.169159219E-2
9.420271350E-1,3.539338410E-1,-2.952111959E-1,-4.127896577E-2
9.445150000E-1,3.624559641E-1,-2.749711871E-1,-5.193160102E-2
9.470028650E-1,3.699128032E-1,-2.526006401E-1,-6.151897460E-2
9.494907290E-1,3.752391040E-1,-2.302301079E-1,-7.217161357E-2
9.519785940E-1,3.805654347E-1,-2.046637833E-1,-8.175898343E-2
9.544664580E-1,3.826959729E-1,-1.801627129E-1,-9.134636074E-2
9.569543230E-1,3.837612271E-1,-1.577921808E-1,-1.009337306E-1
9.594421870E-1,3.795001805E-1,-1.386174262E-1,-1.094558388E-1
9.619300520E-1,3.731085956E-1,-1.205079481E-1,-1.169126853E-1
9.644179170E-1,3.635212183E-1,-1.066595241E-1,-1.243695319E-1
9.669057810E-1,3.507380486E-1,-9.600688517E-2,-1.307611167E-1
9.693936460E-1,3.358243704E-1,-8.641951531E-2,-1.328916401E-1
9.718815100E-1,3.187801540E-1,-7.789740711E-2,-1.318263710E-1
9.743693750E-1,2.996053994E-1,-7.150582224E-2,-1.265000552E-1
9.768572920E-1,2.793653905E-1,-6.617950648E-2,-1.190432087E-1
9.793452080E-1,2.601906359E-1,-6.085318699E-2,-1.073253155E-1
9.818331250E-1,2.410158962E-1,-5.765739456E-2,-9.241162241E-2
9.843210420E-1,2.229064107E-1,-5.233107507E-2,-7.749792933E-2
9.868089580E-1,2.047969401E-1,-4.913528636E-2,-6.364950538E-2
9.892968750E-1,1.866874546E-1,-4.593949392E-2,-5.193160102E-2
9.917847920E-1,1.707084924E-1,-4.061317816E-2,-4.127896577E-2
9.942727080E-1,1.568600684E-1,-3.528685868E-2,-3.169159219E-2
9.967606250E-1,1.462074369E-1,-2.889527567E-2,-2.316948399E-2
9.992485420E-1,1.366200596E-1,-2.037316747E-2,-1.464737486E-2
1.001736458E0,1.291632205E-1,-9.720530361E-3,-6.125265732E-3
1.004224375E0,1.238368973E-1,1.997369342E-3,1.331579522E-3
1.006712292E0,1.195758432E-1,1.478053257E-2,9.853689000E-3
1.009200208E0,1.163800508E-1,2.649843320E-2,1.837579720E-2
1.011688125E0,1.131842583E-1,3.821633384E-2,2.689790726E-2
1.014176042E0,1.089232042E-1,4.886896908E-2,3.542001545E-2
1.016663958E0,1.035968885E-1,5.845634267E-2,4.287686199E-2
1.019151875E0,9.720530361E-2,6.484792382E-2,4.926844314E-2
1.021639792E0,8.868319541E-2,6.910897791E-2,5.566002429E-2
1.024127708E0,7.909582555E-2,7.123950869E-2,6.098634377E-2
1.026615625E0,6.737792492E-2,7.017423958E-2,6.631266326E-2
1.029103542E0,5.672528967E-2,6.804371625E-2,7.163897902E-2
1.031591458E0,4.607265070E-2,6.484792382E-2,7.803056389E-2
1.034079375E0,3.435475379E-2,5.952160433E-2,8.335687965E-2
1.036567292E0,2.476738021E-2,5.313002318E-2,8.868319541E-2
1.039055208E0,1.624527015E-2,4.567318037E-2,9.081372619E-2
1.041543125E0,7.723161485E-3,3.715106845E-2,9.294424951E-2
1.044031042E0,2.663159103E-4,2.756369673E-2,9.400951862E-2
1.046518958E0,-5.060002208E-3,1.584579609E-2,9.400951862E-2
1.049006875E0,-9.321057238E-3,5.193160381E-3,9.400951862E-2
1.051494792E0,-1.145158429E-2,-5.459476262E-3,9.507478029E-2
1.053982708E0,-1.038632076E-2,-1.611211337E-2,9.507478029E-2
1.056470625E0,-7.190529723E-3,-2.676474862E-2,9.614004195E-2
1.058958542E0,-7.989477599E-4,-3.528685868E-2,9.614004195E-2
1.061446406E0,8.788425475E-3,-4.380896688E-2,9.614004195E-2
1.063934271E0,2.050632425E-2,-5.020054802E-2,9.720530361E-2
1.066422135E0,3.435475379E-2,-5.446160212E-2,1.004010960E-1
1.068910000E0,5.033370852E-2,-5.446160212E-2,1.067926809E-1
1.071397865E0,6.844318658E-2,-5.020054802E-2,1.153147891E-1
1.073885729E0,8.761793375E-2,-4.167843983E-2,1.259674281E-1
1.076373594E0,1.078579426E-1,-3.102580272E-2,1.376853287E-1
1.078861458E0,1.280979514E-1,-1.930790395E-2,1.515337527E-1
1.081349323E0,1.462074369E-1,-6.524739787E-3,1.664474458E-1
1.083837187E0,1.621863842E-1,5.193160381E-3,1.813611388E-1
1.086325052E0,1.760348231E-1,1.584579609E-2,1.952095628E-1
1.088813385E0,1.856221855E-1,2.436790615E-2,2.079927325E-1
1.091300990E0,1.930790395E-1,2.969422378E-2,2.197106332E-1
1.093788594E0,1.952095628E-1,3.395527974E-2,2.314285189E-1
1.096276198E0,1.952095628E-1,3.608580679E-2,2.410158962E-1
1.098763802E0,1.920137703E-1,3.608580679E-2,2.506032586E-1
1.101251406E0,1.845569313E-1,3.289001435E-2,2.569948435E-1
1.103739062E0,1.749695539E-1,2.862896025E-2,2.623211741E-1
1.106226771E0,1.632516533E-1,2.117211558E-2,2.655169666E-1
1.108714531E0,1.504684836E-1,1.158474199E-2,2.655169666E-1
1.111202344E0,1.387505829E-1,-1.198421582E-3,2.633864284E-1
1.113690208E0,1.270326823E-1,-1.717737690E-2,2.569948435E-1
1.116178125E0,1.174453199E-1,-3.528685868E-2,2.484727502E-1
1.118666094E0,1.099884734E-1,-5.446160212E-2,2.378201038E-1
1.121154115E0,1.067926809E-1,-7.363634557E-2,2.261022031E-1
1.123642135E0,1.078579426E-1,-8.961530030E-2,2.133190483E-1
1.126130156E0,1.131842583E-1,-1.034637317E-1,2.005358785E-1
1.128618177E0,1.238368973E-1,-1.130511016E-1,1.877527237E-1
1.131106198E0,1.376853287E-1,-1.215732098E-1,1.749695539E-1
1.133594219E0,1.525990218E-1,-1.268995255E-1,1.632516533E-1
1.136082240E0,1.717737615E-1,-1.290300637E-1,1.504684836E-1
1.138570260E0,1.898832470E-1,-1.290300637E-1,1.398158520E-1
1.141058281E0,2.111885101E-1,-1.279647946E-1,1.302284747E-1
1.143546302E0,2.324937880E-1,-1.247690022E-1,1.217063740E-1
1.146034323E0,2.527337968E-1,-1.183774248E-1,1.142495275E-1
1.148522187E0,2.729738057E-1,-1.109205782E-1,1.089232042E-1
1.151010052E0,2.921485603E-1,-1.013332009E-1,1.046621501E-1
1.153497917E0,3.091927767E-1,-9.281109273E-2,1.004010960E-1
1.155985781E0,3.230412006E-1,-8.428898454E-2,9.827057272E-2
1.158473646E0,3.347590864E-1,-7.470161468E-2,9.614004195E-2
1.160961510E0,3.422159553E-1,-6.724476814E-2,9.614004195E-2
1.163449375E0,3.464770019E-1,-6.191844866E-2,9.827057272E-2
1.165937240E0,3.486075401E-1,-5.978792161E-2,9.933583438E-2
1.168425104E0,3.454117477E-1,-5.872265995E-2,1.014663652E-1
1.170912969E0,3.400854170E-1,-6.085318699E-2,1.025316268E-1
1.173400833E0,3.315632939E-1,-6.404897571E-2,1.014663652E-1
1.175888698E0,3.209106624E-1,-7.044056058E-2,9.933583438E-2
1.178376562E0,3.091927767E-1,-7.896266878E-2,9.400951862E-2
1.180864427E0,2.953443527E-1,-8.961530030E-2,8.655267209E-2
1.183352292E0,2.804306448E-1,-1.034637317E-1,7.696529478E-2
1.185840156E0,2.644517124E-1,-1.183774248E-1,6.737792492E-2
1.188328021E0,2.484727502E-1,-1.322258562E-1,5.885581672E-2
1.190815885E0,2.335590571E-1,-1.450090110E-1,4.926844314E-2
1.193303750E0,2.197106332E-1,-1.556616426E-1,4.181159660E-2
1.195791615E0,2.079927325E-1,-1.620532274E-1,3.435475379E-2
1.198279479E0,1.984053552E-1,-1.663142890E-1,2.902843431E-2
1.200767344E0,1.909485012E-1,-1.684448123E-1,2.583264373E-2
1.203255208E0,1.834916621E-1,-1.684448123E-1,2.476738021E-2
1.205743073E0,1.781653464E-1,-1.673795432E-1,2.583264373E-2
1.208230937E0,1.739042848E-1,-1.652490199E-1,3.009369783E-2
1.210718802E0,1.707084924E-1,-1.631184965E-1,3.542001545E-2
1.213206667E0,1.685779691E-1,-1.609879732E-1,4.181159660E-2
1.215694531E0,1.653821766E-1,-1.588574350E-1,4.926844314E-2
1.218182396E0,1.643169224E-1,-1.556616426E-1,5.779055133E-2
1.220670260E0,1.632516533E-1,-1.524658650E-1,6.844318658E-2
1.223158125E0,1.632516533E-1,-1.492700726E-1,8.016108721E-2
1.225645990E0,1.632516533E-1,-1.439437568E-1,9.187898785E-2
1.228133854E0,1.621863842E-1,-1.364869028E-1,1.035968885E-1
1.230621719E0,1.600558609E-1,-1.279647946E-1,1.131842583E-1
1.233109583E0,1.579253376E-1,-1.183774248E-1,1.217063740E-1
1.235597448E0,1.536642760E-1,-1.087900475E-1,1.302284747E-1
1.238085312E0,1.472726911E-1,-9.920267761E-2,1.355548054E-1
1.240573177E0,1.398158520E-1,-8.855003864E-2,1.408811212E-1
1.243061042E0,1.323590130E-1,-7.789740711E-2,1.440769136E-1
1.245548906E0,1.259674281E-1,-7.044056058E-2,1.451421678E-1
1.248036771E0,1.206411049E-1,-6.404897571E-2,1.419463754E-1
1.250524635E0,1.185105816E-1,-5.978792161E-2,1.376853287E-1
1.253012500E0,1.185105816E-1,-5.765739456E-2,1.302284747E-1
1.255500365E0,1.206411049E-1,-5.659212917E-2,1.217063740E-1
1.257988229E0,1.259674281E-1,-5.446160212E-2,1.131842583E-1
1.260476094E0,1.344895363E-1,-5.339634046E-2,1.046621501E-1
1.262963958E0,1.440769136E-1,-5.339634046E-2,9.614004195E-2
1.265451823E0,1.557948142E-1,-5.233107507E-2,8.655267209E-2
1.267939687E0,1.675127149E-1,-5.126581341E-2,7.696529478E-2
1.270427552E0,1.792306006E-1,-5.126581341E-2,6.844318658E-2
1.272915417E0,1.898832470E-1,-5.126581341E-2,5.885581672E-2
1.275403281E0,1.984053552E-1,-5.126581341E-2,5.033370852E-2
1.277891146E0,2.047969401E-1,-4.913528636E-2,4.394212365E-2
1.280379010E0,2.101232558E-1,-4.593949392E-2,3.968106955E-2
1.282866875E0,2.133190483E-1,-4.061317816E-2,3.648528084E-2
1.285354740E0,2.143843025E-1,-3.315633163E-2,3.542001545E-2
1.287842604E0,2.143843025E-1,-2.356895804E-2,3.648528084E-2
1.290330469E0,2.111885101E-1,-1.291632187E-2,4.181159660E-2
1.292818333E0,2.058621943E-1,-1.198421582E-3,4.926844314E-2
1.295306198E0,1.994706094E-1,9.454214945E-3,5.885581672E-2
1.297794062E0,1.909485012E-1,1.904158667E-2,7.057371736E-2
1.300281927E0,1.792306006E-1,2.436790615E-2,8.442214131E-2
1.302769792E0,1.685779691E-1,2.862896025E-2,9.827057272E-2
1.305257656E0,1.557948142E-1,2.862896025E-2,1.121189967E-1
1.307745521E0,1.440769136E-1,2.649843320E-2,1.259674281E-1
1.310233385E0,1.312937438E-1,2.010685205E-2,1.387505829E-1
1.312721250E0,1.217063740E-1,1.265000552E-2,1.504684836E-1
1.315209115E0,1.121189967E-1,3.062632866E-3,1.600558609E-1
1.317696979E0,1.057274193E-1,-6.524739787E-3,1.664474458E-1
1.320184844E0,1.014663652E-1,-1.717737690E-2,1.685779691E-1
1.322672708E0,1.014663652E-1,-2.569948509E-2,1.685779691E-1
1.325160573E0,1.025316268E-1,-3.422159329E-2,1.643169224E-1
1.327648437E0,1.067926809E-1,-4.167843983E-2,1.579253376E-1
1.330136302E0,1.131842583E-1,-4.807002097E-2,1.504684836E-1
1.332624167E0,1.227716357E-1,-5.339634046E-2,1.408811212E-1
1.335112031E0,1.355548054E-1,-5.978792161E-2,1.302284747E-1
1.337599896E0,1.504684836E-1,-6.617950648E-2,1.163800508E-1
1.340087760E0,1.675127149E-1,-7.150582224E-2,1.035968885E-1
1.342575625E0,1.866874546E-1,-7.576687634E-2,8.868319541E-2
1.345063542E0,2.069274634E-1,-7.789740711E-2,7.483477145E-2
1.347551458E0,2.271674722E-1,-8.002793044E-2,5.992107838E-2
1.350039375E0,2.484727502E-1,-8.002793044E-2,4.500738904E-2
1.352527292E0,2.687127590E-1,-7.896266878E-2,3.222422674E-2
1.355015208E0,2.878875136E-1,-7.576687634E-2,2.050632425E-2
1.357503125E0,3.049317300E-1,-7.150582224E-2,9.853689000E-3
1.359991042E0,3.219759464E-1,-6.511423737E-2,2.396843163E-3
1.362478958E0,3.368896246E-1,-5.872265995E-2,-2.929474926E-3
1.364966875E0,3.507380486E-1,-5.126581341E-2,-5.060002208E-3
1.367454792E0,3.624559641E-1,-4.274370521E-2,-6.125265732E-3
1.369942708E0,3.731085956E-1,-3.635212034E-2,-5.060002208E-3
1.372430625E0,3.826959729E-1,-2.783001214E-2,-2.929474926E-3
1.374918542E0,3.922833502E-1,-1.824264042E-2,2.663159103E-4
1.377406458E0,4.008054435E-1,-6.524739787E-3,5.592633970E-3
1.379894375E0,4.082622826E-1,5.193160381E-3,1.091895252E-2
1.382382292E0,4.135886133E-1,1.797632314E-2,1.731053367E-2
1.384870208E0,4.178496599E-1,2.969422378E-2,2.263685316E-2
1.387358125E0,4.189149141E-1,4.034686089E-2,2.796317078E-2
1.389846042E0,4.146538675E-1,4.886896908E-2,3.435475379E-2
1.392333958E0,4.093275666E-1,5.526055023E-2,3.861580789E-2
1.394821875E0,3.997401893E-1,5.845634267E-2,4.181159660E-2
1.397309792E0,3.858917654E-1,5.952160433E-2,4.394212365E-2
1.399797708E0,3.709780574E-1,5.632581562E-2,4.500738904E-2
1.402285625E0,3.528685868E-1,5.099949613E-2,4.500738904E-2
1.404773542E0,3.336938322E-1,4.141212255E-2,4.394212365E-2
1.407261458E0,3.134538233E-1,3.075948730E-2,4.181159660E-2
1.409749375E0,2.932138145E-1,1.584579609E-2,3.755054250E-2
1.412237292E0,2.740390599E-1,-1.198421582E-3,3.222422674E-2
1.414725208E0,2.548643351E-1,-1.930790395E-2,2.689790726E-2
1.417213125E0,2.388853729E-1,-3.848264739E-2,1.944106072E-2
1.419701042E0,2.261022031E-1,-5.765739456E-2,9.853689000E-3
1.422188958E0,2.143843025E-1,-7.470161468E-2,1.331579522E-3
1.424676875E0,2.069274634E-1,-8.855003864E-2,-8.255792782E-3
1.427164792E0,2.026664019E-1,-9.920267761E-2,-1.997369342E-2
1.429652708E0,2.026664019E-1,-1.077247858E-1,-3.169159219E-2
1.432140625E0,2.058621943E-1,-1.130511016E-1,-4.340949282E-2
1.434628490E0,2.122537792E-1,-1.141163707E-1,-5.619265884E-2
1.437116354E0,2.218411565E-1,-1.109205782E-1,-7.004108280E-2
1.439604219E0,2.324937880E-1,-1.066595241E-1,-8.282424510E-2
1.442092083E0,2.463422120E-1,-1.002679393E-1,-9.454214573E-2
1.444579948E0,2.601906359E-1,-9.387636185E-2,-1.041295230E-1
1.447067812E0,2.740390599E-1,-8.641951531E-2,-1.115863696E-1
1.449555677E0,2.878875136E-1,-7.896266878E-2,-1.147821546E-1
1.452043542E0,2.996053994E-1,-6.831002980E-2,-1.147821546E-1
1.454531406E0,3.091927767E-1,-5.765739456E-2,-1.115863696E-1
1.457019271E0,3.177148700E-1,-4.487423226E-2,-1.051947847E-1
1.459507135E0,3.230412006E-1,-2.996053919E-2,-9.560741484E-2
1.461995000E0,3.262369931E-1,-1.398158539E-2,-8.175898343E-2
1.464482865E0,3.273022473E-1,4.127896391E-3,-6.471476704E-2
1.466970729E0,3.262369931E-1,2.223737910E-2,-4.447475821E-2
1.469458594E0,3.219759464E-1,4.247738793E-2,-2.103895694E-2
1.471946458E0,3.134538233E-1,6.271740049E-2,4.527370445E-3
1.474434323E0,3.017359376E-1,8.295740932E-2,3.115896136E-2
1.476922187E0,2.878875136E-1,1.010668874E-1,5.779055133E-2
1.479410052E0,2.697780132E-1,1.170458421E-1,8.335687965E-2
1.481897917E0,2.495380044E-1,1.287637353E-1,1.078579426E-1
1.484385781E0,2.261022031E-1,1.383511126E-1,1.302284747E-1
1.486873646E0,1.994706094E-1,1.436774284E-1,1.494032294E-1
1.489361510E0,1.717737615E-1,1.458079666E-1,1.664474458E-1
1.491849375E0,1.419463754E-1,1.458079666E-1,1.813611388E-1
1.494337240E0,1.121189967E-1,1.426121742E-1,1.930790395E-1
1.496825104E0,8.016108721E-2,1.383511126E-1,2.047969401E-1
1.499312969E0,5.139897019E-2,1.308942735E-1,2.143843025E-1
1.501800833E0,2.263685316E-2,1.234374270E-1,2.239716798E-1
1.504288698E0,-2.929474926E-3,1.149153188E-1,2.324937880E-1
1.506776562E0,-2.423474751E-2,1.063932031E-1,2.378201038E-1
1.509264427E0,-4.234423116E-2,1.000016257E-1,2.420811653E-1
1.511752292E0,-5.725792050E-2,9.254477918E-2,2.431464195E-1
1.514240156E0,-6.897582114E-2,8.721846342E-2,2.431464195E-1
1.516728021E0,-7.749792933E-2,8.082687855E-2,2.388853729E-1
1.519215885E0,-8.175898343E-2,7.550056279E-2,2.324937880E-1
1.521703750E0,-8.495477587E-2,7.017423958E-2,2.239716798E-1
1.524191615E0,-8.495477587E-2,6.484792382E-2,2.133190483E-1
1.526679479E0,-8.175898343E-2,5.952160433E-2,2.016011477E-1
1.529167344E0,-7.536740601E-2,5.632581562E-2,1.888179779E-1
1.531655208E0,-6.791055948E-2,5.419528857E-2,1.771000773E-1
1.534143073E0,-5.725792050E-2,5.313002318E-2,1.653821766E-1
1.536630937E0,-4.554001987E-2,5.313002318E-2,1.568600684E-1
1.539118802E0,-3.382211924E-2,5.419528857E-2,1.504684836E-1
1.541606667E0,-1.997369342E-2,5.526055023E-2,1.472726911E-1
1.544094531E0,-7.190529723E-3,5.526055023E-2,1.462074369E-1
1.546582396E0,5.592633970E-3,5.739107728E-2,1.483379602E-1
1.549070937E0,1.731053367E-2,5.845634267E-2,1.515337527E-1
1.551558906E0,2.902843431E-2,6.058686972E-2,1.547295451E-1
1.554046771E0,3.968106955E-2,6.378266215E-2,1.589905918E-1
1.556534635E0,4.926844314E-2,6.591318548E-2,1.632516533E-1
1.559022500E0,5.566002429E-2,6.697845459E-2,1.664474458E-1
1.561510365E0,6.205160543E-2,6.697845459E-2,1.675127149E-1
1.563998229E0,6.631266326E-2,6.697845459E-2,1.685779691E-1
1.566486094E0,7.057371736E-2,6.378266215E-2,1.685779691E-1
1.568973958E0,7.270424068E-2,6.058686972E-2,1.685779691E-1
1.571461823E0,7.590003312E-2,5.739107728E-2,1.675127149E-1
1.573949687E0,7.909582555E-2,5.632581562E-2,1.653821766E-1
1.576437552E0,8.442214131E-2,5.739107728E-2,1.643169224E-1
1.578925417E0,8.974846452E-2,6.165213138E-2,1.611211300E-1
1.581413281E0,9.827057272E-2,6.804371625E-2,1.589905918E-1
1.583901146E0,1.067926809E-1,7.763108611E-2,1.568600684E-1
1.586389010E0,1.163800508E-1,9.147951752E-2,1.536642760E-1
1.588876875E0,1.259674281E-1,1.074584723E-1,1.515337527E-1
1.591364740E0,1.344895363E-1,1.255679578E-1,1.483379602E-1
1.593852604E0,1.408811212E-1,1.447426975E-1,1.462074369E-1
1.596340469E0,1.483379602E-1,1.639174372E-1,1.451421678E-1
1.598828333E0,1.536642760E-1,1.809616536E-1,1.440769136E-1
1.601316198E0,1.589905918E-1,1.958753467E-1,1.430116445E-1
1.603804062E0,1.621863842E-1,2.086585164E-1,1.440769136E-1
1.606291927E0,1.643169224E-1,2.203764170E-1,1.440769136E-1
1.608779792E0,1.632516533E-1,2.267680019E-1,1.462074369E-1
1.611267656E0,1.589905918E-1,2.310290486E-1,1.483379602E-1
1.613755521E0,1.525990218E-1,2.320943177E-1,1.494032294E-1
1.616243385E0,1.430116445E-1,2.310290486E-1,1.515337527E-1
1.618731250E0,1.312937438E-1,2.257027328E-1,1.515337527E-1
1.621219115E0,1.174453199E-1,2.171806246E-1,1.515337527E-1
1.623706979E0,1.025316268E-1,2.043974549E-1,1.504684836E-1
1.626194844E0,8.761793375E-2,1.884185076E-1,1.472726911E-1
1.628682708E0,7.483477145E-2,1.692437679E-1,1.419463754E-1
1.631170573E0,6.311687082E-2,1.479384899E-1,1.344895363E-1
1.633658437E0,5.459476262E-2,1.276984811E-1,1.259674281E-1
1.636146302E0,4.820318148E-2,1.095889956E-1,1.174453199E-1
1.638634167E0,4.500738904E-2,9.254477918E-2,1.089232042E-1
1.641122031E0,4.394212365E-2,7.763108611E-2,1.025316268E-1
1.643609896E0,4.394212365E-2,6.484792382E-2,9.614004195E-2
1.646097760E0,4.500738904E-2,4.993423447E-2,9.294424951E-2
1.648585625E0,4.820318148E-2,3.502054140E-2,8.974846452E-2
1.651073490E0,5.246423557E-2,1.904158667E-2,8.655267209E-2
1.653561354E0,5.779055133E-2,3.062632866E-3,8.335687965E-2
1.656049219E0,6.524740160E-2,-1.185105834E-2,8.016108721E-2
1.658537083E0,7.270424068E-2,-2.676474862E-2,7.590003312E-2
1.661024948E0,7.909582555E-2,-3.848264739E-2,7.163897902E-2
1.663512812E0,8.655267209E-2,-4.700475931E-2,6.631266326E-2
1.666000677E0,9.187898785E-2,-5.339634046E-2,6.311687082E-2
1.668488542E0,9.614004195E-2,-5.552686751E-2,6.098634377E-2
1.670976406E0,1.004010960E-1,-5.552686751E-2,5.992107838E-2
1.673464271E0,1.035968885E-1,-5.446160212E-2,6.098634377E-2
1.675952135E0,1.067926809E-1,-5.339634046E-2,6.311687082E-2
1.678440000E0,1.110537350E-1,-5.233107507E-2,6.524740160E-2
1.680927865E0,1.163800508E-1,-5.233107507E-2,6.737792492E-2
1.683415729E0,1.217063740E-1,-5.233107507E-2,6.844318658E-2
1.685903594E0,1.280979514E-1,-5.233107507E-2,6.631266326E-2
1.688391458E0,1.355548054E-1,-4.913528636E-2,6.418213248E-2
1.690879323E0,1.440769136E-1,-4.593949392E-2,5.779055133E-2
1.693367187E0,1.547295451E-1,-4.061317816E-2,5.033370852E-2
1.695855052E0,1.675127149E-1,-3.422159329E-2,4.287686199E-2
1.698342917E0,1.813611388E-1,-2.889527567E-2,3.542001545E-2
1.700830781E0,1.962748319E-1,-2.356895804E-2,2.689790726E-2
1.703318646E0,2.133190483E-1,-1.824264042E-2,1.837579720E-2
1.705806510E0,2.324937880E-1,-1.291632187E-2,9.853689000E-3
1.708294375E0,2.527337968E-1,-8.655266836E-3,1.331579522E-3
1.710782240E0,2.761695981E-1,-4.394212738E-3,-6.125265732E-3
1.713270104E0,2.985401452E-1,-1.331579551E-4,-1.464737486E-2
1.715757969E0,3.219759464E-1,3.062632866E-3,-2.423474751E-2
1.718245833E0,3.454117477E-1,7.323687430E-3,-3.382211924E-2
1.720733698E0,3.677822649E-1,1.158474199E-2,-4.127896577E-2
1.723221562E0,3.869570196E-1,1.691105962E-2,-4.980107397E-2
1.725709427E0,4.050664902E-1,2.223737910E-2,-5.512739345E-2
1.728197292E0,4.189149141E-1,2.862896025E-2,-6.045371294E-2
1.730685156E0,4.274370372E-1,3.502054140E-2,-6.151897460E-2
1.733173021E0,4.295675755E-1,4.034686089E-2,-6.151897460E-2
1.735660885E0,4.253064990E-1,4.354264960E-2,-5.832318589E-2
1.738148802E0,4.146538675E-1,4.247738793E-2,-5.193160102E-2
1.740636719E0,3.965443969E-1,3.608580679E-2,-4.340949282E-2
1.743124635E0,3.741738498E-1,2.117211558E-2,-3.382211924E-2
1.745612552E0,3.486075401E-1,1.997369342E-3,-2.316948399E-2
1.748100469E0,3.198454082E-1,-2.037316747E-2,-1.358211134E-2
1.750588385E0,2.889527678E-1,-4.593949392E-2,-3.994738683E-3
1.753076302E0,2.580601275E-1,-7.257108390E-2,3.462106921E-3
1.755564219E0,2.271674722E-1,-9.813741595E-2,8.788425475E-3
1.758052135E0,1.941442937E-1,-1.215732098E-1,1.304947957E-2
1.760540052E0,1.611211300E-1,-1.450090110E-1,1.731053367E-2
1.763027969E0,1.270326823E-1,-1.641837656E-1,2.050632425E-2
1.765515885E0,9.294424951E-2,-1.854890287E-1,2.476738021E-2
1.768003802E0,5.885581672E-2,-2.078595608E-1,2.902843431E-2
1.770491719E0,2.689790726E-2,-2.302301079E-1,3.435475379E-2
1.772979635E0,-1.864211401E-3,-2.536658943E-1,3.968106955E-2
1.775467552E0,-2.743053809E-2,-2.749711871E-1,4.500738904E-2
1.777955469E0,-4.660528526E-2,-2.941459119E-1,5.033370852E-2
1.780443385E0,-6.151897460E-2,-3.111901283E-1,5.459476262E-2
1.782931302E0,-7.110634446E-2,-3.229080439E-1,5.779055133E-2
1.785419219E0,-7.323687524E-2,-3.303648829E-1,5.885581672E-2
1.787907135E0,-7.110634446E-2,-3.324954212E-1,5.566002429E-2
1.790395052E0,-6.258423626E-2,-3.292996287E-1,5.139897019E-2
1.792882969E0,-4.767054692E-2,-3.207775056E-1,4.500738904E-2
1.795370885E0,-2.743053809E-2,-3.079943359E-1,3.755054250E-2
1.797858802E0,-3.994738683E-3,-2.877543271E-1,2.902843431E-2
1.800346719E0,2.476738021E-2,-2.621880174E-1,1.944106072E-2
1.802834635E0,5.672528967E-2,-2.334259003E-1,1.091895252E-2
1.805322552E0,9.187898785E-2,-2.004027218E-1,3.462106921E-3
1.807810469E0,1.280979514E-1,-1.663142890E-1,-7.989477599E-4
1.810298385E0,1.653821766E-1,-1.300953180E-1,-3.994738683E-3
1.812786302E0,2.016011477E-1,-9.174583107E-2,-1.864211401E-3
1.815274219E0,2.346243113E-1,-5.339634046E-2,2.396843163E-3
1.817762135E0,2.644517124E-1,-1.504684892E-2,9.853689000E-3
1.820250052E0,2.878875136E-1,2.117211558E-2,2.050632425E-2
1.822737969E0,3.059969842E-1,5.632581562E-2,3.328948840E-2
1.825225885E0,3.145190775E-1,8.721846342E-2,4.607265070E-2
1.827713750E0,3.145190775E-1,1.138500497E-1,6.098634377E-2
1.830201615E0,3.049317300E-1,1.362205893E-1,7.590003312E-2
1.832689479E0,2.878875136E-1,1.532648057E-1,9.187898785E-2
1.835177344E0,2.644517124E-1,1.671132296E-1,1.057274193E-1
1.837665208E0,2.346243113E-1,1.767006069E-1,1.206411049E-1
1.840153073E0,2.005358785E-1,1.820269227E-1,1.344895363E-1
1.842640937E0,1.621863842E-1,1.841574460E-1,1.462074369E-1
1.845128802E0,1.217063740E-1,1.798963994E-1,1.568600684E-1
1.847616667E0,8.016108721E-2,1.713742912E-1,1.664474458E-1
1.850104531E0,3.968106955E-2,1.564605981E-1,1.728390306E-1
1.852592396E0,-7.989477599E-4,1.351553202E-1,1.792306006E-1
1.855080260E0,-3.914843872E-2,1.085237339E-1,1.824263930E-1
1.857568125E0,-7.536740601E-2,7.869634777E-2,1.834916621E-1
1.860055990E0,-1.094558388E-1,4.567318037E-2,1.802958697E-1
1.862543854E0,-1.392832249E-1,1.371526904E-2,1.749695539E-1
1.865031719E0,-1.659148186E-1,-1.611211337E-2,1.675127149E-1
1.867519583E0,-1.861548275E-1,-4.380896688E-2,1.579253376E-1
1.870007448E0,-2.021337748E-1,-6.724476814E-2,1.462074369E-1
1.872495312E0,-2.117211521E-1,-8.855003864E-2,1.323590130E-1
1.874983177E0,-2.170474678E-1,-1.055942550E-1,1.174453199E-1
1.877471042E0,-2.159821987E-1,-1.194426864E-1,1.014663652E-1
1.879958906E0,-2.085253596E-1,-1.300953180E-1,8.335687965E-2
1.882446771E0,-1.946769357E-1,-1.364869028E-1,6.524740160E-2
1.884934635E0,-1.744369268E-1,-1.396826953E-1,4.500738904E-2
1.887422500E0,-1.467400640E-1,-1.386174262E-1,2.689790726E-2
1.889910365E0,-1.137168929E-1,-1.343563795E-1,7.723161485E-3
1.892398229E0,-7.430213690E-2,-1.247690022E-1,-9.321057238E-3
1.894886094E0,-2.849580161E-2,-1.119858399E-1,-2.636527456E-2
1.897373958E0,2.157158963E-2,-9.387636185E-2,-4.234423116E-2
1.899861823E0,7.483477145E-2,-7.044056058E-2,-5.725792050E-2
1.902349687E0,1.312937438E-1,-4.061317816E-2,-7.110634446E-2
1.904837552E0,1.888179779E-1,-4.394212738E-3,-8.282424510E-2
1.907325417E0,2.442116886E-1,3.715106845E-2,-9.241162241E-2
1.909813281E0,2.974748611E-1,7.976161689E-2,-9.986846894E-2
1.912301146E0,3.464770019E-1,1.213068962E-1,-1.041295230E-1
1.914789010E0,3.869570196E-1,1.617869139E-1,-1.073253155E-1
1.917276875E0,4.210454524E-1,1.980058849E-1,-1.083905771E-1
1.919764740E0,4.466117918E-1,2.278332561E-1,-1.073253155E-1
1.922252604E0,4.625907242E-1,2.523343265E-1,-1.062600464E-1
1.924740469E0,4.711128473E-1,2.725743353E-1,-1.041295230E-1
1.927228333E0,4.689823091E-1,2.864227593E-1,-9.880319983E-2
1.929716198E0,4.593949318E-1,2.960101366E-1,-9.241162241E-2
1.932204062E0,4.402202070E-1,3.002711833E-1,-8.602003753E-2
1.934691927E0,4.157191217E-1,2.992059290E-1,-7.749792933E-2
1.937179792E0,3.848264813E-1,2.938795984E-1,-6.897582114E-2
1.939667656E0,3.518033028E-1,2.832269669E-1,-6.151897460E-2
1.942155521E0,3.166496158E-1,2.683132887E-1,-5.406212807E-2
1.944643385E0,2.793653905E-1,2.480732650E-1,-4.873581231E-2
1.947131250E0,2.442116886E-1,2.225069404E-1,-4.554001987E-2
1.949619115E0,2.090579867E-1,1.948100924E-1,-4.447475821E-2
1.952106979E0,1.760348231E-1,1.628521830E-1,-4.660528526E-2
1.954594844E0,1.451421678E-1,1.287637353E-1,-5.086633936E-2
1.957082708E0,1.217063740E-1,9.147951752E-2,-5.832318589E-2
1.959570573E0,1.035968885E-1,5.419528857E-2,-6.897582114E-2
1.962058437E0,9.081372619E-2,1.904158667E-2,-8.175898343E-2
1.964546302E0,8.442214131E-2,-1.291632187E-2,-9.773793817E-2
1.967034167E0,8.548741043E-2,-4.061317816E-2,-1.137168929E-1
1.969522031E0,9.294424951E-2,-6.724476814E-2,-1.318263710E-1
1.972009896E0,1.078579426E-1,-9.387636185E-2,-1.488705873E-1
1.974497760E0,1.323590130E-1,-1.226384789E-1,-1.680453420E-1
1.976985625E0,1.685779691E-1,-1.524658650E-1,-1.861548275E-1
1.979473490E0,2.133190483E-1,-1.812279820E-1,-2.053295672E-1
1.981961354E0,2.676474750E-1,-2.078595608E-1,-2.255695760E-1
1.984449219E0,3.262369931E-1,-2.280995846E-1,-2.447443157E-1
1.986937083E0,3.869570196E-1,-2.419480085E-1,-2.628538013E-1
1.989424948E0,4.476770461E-1,-2.504701018E-1,-2.788327634E-1
1.991912812E0,5.041360259E-1,-2.526006401E-1,-2.916159332E-1
1.994400677E0,5.552686453E-1,-2.494048476E-1,-3.001380265E-1
1.996888542E0,6.010749936E-1,-2.419480085E-1,-3.043990731E-1
1.999376406E0,6.404897571E-1,-2.280995846E-1,-3.022685647E-1
2.001864271E0,6.724476814E-1,-2.089248300E-1,-2.958769798E-1
2.004352135E0,6.990792751E-1,-1.844237745E-1,-2.852243483E-1
2.006840000E0,7.171887755E-1,-1.535311192E-1,-2.703106403E-1
2.009327865E0,7.267761230E-1,-1.173121557E-1,-2.522011697E-1
2.011815729E0,7.246456146E-1,-7.683213800E-2,-2.308958918E-1
2.014303594E0,7.118624449E-1,-3.635212034E-2,-2.053295672E-1
2.016791510E0,6.831002831E-1,9.321057005E-4,-1.776327193E-1
2.019279427E0,6.394245028E-1,3.395527974E-2,-1.478053331E-1
2.021767344E0,5.819002390E-1,6.165213138E-2,-1.169126853E-1
2.024255260E0,5.094623566E-1,8.189214021E-2,-8.602003753E-2
2.026743177E0,4.253064990E-1,9.254477918E-2,-5.619265884E-2
2.029231094E0,3.315632939E-1,9.680583328E-2,-2.743053809E-2
2.031719010E0,2.292979956E-1,9.254477918E-2,-1.864211401E-3
2.034206927E0,1.238368973E-1,8.189214021E-2,2.157158963E-2
2.036694844E0,1.624527015E-2,6.804371625E-2,4.181159660E-2
2.039182760E0,-8.921582997E-2,4.886896908E-2,5.992107838E-2
2.041670677E0,-1.893506050E-1,2.756369673E-2,7.590003312E-2
2.044158594E0,-2.830938101E-1,1.997369342E-3,9.081372619E-2
2.046646510E0,-3.683148921E-1,-2.463422157E-2,1.025316268E-1
2.049134427E0,-4.428833723E-1,-5.446160212E-2,1.110537350E-1
2.051622344E0,-5.067991614E-1,-8.748477697E-2,1.153147891E-1
2.054110260E0,-5.579318404E-1,-1.226384789E-1,1.163800508E-1
2.056598177E0,-5.952160358E-1,-1.599227041E-1,1.142495275E-1
2.059086094E0,-6.175866127E-1,-1.982721984E-1,1.067926809E-1
2.061574010E0,-6.229129434E-1,-2.376869470E-1,9.614004195E-2
2.064061927E0,-6.122602820E-1,-2.760364413E-1,7.909582555E-2
2.066549844E0,-5.845634341E-1,-3.111901283E-1,5.992107838E-2
2.069037760E0,-5.430181623E-1,-3.410175145E-1,3.755054250E-2
2.071525677E0,-4.865591824E-1,-3.655185997E-1,1.518000662E-2
2.074013594E0,-4.194475710E-1,-3.814975321E-1,-7.190529723E-3
2.076501510E0,-3.427485824E-1,-3.868238628E-1,-2.849580161E-2
2.078989427E0,-2.575274706E-1,-3.825628161E-1,-4.873581231E-2
2.081477344E0,-1.669800729E-1,-3.665838540E-1,-6.684529036E-2
2.083965260E0,-7.217161357E-2,-3.420827985E-1,-8.282424510E-2
2.086453177E0,2.050632425E-2,-3.090596199E-1,-9.667267650E-2
2.088941094E0,1.110537350E-1,-2.717753947E-1,-1.062600464E-1
2.091429010E0,1.962748319E-1,-2.291648388E-1,-1.126516312E-1
2.093916927E0,2.729738057E-1,-1.844237745E-1,-1.158474237E-1
2.096404844E0,3.422159553E-1,-1.386174262E-1,-1.158474237E-1
2.098892760E0,4.050664902E-1,-9.281109273E-2,-1.147821546E-1
2.101380677E0,4.604602158E-1,-4.807002097E-2,-1.115863696E-1
2.103868594E0,5.073317885E-1,-8.655266836E-3,-1.105211005E-1
2.106356458E0,5.435507894E-1,2.756369673E-2,-1.105211005E-1
2.108844323E0,5.680518150E-1,5.739107728E-2,-1.115863696E-1
2.111332187E0,5.819002390E-1,8.082687855E-2,-1.126516312E-1
2.113820052E0,5.829655528E-1,9.787109494E-2,-1.147821546E-1
2.116307917E0,5.712476373E-1,1.095889956E-1,-1.179779470E-1
2.118795781E0,5.488771200E-1,1.170458421E-1,-1.211737394E-1
2.121283646E0,5.158539414E-1,1.223721579E-1,-1.222390011E-1
2.123771510E0,4.732433856E-1,1.234374270E-1,-1.243695319E-1
2.126259375E0,4.221107066E-1,1.223721579E-1,-1.233042628E-1
2.128747448E0,3.613906801E-1,1.181111038E-1,-1.211737394E-1
2.131235260E0,2.964096069E-1,1.127847880E-1,-1.190432087E-1
2.133723073E0,2.271674722E-1,1.031974182E-1,-1.147821546E-1
2.136210885E0,1.568600684E-1,8.828372508E-2,-1.083905771E-1
2.138698698E0,8.761793375E-2,7.123950869E-2,-1.030642539E-1
2.141186510E0,2.157158963E-2,5.099949613E-2,-9.880319983E-2
2.143674323E0,-3.914843872E-2,2.969422378E-2,-9.667267650E-2
2.146162135E0,-9.454214573E-2,9.454214945E-3,-9.560741484E-2
2.148649948E0,-1.403484792E-1,-7.590003312E-3,-9.560741484E-2
2.151137760E0,-1.765674502E-1,-2.037316747E-2,-9.560741484E-2
2.153625573E0,-2.042642981E-1,-2.889527567E-2,-9.454214573E-2
2.156113385E0,-2.213085145E-1,-3.422159329E-2,-9.347688407E-2
2.158601198E0,-2.277000993E-1,-3.741738573E-2,-9.028109163E-2
2.161089010E0,-2.245043069E-1,-3.848264739E-2,-8.815056831E-2
2.163576823E0,-2.117211521E-1,-3.741738573E-2,-8.388951421E-2
2.166064635E0,-1.904158741E-1,-3.635212034E-2,-7.962846011E-2
2.168552448E0,-1.627190262E-1,-3.422159329E-2,-7.536740601E-2
2.171040260E0,-1.307611167E-1,-3.209106624E-2,-6.897582114E-2
2.173528073E0,-9.667267650E-2,-2.889527567E-2,-6.258423626E-2
2.176015885E0,-6.151897460E-2,-2.676474862E-2,-5.619265884E-2
2.178503750E0,-2.636527456E-2,-2.569948509E-2,-4.873581231E-2
2.180991667E0,4.527370445E-3,-2.569948509E-2,-4.021370411E-2
2.183479583E0,3.115896136E-2,-2.783001214E-2,-3.169159219E-2
2.185967500E0,5.246423557E-2,-3.315633163E-2,-2.210422046E-2
2.188455417E0,6.737792492E-2,-4.380896688E-2,-1.358211134E-2
2.190943333E0,7.909582555E-2,-5.872265995E-2,-5.060002208E-3
2.193431250E0,8.761793375E-2,-7.789740711E-2,1.331579522E-3
2.195919167E0,9.081372619E-2,-1.002679393E-1,5.592633970E-3
2.198407083E0,9.187898785E-2,-1.205079481E-1,1.091895252E-2
2.200895000E0,8.974846452E-2,-1.396826953E-1,1.411474310E-2
2.203382917E0,8.442214131E-2,-1.556616426E-1,1.837579720E-2
2.205870833E0,7.696529478E-2,-1.684448123E-1,2.370211668E-2
2.208358750E0,6.844318658E-2,-1.780321896E-1,2.796317078E-2
2.210846667E0,5.885581672E-2,-1.844237745E-1,3.435475379E-2
2.213334583E0,4.926844314E-2,-1.865542978E-1,4.074633494E-2
2.215822500E0,3.861580789E-2,-1.865542978E-1,4.926844314E-2
2.218310417E0,2.796317078E-2,-1.844237745E-1,5.779055133E-2
2.220798333E0,1.518000662E-2,-1.790974438E-1,6.737792492E-2
2.223286250E0,4.527370445E-3,-1.737711281E-1,7.590003312E-2
2.225774167E0,-6.125265732E-3,-1.673795432E-1,8.335687965E-2
2.228262083E0,-1.677790284E-2,-1.588574350E-1,9.081372619E-2
2.230750000E0,-2.530001104E-2,-1.492700726E-1,9.827057272E-2
2.233237917E0,-3.169159219E-2,-1.354216337E-1,1.025316268E-1
2.235725833E0,-3.701791167E-2,-1.194426864E-1,1.067926809E-1
2.238213750E0,-4.234423116E-2,-1.002679393E-1,1.110537350E-1
2.240701667E0,-4.873581231E-2,-7.896266878E-2,1.153147891E-1
2.243189583E0,-5.406212807E-2,-5.552686751E-2,1.206411049E-1
2.245677500E0,-6.045371294E-2,-3.315633163E-2,1.280979514E-1
2.248165417E0,-6.791055948E-2,-1.185105834E-2,1.376853287E-1
2.250653333E0,-7.430213690E-2,6.258423906E-3,1.494032294E-1
2.253141250E0,-8.175898343E-2,2.223737910E-2,1.621863842E-1
2.255629167E0,-8.921582997E-2,3.395527974E-2,1.771000773E-1
2.258117083E0,-9.667267650E-2,4.247738793E-2,1.909485012E-1
2.260605000E0,-1.030642539E-1,4.780370742E-2,2.058621943E-1
2.263092917E0,-1.105211005E-1,4.993423447E-2,2.186453640E-1
2.265580833E0,-1.179779470E-1,5.099949613E-2,2.314285189E-1
2.268068698E0,-1.275653243E-1,4.993423447E-2,2.431464195E-1
2.270556562E0,-1.392832249E-1,4.673844203E-2,2.559295893E-1
2.273044427E0,-1.510011256E-1,4.141212255E-2,2.676474750E-1
2.275532292E0,-1.659148186E-1,3.182475269E-2,2.814959288E-1
2.278020156E0,-1.818937659E-1,2.117211558E-2,2.974748611E-1
2.280508021E0,-1.989379823E-1,5.193160381E-3,3.123885691E-1
2.282995885E0,-2.159821987E-1,-1.504684892E-2,3.294327855E-1
2.285483750E0,-2.319611609E-1,-3.954791278E-2,3.432812095E-1
2.287971615E0,-2.468748540E-1,-6.831002980E-2,3.539338410E-1
2.290459479E0,-2.596580088E-1,-9.920267761E-2,3.603254259E-1
2.292947344E0,-2.692453861E-1,-1.279647946E-1,3.613906801E-1
2.295435208E0,-2.745717168E-1,-1.545963883E-1,3.571296334E-1
2.297923073E0,-2.767022252E-1,-1.769669205E-1,3.486075401E-1
2.300410937E0,-2.745717168E-1,-1.961416751E-1,3.368896246E-1
2.302898802E0,-2.671148479E-1,-2.153164148E-1,3.209106624E-1
2.305386667E0,-2.553969622E-1,-2.334259003E-1,3.017359376E-1
2.307874531E0,-2.372874767E-1,-2.536658943E-1,2.804306448E-1
2.310362396E0,-2.138516754E-1,-2.728406489E-1,2.559295893E-1
2.312850260E0,-1.872200817E-1,-2.909501195E-1,2.303632647E-1
2.315338125E0,-1.563274413E-1,-3.037332892E-1,2.026664019E-1
2.317825990E0,-1.211737394E-1,-3.111901283E-1,1.739042848E-1
2.320313854E0,-8.282424510E-2,-3.090596199E-1,1.472726911E-1
2.322801719E0,-4.127896577E-2,-2.973417044E-1,1.206411049E-1
2.325289583E0,2.663159103E-4,-2.781669796E-1,9.720530361E-2
2.327777448E0,4.287686199E-2,-2.526006401E-1,7.483477145E-2
2.330265312E0,8.335687965E-2,-2.217079997E-1,5.566002429E-2
2.332753177E0,1.227716357E-1,-1.865542978E-1,3.968106955E-2
2.335241042E0,1.589905918E-1,-1.503353268E-1,2.796317078E-2
2.337728906E0,1.909485012E-1,-1.130511016E-1,1.837579720E-2
2.340216771E0,2.175800949E-1,-7.470161468E-2,1.518000662E-2
2.342704635E0,2.367548496E-1,-3.741738573E-2,1.624527015E-2
2.345192500E0,2.484727502E-1,-1.198421582E-3,2.157158963E-2
2.347680365E0,2.516685426E-1,3.075948730E-2,3.222422674E-2
2.350168229E0,2.452769578E-1,5.952160433E-2,4.607265070E-2
2.352656094E0,2.314285189E-1,7.976161689E-2,6.311687082E-2
2.355143958E0,2.090579867E-1,9.254477918E-2,8.016108721E-2
2.357631823E0,1.802958697E-1,9.467530251E-2,9.614004195E-2
2.360119687E0,1.451421678E-1,9.041424841E-2,1.099884734E-1
2.362607552E0,1.067926809E-1,7.656582445E-2,1.206411049E-1
2.365095417E0,6.418213248E-2,5.632581562E-2,1.280979514E-1
2.367583281E0,2.050632425E-2,3.182475269E-2,1.323590130E-1
2.370071146E0,-2.423474751E-2,3.062632866E-3,1.344895363E-1
2.372559010E0,-6.897582114E-2,-2.996053919E-2,1.344895363E-1
2.375046875E0,-1.094558388E-1,-6.617950648E-2,1.312937438E-1
2.377534740E0,-1.446095407E-1,-1.066595241E-1,1.249021590E-1
2.380022604E0,-1.691105962E-1,-1.471395344E-1,1.153147891E-1
2.382510469E0,-1.840242893E-1,-1.854890287E-1,1.004010960E-1
2.384998333E0,-1.850895584E-1,-2.174469382E-1,8.229161799E-2
2.387486198E0,-1.755021811E-1,-2.398174703E-1,6.311687082E-2
2.389974062E0,-1.531316489E-1,-2.526006401E-1,4.181159660E-2
2.392461927E0,-1.190432087E-1,-2.526006401E-1,1.944106072E-2
2.394949792E0,-7.643266767E-2,-2.440785319E-1,-7.989477599E-4
2.397437656E0,-2.530001104E-2,-2.302301079E-1,-1.997369342E-2
2.399925521E0,3.222422674E-2,-2.131858915E-1,-3.701791167E-2
2.402413385E0,9.294424951E-2,-1.929458827E-1,-5.193160102E-2
2.404901250E0,1.568600684E-1,-1.727058738E-1,-6.471476704E-2
2.407389115E0,2.197106332E-1,-1.545963883E-1,-7.430213690E-2
2.409876979E0,2.804306448E-1,-1.375521719E-1,-8.282424510E-2
2.412364844E0,3.390201628E-1,-1.205079481E-1,-8.921582997E-2
2.414852708E0,3.912180662E-1,-1.045289934E-1,-9.347688407E-2
2.417340573E0,4.370244145E-1,-8.748477697E-2,-9.454214573E-2
2.419828437E0,4.732433856E-1,-7.044056058E-2,-9.347688407E-2
2.422316302E0,4.998749495E-1,-5.339634046E-2,-8.921582997E-2
2.424804167E0,5.158539414E-1,-3.741738573E-2,-8.282424510E-2
2.427292031E0,5.190497041E-1,-2.250369452E-2,-7.217161357E-2
2.429779896E0,5.115928650E-1,-1.078579482E-2,-6.151897460E-2
2.432267760E0,4.892223179E-1,-4.394212738E-3,-4.873581231E-2
2.434755625E0,4.540686309E-1,-1.331579551E-4,-3.595264629E-2
2.437243490E0,4.061317742E-1,-3.328948980E-3,-2.103895694E-2
2.439731354E0,3.507380486E-1,-1.504684892E-2,-2.929474926E-3
2.442219219E0,2.889527678E-1,-3.315633163E-2,1.624527015E-2
2.444707083E0,2.229064107E-1,-5.659212917E-2,3.542001545E-2
2.447194948E0,1.536642760E-1,-8.322372288E-2,5.672528967E-2
2.449682812E0,8.442214131E-2,-1.141163707E-1,7.696529478E-2
2.452170677E0,1.731053367E-2,-1.482048035E-1,9.400951862E-2
2.454658542E0,-4.660528526E-2,-1.865542978E-1,1.089232042E-1
2.457146406E0,-1.051947847E-1,-2.270343155E-1,1.206411049E-1
2.459634271E0,-1.573926955E-1,-2.707101107E-1,1.280979514E-1
2.462122135E0,-2.000032514E-1,-3.154512048E-1,1.312937438E-1
2.464610052E0,-2.340916842E-1,-3.591270149E-1,1.302284747E-1
2.467097969E0,-2.585927546E-1,-3.974764943E-1,1.270326823E-1
2.469585885E0,-2.735064328E-1,-4.283691347E-1,1.217063740E-1
2.472073802E0,-2.767022252E-1,-4.528702199E-1,1.153147891E-1
2.474561719E0,-2.724411786E-1,-4.688491523E-1,1.078579426E-1
2.477049635E0,-2.585927546E-1,-4.773712754E-1,1.014663652E-1
2.479537552E0,-2.383527458E-1,-4.795017838E-1,9.507478029E-2
2.482025469E0,-2.117211521E-1,-4.773712754E-1,8.868319541E-2
2.484513385E0,-1.797632426E-1,-4.720449448E-1,8.229161799E-2
2.487001302E0,-1.435442716E-1,-4.645881057E-1,7.696529478E-2
2.489489219E0,-1.051947847E-1,-4.560659826E-1,7.163897902E-2
2.491977135E0,-6.151897460E-2,-4.464786351E-1,6.631266326E-2
2.494465052E0,-1.677790284E-2,-4.358259737E-1,6.311687082E-2
2.496952969E0,3.009369783E-2,-4.219775498E-1,6.311687082E-2
2.499440885E0,7.590003312E-2,-4.038680792E-1,6.418213248E-2
2.501928802E0,1.206411049E-1,-3.814975321E-1,6.631266326E-2
2.504416719E0,1.621863842E-1,-3.569964767E-1,6.737792492E-2
2.506904635E0,2.026664019E-1,-3.303648829E-1,6.844318658E-2
2.509392552E0,2.399506420E-1,-3.005374968E-1,6.950845569E-2
2.511880469E0,2.729738057E-1,-2.685796022E-1,7.057371736E-2
2.514368385E0,3.028011918E-1,-2.366216928E-1,7.057371736E-2
2.516856302E0,3.283675313E-1,-2.035985142E-1,7.057371736E-2
2.519344219E0,3.486075401E-1,-1.727058738E-1,7.057371736E-2
2.521832135E0,3.613906801E-1,-1.450090110E-1,7.376950979E-2
2.524320052E0,3.677822649E-1,-1.205079481E-1,7.803056389E-2
2.526807969E0,3.645864725E-1,-9.920267761E-2,8.655267209E-2
2.529295885E0,3.518033028E-1,-8.215846121E-2,9.400951862E-2
2.531783802E0,3.283675313E-1,-7.150582224E-2,1.046621501E-1
2.534271719E0,2.964096069E-1,-6.617950648E-2,1.153147891E-1
2.536759635E0,2.559295893E-1,-6.831002980E-2,1.259674281E-1
2.539247552E0,2.069274634E-1,-7.683213800E-2,1.344895363E-1
2.541735469E0,1.536642760E-1,-9.281109273E-2,1.398158520E-1
2.544223385E0,9.400951862E-2,-1.130511016E-1,1.440769136E-1
2.546711302E0,3.328948840E-2,-1.396826953E-1,1.451421678E-1
2.549199219E0,-2.636527456E-2,-1.695100814E-1,1.451421678E-1
2.551687083E0,-8.602003753E-2,-2.004027218E-1,1.430116445E-1
2.554174948E0,-1.403484792E-1,-2.323606312E-1,1.408811212E-1
2.556662812E0,-1.904158741E-1,-2.643185556E-1,1.366200596E-1
2.559150677E0,-2.340916842E-1,-2.930806577E-1,1.344895363E-1
2.561638542E0,-2.692453861E-1,-3.197122514E-1,1.334242672E-1
2.564126406E0,-2.948117256E-1,-3.452785909E-1,1.323590130E-1
2.566614271E0,-3.075948656E-1,-3.697796464E-1,1.323590130E-1
2.569102135E0,-3.086601496E-1,-3.921501637E-1,1.302284747E-1
2.571590000E0,-2.969422340E-1,-4.113249183E-1,1.270326823E-1
2.574077865E0,-2.735064328E-1,-4.262386262E-1,1.217063740E-1
2.576565729E0,-2.404832691E-1,-4.379565120E-1,1.142495275E-1
2.579053594E0,-1.989379823E-1,-4.443480968E-1,1.046621501E-1
2.581541458E0,-1.520663798E-1,-4.464786351E-1,9.614004195E-2
2.584029323E0,-9.880319983E-2,-4.454133511E-1,8.655267209E-2
2.586517187E0,-4.234423116E-2,-4.411523044E-1,7.803056389E-2
2.589005052E0,1.518000662E-2,-4.304996729E-1,7.057371736E-2
2.591492917E0,7.270424068E-2,-4.145207107E-1,6.418213248E-2
2.593980781E0,1.302284747E-1,-3.932154477E-1,5.992107838E-2
2.596468646E0,1.845569313E-1,-3.665838540E-1,5.566002429E-2
2.598956510E0,2.367548496E-1,-3.356912136E-1,5.246423557E-2
2.601444375E0,2.836264372E-1,-2.984069884E-1,5.139897019E-2
2.603932240E0,3.241064548E-1,-2.579269707E-1,5.246423557E-2
2.606420104E0,3.581948876E-1,-2.153164148E-1,5.566002429E-2
2.608907969E0,3.848264813E-1,-1.684448123E-1,6.205160543E-2
2.611395833E0,4.040012360E-1,-1.237037405E-1,6.950845569E-2
2.613883698E0,4.135886133E-1,-8.002793044E-2,7.696529478E-2
2.616371562E0,4.146538675E-1,-4.061317816E-2,8.442214131E-2
2.618859427E0,4.061317742E-1,-6.524739787E-3,9.081372619E-2
2.621347292E0,3.880222738E-1,2.117211558E-2,9.614004195E-2
2.623835156E0,3.624559641E-1,4.141212255E-2,1.014663652E-1
2.626323021E0,3.273022473E-1,5.526055023E-2,1.046621501E-1
2.628811042E0,2.857569754E-1,6.271740049E-2,1.078579426E-1
2.631299062E0,2.367548496E-1,6.378266215E-2,1.121189967E-1
2.633787083E0,1.834916621E-1,6.058686972E-2,1.163800508E-1
2.636275000E0,1.249021590E-1,4.993423447E-2,1.206411049E-1
2.638762865E0,6.524740160E-2,3.608580679E-2,1.238368973E-1
2.641250729E0,6.657897960E-3,1.584579609E-2,1.249021590E-1
2.643738594E0,-5.086633936E-2,-6.524739787E-3,1.217063740E-1
2.646226458E0,-1.073253155E-1,-3.315633163E-2,1.163800508E-1
2.648714323E0,-1.605884880E-1,-6.191844866E-2,1.078579426E-1
2.651202187E0,-2.095906287E-1,-9.174583107E-2,9.507478029E-2
2.653690052E0,-2.532664239E-1,-1.215732098E-1,7.909582555E-2
2.656177917E0,-2.873548567E-1,-1.503353268E-1,6.098634377E-2
2.658665781E0,-3.107906580E-1,-1.801627129E-1,4.181159660E-2
2.661153646E0,-3.225085735E-1,-2.067943066E-1,1.944106072E-2
2.663641510E0,-3.225085735E-1,-2.312953621E-1,-1.864211401E-3
2.666129375E0,-3.086601496E-1,-2.515353858E-1,-2.530001104E-2
2.668617240E0,-2.830938101E-1,-2.664490640E-1,-4.873581231E-2
2.671105104E0,-2.458095849E-1,-2.739059031E-1,-7.004108280E-2
2.673592969E0,-1.968074590E-1,-2.739059031E-1,-8.921582997E-2
2.676080833E0,-1.382179558E-1,-2.664490640E-1,-1.051947847E-1
2.678568698E0,-7.323687524E-2,-2.504701018E-1,-1.179779470E-1
2.681056562E0,-3.994738683E-3,-2.270343155E-1,-1.275653243E-1
2.683544427E0,6.631266326E-2,-1.961416751E-1,-1.350221634E-1
2.686032292E0,1.344895363E-1,-1.609879732E-1,-1.403484792E-1
2.688520156E0,1.984053552E-1,-1.226384789E-1,-1.446095407E-1
2.691008021E0,2.569948435E-1,-8.428898454E-2,-1.467400640E-1
2.693495885E0,3.070622385E-1,-4.593949392E-2,-1.488705873E-1
2.695983750E0,3.486075401E-1,-9.720530361E-3,-1.510011256E-1
2.698471615E0,3.805654347E-1,2.330264263E-2,-1.531316489E-1
2.700959479E0,4.029359818E-1,5.206476152E-2,-1.563274413E-1
2.703447344E0,4.157191217E-1,7.656582445E-2,-1.584579647E-1
2.705935208E0,4.178496599E-1,9.787109494E-2,-1.616537571E-1
2.708423073E0,4.093275666E-1,1.149153188E-1,-1.659148186E-1
2.710910937E0,3.901528120E-1,1.255679578E-1,-1.691105962E-1
2.713398802E0,3.603254259E-1,1.330247968E-1,-1.744369268E-1
2.715886667E0,3.219759464E-1,1.362205893E-1,-1.786979735E-1
2.718374531E0,2.740390599E-1,1.362205893E-1,-1.818937659E-1
2.720862396E0,2.197106332E-1,1.340900660E-1,-1.840242893E-1
2.723350260E0,1.579253376E-1,1.276984811E-1,-1.861548275E-1
2.725838125E0,9.400951862E-2,1.181111038E-1,-1.861548275E-1
2.728325990E0,2.689790726E-2,1.053279415E-1,-1.861548275E-1
2.730813854E0,-4.021370411E-2,8.828372508E-2,-1.850895584E-1
2.733301719E0,-1.051947847E-1,7.123950869E-2,-1.840242893E-1
2.735789583E0,-1.659148186E-1,5.099949613E-2,-1.829590350E-1
2.738277448E0,-2.191779912E-1,3.289001435E-2,-1.829590350E-1
2.740765312E0,-2.649843395E-1,1.584579609E-2,-1.840242893E-1
2.743253177E0,-3.001380265E-1,3.062632866E-3,-1.861548275E-1
2.745741042E0,-3.257043660E-1,-6.524739787E-3,-1.893506050E-1
2.748228906E0,-3.406180441E-1,-1.185105834E-2,-1.914811432E-1
2.750716771E0,-3.459443748E-1,-1.504684892E-2,-1.968074590E-1
2.753204635E0,-3.416832983E-1,-1.611211337E-2,-2.021337748E-1
2.755692500E0,-3.278348744E-1,-1.611211337E-2,-2.074600905E-1
2.758180365E0,-3.043990731E-1,-1.504684892E-2,-2.138516754E-1
2.760668229E0,-2.735064328E-1,-1.398158539E-2,-2.213085145E-1
2.763156094E0,-2.340916842E-1,-1.185105834E-2,-2.277000993E-1
2.765643958E0,-1.904158741E-1,-8.655266836E-3,-2.351569533E-1
2.768131823E0,-1.424790174E-1,-1.198421582E-3,-2.426137924E-1
2.770619687E0,-9.347688407E-2,9.454214945E-3,-2.479401082E-1
2.773107552E0,-4.554001987E-2,2.756369673E-2,-2.511359155E-1
2.775595417E0,-7.989477599E-4,4.993423447E-2,-2.532664239E-1
2.778083281E0,3.861580789E-2,7.763108611E-2,-2.522011697E-1
2.780571146E0,7.163897902E-2,1.095889956E-1,-2.468748540E-1
2.783059010E0,9.827057272E-2,1.458079666E-1,-2.362222075E-1
2.785546875E0,1.174453199E-1,1.830921918E-1,-2.234390527E-1
2.788034740E0,1.291632205E-1,2.193111479E-1,-2.074600905E-1
2.790522604E0,1.334242672E-1,2.512690723E-1,-1.893506050E-1
2.793010469E0,1.280979514E-1,2.768353820E-1,-1.723063886E-1
2.795498333E0,1.131842583E-1,2.960101366E-1,-1.552621722E-1
2.797986198E0,8.974846452E-2,3.066627681E-1,-1.392832249E-1
2.800474062E0,5.992107838E-2,3.109238148E-1,-1.243695319E-1
2.802961927E0,2.476738021E-2,3.098585606E-1,-1.105211005E-1
2.805449792E0,-1.358211134E-2,3.034669757E-1,-9.880319983E-2
2.807937656E0,-5.619265884E-2,2.960101366E-1,-8.921582997E-2
2.810425521E0,-1.009337306E-1,2.842922211E-1,-8.282424510E-2
2.812913385E0,-1.446095407E-1,2.704437971E-1,-7.856319100E-2
2.815401250E0,-1.882853508E-1,2.565953732E-1,-7.856319100E-2
2.817889115E0,-2.308958918E-1,2.416816950E-1,-7.856319100E-2
2.820376979E0,-2.703106403E-1,2.267680019E-1,-8.069372177E-2
2.822864844E0,-3.054643571E-1,2.118543088E-1,-8.495477587E-2
2.825352708E0,-3.374222517E-1,1.969406158E-1,-8.921582997E-2
2.827840573E0,-3.651190996E-1,1.820269227E-1,-9.347688407E-2
2.830328437E0,-3.896201849E-1,1.703090221E-1,-9.560741484E-2
2.832816302E0,-4.077296555E-1,1.596563905E-1,-9.773793817E-2
2.835304167E0,-4.215780795E-1,1.521995366E-1,-9.880319983E-2
2.837792031E0,-4.279696643E-1,1.490037590E-1,-9.880319983E-2
2.840279896E0,-4.311654568E-1,1.479384899E-1,-9.986846894E-2
2.842767760E0,-4.269044101E-1,1.500690132E-1,-9.880319983E-2
2.845255625E0,-4.194475710E-1,1.532648057E-1,-9.880319983E-2
2.847743490E0,-4.066644013E-1,1.596563905E-1,-9.454214573E-2
2.850231354E0,-3.917506933E-1,1.681784987E-1,-8.921582997E-2
2.852719219E0,-3.725759685E-1,1.777658761E-1,-8.175898343E-2
2.855207083E0,-3.512706757E-1,1.884185076E-1,-7.217161357E-2
2.857695000E0,-3.299654126E-1,2.001364082E-1,-6.258423626E-2
2.860182917E0,-3.086601496E-1,2.097237855E-1,-5.406212807E-2
2.862670833E0,-2.873548567E-1,2.182458937E-1,-4.447475821E-2
2.865158750E0,-2.671148479E-1,2.246374637E-1,-3.595264629E-2
2.867646667E0,-2.468748540E-1,2.310290486E-1,-2.849580161E-2
2.870134583E0,-2.277000993E-1,2.352901101E-1,-2.316948399E-2
2.872622500E0,-2.095906287E-1,2.416816950E-1,-1.784316637E-2
2.875110417E0,-1.925463974E-1,2.470080107E-1,-1.358211134E-2
2.877598333E0,-1.755021811E-1,2.533995807E-1,-9.321057238E-3
2.880086250E0,-1.595232338E-1,2.597911656E-1,-8.255792782E-3
2.882574167E0,-1.446095407E-1,2.629869580E-1,-7.190529723E-3
2.885062083E0,-1.318263710E-1,2.661827505E-1,-7.190529723E-3
2.887550000E0,-1.179779470E-1,2.672480047E-1,-8.255792782E-3
2.890037917E0,-1.051947847E-1,2.683132887E-1,-1.038632076E-2
2.892525833E0,-9.241162241E-2,2.683132887E-1,-1.145158429E-2
2.895013750E0,-7.962846011E-2,2.693785429E-1,-1.358211134E-2
2.897501667E0,-6.364950538E-2,2.715090811E-1,-1.571263932E-2
2.899989583E0,-4.660528526E-2,2.747048736E-1,-1.677790284E-2
2.902477500E0,-2.849580161E-2,2.789659202E-1,-1.997369342E-2
2.904965417E0,-1.038632076E-2,2.821617126E-1,-2.316948399E-2
2.907453333E0,7.723161485E-3,2.853575051E-1,-2.743053809E-2
2.909941250E0,2.370211668E-2,2.864227593E-1,-3.382211924E-2
2.912429167E0,3.755054250E-2,2.853575051E-1,-4.234423116E-2
2.914917083E0,4.820318148E-2,2.821617126E-1,-5.299686641E-2
2.917405000E0,5.672528967E-2,2.779006660E-1,-6.471476704E-2
2.919892917E0,6.205160543E-2,2.715090811E-1,-7.643266767E-2
2.922380833E0,6.631266326E-2,2.629869580E-1,-8.921582997E-2
2.924868750E0,6.950845569E-2,2.533995807E-1,-9.986846894E-2
2.927356667E0,7.163897902E-2,2.459427416E-1,-1.094558388E-1
2.929844583E0,7.376950979E-2,2.395511568E-1,-1.147821546E-1
2.932332500E0,7.376950979E-2,2.352901101E-1,-1.169126853E-1
2.934820417E0,7.163897902E-2,2.331595868E-1,-1.158474237E-1
2.937308333E0,6.631266326E-2,2.342248410E-1,-1.094558388E-1
2.939796250E0,5.885581672E-2,2.384859025E-1,-9.986846894E-2
2.942284115E0,4.820318148E-2,2.448774725E-1,-8.815056831E-2
2.944771979E0,3.328948840E-2,2.544648647E-1,-7.430213690E-2
2.947259844E0,1.518000662E-2,2.640522122E-1,-5.832318589E-2
2.949747708E0,-5.060002208E-3,2.747048736E-1,-4.127896577E-2
2.952235573E0,-2.530001104E-2,2.864227593E-1,-2.423474751E-2
2.954723437E0,-4.873581231E-2,2.981406748E-1,-6.125265732E-3
2.957211302E0,-7.323687524E-2,3.098585606E-1,1.198421605E-2
2.959699167E0,-9.773793817E-2,3.215764761E-1,3.009369783E-2
2.962187031E0,-1.254348010E-1,3.311638236E-1,4.926844314E-2
2.964674896E0,-1.541969180E-1,3.386206925E-1,6.631266326E-2
2.967162760E0,-1.840242893E-1,3.407512009E-1,8.229161799E-2
2.969650625E0,-2.159821987E-1,3.386206925E-1,9.614004195E-2
2.972138490E0,-2.479401082E-1,3.322291076E-1,1.078579426E-1
2.974626354E0,-2.777675092E-1,3.237069845E-1,1.163800508E-1
2.977114219E0,-3.065296113E-1,3.151848912E-1,1.217063740E-1
2.979602083E0,-3.331612051E-1,3.077280223E-1,1.249021590E-1
2.982089948E0,-3.555317521E-1,3.002711833E-1,1.238368973E-1
2.984577812E0,-3.747064769E-1,2.960101366E-1,1.217063740E-1
2.987065677E0,-3.885549009E-1,2.938795984E-1,1.174453199E-1
2.989553542E0,-3.970770240E-1,2.949448824E-1,1.131842583E-1
2.992041406E0,-3.981422782E-1,2.992059290E-1,1.078579426E-1
2.994529271E0,-3.938812315E-1,3.055975139E-1,1.004010960E-1
2.997017135E0,-3.832286000E-1,3.130543530E-1,9.081372619E-2
2.999505000E0,-3.661843836E-1,3.215764761E-1,8.122635633E-2
3.001992865E0,-3.438138366E-1,3.311638236E-1,7.057371736E-2
3.004480729E0,-3.182475269E-1,3.428817391E-1,5.885581672E-2
3.006968594E0,-2.884201407E-1,3.535343707E-1,4.820318148E-2
3.009456458E0,-2.553969622E-1,3.641870022E-1,3.968106955E-2
3.011944323E0,-2.223737836E-1,3.759049177E-1,3.222422674E-2
3.014432187E0,-1.914811432E-1,3.876228034E-1,2.902843431E-2
3.016920052E0,-1.648495495E-1,3.972101808E-1,2.796317078E-2
3.019407917E0,-1.435442716E-1,4.057323039E-1,2.902843431E-2
3.021895781E0,-1.296958476E-1,4.110586047E-1,3.542001545E-2
3.024383646E0,-1.211737394E-1,4.110586047E-1,4.394212365E-2
3.026871510E0,-1.201084778E-1,4.067975581E-1,5.566002429E-2
3.029359375E0,-1.222390011E-1,3.982754350E-1,6.950845569E-2
3.031847240E0,-1.286305785E-1,3.865575492E-1,8.122635633E-2
3.034335104E0,-1.350221634E-1,3.727091253E-1,9.294424951E-2
3.036822969E0,-1.435442716E-1,3.609912097E-1,1.025316268E-1
3.039310833E0,-1.499358565E-1,3.524691164E-1,1.099884734E-1
3.041798698E0,-1.573926955E-1,3.471427858E-1,1.153147891E-1
3.044286562E0,-1.648495495E-1,3.482080400E-1,1.185105816E-1
3.046774427E0,-1.712411344E-1,3.545996249E-1,1.195758432E-1
3.049262292E0,-1.786979735E-1,3.652522564E-1,1.195758432E-1
3.051750156E0,-1.850895584E-1,3.801659644E-1,1.163800508E-1
3.054238021E0,-1.904158741E-1,3.961449265E-1,1.142495275E-1
3.056725885E0,-1.957421899E-1,4.142543972E-1,1.121189967E-1
3.059213750E0,-1.989379823E-1,4.302333593E-1,1.089232042E-1
3.061701615E0,-2.000032514E-1,4.451470375E-1,1.057274193E-1
3.064189479E0,-2.010685056E-1,4.589954615E-1,1.025316268E-1
3.066677344E0,-2.000032514E-1,4.685828388E-1,9.720530361E-2
3.069165208E0,-1.989379823E-1,4.781702161E-1,9.187898785E-2
3.071653073E0,-2.000032514E-1,4.824312627E-1,8.442214131E-2
3.074140937E0,-2.021337748E-1,4.845618010E-1,7.590003312E-2
3.076628802E0,-2.074600905E-1,4.824312627E-1,6.524740160E-2
3.079116667E0,-2.138516754E-1,4.792354703E-1,5.459476262E-2
3.081604531E0,-2.234390527E-1,4.728438854E-1,4.500738904E-2
3.084092396E0,-2.362222075E-1,4.643217921E-1,3.648528084E-2
3.086580260E0,-2.500706315E-1,4.526038766E-1,2.796317078E-2
3.089068177E0,-2.660495937E-1,4.398207366E-1,2.050632425E-2
3.091556094E0,-2.830938101E-1,4.259723127E-1,1.304947957E-2
3.094044010E0,-3.012032807E-1,4.121238589E-1,6.657897960E-3
3.096531927E0,-3.161169887E-1,3.982754350E-1,2.396843163E-3
3.099019844E0,-3.310306668E-1,3.876228034E-1,-7.989477599E-4
3.101507760E0,-3.416832983E-1,3.801659644E-1,-1.864211401E-3
3.103995677E0,-3.491401672E-1,3.759049177E-1,-1.864211401E-3
3.106483594E0,-3.534012139E-1,3.748396337E-1,1.331579522E-3
3.108971510E0,-3.523359597E-1,3.759049177E-1,5.592633970E-3
3.111459427E0,-3.470096290E-1,3.791007102E-1,1.198421605E-2
3.113947344E0,-3.352917433E-1,3.801659644E-1,1.837579720E-2
3.116435260E0,-3.214432895E-1,3.822965026E-1,2.476738021E-2
3.118923177E0,-3.033338189E-1,3.812312186E-1,3.222422674E-2
3.121411094E0,-2.820285559E-1,3.791007102E-1,3.861580789E-2
3.123899010E0,-2.585927546E-1,3.759049177E-1,4.394212365E-2
3.126386927E0,-2.340916842E-1,3.716438413E-1,4.926844314E-2
3.128874844E0,-2.063948363E-1,3.673827946E-1,5.246423557E-2
3.131362760E0,-1.786979735E-1,3.641870022E-1,5.459476262E-2
3.133850677E0,-1.520663798E-1,3.620564938E-1,5.779055133E-2
3.136338594E0,-1.265000552E-1,3.609912097E-1,5.779055133E-2
3.138826510E0,-1.019989923E-1,3.620564938E-1,5.779055133E-2
3.141314375E0,-8.069372177E-2,3.652522564E-1,5.672528967E-2
3.143802240E0,-6.364950538E-2,3.663175404E-1,5.459476262E-2
3.146290104E0,-4.873581231E-2,3.695133328E-1,5.139897019E-2
3.148777969E0,-3.701791167E-2,3.705785871E-1,4.926844314E-2
3.151265833E0,-2.743053809E-2,3.716438413E-1,4.500738904E-2
3.153753698E0,-2.103895694E-2,3.705785871E-1,4.074633494E-2
3.156241562E0,-1.677790284E-2,3.684480488E-1,3.648528084E-2
3.158729427E0,-1.464737486E-2,3.652522564E-1,3.328948840E-2
3.161217292E0,-1.571263932E-2,3.609912097E-1,2.902843431E-2
3.163705156E0,-2.103895694E-2,3.535343707E-1,2.370211668E-2
3.166193021E0,-3.062633052E-2,3.460775316E-1,1.837579720E-2
3.168680885E0,-4.660528526E-2,3.375554085E-1,1.304947957E-2
3.171168750E0,-6.578002870E-2,3.269027770E-1,7.723161485E-3
3.173656615E0,-9.028109163E-2,3.162501454E-1,2.396843163E-3
3.176144479E0,-1.169126853E-1,3.055975139E-1,-1.864211401E-3
3.178632344E0,-1.456748098E-1,2.960101366E-1,-5.060002208E-3
3.181120208E0,-1.755021811E-1,2.864227593E-1,-7.190529723E-3
3.183608073E0,-2.074600905E-1,2.779006660E-1,-7.190529723E-3
3.186095937E0,-2.372874767E-1,2.715090811E-1,-6.125265732E-3
3.188583802E0,-2.681801319E-1,2.672480047E-1,-2.929474926E-3
3.191071667E0,-2.958769798E-1,2.672480047E-1,1.331579522E-3
3.193559531E0,-3.193127811E-1,2.683132887E-1,7.723161485E-3
3.196047396E0,-3.406180441E-1,2.736395895E-1,1.411474310E-2
3.198535260E0,-3.555317521E-1,2.800311744E-1,2.050632425E-2
3.201023125E0,-3.661843836E-1,2.874880135E-1,2.583264373E-2
3.203510990E0,-3.715106845E-1,2.970753908E-1,2.902843431E-2
3.205998854E0,-3.704454303E-1,3.077280223E-1,3.009369783E-2
3.208486719E0,-3.661843836E-1,3.205111921E-1,3.115896136E-2
3.210974583E0,-3.544664681E-1,3.354249001E-1,3.009369783E-2
3.213462448E0,-3.395527899E-1,3.524691164E-1,3.009369783E-2
3.215950312E0,-3.203780353E-1,3.695133328E-1,2.796317078E-2
3.218438177E0,-2.969422340E-1,3.886880577E-1,2.689790726E-2
3.220926042E0,-2.703106403E-1,4.089280665E-1,2.370211668E-2
3.223413906E0,-2.404832691E-1,4.281028211E-1,2.050632425E-2
3.225901771E0,-2.095906287E-1,4.451470375E-1,1.518000662E-2
3.228389635E0,-1.776327193E-1,4.600607455E-1,8.788425475E-3
3.230877500E0,-1.467400640E-1,4.739091694E-1,1.331579522E-3
3.233365365E0,-1.179779470E-1,4.866923392E-1,-6.125265732E-3
3.235853229E0,-9.241162241E-2,4.994754791E-1,-1.251684781E-2
3.238341094E0,-7.110634446E-2,5.133239031E-1,-1.464737486E-2
3.240828958E0,-5.406212807E-2,5.282375813E-1,-1.677790284E-2
3.243316823E0,-4.234423116E-2,5.410207510E-1,-1.677790284E-2
3.245804687E0,-3.701791167E-2,5.538039207E-1,-1.358211134E-2
3.248292552E0,-3.595264629E-2,5.655218363E-1,-9.321057238E-3
3.250780417E0,-4.021370411E-2,5.751091838E-1,-3.994738683E-3
3.253268281E0,-4.873581231E-2,5.815007687E-1,3.462106921E-3
3.255756146E0,-6.045371294E-2,5.846965909E-1,1.198421605E-2
3.258244010E0,-7.643266767E-2,5.857618451E-1,2.050632425E-2
3.260731875E0,-9.560741484E-2,5.857618451E-1,3.115896136E-2
3.263219740E0,-1.158474237E-1,5.825660825E-1,4.074633494E-2
3.265707604E0,-1.403484792E-1,5.793702602E-1,5.033370852E-2
3.268195469E0,-1.648495495E-1,5.740439296E-1,6.098634377E-2
3.270683333E0,-1.904158741E-1,5.687175989E-1,7.270424068E-2
3.273171198E0,-2.149169445E-1,5.644565821E-1,8.229161799E-2
3.275659062E0,-2.383527458E-1,5.591302514E-1,9.400951862E-2
3.278146927E0,-2.596580088E-1,5.548691750E-1,1.035968885E-1
3.280634792E0,-2.788327634E-1,5.506081581E-1,1.110537350E-1
3.283122656E0,-2.948117256E-1,5.452818274E-1,1.174453199E-1
3.285610521E0,-3.075948656E-1,5.410207510E-1,1.227716357E-1
3.288098385E0,-3.161169887E-1,5.378249884E-1,1.291632205E-1
3.290586250E0,-3.225085735E-1,5.367597342E-1,1.323590130E-1
3.293074115E0,-3.246390820E-1,5.356944799E-1,1.376853287E-1
3.295561979E0,-3.225085735E-1,5.356944799E-1,1.398158520E-1
3.298049844E0,-3.171822429E-1,5.388902426E-1,1.430116445E-1
3.300537708E0,-3.097254038E-1,5.431513190E-1,1.462074369E-1
3.303025573E0,-3.022685647E-1,5.474123359E-1,1.483379602E-1
3.305513437E0,-2.926811874E-1,5.538039207E-1,1.515337527E-1
3.308001302E0,-2.809632719E-1,5.591302514E-1,1.536642760E-1
3.310489167E0,-2.692453861E-1,5.665870905E-1,1.568600684E-1
3.312977031E0,-2.564622164E-1,5.740439296E-1,1.600558609E-1
3.315464896E0,-2.447443157E-1,5.804355145E-1,1.611211300E-1
3.317952760E0,-2.319611609E-1,5.889576077E-1,1.632516533E-1
3.320440625E0,-2.223737836E-1,5.985450149E-1,1.653821766E-1
3.322928490E0,-2.149169445E-1,6.091976166E-1,1.675127149E-1
3.325416354E0,-2.095906287E-1,6.198502779E-1,1.707084924E-1
3.327904219E0,-2.085253596E-1,6.305029392E-1,1.739042848E-1
3.330392083E0,-2.095906287E-1,6.400902867E-1,1.749695539E-1
3.332879948E0,-2.127864063E-1,6.486123800E-1,1.760348231E-1
3.335367812E0,-2.202432603E-1,6.571345329E-1,1.771000773E-1
3.337855677E0,-2.287653685E-1,6.635261178E-1,1.749695539E-1
3.340343542E0,-2.372874767E-1,6.677871346E-1,1.728390306E-1
3.342831406E0,-2.479401082E-1,6.677871346E-1,1.675127149E-1
3.345319271E0,-2.596580088E-1,6.656566262E-1,1.600558609E-1
3.347807135E0,-2.703106403E-1,6.603302956E-1,1.525990218E-1
3.350295000E0,-2.820285559E-1,6.539387107E-1,1.430116445E-1
3.352782865E0,-2.937464416E-1,6.432861090E-1,1.344895363E-1
3.355270729E0,-3.054643571E-1,6.336987019E-1,1.249021590E-1
3.357758594E0,-3.161169887E-1,6.241113544E-1,1.153147891E-1
3.360246510E0,-3.246390820E-1,6.155892015E-1,1.067926809E-1
3.362734427E0,-3.310306668E-1,6.081323624E-1,9.720530361E-2
3.365222344E0,-3.352917433E-1,6.028060913E-1,8.761793375E-2
3.367710260E0,-3.384875357E-1,5.985450149E-1,7.696529478E-2
3.370198177E0,-3.395527899E-1,5.942839384E-1,6.631266326E-2
3.372686094E0,-3.395527899E-1,5.900229216E-1,5.459476262E-2
3.375174010E0,-3.374222517E-1,5.857618451E-1,4.287686199E-2
3.377661927E0,-3.320959508E-1,5.793702602E-1,3.115896136E-2
3.380149844E0,-3.267696202E-1,5.740439296E-1,2.050632425E-2
3.382637760E0,-3.193127811E-1,5.665870905E-1,9.853689000E-3
3.385125677E0,-3.097254038E-1,5.612607598E-1,-7.989477599E-4
3.387613594E0,-2.990727723E-1,5.569997430E-1,-1.038632076E-2
3.390101510E0,-2.873548567E-1,5.548691750E-1,-2.103895694E-2
3.392589427E0,-2.735064328E-1,5.527386665E-1,-3.169159219E-2
3.395077344E0,-2.607232630E-1,5.516734123E-1,-4.127896577E-2
3.397565260E0,-2.458095849E-1,5.516734123E-1,-5.193160102E-2
3.400053177E0,-2.308958918E-1,5.527386665E-1,-6.258423626E-2
3.402541094E0,-2.170474678E-1,5.538039207E-1,-7.110634446E-2
3.405029010E0,-2.021337748E-1,5.569997430E-1,-7.856319100E-2
3.407516927E0,-1.882853508E-1,5.612607598E-1,-8.388951421E-2
3.410004844E0,-1.755021811E-1,5.665870905E-1,-8.708529919E-2
3.412492760E0,-1.627190262E-1,5.729786754E-1,-8.815056831E-2
3.414980677E0,-1.520663798E-1,5.804355145E-1,-8.708529919E-2
3.417468594E0,-1.435442716E-1,5.878923535E-1,-8.495477587E-2
3.419956510E0,-1.371526867E-1,5.932186842E-1,-8.282424510E-2
3.422444427E0,-1.339569092E-1,5.985450149E-1,-8.069372177E-2
3.424932344E0,-1.328916401E-1,6.006755233E-1,-7.962846011E-2
3.427420260E0,-1.350221634E-1,6.017407775E-1,-8.069372177E-2
3.429908177E0,-1.403484792E-1,5.996102691E-1,-8.388951421E-2
3.432396094E0,-1.478053331E-1,5.964145064E-1,-8.921582997E-2
3.434884010E0,-1.573926955E-1,5.910881758E-1,-9.560741484E-2
3.437371927E0,-1.680453420E-1,5.846965909E-1,-1.030642539E-1
3.439859844E0,-1.808284968E-1,5.793702602E-1,-1.105211005E-1
3.442347760E0,-1.946769357E-1,5.729786754E-1,-1.190432087E-1
3.444835625E0,-2.095906287E-1,5.665870905E-1,-1.265000552E-1
3.447323490E0,-2.234390527E-1,5.612607598E-1,-1.328916401E-1
3.449811354E0,-2.362222075E-1,5.548691750E-1,-1.382179558E-1
3.452299219E0,-2.500706315E-1,5.495429039E-1,-1.424790174E-1
3.454787083E0,-2.607232630E-1,5.452818274E-1,-1.467400640E-1
3.457274948E0,-2.703106403E-1,5.410207510E-1,-1.488705873E-1
3.459762812E0,-2.777675092E-1,5.378249884E-1,-1.499358565E-1
3.462250677E0,-2.830938101E-1,5.346291661E-1,-1.499358565E-1
3.464738542E0,-2.862896025E-1,5.303681493E-1,-1.499358565E-1
3.467226406E0,-2.873548567E-1,5.261070728E-1,-1.499358565E-1
3.469714271E0,-2.873548567E-1,5.229113102E-1,-1.488705873E-1
3.472202135E0,-2.841590643E-1,5.186502337E-1,-1.467400640E-1
3.474690000E0,-2.798980176E-1,5.133239031E-1,-1.456748098E-1
3.477177865E0,-2.745717168E-1,5.069323182E-1,-1.456748098E-1
3.479665729E0,-2.671148479E-1,4.984102249E-1,-1.446095407E-1
3.482153594E0,-2.585927546E-1,4.909533858E-1,-1.435442716E-1
3.484641458E0,-2.479401082E-1,4.824312627E-1,-1.435442716E-1
3.487129323E0,-2.372874767E-1,4.739091694E-1,-1.435442716E-1
3.489617187E0,-2.245043069E-1,4.675175846E-1,-1.446095407E-1
3.492105052E0,-2.117211521E-1,4.621912539E-1,-1.446095407E-1
3.494592917E0,-1.989379823E-1,4.589954615E-1,-1.456748098E-1
3.497080781E0,-1.850895584E-1,4.579302073E-1,-1.456748098E-1
3.499568646E0,-1.712411344E-1,4.579302073E-1,-1.467400640E-1
3.502056510E0,-1.573926955E-1,4.589954615E-1,-1.456748098E-1
3.504544375E0,-1.446095407E-1,4.611259997E-1,-1.424790174E-1
3.507032240E0,-1.318263710E-1,4.632565379E-1,-1.371526867E-1
3.509520104E0,-1.222390011E-1,4.643217921E-1,-1.296958476E-1
3.512007969E0,-1.115863696E-1,4.632565379E-1,-1.201084778E-1
3.514495833E0,-1.041295230E-1,4.600607455E-1,-1.105211005E-1
3.516983698E0,-9.667267650E-2,4.536691606E-1,-1.009337306E-1
3.519471562E0,-9.028109163E-2,4.462123215E-1,-9.134636074E-2
3.521959427E0,-8.602003753E-2,4.355596602E-1,-8.495477587E-2
3.524447292E0,-8.282424510E-2,4.227765203E-1,-7.856319100E-2
3.526935156E0,-8.069372177E-2,4.089280665E-1,-7.430213690E-2
3.529423021E0,-8.282424510E-2,3.940143883E-1,-7.217161357E-2
3.531910885E0,-8.708529919E-2,3.791007102E-1,-7.217161357E-2
3.534398750E0,-9.241162241E-2,3.631217480E-1,-7.430213690E-2
3.536886615E0,-9.986846894E-2,3.471427858E-1,-7.856319100E-2
3.539374479E0,-1.094558388E-1,3.311638236E-1,-8.282424510E-2
3.541862344E0,-1.201084778E-1,3.162501454E-1,-8.815056831E-2
3.544350208E0,-1.328916401E-1,3.024017215E-1,-9.347688407E-2
3.546838073E0,-1.467400640E-1,2.906838059E-1,-9.773793817E-2
3.549325937E0,-1.605884880E-1,2.810964286E-1,-1.009337306E-1
3.551813802E0,-1.755021811E-1,2.725743353E-1,-1.019989923E-1
3.554301667E0,-1.904158741E-1,2.640522122E-1,-1.030642539E-1
3.556789531E0,-2.053295672E-1,2.565953732E-1,-1.030642539E-1
3.559277396E0,-2.202432603E-1,2.491385341E-1,-1.041295230E-1
3.561765260E0,-2.351569533E-1,2.427469492E-1,-1.041295230E-1
3.564253125E0,-2.479401082E-1,2.363553643E-1,-1.041295230E-1
3.566740990E0,-2.585927546E-1,2.310290486E-1,-1.051947847E-1
3.569228854E0,-2.671148479E-1,2.246374637E-1,-1.062600464E-1
3.571716719E0,-2.735064328E-1,2.214416862E-1,-1.062600464E-1
3.574204583E0,-2.777675092E-1,2.182458937E-1,-1.062600464E-1
3.576692448E0,-2.798980176E-1,2.150501013E-1,-1.041295230E-1
3.579180312E0,-2.809632719E-1,2.129195631E-1,-1.009337306E-1
3.581668177E0,-2.820285559E-1,2.097237855E-1,-9.667267650E-2
3.584156042E0,-2.798980176E-1,2.054627240E-1,-9.241162241E-2
3.586643906E0,-2.767022252E-1,2.001364082E-1,-8.602003753E-2
3.589131771E0,-2.735064328E-1,1.937448233E-1,-7.962846011E-2
3.591619635E0,-2.681801319E-1,1.862879843E-1,-7.217161357E-2
3.594107500E0,-2.628538013E-1,1.788311303E-1,-6.578002870E-2
3.596595365E0,-2.564622164E-1,1.735048145E-1,-5.725792050E-2
3.599083229E0,-2.490053773E-1,1.692437679E-1,-4.873581231E-2
3.601571094E0,-2.415485233E-1,1.649827063E-1,-4.234423116E-2
3.604058958E0,-2.330264151E-1,1.628521830E-1,-3.701791167E-2
3.606546823E0,-2.245043069E-1,1.596563905E-1,-3.275685757E-2
3.609034687E0,-2.159821987E-1,1.575258672E-1,-3.062633052E-2
3.611522552E0,-2.074600905E-1,1.543300748E-1,-2.849580161E-2
3.614010417E0,-1.989379823E-1,1.511342824E-1,-2.849580161E-2
3.616498281E0,-1.893506050E-1,1.468732208E-1,-2.849580161E-2
3.618986146E0,-1.797632426E-1,1.404816359E-1,-2.849580161E-2
3.621474010E0,-1.712411344E-1,1.340900660E-1,-3.062633052E-2
3.623961875E0,-1.627190262E-1,1.255679578E-1,-3.169159219E-2
3.626449740E0,-1.541969180E-1,1.159805804E-1,-3.488738462E-2
3.628937604E0,-1.467400640E-1,1.053279415E-1,-3.808317333E-2
3.631425469E0,-1.392832249E-1,9.467530251E-2,-4.127896577E-2
3.633913333E0,-1.328916401E-1,8.508793265E-2,-4.447475821E-2
3.636401198E0,-1.265000552E-1,7.656582445E-2,-4.767054692E-2
3.638889062E0,-1.190432087E-1,7.017423958E-2,-5.193160102E-2
3.641376927E0,-1.126516312E-1,6.591318548E-2,-5.512739345E-2
3.643864792E0,-1.041295230E-1,6.484792382E-2,-5.832318589E-2
3.646352708E0,-9.667267650E-2,6.484792382E-2,-6.045371294E-2
3.648840625E0,-8.921582997E-2,6.697845459E-2,-6.151897460E-2
3.651328542E0,-8.175898343E-2,7.123950869E-2,-6.258423626E-2
3.653816458E0,-7.643266767E-2,7.443529367E-2,-6.258423626E-2
3.656304375E0,-7.110634446E-2,7.869634777E-2,-6.258423626E-2
3.658792292E0,-6.791055948E-2,8.082687855E-2,-6.258423626E-2
3.661280208E0,-6.578002870E-2,8.402267098E-2,-6.151897460E-2
3.663768125E0,-6.684529036E-2,8.721846342E-2,-5.832318589E-2
3.666256042E0,-6.791055948E-2,9.041424841E-2,-5.512739345E-2
3.668744375E0,-7.217161357E-2,9.254477918E-2,-4.873581231E-2
3.671232708E0,-7.856319100E-2,9.361004084E-2,-4.234423116E-2
3.673720625E0,-8.815056831E-2,9.254477918E-2,-3.488738462E-2
3.676208490E0,-9.880319983E-2,9.147951752E-2,-2.743053809E-2
3.678696354E0,-1.115863696E-1,8.721846342E-2,-1.890842989E-2
3.681184219E0,-1.265000552E-1,8.402267098E-2,-1.145158429E-2
3.683672083E0,-1.403484792E-1,8.082687855E-2,-1.864211401E-3
3.686159948E0,-1.520663798E-1,7.763108611E-2,6.657897960E-3
3.688647812E0,-1.648495495E-1,7.656582445E-2,1.624527015E-2
3.691135677E0,-1.755021811E-1,7.763108611E-2,2.583264373E-2
3.693623542E0,-1.850895584E-1,7.976161689E-2,3.542001545E-2
3.696111406E0,-1.936116666E-1,8.295740932E-2,4.500738904E-2
3.698599271E0,-2.010685056E-1,8.721846342E-2,5.352949724E-2
3.701087135E0,-2.063948363E-1,9.254477918E-2,6.311687082E-2
3.703575000E0,-2.117211521E-1,9.574057162E-2,7.163897902E-2
3.706062865E0,-2.159821987E-1,9.787109494E-2,7.909582555E-2
3.708550729E0,-2.191779912E-1,9.893636405E-2,8.548741043E-2
3.711038594E0,-2.223737836E-1,9.787109494E-2,9.081372619E-2
3.713526458E0,-2.234390527E-1,9.361004084E-2,9.294424951E-2
3.716014323E0,-2.255695760E-1,8.828372508E-2,9.400951862E-2
3.718502187E0,-2.277000993E-1,8.082687855E-2,9.081372619E-2
3.720990052E0,-2.287653685E-1,7.337003201E-2,8.548741043E-2
3.723477917E0,-2.287653685E-1,6.484792382E-2,7.909582555E-2
3.725965781E0,-2.287653685E-1,5.845634267E-2,7.163897902E-2
3.728453646E0,-2.266348451E-1,5.206476152E-2,6.205160543E-2
3.730941510E0,-2.234390527E-1,4.780370742E-2,5.246423557E-2
3.733429375E0,-2.181127369E-1,4.567318037E-2,4.394212365E-2
3.735917240E0,-2.117211521E-1,4.354264960E-2,3.222422674E-2
3.738405104E0,-2.031990439E-1,4.141212255E-2,2.050632425E-2
3.740892969E0,-1.914811432E-1,4.141212255E-2,9.853689000E-3
3.743380833E0,-1.797632426E-1,4.034686089E-2,-1.864211401E-3
3.745868698E0,-1.669800729E-1,4.141212255E-2,-1.251684781E-2
3.748356562E0,-1.531316489E-1,4.247738793E-2,-2.316948399E-2
3.750844427E0,-1.392832249E-1,4.460791498E-2,-3.275685757E-2
3.753332292E0,-1.243695319E-1,4.886896908E-2,-4.127896577E-2
3.755820156E0,-1.105211005E-1,5.313002318E-2,-4.873581231E-2
3.758308021E0,-9.773793817E-2,5.526055023E-2,-5.619265884E-2
3.760795885E0,-8.495477587E-2,5.845634267E-2,-6.258423626E-2
3.763283750E0,-7.323687524E-2,6.165213138E-2,-6.791055948E-2
3.765771615E0,-6.151897460E-2,6.271740049E-2,-7.217161357E-2
3.768259479E0,-5.193160102E-2,6.378266215E-2,-7.643266767E-2
3.770747344E0,-4.340949282E-2,6.378266215E-2,-7.962846011E-2
3.773235208E0,-3.488738462E-2,6.484792382E-2,-8.069372177E-2
3.775723073E0,-2.636527456E-2,6.378266215E-2,-8.069372177E-2
3.778210937E0,-1.784316637E-2,6.271740049E-2,-8.069372177E-2
3.780698802E0,-9.321057238E-3,6.165213138E-2,-7.962846011E-2
3.783186667E0,-7.989477599E-4,5.952160433E-2,-7.856319100E-2
3.785674531E0,7.723161485E-3,5.845634267E-2,-7.749792933E-2
3.788162396E0,1.731053367E-2,5.632581562E-2,-7.536740601E-2
3.790650260E0,2.796317078E-2,5.526055023E-2,-7.430213690E-2
3.793138125E0,3.861580789E-2,5.313002318E-2,-7.217161357E-2
3.795625990E0,5.033370852E-2,4.993423447E-2,-7.004108280E-2
3.798113854E0,6.205160543E-2,4.567318037E-2,-6.791055948E-2
3.800601719E0,7.376950979E-2,4.141212255E-2,-6.684529036E-2
3.803089583E0,8.442214131E-2,3.715106845E-2,-6.364950538E-2
3.805577448E0,9.400951862E-2,3.395527974E-2,-6.045371294E-2
3.808065312E0,1.025316268E-1,3.182475269E-2,-5.619265884E-2
3.810553177E0,1.110537350E-1,3.289001435E-2,-4.980107397E-2
3.813041042E0,1.174453199E-1,3.608580679E-2,-4.340949282E-2
3.815528906E0,1.238368973E-1,4.247738793E-2,-3.701791167E-2
3.818016771E0,1.280979514E-1,5.206476152E-2,-2.956106514E-2
3.820504635E0,1.302284747E-1,6.165213138E-2,-2.210422046E-2
3.822992500E0,1.302284747E-1,7.123950869E-2,-1.464737486E-2
3.825480365E0,1.302284747E-1,8.189214021E-2,-8.255792782E-3
3.827968229E0,1.270326823E-1,9.147951752E-2,-1.864211401E-3
3.830456094E0,1.206411049E-1,1.021321490E-1,2.396843163E-3
3.832943958E0,1.131842583E-1,1.106542572E-1,5.592633970E-3
3.835431823E0,1.046621501E-1,1.181111038E-1,7.723161485E-3
3.837919687E0,9.294424951E-2,1.245026886E-1,6.657897960E-3
3.840407552E0,8.122635633E-2,1.276984811E-1,5.592633970E-3
3.842895417E0,6.631266326E-2,1.287637353E-1,2.396843163E-3
3.845383281E0,5.139897019E-2,1.287637353E-1,-1.864211401E-3
3.847871146E0,3.648528084E-2,1.276984811E-1,-6.125265732E-3
3.850359010E0,2.050632425E-2,1.245026886E-1,-9.321057238E-3
3.852846875E0,4.527370445E-3,1.223721579E-1,-1.251684781E-2
3.855334740E0,-1.145158429E-2,1.191763729E-1,-1.464737486E-2
3.857822604E0,-2.743053809E-2,1.149153188E-1,-1.571263932E-2
3.860310469E0,-4.127896577E-2,1.106542572E-1,-1.571263932E-2
3.862798333E0,-5.406212807E-2,1.063932031E-1,-1.358211134E-2
3.865286198E0,-6.578002870E-2,1.031974182E-1,-1.145158429E-2
3.867774062E0,-7.643266767E-2,9.893636405E-2,-8.255792782E-3
3.870261979E0,-8.708529919E-2,9.574057162E-2,-5.060002208E-3
3.872749896E0,-9.560741484E-2,9.254477918E-2,-1.864211401E-3
3.875237812E0,-1.041295230E-1,9.041424841E-2,2.663159103E-4
3.877725729E0,-1.115863696E-1,8.934898674E-2,4.527370445E-3
3.880213646E0,-1.190432087E-1,8.828372508E-2,6.657897960E-3
3.882701562E0,-1.254348010E-1,8.721846342E-2,9.853689000E-3
3.885189479E0,-1.307611167E-1,8.615319431E-2,9.853689000E-3
3.887677396E0,-1.360874325E-1,8.402267098E-2,9.853689000E-3
3.890165312E0,-1.403484792E-1,8.189214021E-2,7.723161485E-3
3.892653229E0,-1.446095407E-1,7.976161689E-2,3.462106921E-3
3.895141146E0,-1.467400640E-1,7.656582445E-2,-1.864211401E-3
3.897629062E0,-1.467400640E-1,7.123950869E-2,-9.321057238E-3
3.900116979E0,-1.467400640E-1,6.591318548E-2,-1.784316637E-2
3.902604896E0,-1.446095407E-1,6.058686972E-2,-2.849580161E-2
3.905092812E0,-1.414137483E-1,5.526055023E-2,-3.914843872E-2
3.907580729E0,-1.371526867E-1,5.099949613E-2,-5.193160102E-2
3.910068646E0,-1.318263710E-1,4.673844203E-2,-6.471476704E-2
3.912556562E0,-1.233042628E-1,4.567318037E-2,-7.643266767E-2
3.915044479E0,-1.147821546E-1,4.673844203E-2,-8.602003753E-2
3.917532396E0,-1.041295230E-1,4.993423447E-2,-9.560741484E-2
3.920020312E0,-9.454214573E-2,5.632581562E-2,-1.030642539E-1
3.922508229E0,-8.282424510E-2,6.271740049E-2,-1.094558388E-1
3.924996146E0,-7.217161357E-2,7.017423958E-2,-1.147821546E-1
3.927484062E0,-6.151897460E-2,7.763108611E-2,-1.190432087E-1
3.929971979E0,-5.086633936E-2,8.508793265E-2,-1.190432087E-1
3.932459896E0,-4.021370411E-2,9.361004084E-2,-1.179779470E-1
3.934947812E0,-3.275685757E-2,1.021321490E-1,-1.147821546E-1
3.937435729E0,-2.743053809E-2,1.117195264E-1,-1.073253155E-1
3.939923646E0,-2.316948399E-2,1.202416345E-1,-9.986846894E-2
3.942411562E0,-2.210422046E-2,1.287637353E-1,-8.921582997E-2
3.944899479E0,-2.316948399E-2,1.362205893E-1,-7.962846011E-2
3.947387396E0,-2.743053809E-2,1.426121742E-1,-6.791055948E-2
3.949875312E0,-3.382211924E-2,1.468732208E-1,-5.725792050E-2
3.952363229E0,-4.340949282E-2,1.500690132E-1,-4.660528526E-2
3.954851146E0,-5.512739345E-2,1.500690132E-1,-3.595264629E-2
3.957339062E0,-6.897582114E-2,1.500690132E-1,-2.530001104E-2
3.959826927E0,-8.388951421E-2,1.479384899E-1,-1.677790284E-2
3.962314792E0,-9.986846894E-2,1.436774284E-1,-8.255792782E-3
3.964802656E0,-1.147821546E-1,1.372858584E-1,-1.864211401E-3
3.967290521E0,-1.318263710E-1,1.298290044E-1,4.527370445E-3
3.969778385E0,-1.467400640E-1,1.223721579E-1,9.853689000E-3
3.972266250E0,-1.595232338E-1,1.138500497E-1,1.411474310E-2
3.974754115E0,-1.701758653E-1,1.063932031E-1,1.518000662E-2
3.977241979E0,-1.776327193E-1,1.010668874E-1,1.731053367E-2
3.979729844E0,-1.818937659E-1,9.680583328E-2,1.837579720E-2
3.982217708E0,-1.829590350E-1,9.574057162E-2,1.944106072E-2
3.984705573E0,-1.797632426E-1,9.680583328E-2,2.050632425E-2
3.987193437E0,-1.723063886E-1,1.000016257E-1,2.157158963E-2
3.989681302E0,-1.627190262E-1,1.042626798E-1,2.370211668E-2
3.992169167E0,-1.499358565E-1,1.095889956E-1,2.476738021E-2
3.994657031E0,-1.350221634E-1,1.138500497E-1,2.476738021E-2
3.997144896E0,-1.190432087E-1,1.191763729E-1,2.476738021E-2
3.999632760E0,-1.009337306E-1,1.245026886E-1,2.583264373E-2
4.002120625E0,-8.282424510E-2,1.276984811E-1,2.902843431E-2
4.004608490E0,-6.471476704E-2,1.308942735E-1,3.222422674E-2
4.007096354E0,-4.873581231E-2,1.330247968E-1,3.648528084E-2
4.009584219E0,-3.382211924E-2,1.340900660E-1,4.181159660E-2
4.012072083E0,-2.210422046E-2,1.351553202E-1,4.713791609E-2
4.014559948E0,-1.251684781E-2,1.351553202E-1,5.352949724E-2
4.017047812E0,-6.125265732E-3,1.351553202E-1,5.992107838E-2
4.019535677E0,-2.929474926E-3,1.330247968E-1,6.524740160E-2
4.022023542E0,-2.929474926E-3,1.298290044E-1,7.057371736E-2
4.024511406E0,-7.190529723E-3,1.255679578E-1,7.590003312E-2
4.026999271E0,-1.571263932E-2,1.191763729E-1,7.909582555E-2
4.029487135E0,-2.636527456E-2,1.127847880E-1,8.122635633E-2
4.031975000E0,-3.914843872E-2,1.042626798E-1,8.335687965E-2
4.034462865E0,-5.299686641E-2,9.467530251E-2,8.548741043E-2
4.036950729E0,-6.684529036E-2,8.508793265E-2,8.548741043E-2
4.039438594E0,-8.069372177E-2,7.550056279E-2,8.655267209E-2
4.041926458E0,-9.347688407E-2,6.591318548E-2,8.548741043E-2
4.044414323E0,-1.051947847E-1,5.632581562E-2,8.442214131E-2
4.046902187E0,-1.137168929E-1,4.780370742E-2,8.122635633E-2
4.049390052E0,-1.201084778E-1,4.034686089E-2,7.803056389E-2
4.051877917E0,-1.243695319E-1,3.395527974E-2,7.270424068E-2
4.054365781E0,-1.254348010E-1,2.969422378E-2,6.737792492E-2
4.056853646E0,-1.222390011E-1,2.756369673E-2,6.098634377E-2
4.059341510E0,-1.179779470E-1,2.543316968E-2,5.246423557E-2
4.061829375E0,-1.115863696E-1,2.436790615E-2,4.394212365E-2
4.064317240E0,-1.030642539E-1,2.436790615E-2,3.542001545E-2
4.066805104E0,-9.347688407E-2,2.436790615E-2,2.796317078E-2
4.069292969E0,-8.388951421E-2,2.436790615E-2,2.157158963E-2
4.071780833E0,-7.323687524E-2,2.543316968E-2,1.624527015E-2
4.074268698E0,-6.151897460E-2,2.649843320E-2,1.304947957E-2
4.076756562E0,-5.086633936E-2,2.862896025E-2,1.091895252E-2
4.079244427E0,-3.914843872E-2,3.182475269E-2,9.853689000E-3
4.081732292E0,-2.743053809E-2,3.395527974E-2,8.788425475E-3
4.084220156E0,-1.784316637E-2,3.608580679E-2,8.788425475E-3
4.086708021E0,-8.255792782E-3,3.928159550E-2,7.723161485E-3
4.089195885E0,2.663159103E-4,4.141212255E-2,7.723161485E-3
4.091683750E0,7.723161485E-3,4.247738793E-2,6.657897960E-3
4.094171615E0,1.198421605E-2,4.460791498E-2,5.592633970E-3
4.096659479E0,1.518000662E-2,4.567318037E-2,3.462106921E-3
4.099147344E0,1.624527015E-2,4.567318037E-2,1.331579522E-3
4.101635208E0,1.518000662E-2,4.460791498E-2,-1.864211401E-3
4.104123073E0,1.198421605E-2,4.247738793E-2,-6.125265732E-3
4.106610937E0,5.592633970E-3,3.821633384E-2,-1.145158429E-2
4.109098802E0,-1.864211401E-3,3.395527974E-2,-1.677790284E-2
4.111586667E0,-1.038632076E-2,2.756369673E-2,-2.103895694E-2
4.114074531E0,-1.997369342E-2,2.117211558E-2,-2.530001104E-2
4.116562396E0,-3.062633052E-2,1.478053257E-2,-2.849580161E-2
4.119050260E0,-4.127896577E-2,8.388951421E-3,-3.275685757E-2
4.121538125E0,-5.299686641E-2,1.997369342E-3,-3.488738462E-2
4.124025990E0,-6.364950538E-2,-2.263685223E-3,-3.595264629E-2
4.126513854E0,-7.323687524E-2,-4.394212738E-3,-3.701791167E-2
4.129001979E0,-8.282424510E-2,-7.590003312E-3,-3.808317333E-2
4.131490104E0,-9.241162241E-2,-1.185105834E-2,-4.021370411E-2
4.133978229E0,-9.986846894E-2,-1.504684892E-2,-4.340949282E-2
4.136466354E0,-1.073253155E-1,-1.930790395E-2,-4.767054692E-2
4.138954427E0,-1.126516312E-1,-2.250369452E-2,-5.299686641E-2
4.141442292E0,-1.169126853E-1,-2.463422157E-2,-5.832318589E-2
4.143930156E0,-1.179779470E-1,-2.569948509E-2,-6.364950538E-2
4.146418021E0,-1.190432087E-1,-2.463422157E-2,-6.897582114E-2
4.148905885E0,-1.190432087E-1,-2.356895804E-2,-7.323687524E-2
4.151393750E0,-1.169126853E-1,-2.143843099E-2,-7.536740601E-2
4.153881615E0,-1.137168929E-1,-1.824264042E-2,-7.749792933E-2
4.156369479E0,-1.094558388E-1,-1.611211337E-2,-7.749792933E-2
4.158857344E0,-1.051947847E-1,-1.291632187E-2,-7.643266767E-2
4.161345208E0,-1.009337306E-1,-1.078579482E-2,-7.536740601E-2
4.163833073E0,-9.560741484E-2,-9.720530361E-3,-7.323687524E-2
4.166320937E0,-9.134636074E-2,-8.655266836E-3,-7.004108280E-2
4.168809271E0,-8.815056831E-2,-6.524739787E-3,-6.684529036E-2
4.171296875E0,-8.495477587E-2,-5.459476262E-3,-6.258423626E-2
4.173784479E0,-8.388951421E-2,-4.394212738E-3,-5.938844755E-2
4.176272083E0,-8.175898343E-2,-3.328948980E-3,-5.619265884E-2
4.178759687E0,-8.175898343E-2,-3.328948980E-3,-5.193160102E-2
4.181247292E0,-8.282424510E-2,-3.328948980E-3,-4.767054692E-2
4.183734948E0,-8.495477587E-2,-5.459476262E-3,-4.340949282E-2
4.186222656E0,-8.708529919E-2,-6.524739787E-3,-4.021370411E-2
4.188710417E0,-8.921582997E-2,-8.655266836E-3,-3.808317333E-2
4.191198229E0,-9.347688407E-2,-1.291632187E-2,-3.701791167E-2
4.193686094E0,-9.773793817E-2,-1.611211337E-2,-3.595264629E-2
4.196174010E0,-1.009337306E-1,-1.930790395E-2,-3.701791167E-2
4.198661979E0,-1.041295230E-1,-2.250369452E-2,-3.914843872E-2
4.201150000E0,-1.073253155E-1,-2.676474862E-2,-3.914843872E-2
4.203638073E0,-1.094558388E-1,-2.889527567E-2,-3.914843872E-2
4.206126146E0,-1.105211005E-1,-2.996053919E-2,-3.701791167E-2
4.208614219E0,-1.105211005E-1,-3.102580272E-2,-3.382211924E-2
4.211102292E0,-1.105211005E-1,-3.102580272E-2,-2.849580161E-2
4.213590365E0,-1.105211005E-1,-3.102580272E-2,-2.316948399E-2
4.216078437E0,-1.094558388E-1,-3.102580272E-2,-1.571263932E-2
4.218566510E0,-1.083905771E-1,-3.102580272E-2,-9.321057238E-3
4.221054531E0,-1.073253155E-1,-3.102580272E-2,-7.989477599E-4
4.223542448E0,-1.051947847E-1,-3.315633163E-2,5.592633970E-3
4.226030312E0,-1.051947847E-1,-3.635212034E-2,1.091895252E-2
4.228518177E0,-1.041295230E-1,-3.954791278E-2,1.624527015E-2
4.231006042E0,-1.030642539E-1,-4.274370521E-2,1.944106072E-2
4.233493906E0,-1.030642539E-1,-4.593949392E-2,2.263685316E-2
4.235981771E0,-1.041295230E-1,-4.913528636E-2,2.583264373E-2
4.238469635E0,-1.041295230E-1,-5.233107507E-2,2.796317078E-2
4.240957500E0,-1.051947847E-1,-5.446160212E-2,3.222422674E-2
4.243445365E0,-1.051947847E-1,-5.552686751E-2,3.648528084E-2
4.245933229E0,-1.062600464E-1,-5.659212917E-2,4.074633494E-2
4.248421094E0,-1.073253155E-1,-5.872265995E-2,4.607265070E-2
4.250908958E0,-1.073253155E-1,-5.872265995E-2,5.246423557E-2
4.253396823E0,-1.083905771E-1,-6.085318699E-2,6.205160543E-2
4.255884687E0,-1.073253155E-1,-6.191844866E-2,7.376950979E-2
4.258372552E0,-1.041295230E-1,-6.298371404E-2,8.761793375E-2
4.260860417E0,-1.019989923E-1,-6.404897571E-2,1.035968885E-1
4.263348281E0,-9.667267650E-2,-6.617950648E-2,1.238368973E-1
4.265836146E0,-9.134636074E-2,-6.617950648E-2,1.472726911E-1
4.268324010E0,-8.388951421E-2,-6.617950648E-2,1.728390306E-1
4.270811875E0,-7.749792933E-2,-6.724476814E-2,1.994706094E-1
4.273299740E0,-7.110634446E-2,-6.831002980E-2,2.250369489E-1
4.275787604E0,-6.364950538E-2,-6.937529147E-2,2.506032586E-1
4.278275469E0,-5.725792050E-2,-7.044056058E-2,2.761695981E-1
4.280763333E0,-4.980107397E-2,-7.150582224E-2,2.996053994E-1
4.283251198E0,-4.234423116E-2,-7.363634557E-2,3.209106624E-1
4.285739062E0,-3.488738462E-2,-7.470161468E-2,3.390201628E-1
4.288226927E0,-2.743053809E-2,-7.683213800E-2,3.539338410E-1
4.290714792E0,-1.890842989E-2,-7.789740711E-2,3.656517565E-1
4.293202656E0,-1.145158429E-2,-8.002793044E-2,3.741738498E-1
4.295690521E0,-2.929474926E-3,-8.215846121E-2,3.805654347E-1
4.298178385E0,4.527370445E-3,-8.535424620E-2,3.837612271E-1
4.300666250E0,1.091895252E-2,-8.855003864E-2,3.837612271E-1
4.303154115E0,1.624527015E-2,-9.387636185E-2,3.816306889E-1
4.305641979E0,2.157158963E-2,-9.707214683E-2,3.763043880E-1
4.308129844E0,2.370211668E-2,-1.002679393E-1,3.709780574E-1
4.310617708E0,2.583264373E-2,-1.002679393E-1,3.645864725E-1
4.313105573E0,2.689790726E-2,-9.813741595E-2,3.592601717E-1
4.315593437E0,2.583264373E-2,-9.387636185E-2,3.539338410E-1
4.318081302E0,2.583264373E-2,-8.855003864E-2,3.496727943E-1
4.320569167E0,2.583264373E-2,-8.215846121E-2,3.464770019E-1
4.323057031E0,2.583264373E-2,-7.683213800E-2,3.432812095E-1
4.325544896E0,2.796317078E-2,-7.257108390E-2,3.390201628E-1
4.328032760E0,3.009369783E-2,-6.831002980E-2,3.358243704E-1
4.330520625E0,3.435475379E-2,-6.617950648E-2,3.315632939E-1
4.333008490E0,3.968106955E-2,-6.617950648E-2,3.262369931E-1
4.335496354E0,4.713791609E-2,-6.724476814E-2,3.209106624E-1
4.337984219E0,5.672528967E-2,-6.937529147E-2,3.155843616E-1
4.340472083E0,6.631266326E-2,-7.257108390E-2,3.102580309E-1
4.342959948E0,7.696529478E-2,-7.576687634E-2,3.059969842E-1
4.345447812E0,8.868319541E-2,-8.215846121E-2,3.006706536E-1
4.347935677E0,9.827057272E-2,-8.961530030E-2,2.953443527E-1
4.350423542E0,1.099884734E-1,-9.813741595E-2,2.878875136E-1
4.352911406E0,1.206411049E-1,-1.077247858E-1,2.814959288E-1
4.355399271E0,1.291632205E-1,-1.173121557E-1,2.740390599E-1
4.357887135E0,1.355548054E-1,-1.268995255E-1,2.676474750E-1
4.360375000E0,1.398158520E-1,-1.364869028E-1,2.612559199E-1
4.362862865E0,1.419463754E-1,-1.450090110E-1,2.548643351E-1
4.365350729E0,1.408811212E-1,-1.545963883E-1,2.484727502E-1
4.367838594E0,1.344895363E-1,-1.663142890E-1,2.420811653E-1
4.370326458E0,1.238368973E-1,-1.790974438E-1,2.367548496E-1
4.372814323E0,1.099884734E-1,-1.940111369E-1,2.324937880E-1
4.375302187E0,8.974846452E-2,-2.110553533E-1,2.282327414E-1
4.377790052E0,6.631266326E-2,-2.291648388E-1,2.250369489E-1
4.380277917E0,3.861580789E-2,-2.472743243E-1,2.239716798E-1
4.382765781E0,7.723161485E-3,-2.653838098E-1,2.229064107E-1
4.385253646E0,-2.316948399E-2,-2.824280262E-1,2.229064107E-1
4.387741510E0,-5.512739345E-2,-2.984069884E-1,2.239716798E-1
4.390229375E0,-8.495477587E-2,-3.143859208E-1,2.261022031E-1
4.392717240E0,-1.115863696E-1,-3.282343447E-1,2.271674722E-1
4.395205104E0,-1.350221634E-1,-3.399522603E-1,2.282327414E-1
4.397692969E0,-1.531316489E-1,-3.506048918E-1,2.282327414E-1
4.400180833E0,-1.659148186E-1,-3.591270149E-1,2.282327414E-1
4.402668698E0,-1.733716577E-1,-3.655185997E-1,2.282327414E-1
4.405156562E0,-1.755021811E-1,-3.708449006E-1,2.292979956E-1
4.407644479E0,-1.723063886E-1,-3.740406930E-1,2.292979956E-1
4.410132396E0,-1.627190262E-1,-3.751059473E-1,2.292979956E-1
4.412620312E0,-1.478053331E-1,-3.740406930E-1,2.303632647E-1
4.415108229E0,-1.296958476E-1,-3.719101548E-1,2.303632647E-1
4.417596146E0,-1.062600464E-1,-3.676491082E-1,2.303632647E-1
4.420084062E0,-7.962846011E-2,-3.612575233E-1,2.303632647E-1
4.422571979E0,-4.873581231E-2,-3.516701460E-1,2.314285189E-1
4.425059896E0,-1.571263932E-2,-3.388870060E-1,2.324937880E-1
4.427547812E0,1.837579720E-2,-3.239732981E-1,2.335590571E-1
4.430035729E0,5.352949724E-2,-3.069290817E-1,2.367548496E-1
4.432523646E0,8.868319541E-2,-2.888196111E-1,2.399506420E-1
4.435011562E0,1.217063740E-1,-2.707101107E-1,2.442116886E-1
4.437499479E0,1.525990218E-1,-2.526006401E-1,2.484727502E-1
4.439987396E0,1.802958697E-1,-2.355564237E-1,2.548643351E-1
4.442475312E0,2.047969401E-1,-2.206427306E-1,2.623211741E-1
4.444963229E0,2.239716798E-1,-2.089248300E-1,2.687127590E-1
4.447451146E0,2.399506420E-1,-2.004027218E-1,2.761695981E-1
4.449939062E0,2.495380044E-1,-1.950764060E-1,2.825611830E-1
4.452426979E0,2.548643351E-1,-1.918806136E-1,2.889527678E-1
4.454914896E0,2.537990510E-1,-1.908153445E-1,2.953443527E-1
4.457402812E0,2.484727502E-1,-1.940111369E-1,3.006706536E-1
4.459890729E0,2.399506420E-1,-1.982721984E-1,3.049317300E-1
4.462378646E0,2.282327414E-1,-2.046637833E-1,3.081275225E-1
4.464866562E0,2.143843025E-1,-2.142511457E-1,3.102580309E-1
4.467354479E0,1.973400861E-1,-2.249037921E-1,3.102580309E-1
4.469842396E0,1.792306006E-1,-2.355564237E-1,3.102580309E-1
4.472330312E0,1.600558609E-1,-2.483395934E-1,3.091927767E-1
4.474818229E0,1.398158520E-1,-2.621880174E-1,3.059969842E-1
4.477306146E0,1.217063740E-1,-2.749711871E-1,3.017359376E-1
4.479794062E0,1.046621501E-1,-2.898848653E-1,2.964096069E-1
4.482281979E0,8.974846452E-2,-3.026680350E-1,2.889527678E-1
4.484769896E0,7.803056389E-2,-3.154512048E-1,2.825611830E-1
4.487257812E0,6.737792492E-2,-3.271690905E-1,2.740390599E-1
4.489745729E0,5.885581672E-2,-3.378217220E-1,2.655169666E-1
4.492233646E0,5.139897019E-2,-3.463438451E-1,2.559295893E-1
4.494721562E0,4.607265070E-2,-3.538006842E-1,2.474074811E-1
4.497209479E0,4.287686199E-2,-3.569964767E-1,2.378201038E-1
4.499697344E0,4.181159660E-2,-3.580617309E-1,2.282327414E-1
4.502185208E0,4.181159660E-2,-3.580617309E-1,2.186453640E-1
4.504673073E0,4.287686199E-2,-3.559312224E-1,2.090579867E-1
4.507160937E0,4.500738904E-2,-3.538006842E-1,2.016011477E-1
4.509648802E0,4.607265070E-2,-3.495396376E-1,1.941442937E-1
4.512136667E0,4.820318148E-2,-3.452785909E-1,1.888179779E-1
4.514624531E0,5.033370852E-2,-3.410175145E-1,1.856221855E-1
4.517112396E0,5.033370852E-2,-3.356912136E-1,1.834916621E-1
4.519600260E0,5.033370852E-2,-3.314301372E-1,1.845569313E-1
4.522088125E0,4.926844314E-2,-3.271690905E-1,1.856221855E-1
4.524575990E0,4.607265070E-2,-3.239732981E-1,1.866874546E-1
4.527063854E0,3.968106955E-2,-3.229080439E-1,1.888179779E-1
4.529551719E0,2.902843431E-2,-3.229080439E-1,1.920137703E-1
4.532039583E0,1.731053367E-2,-3.239732981E-1,1.941442937E-1
4.534527448E0,4.527370445E-3,-3.239732981E-1,1.962748319E-1
4.537015312E0,-1.038632076E-2,-3.250385821E-1,1.984053552E-1
4.539503177E0,-2.423474751E-2,-3.250385821E-1,1.984053552E-1
4.541991042E0,-3.808317333E-2,-3.271690905E-1,1.973400861E-1
4.544478906E0,-4.980107397E-2,-3.303648829E-1,1.952095628E-1
4.546966771E0,-6.045371294E-2,-3.335606754E-1,1.898832470E-1
4.549454635E0,-6.791055948E-2,-3.388870060E-1,1.824263930E-1
4.551942500E0,-7.323687524E-2,-3.452785909E-1,1.728390306E-1
4.554430365E0,-7.536740601E-2,-3.516701460E-1,1.621863842E-1
4.556918229E0,-7.430213690E-2,-3.569964767E-1,1.494032294E-1
4.559406094E0,-7.110634446E-2,-3.633880615E-1,1.355548054E-1
4.561893958E0,-6.471476704E-2,-3.687143922E-1,1.217063740E-1
4.564381823E0,-5.512739345E-2,-3.719101548E-1,1.067926809E-1
4.566869687E0,-4.234423116E-2,-3.761712313E-1,9.081372619E-2
4.569357552E0,-2.743053809E-2,-3.793670237E-1,7.376950979E-2
4.571845417E0,-1.145158429E-2,-3.814975321E-1,5.885581672E-2
4.574333281E0,6.657897960E-3,-3.825628161E-1,4.607265070E-2
4.576821146E0,2.370211668E-2,-3.825628161E-1,3.435475379E-2
4.579309010E0,4.181159660E-2,-3.804322779E-1,2.689790726E-2
4.581796875E0,5.885581672E-2,-3.783017397E-1,2.263685316E-2
4.584284740E0,7.483477145E-2,-3.761712313E-1,2.157158963E-2
4.586772604E0,8.974846452E-2,-3.719101548E-1,2.050632425E-2
4.589260469E0,1.014663652E-1,-3.687143922E-1,2.263685316E-2
4.591748333E0,1.099884734E-1,-3.665838540E-1,2.370211668E-2
4.594236198E0,1.163800508E-1,-3.655185997E-1,2.370211668E-2
4.596724062E0,1.174453199E-1,-3.655185997E-1,2.583264373E-2
4.599211927E0,1.142495275E-1,-3.665838540E-1,2.583264373E-2
4.601699792E0,1.089232042E-1,-3.697796464E-1,2.583264373E-2
4.604187656E0,9.933583438E-2,-3.729754388E-1,2.476738021E-2
4.606675521E0,8.548741043E-2,-3.772364855E-1,2.370211668E-2
4.609163385E0,6.950845569E-2,-3.825628161E-1,2.157158963E-2
4.611651250E0,5.139897019E-2,-3.868238628E-1,2.050632425E-2
4.614139115E0,3.222422674E-2,-3.932154477E-1,2.050632425E-2
4.616626979E0,9.853689000E-3,-3.985417485E-1,2.050632425E-2
4.619114844E0,-1.145158429E-2,-4.038680792E-1,2.050632425E-2
4.621602708E0,-3.382211924E-2,-4.113249183E-1,1.837579720E-2
4.624090573E0,-5.619265884E-2,-4.177165031E-1,1.518000662E-2
4.626578437E0,-7.749792933E-2,-4.251733422E-1,1.198421605E-2
4.629066302E0,-9.667267650E-2,-4.336954653E-1,6.657897960E-3
4.631554167E0,-1.137168929E-1,-4.432828426E-1,2.663159103E-4
4.634042031E0,-1.265000552E-1,-4.518049359E-1,-8.255792782E-3
4.636529896E0,-1.360874325E-1,-4.592617750E-1,-1.784316637E-2
4.639017760E0,-1.403484792E-1,-4.667186439E-1,-2.849580161E-2
4.641505625E0,-1.414137483E-1,-4.731102288E-1,-3.914843872E-2
4.643993490E0,-1.371526867E-1,-4.752407372E-1,-4.767054692E-2
4.646481354E0,-1.296958476E-1,-4.741754830E-1,-5.512739345E-2
4.648969219E0,-1.179779470E-1,-4.699144363E-1,-6.045371294E-2
4.651457083E0,-1.019989923E-1,-4.635228515E-1,-6.258423626E-2
4.653944948E0,-8.069372177E-2,-4.550007284E-1,-6.364950538E-2
4.656432812E0,-5.619265884E-2,-4.454133511E-1,-6.258423626E-2
4.658920677E0,-2.849580161E-2,-4.368912578E-1,-6.045371294E-2
4.661408542E0,2.396843163E-3,-4.273038805E-1,-5.725792050E-2
4.663896406E0,3.435475379E-2,-4.198470414E-1,-5.512739345E-2
4.666384271E0,6.737792492E-2,-4.134554565E-1,-5.299686641E-2
4.668872135E0,9.933583438E-2,-4.081291258E-1,-5.193160102E-2
4.671360000E0,1.312937438E-1,-4.028028250E-1,-5.086633936E-2
4.673847865E0,1.621863842E-1,-3.964112401E-1,-5.193160102E-2
4.676335729E0,1.898832470E-1,-3.889544010E-1,-5.193160102E-2
4.678823594E0,2.175800949E-1,-3.804322779E-1,-5.299686641E-2
4.681311458E0,2.410158962E-1,-3.697796464E-1,-5.512739345E-2
4.683799375E0,2.601906359E-1,-3.601922691E-1,-5.725792050E-2
4.686287292E0,2.751043439E-1,-3.506048918E-1,-6.151897460E-2
4.688775208E0,2.857569754E-1,-3.442133069E-1,-6.578002870E-2
4.691263125E0,2.889527678E-1,-3.388870060E-1,-7.110634446E-2
4.693751042E0,2.868222296E-1,-3.367564678E-1,-7.643266767E-2
4.696238958E0,2.783001363E-1,-3.367564678E-1,-8.388951421E-2
4.698726875E0,2.644517124E-1,-3.388870060E-1,-8.921582997E-2
4.701214792E0,2.442116886E-1,-3.442133069E-1,-9.454214573E-2
4.703702708E0,2.186453640E-1,-3.495396376E-1,-9.986846894E-2
4.706190625E0,1.888179779E-1,-3.569964767E-1,-1.041295230E-1
4.708678542E0,1.557948142E-1,-3.655185997E-1,-1.073253155E-1
4.711166458E0,1.206411049E-1,-3.751059473E-1,-1.126516312E-1
4.713654375E0,8.335687965E-2,-3.846933246E-1,-1.158474237E-1
4.716142292E0,4.713791609E-2,-3.942807019E-1,-1.211737394E-1
4.718630208E0,1.304947957E-2,-4.049333334E-1,-1.265000552E-1
4.721118125E0,-2.103895694E-2,-4.145207107E-1,-1.318263710E-1
4.723606042E0,-5.299686641E-2,-4.230428338E-1,-1.360874325E-1
4.726093958E0,-8.175898343E-2,-4.315649271E-1,-1.424790174E-1
4.728581875E0,-1.083905771E-1,-4.400870502E-1,-1.488705873E-1
4.731069792E0,-1.296958476E-1,-4.496744275E-1,-1.563274413E-1
4.733557708E0,-1.478053331E-1,-4.581965208E-1,-1.637842804E-1
4.736045625E0,-1.605884880E-1,-4.656533599E-1,-1.723063886E-1
4.738533542E0,-1.680453420E-1,-4.731102288E-1,-1.808284968E-1
4.741021458E0,-1.701758653E-1,-4.795017838E-1,-1.893506050E-1
4.743509375E0,-1.659148186E-1,-4.837628603E-1,-1.968074590E-1
4.745997292E0,-1.573926955E-1,-4.880239069E-1,-2.053295672E-1
4.748485208E0,-1.435442716E-1,-4.901544452E-1,-2.117211521E-1
4.750973125E0,-1.243695319E-1,-4.901544452E-1,-2.191779912E-1
4.753461042E0,-1.019989923E-1,-4.901544452E-1,-2.245043069E-1
4.755948958E0,-7.536740601E-2,-4.869586527E-1,-2.308958918E-1
4.758436875E0,-4.660528526E-2,-4.816323221E-1,-2.362222075E-1
4.760924792E0,-1.677790284E-2,-4.731102288E-1,-2.404832691E-1
4.763412708E0,1.411474310E-2,-4.624575675E-1,-2.415485233E-1
4.765900625E0,4.713791609E-2,-4.496744275E-1,-2.394180000E-1
4.768388542E0,7.909582555E-2,-4.336954653E-1,-2.362222075E-1
4.770876458E0,1.099884734E-1,-4.177165031E-1,-2.319611609E-1
4.773364375E0,1.430116445E-1,-3.985417485E-1,-2.277000993E-1
4.775852240E0,1.739042848E-1,-3.793670237E-1,-2.223737836E-1
4.778340104E0,2.047969401E-1,-3.601922691E-1,-2.159821987E-1
4.780827969E0,2.335590571E-1,-3.388870060E-1,-2.085253596E-1
4.783315833E0,2.612559199E-1,-3.186469972E-1,-2.031990439E-1
4.785803698E0,2.857569754E-1,-2.984069884E-1,-2.000032514E-1
4.788291562E0,3.070622385E-1,-2.802974880E-1,-1.978727281E-1
4.790779427E0,3.251717389E-1,-2.643185556E-1,-1.968074590E-1
4.793267292E0,3.390201628E-1,-2.494048476E-1,-1.968074590E-1
4.795755156E0,3.475422561E-1,-2.366216928E-1,-1.989379823E-1
4.798243021E0,3.507380486E-1,-2.270343155E-1,-2.000032514E-1
4.800730885E0,3.496727943E-1,-2.195774615E-1,-2.010685056E-1
4.803218750E0,3.432812095E-1,-2.153164148E-1,-2.010685056E-1
4.805706615E0,3.304980397E-1,-2.153164148E-1,-2.010685056E-1
4.808194479E0,3.123885691E-1,-2.163816839E-1,-2.000032514E-1
4.810682344E0,2.900180221E-1,-2.195774615E-1,-1.978727281E-1
4.813170208E0,2.633864284E-1,-2.259690464E-1,-1.936116666E-1
4.815658073E0,2.335590571E-1,-2.323606312E-1,-1.882853508E-1
4.818145937E0,2.026664019E-1,-2.408827394E-1,-1.840242893E-1
4.820633802E0,1.685779691E-1,-2.504701018E-1,-1.797632426E-1
4.823121667E0,1.334242672E-1,-2.611227632E-1,-1.786979735E-1
4.825609531E0,9.933583438E-2,-2.728406489E-1,-1.776327193E-1
4.828097396E0,6.524740160E-2,-2.845585644E-1,-1.797632426E-1
4.830585260E0,3.115896136E-2,-2.973417044E-1,-1.829590350E-1
4.833073125E0,2.663159103E-4,-3.101248741E-1,-1.872200817E-1
4.835560990E0,-3.062633052E-2,-3.239732981E-1,-1.925463974E-1
4.838048854E0,-5.832318589E-2,-3.367564678E-1,-1.978727281E-1
4.840536719E0,-8.495477587E-2,-3.484743834E-1,-2.010685056E-1
4.843024583E0,-1.073253155E-1,-3.591270149E-1,-2.042642981E-1
4.845512448E0,-1.265000552E-1,-3.687143922E-1,-2.063948363E-1
4.848000312E0,-1.424790174E-1,-3.740406930E-1,-2.074600905E-1
4.850488177E0,-1.541969180E-1,-3.793670237E-1,-2.085253596E-1
4.852976042E0,-1.637842804E-1,-3.804322779E-1,-2.074600905E-1
4.855463906E0,-1.701758653E-1,-3.804322779E-1,-2.063948363E-1
4.857951771E0,-1.723063886E-1,-3.783017397E-1,-2.053295672E-1
4.860439635E0,-1.723063886E-1,-3.751059473E-1,-2.031990439E-1
4.862927500E0,-1.701758653E-1,-3.708449006E-1,-2.000032514E-1
4.865415365E0,-1.648495495E-1,-3.644533157E-1,-1.978727281E-1
4.867903229E0,-1.563274413E-1,-3.580617309E-1,-1.957421899E-1
4.870391094E0,-1.467400640E-1,-3.516701460E-1,-1.936116666E-1
4.872878958E0,-1.339569092E-1,-3.442133069E-1,-1.925463974E-1
4.875366823E0,-1.190432087E-1,-3.378217220E-1,-1.936116666E-1
4.877854687E0,-1.030642539E-1,-3.303648829E-1,-1.968074590E-1
4.880342552E0,-8.495477587E-2,-3.239732981E-1,-2.021337748E-1
4.882830417E0,-6.578002870E-2,-3.165164590E-1,-2.085253596E-1
4.885318281E0,-4.660528526E-2,-3.101248741E-1,-2.159821987E-1
4.887806146E0,-2.849580161E-2,-3.037332892E-1,-2.234390527E-1
4.890294010E0,-1.145158429E-2,-2.962764502E-1,-2.298306376E-1
4.892781875E0,3.462106921E-3,-2.888196111E-1,-2.340916842E-1
4.895269740E0,1.837579720E-2,-2.824280262E-1,-2.372874767E-1
4.897757604E0,3.115896136E-2,-2.749711871E-1,-2.372874767E-1
4.900245469E0,4.181159660E-2,-2.675143182E-1,-2.372874767E-1
4.902733333E0,5.246423557E-2,-2.600574791E-1,-2.351569533E-1
4.905221198E0,6.098634377E-2,-2.526006401E-1,-2.298306376E-1
4.907709062E0,6.737792492E-2,-2.430132627E-1,-2.223737836E-1
4.910196927E0,7.376950979E-2,-2.344911546E-1,-2.106558830E-1
4.912684792E0,7.803056389E-2,-2.249037921E-1,-1.946769357E-1
4.915172656E0,8.016108721E-2,-2.142511457E-1,-1.765674502E-1
4.917660521E0,8.122635633E-2,-2.014679909E-1,-1.563274413E-1
4.920148385E0,8.122635633E-2,-1.886848211E-1,-1.339569092E-1
4.922636250E0,7.909582555E-2,-1.769669205E-1,-1.115863696E-1
4.925124115E0,7.483477145E-2,-1.652490199E-1,-8.921582997E-2
4.927611979E0,6.950845569E-2,-1.545963883E-1,-6.897582114E-2
4.930099844E0,6.205160543E-2,-1.471395344E-1,-4.980107397E-2
4.932587708E0,5.459476262E-2,-1.418132186E-1,-3.382211924E-2
4.935075573E0,4.607265070E-2,-1.386174262E-1,-2.103895694E-2
4.937563437E0,3.542001545E-2,-1.396826953E-1,-1.145158429E-2
4.940051302E0,2.370211668E-2,-1.439437568E-1,-5.060002208E-3
4.942539167E0,1.091895252E-2,-1.492700726E-1,-1.864211401E-3
4.945027031E0,-7.989477599E-4,-1.545963883E-1,-2.929474926E-3
4.947514896E0,-1.251684781E-2,-1.588574350E-1,-7.190529723E-3
4.950002760E0,-2.316948399E-2,-1.641837656E-1,-1.358211134E-2
4.952490625E0,-3.275685757E-2,-1.663142890E-1,-2.316948399E-2
4.954978490E0,-4.234423116E-2,-1.684448123E-1,-3.595264629E-2
4.957466354E0,-4.980107397E-2,-1.705753356E-1,-5.086633936E-2
4.959954219E0,-5.512739345E-2,-1.748363972E-1,-6.791055948E-2
4.962442083E0,-5.832318589E-2,-1.790974438E-1,-8.815056831E-2
4.964929948E0,-5.938844755E-2,-1.854890287E-1,-1.105211005E-1
4.967417865E0,-5.832318589E-2,-1.918806136E-1,-1.339569092E-1
4.969905781E0,-5.299686641E-2,-1.982721984E-1,-1.595232338E-1
4.972393698E0,-4.767054692E-2,-2.067943066E-1,-1.850895584E-1
4.974881615E0,-4.127896577E-2,-2.153164148E-1,-2.106558830E-1
4.977369531E0,-3.595264629E-2,-2.249037921E-1,-2.340916842E-1
4.979857448E0,-3.062633052E-2,-2.323606312E-1,-2.553969622E-1
4.982345365E0,-2.636527456E-2,-2.408827394E-1,-2.735064328E-1
4.984833281E0,-2.316948399E-2,-2.483395934E-1,-2.884201407E-1
