"Time (s)","Gyroscope x (rad/s)","Gyroscope y (rad/s)","Gyroscope z (rad/s)"
1.091627700E-1,-7.190529723E-3,3.994738800E-4,-2.663159103E-4
1.116962590E-1,-5.060002208E-3,-6.657897611E-4,-2.663159103E-4
1.142314160E-1,-5.060002208E-3,-1.731053460E-3,7.989477599E-4
1.167593320E-1,-2.929474926E-3,-1.731053460E-3,7.989477599E-4
1.192470930E-1,-1.864211401E-3,-2.796316985E-3,-2.663159103E-4
1.217348530E-1,-1.864211401E-3,-2.796316985E-3,-2.663159103E-4
1.242226140E-1,-7.989477599E-4,-2.796316985E-3,-2.663159103E-4
1.267103740E-1,-1.864211401E-3,-2.796316985E-3,7.989477599E-4
1.291981340E-1,-1.864211401E-3,-3.861580743E-3,7.989477599E-4
1.316858950E-1,-1.864211401E-3,-3.861580743E-3,7.989477599E-4
1.341736550E-1,-1.864211401E-3,-3.861580743E-3,7.989477599E-4
1.366614160E-1,-7.989477599E-4,-3.861580743E-3,7.989477599E-4
1.391491760E-1,-7.989477599E-4,-3.861580743E-3,1.864211401E-3
1.416369360E-1,-7.989477599E-4,-3.861580743E-3,1.864211401E-3
1.441246970E-1,-7.989477599E-4,-3.861580743E-3,1.864211401E-3
1.466124570E-1,-7.989477599E-4,-4.926844500E-3,1.864211401E-3
1.491001660E-1,-7.989477599E-4,-3.861580743E-3,2.929474926E-3
1.515878740E-1,-7.989477599E-4,-3.861580743E-3,2.929474926E-3
1.540755820E-1,-7.989477599E-4,-4.926844500E-3,1.864211401E-3
1.565634470E-1,-7.989477599E-4,-4.926844500E-3,1.864211401E-3
1.590512070E-1,-7.989477599E-4,-4.926844500E-3,1.864211401E-3
1.615389680E-1,-7.989477599E-4,-4.926844500E-3,2.929474926E-3
1.640306860E-1,2.663159103E-4,-4.926844500E-3,1.864211401E-3
1.665144890E-1,2.663159103E-4,-4.926844500E-3,1.864211401E-3
1.689982910E-1,1.331579522E-3,-4.926844500E-3,1.864211401E-3
1.714824050E-1,2.663159103E-4,-4.926844500E-3,1.864211401E-3
1.739667800E-1,2.663159103E-4,-3.861580743E-3,1.864211401E-3
1.764511550E-1,2.663159103E-4,-3.861580743E-3,7.989477599E-4
1.789362070E-1,1.331579522E-3,-3.861580743E-3,7.989477599E-4
1.814220410E-1,1.331579522E-3,-3.861580743E-3,7.989477599E-4
1.839087070E-1,2.663159103E-4,-3.861580743E-3,7.989477599E-4
1.863962070E-1,2.663159103E-4,-3.861580743E-3,7.989477599E-4
1.888844890E-1,2.663159103E-4,-3.861580743E-3,1.864211401E-3
1.913734990E-1,-7.989477599E-4,-2.796316985E-3,1.864211401E-3
1.938631860E-1,-7.989477599E-4,-2.796316985E-3,1.864211401E-3
1.963534470E-1,-7.989477599E-4,-2.796316985E-3,7.989477599E-4
1.988443840E-1,-7.989477599E-4,-2.796316985E-3,7.989477599E-4
2.013353740E-1,-7.989477599E-4,-3.861580743E-3,7.989477599E-4
2.038263640E-1,-7.989477599E-4,-2.796316985E-3,7.989477599E-4
2.063173530E-1,-7.989477599E-4,-3.861580743E-3,1.864211401E-3
2.088063640E-1,-7.989477599E-4,-3.861580743E-3,7.989477599E-4
2.112941240E-1,-7.989477599E-4,-3.861580743E-3,1.864211401E-3
2.137818840E-1,-7.989477599E-4,-3.861580743E-3,1.864211401E-3
2.162695930E-1,2.663159103E-4,-3.861580743E-3,1.864211401E-3
2.187573010E-1,-7.989477599E-4,-3.861580743E-3,1.864211401E-3
2.212450090E-1,-7.989477599E-4,-3.861580743E-3,7.989477599E-4
2.237327180E-1,-1.864211401E-3,-3.861580743E-3,1.864211401E-3
2.262204260E-1,-1.864211401E-3,-3.861580743E-3,1.864211401E-3
2.287081340E-1,-7.989477599E-4,-3.861580743E-3,7.989477599E-4
2.311958430E-1,-7.989477599E-4,-3.861580743E-3,1.864211401E-3
2.336835510E-1,-1.864211401E-3,-3.861580743E-3,7.989477599E-4
2.361712590E-1,-7.989477599E-4,-3.861580743E-3,7.989477599E-4
2.386589680E-1,-7.989477599E-4,-3.861580743E-3,7.989477599E-4
2.411466760E-1,2.663159103E-4,-3.861580743E-3,7.989477599E-4
2.436343840E-1,2.663159103E-4,-3.861580743E-3,7.989477599E-4
2.461220930E-1,2.663159103E-4,-4.926844500E-3,7.989477599E-4
2.486098010E-1,2.663159103E-4,-4.926844500E-3,7.989477599E-4
2.510975090E-1,-7.989477599E-4,-4.926844500E-3,7.989477599E-4
2.535852180E-1,-7.989477599E-4,-4.926844500E-3,-2.663159103E-4
2.560729260E-1,-7.989477599E-4,-4.926844500E-3,7.989477599E-4
2.585606340E-1,-7.989477599E-4,-4.926844500E-3,7.989477599E-4
2.610483430E-1,-7.989477599E-4,-4.926844500E-3,7.989477599E-4
2.635360510E-1,-7.989477599E-4,-4.926844500E-3,1.864211401E-3
2.660237590E-1,-7.989477599E-4,-4.926844500E-3,1.864211401E-3
2.685114680E-1,-7.989477599E-4,-4.926844500E-3,2.929474926E-3
2.709991760E-1,-7.989477599E-4,-4.926844500E-3,1.864211401E-3
2.734868840E-1,-1.864211401E-3,-4.926844500E-3,1.864211401E-3
2.759745930E-1,-1.864211401E-3,-3.861580743E-3,7.989477599E-4
2.784623010E-1,-1.864211401E-3,-4.926844500E-3,7.989477599E-4
2.809500090E-1,-1.864211401E-3,-4.926844500E-3,7.989477599E-4
2.834377700E-1,-7.989477599E-4,-3.861580743E-3,7.989477599E-4
2.859255300E-1,1.331579522E-3,-3.861580743E-3,7.989477599E-4
2.884132910E-1,1.331579522E-3,-2.796316985E-3,7.989477599E-4
2.909010510E-1,1.331579522E-3,-2.796316985E-3,-2.663159103E-4
2.933888110E-1,1.331579522E-3,-2.796316985E-3,7.989477599E-4
2.958765720E-1,2.663159103E-4,-2.796316985E-3,-2.663159103E-4
2.983643320E-1,-7.989477599E-4,-2.796316985E-3,-2.663159103E-4
3.008520930E-1,-2.929474926E-3,-3.861580743E-3,-2.663159103E-4
3.033398530E-1,-2.929474926E-3,-4.926844500E-3,7.989477599E-4
3.058276140E-1,-3.994738683E-3,-4.926844500E-3,7.989477599E-4
3.083153740E-1,-2.929474926E-3,-4.926844500E-3,7.989477599E-4
3.108031340E-1,-7.989477599E-4,-3.861580743E-3,7.989477599E-4
3.132908950E-1,2.663159103E-4,-2.796316985E-3,7.989477599E-4
3.157786550E-1,1.331579522E-3,-2.796316985E-3,-2.663159103E-4
3.182664160E-1,2.396843163E-3,-2.796316985E-3,-2.663159103E-4
3.207541760E-1,2.396843163E-3,-2.796316985E-3,-2.663159103E-4
3.232419360E-1,1.331579522E-3,-3.861580743E-3,7.989477599E-4
3.257296970E-1,2.663159103E-4,-2.796316985E-3,-2.663159103E-4
3.282174570E-1,-7.989477599E-4,-2.796316985E-3,-2.663159103E-4
3.307052180E-1,-7.989477599E-4,-2.796316985E-3,-2.663159103E-4
3.331929780E-1,-1.864211401E-3,-3.861580743E-3,-2.663159103E-4
3.356807390E-1,-1.864211401E-3,-3.861580743E-3,7.989477599E-4
3.381684990E-1,-1.864211401E-3,-3.861580743E-3,7.989477599E-4
3.406562590E-1,-7.989477599E-4,-3.861580743E-3,7.989477599E-4
3.431440200E-1,-7.989477599E-4,-3.861580743E-3,7.989477599E-4
3.456317800E-1,-7.989477599E-4,-3.861580743E-3,7.989477599E-4
3.481195410E-1,-7.989477599E-4,-3.861580743E-3,7.989477599E-4
3.506073010E-1,-7.989477599E-4,-2.796316985E-3,7.989477599E-4
3.530950610E-1,-7.989477599E-4,-2.796316985E-3,7.989477599E-4
3.555828220E-1,-1.864211401E-3,-3.861580743E-3,7.989477599E-4
3.580705820E-1,-1.864211401E-3,-3.861580743E-3,7.989477599E-4
3.605583430E-1,-7.989477599E-4,-3.861580743E-3,7.989477599E-4
3.630461030E-1,-7.989477599E-4,-3.861580743E-3,1.864211401E-3
3.655338640E-1,-7.989477599E-4,-3.861580743E-3,1.864211401E-3
3.680216240E-1,2.663159103E-4,-3.861580743E-3,1.864211401E-3
3.705093840E-1,1.331579522E-3,-2.796316985E-3,7.989477599E-4
3.729971450E-1,1.331579522E-3,-2.796316985E-3,7.989477599E-4
3.754849050E-1,2.663159103E-4,-2.796316985E-3,7.989477599E-4
3.779726660E-1,-7.989477599E-4,-2.796316985E-3,7.989477599E-4
3.804604260E-1,-1.864211401E-3,-2.796316985E-3,-2.663159103E-4
3.829481860E-1,-1.864211401E-3,-2.796316985E-3,-2.663159103E-4
3.854359470E-1,-2.929474926E-3,-2.796316985E-3,-2.663159103E-4
3.879237070E-1,-2.929474926E-3,-2.796316985E-3,-2.663159103E-4
3.904114680E-1,-2.929474926E-3,-2.796316985E-3,7.989477599E-4
3.928992280E-1,-1.864211401E-3,-2.796316985E-3,7.989477599E-4
3.953869890E-1,-1.864211401E-3,-2.796316985E-3,7.989477599E-4
3.978747490E-1,-7.989477599E-4,-2.796316985E-3,7.989477599E-4
4.003625090E-1,-7.989477599E-4,-2.796316985E-3,7.989477599E-4
4.028502700E-1,2.663159103E-4,-2.796316985E-3,7.989477599E-4
4.053380300E-1,2.663159103E-4,-2.796316985E-3,7.989477599E-4
4.078257910E-1,2.663159103E-4,-2.796316985E-3,-2.663159103E-4
4.103135510E-1,2.663159103E-4,-3.861580743E-3,7.989477599E-4
4.128013110E-1,2.663159103E-4,-2.796316985E-3,-2.663159103E-4
4.152890720E-1,-7.989477599E-4,-2.796316985E-3,7.989477599E-4
4.177768320E-1,-1.864211401E-3,-3.861580743E-3,7.989477599E-4
4.202645930E-1,-1.864211401E-3,-3.861580743E-3,7.989477599E-4
4.227523530E-1,-1.864211401E-3,-2.796316985E-3,7.989477599E-4
4.252401140E-1,-1.864211401E-3,-2.796316985E-3,7.989477599E-4
4.277278740E-1,-2.929474926E-3,-2.796316985E-3,7.989477599E-4
4.302156340E-1,-2.929474926E-3,-3.861580743E-3,1.864211401E-3
4.327033950E-1,-2.929474926E-3,-3.861580743E-3,1.864211401E-3
4.351911550E-1,-1.864211401E-3,-3.861580743E-3,1.864211401E-3
4.376789160E-1,-1.864211401E-3,-3.861580743E-3,1.864211401E-3
4.401666760E-1,-1.864211401E-3,-3.861580743E-3,1.864211401E-3
4.426544360E-1,-1.864211401E-3,-3.861580743E-3,1.864211401E-3
4.451421970E-1,-7.989477599E-4,-3.861580743E-3,1.864211401E-3
4.476299570E-1,2.663159103E-4,-3.861580743E-3,1.864211401E-3
4.501177180E-1,2.663159103E-4,-2.796316985E-3,7.989477599E-4
4.526054780E-1,2.663159103E-4,-2.796316985E-3,7.989477599E-4
4.550932390E-1,2.663159103E-4,-2.796316985E-3,7.989477599E-4
4.575809990E-1,-7.989477599E-4,-2.796316985E-3,7.989477599E-4
4.600687590E-1,-7.989477599E-4,-2.796316985E-3,7.989477599E-4
4.625565200E-1,-1.864211401E-3,-3.861580743E-3,7.989477599E-4
4.650442800E-1,-2.929474926E-3,-3.861580743E-3,7.989477599E-4
4.675320410E-1,-2.929474926E-3,-3.861580743E-3,7.989477599E-4
4.700198010E-1,-2.929474926E-3,-3.861580743E-3,7.989477599E-4
4.725075610E-1,-1.864211401E-3,-3.861580743E-3,1.864211401E-3
4.749953220E-1,-1.864211401E-3,-3.861580743E-3,1.864211401E-3
4.774830820E-1,-1.864211401E-3,-3.861580743E-3,1.864211401E-3
4.799708430E-1,-1.864211401E-3,-3.861580743E-3,1.864211401E-3
4.824586030E-1,-7.989477599E-4,-3.861580743E-3,7.989477599E-4
4.849463640E-1,-7.989477599E-4,-2.796316985E-3,1.864211401E-3
4.874341240E-1,-7.989477599E-4,-2.796316985E-3,1.864211401E-3
4.899218840E-1,-1.864211401E-3,-2.796316985E-3,1.864211401E-3
4.924096450E-1,-7.989477599E-4,-2.796316985E-3,7.989477599E-4
4.948974050E-1,-7.989477599E-4,-2.796316985E-3,7.989477599E-4
4.973851660E-1,-7.989477599E-4,-2.796316985E-3,7.989477599E-4
4.998729260E-1,-7.989477599E-4,-2.796316985E-3,7.989477599E-4
5.023606860E-1,-7.989477599E-4,-2.796316985E-3,1.864211401E-3
5.048484470E-1,-1.864211401E-3,-2.796316985E-3,1.864211401E-3
5.073362070E-1,-1.864211401E-3,-3.861580743E-3,7.989477599E-4
5.098239680E-1,-1.864211401E-3,-2.796316985E-3,7.989477599E-4
5.123117280E-1,-7.989477599E-4,-3.861580743E-3,1.864211401E-3
5.147994890E-1,-7.989477599E-4,-3.861580743E-3,1.864211401E-3
5.172872490E-1,-7.989477599E-4,-3.861580743E-3,1.864211401E-3
5.197750090E-1,-1.864211401E-3,-3.861580743E-3,2.929474926E-3
5.222627700E-1,-1.864211401E-3,-4.926844500E-3,2.929474926E-3
5.247505300E-1,-1.864211401E-3,-4.926844500E-3,1.864211401E-3
5.272382910E-1,-7.989477599E-4,-4.926844500E-3,1.864211401E-3
5.297260510E-1,2.663159103E-4,-4.926844500E-3,2.929474926E-3
5.322138110E-1,2.663159103E-4,-4.926844500E-3,1.864211401E-3
5.347015720E-1,2.663159103E-4,-4.926844500E-3,1.864211401E-3
5.371893320E-1,2.663159103E-4,-5.992108025E-3,1.864211401E-3
5.396770930E-1,2.663159103E-4,-4.926844500E-3,2.929474926E-3
5.421648530E-1,2.663159103E-4,-4.926844500E-3,1.864211401E-3
5.446526140E-1,2.663159103E-4,-4.926844500E-3,1.864211401E-3
5.471403740E-1,2.663159103E-4,-4.926844500E-3,7.989477599E-4
5.496281340E-1,-7.989477599E-4,-4.926844500E-3,1.864211401E-3
5.521158950E-1,-7.989477599E-4,-5.992108025E-3,1.864211401E-3
5.546036550E-1,-7.989477599E-4,-5.992108025E-3,2.929474926E-3
5.570914160E-1,-7.989477599E-4,-5.992108025E-3,1.864211401E-3
5.595791760E-1,-7.989477599E-4,-5.992108025E-3,1.864211401E-3
5.620669360E-1,-7.989477599E-4,-4.926844500E-3,1.864211401E-3
5.645546970E-1,-7.989477599E-4,-4.926844500E-3,1.864211401E-3
5.670424570E-1,-7.989477599E-4,-4.926844500E-3,1.864211401E-3
5.695302180E-1,-7.989477599E-4,-5.992108025E-3,1.864211401E-3
5.720179780E-1,-7.989477599E-4,-4.926844500E-3,1.864211401E-3
5.745057390E-1,2.663159103E-4,-4.926844500E-3,1.864211401E-3
5.769934990E-1,2.663159103E-4,-4.926844500E-3,1.864211401E-3
5.794812590E-1,2.663159103E-4,-4.926844500E-3,1.864211401E-3
5.819690200E-1,-7.989477599E-4,-4.926844500E-3,1.864211401E-3
5.844567800E-1,-7.989477599E-4,-4.926844500E-3,1.864211401E-3
5.869445410E-1,2.663159103E-4,-4.926844500E-3,7.989477599E-4
5.894323010E-1,2.663159103E-4,-3.861580743E-3,7.989477599E-4
5.919200610E-1,-7.989477599E-4,-3.861580743E-3,7.989477599E-4
5.944078220E-1,-7.989477599E-4,-4.926844500E-3,1.864211401E-3
5.968955820E-1,-1.864211401E-3,-4.926844500E-3,1.864211401E-3
5.993833430E-1,-1.864211401E-3,-4.926844500E-3,1.864211401E-3
6.018711030E-1,-1.864211401E-3,-4.926844500E-3,1.864211401E-3
6.043588640E-1,-7.989477599E-4,-4.926844500E-3,1.864211401E-3
6.068466240E-1,-7.989477599E-4,-3.861580743E-3,7.989477599E-4
6.093343840E-1,2.663159103E-4,-3.861580743E-3,1.864211401E-3
6.118221450E-1,2.663159103E-4,-3.861580743E-3,1.864211401E-3
6.143099050E-1,2.663159103E-4,-3.861580743E-3,1.864211401E-3
6.167976660E-1,2.663159103E-4,-3.861580743E-3,1.864211401E-3
6.192854260E-1,-7.989477599E-4,-3.861580743E-3,1.864211401E-3
6.217731860E-1,-7.989477599E-4,-3.861580743E-3,1.864211401E-3
6.242609470E-1,-7.989477599E-4,-3.861580743E-3,2.929474926E-3
6.267487070E-1,-7.989477599E-4,-3.861580743E-3,2.929474926E-3
6.292364680E-1,-7.989477599E-4,-3.861580743E-3,2.929474926E-3
6.317242280E-1,2.663159103E-4,-3.861580743E-3,1.864211401E-3
6.342119890E-1,-7.989477599E-4,-3.861580743E-3,7.989477599E-4
6.366997490E-1,-7.989477599E-4,-4.926844500E-3,7.989477599E-4
6.391875090E-1,-7.989477599E-4,-4.926844500E-3,1.864211401E-3
6.416752700E-1,-7.989477599E-4,-4.926844500E-3,7.989477599E-4
6.441630300E-1,-7.989477599E-4,-3.861580743E-3,1.864211401E-3
6.466507910E-1,-7.989477599E-4,-4.926844500E-3,1.864211401E-3
6.491385510E-1,-1.864211401E-3,-4.926844500E-3,1.864211401E-3
6.516263110E-1,-7.989477599E-4,-4.926844500E-3,1.864211401E-3
6.541140720E-1,-7.989477599E-4,-4.926844500E-3,7.989477599E-4
6.566018320E-1,1.331579522E-3,-3.861580743E-3,7.989477599E-4
6.590895930E-1,2.396843163E-3,-2.796316985E-3,7.989477599E-4
6.615773530E-1,2.396843163E-3,-2.796316985E-3,7.989477599E-4
6.640651140E-1,2.396843163E-3,-2.796316985E-3,7.989477599E-4
6.665528740E-1,1.331579522E-3,-3.861580743E-3,1.864211401E-3
6.690406340E-1,2.663159103E-4,-3.861580743E-3,1.864211401E-3
6.715283950E-1,-7.989477599E-4,-4.926844500E-3,1.864211401E-3
6.740161550E-1,-2.929474926E-3,-5.992108025E-3,7.989477599E-4
6.765039160E-1,-2.929474926E-3,-4.926844500E-3,7.989477599E-4
6.789916760E-1,-1.864211401E-3,-4.926844500E-3,7.989477599E-4
6.814793840E-1,2.663159103E-4,-4.926844500E-3,7.989477599E-4
6.839670930E-1,2.663159103E-4,-3.861580743E-3,7.989477599E-4
6.864548010E-1,1.331579522E-3,-3.861580743E-3,7.989477599E-4
6.889425090E-1,2.396843163E-3,-3.861580743E-3,7.989477599E-4
6.914302180E-1,3.462106921E-3,-3.861580743E-3,7.989477599E-4
6.939179260E-1,2.396843163E-3,-3.861580743E-3,7.989477599E-4
6.964056340E-1,1.331579522E-3,-3.861580743E-3,1.864211401E-3
6.988933430E-1,2.663159103E-4,-4.926844500E-3,7.989477599E-4
7.013810510E-1,-7.989477599E-4,-4.926844500E-3,7.989477599E-4
7.038687590E-1,-7.989477599E-4,-4.926844500E-3,7.989477599E-4
7.063564680E-1,-1.864211401E-3,-3.861580743E-3,7.989477599E-4
7.088441760E-1,-1.864211401E-3,-3.861580743E-3,7.989477599E-4
7.113318840E-1,-1.864211401E-3,-4.926844500E-3,7.989477599E-4
7.138195930E-1,-7.989477599E-4,-4.926844500E-3,1.864211401E-3
7.163073010E-1,-7.989477599E-4,-3.861580743E-3,1.864211401E-3
7.187950090E-1,2.663159103E-4,-3.861580743E-3,7.989477599E-4
7.212827180E-1,-7.989477599E-4,-3.861580743E-3,1.864211401E-3
7.237704260E-1,-7.989477599E-4,-4.926844500E-3,1.864211401E-3
7.262581340E-1,-1.864211401E-3,-4.926844500E-3,1.864211401E-3
7.287458430E-1,-1.864211401E-3,-4.926844500E-3,1.864211401E-3
7.312335510E-1,-1.864211401E-3,-3.861580743E-3,1.864211401E-3
7.337212590E-1,-7.989477599E-4,-3.861580743E-3,7.989477599E-4
7.362089680E-1,2.663159103E-4,-3.861580743E-3,7.989477599E-4
7.386966760E-1,1.331579522E-3,-2.796316985E-3,7.989477599E-4
7.411843840E-1,1.331579522E-3,-2.796316985E-3,7.989477599E-4
7.436720930E-1,1.331579522E-3,-2.796316985E-3,-2.663159103E-4
7.461598010E-1,2.663159103E-4,-2.796316985E-3,7.989477599E-4
7.486475090E-1,2.663159103E-4,-3.861580743E-3,-2.663159103E-4
7.511352180E-1,2.663159103E-4,-3.861580743E-3,-2.663159103E-4
7.536229260E-1,-7.989477599E-4,-3.861580743E-3,7.989477599E-4
7.561106340E-1,-1.864211401E-3,-4.926844500E-3,-2.663159103E-4
7.585983950E-1,-1.864211401E-3,-4.926844500E-3,-2.663159103E-4
7.610861550E-1,-1.864211401E-3,-4.926844500E-3,7.989477599E-4
7.635739160E-1,-7.989477599E-4,-3.861580743E-3,7.989477599E-4
7.660616760E-1,-7.989477599E-4,-3.861580743E-3,1.864211401E-3
7.685494360E-1,-7.989477599E-4,-3.861580743E-3,1.864211401E-3
7.710371970E-1,-7.989477599E-4,-3.861580743E-3,1.864211401E-3
7.735249570E-1,-7.989477599E-4,-3.861580743E-3,1.864211401E-3
7.760127180E-1,-7.989477599E-4,-3.861580743E-3,2.929474926E-3
7.785004780E-1,-7.989477599E-4,-3.861580743E-3,2.929474926E-3
7.809882390E-1,-7.989477599E-4,-3.861580743E-3,1.864211401E-3
7.834759990E-1,2.663159103E-4,-3.861580743E-3,1.864211401E-3
7.859637590E-1,2.663159103E-4,-3.861580743E-3,7.989477599E-4
7.884515200E-1,2.663159103E-4,-3.861580743E-3,7.989477599E-4
7.909392800E-1,2.663159103E-4,-3.861580743E-3,7.989477599E-4
7.934270410E-1,2.663159103E-4,-3.861580743E-3,7.989477599E-4
7.959148010E-1,-7.989477599E-4,-3.861580743E-3,7.989477599E-4
7.984025610E-1,-7.989477599E-4,-3.861580743E-3,7.989477599E-4
8.008903220E-1,-7.989477599E-4,-3.861580743E-3,7.989477599E-4
8.033780820E-1,-1.864211401E-3,-3.861580743E-3,7.989477599E-4
8.058658430E-1,-1.864211401E-3,-4.926844500E-3,7.989477599E-4
8.083536030E-1,-2.929474926E-3,-4.926844500E-3,1.864211401E-3
8.108413640E-1,-2.929474926E-3,-4.926844500E-3,7.989477599E-4
8.133291240E-1,-1.864211401E-3,-3.861580743E-3,1.864211401E-3
8.158168840E-1,-7.989477599E-4,-3.861580743E-3,1.864211401E-3
8.183046450E-1,2.663159103E-4,-3.861580743E-3,7.989477599E-4
8.207924050E-1,2.663159103E-4,-3.861580743E-3,1.864211401E-3
8.232801660E-1,1.331579522E-3,-2.796316985E-3,7.989477599E-4
8.257679260E-1,2.663159103E-4,-3.861580743E-3,7.989477599E-4
8.282556860E-1,2.663159103E-4,-3.861580743E-3,1.864211401E-3
8.307434470E-1,-7.989477599E-4,-2.796316985E-3,7.989477599E-4
8.332312070E-1,-1.864211401E-3,-2.796316985E-3,7.989477599E-4
8.357189680E-1,-1.864211401E-3,-3.861580743E-3,7.989477599E-4
8.382067280E-1,-7.989477599E-4,-3.861580743E-3,7.989477599E-4
8.406944890E-1,-1.864211401E-3,-3.861580743E-3,7.989477599E-4
8.431822490E-1,-7.989477599E-4,-3.861580743E-3,7.989477599E-4
8.456700090E-1,-1.864211401E-3,-3.861580743E-3,7.989477599E-4
8.481577700E-1,-1.864211401E-3,-3.861580743E-3,1.864211401E-3
8.506455300E-1,-1.864211401E-3,-3.861580743E-3,7.989477599E-4
8.531332910E-1,-1.864211401E-3,-3.861580743E-3,7.989477599E-4
8.556210510E-1,-1.864211401E-3,-3.861580743E-3,7.989477599E-4
8.581088110E-1,-1.864211401E-3,-3.861580743E-3,1.864211401E-3
8.605965720E-1,-7.989477599E-4,-2.796316985E-3,2.929474926E-3
8.630843320E-1,-7.989477599E-4,-2.796316985E-3,1.864211401E-3
8.655720930E-1,-7.989477599E-4,-3.861580743E-3,1.864211401E-3
8.680598530E-1,-7.989477599E-4,-3.861580743E-3,7.989477599E-4
8.705476140E-1,-7.989477599E-4,-3.861580743E-3,1.864211401E-3
8.730353740E-1,-7.989477599E-4,-3.861580743E-3,7.989477599E-4
8.755231340E-1,-7.989477599E-4,-3.861580743E-3,7.989477599E-4
8.780108950E-1,-7.989477599E-4,-2.796316985E-3,1.864211401E-3
8.804986550E-1,-1.864211401E-3,-3.861580743E-3,2.929474926E-3
8.829864160E-1,-1.864211401E-3,-3.861580743E-3,2.929474926E-3
8.854741760E-1,-2.929474926E-3,-3.861580743E-3,1.864211401E-3
8.879619360E-1,-1.864211401E-3,-3.861580743E-3,1.864211401E-3
8.904496970E-1,-1.864211401E-3,-3.861580743E-3,7.989477599E-4
8.929374570E-1,-1.864211401E-3,-3.861580743E-3,7.989477599E-4
8.954252180E-1,-7.989477599E-4,-3.861580743E-3,7.989477599E-4
8.979129780E-1,-7.989477599E-4,-3.861580743E-3,1.864211401E-3
9.004007390E-1,2.663159103E-4,-3.861580743E-3,1.864211401E-3
9.028884990E-1,-7.989477599E-4,-3.861580743E-3,1.864211401E-3
9.053762590E-1,-7.989477599E-4,-4.926844500E-3,7.989477599E-4
9.078640200E-1,-7.989477599E-4,-4.926844500E-3,7.989477599E-4
9.103517800E-1,-7.989477599E-4,-4.926844500E-3,1.864211401E-3
9.128395410E-1,-7.989477599E-4,-4.926844500E-3,7.989477599E-4
9.153273010E-1,-1.864211401E-3,-4.926844500E-3,7.989477599E-4
9.178150610E-1,-1.864211401E-3,-3.861580743E-3,1.864211401E-3
9.203028220E-1,-7.989477599E-4,-3.861580743E-3,7.989477599E-4
9.227905820E-1,-7.989477599E-4,-3.861580743E-3,1.864211401E-3
9.252783430E-1,-7.989477599E-4,-3.861580743E-3,1.864211401E-3
9.277661030E-1,-7.989477599E-4,-4.926844500E-3,7.989477599E-4
9.302538640E-1,-1.864211401E-3,-3.861580743E-3,7.989477599E-4
9.327416240E-1,-1.864211401E-3,-3.861580743E-3,1.864211401E-3
9.352293840E-1,-7.989477599E-4,-3.861580743E-3,1.864211401E-3
9.377171450E-1,-7.989477599E-4,-3.861580743E-3,1.864211401E-3
9.402049050E-1,2.663159103E-4,-3.861580743E-3,7.989477599E-4
9.426926660E-1,2.663159103E-4,-4.926844500E-3,7.989477599E-4
9.451804260E-1,2.663159103E-4,-3.861580743E-3,1.864211401E-3
9.476681860E-1,2.663159103E-4,-3.861580743E-3,7.989477599E-4
9.501559470E-1,2.663159103E-4,-3.861580743E-3,7.989477599E-4
9.526437070E-1,2.663159103E-4,-3.861580743E-3,1.864211401E-3
9.551314680E-1,2.663159103E-4,-3.861580743E-3,7.989477599E-4
9.576192280E-1,-7.989477599E-4,-3.861580743E-3,1.864211401E-3
9.601069890E-1,-7.989477599E-4,-4.926844500E-3,7.989477599E-4
9.625947490E-1,-7.989477599E-4,-3.861580743E-3,1.864211401E-3
9.650825090E-1,-7.989477599E-4,-4.926844500E-3,2.929474926E-3
9.675702700E-1,-7.989477599E-4,-3.861580743E-3,2.929474926E-3
9.700580300E-1,2.663159103E-4,-3.861580743E-3,2.929474926E-3
9.725457910E-1,2.663159103E-4,-3.861580743E-3,1.864211401E-3
9.750335510E-1,2.663159103E-4,-4.926844500E-3,1.864211401E-3
9.775213110E-1,1.331579522E-3,-3.861580743E-3,1.864211401E-3
9.800090720E-1,2.396843163E-3,-2.796316985E-3,1.864211401E-3
9.824968320E-1,1.331579522E-3,-2.796316985E-3,1.864211401E-3
9.849845930E-1,1.331579522E-3,-3.861580743E-3,1.864211401E-3
9.874723530E-1,2.663159103E-4,-3.861580743E-3,7.989477599E-4
9.899601140E-1,2.663159103E-4,-3.861580743E-3,7.989477599E-4
9.924478740E-1,2.663159103E-4,-3.861580743E-3,7.989477599E-4
9.949356340E-1,2.663159103E-4,-3.861580743E-3,1.864211401E-3
9.974233950E-1,2.663159103E-4,-2.796316985E-3,1.864211401E-3
9.999111550E-1,2.663159103E-4,-3.861580743E-3,1.864211401E-3
1.002398916E0,2.663159103E-4,-3.861580743E-3,2.929474926E-3
1.004886676E0,-7.989477599E-4,-4.926844500E-3,1.864211401E-3
1.007374436E0,-7.989477599E-4,-4.926844500E-3,1.864211401E-3
1.009862145E0,-7.989477599E-4,-3.861580743E-3,2.929474926E-3
1.012349853E0,-7.989477599E-4,-3.861580743E-3,1.864211401E-3
1.014837561E0,-1.864211401E-3,-3.861580743E-3,1.864211401E-3
1.017325270E0,-1.864211401E-3,-4.926844500E-3,7.989477599E-4
1.019812978E0,-1.864211401E-3,-4.926844500E-3,1.864211401E-3
1.022300686E0,-7.989477599E-4,-4.926844500E-3,7.989477599E-4
1.024788395E0,-7.989477599E-4,-3.861580743E-3,1.864211401E-3
1.027276103E0,2.663159103E-4,-3.861580743E-3,1.864211401E-3
1.029763811E0,1.331579522E-3,-3.861580743E-3,7.989477599E-4
1.032251520E0,2.396843163E-3,-3.861580743E-3,7.989477599E-4
1.034739228E0,1.331579522E-3,-2.796316985E-3,1.864211401E-3
1.037226936E0,-7.989477599E-4,-2.796316985E-3,1.864211401E-3
1.039714645E0,-1.864211401E-3,-3.861580743E-3,1.864211401E-3
1.042202353E0,-2.929474926E-3,-3.861580743E-3,1.864211401E-3
1.044690061E0,-5.060002208E-3,-4.926844500E-3,1.864211401E-3
1.047177770E0,-2.929474926E-3,-4.926844500E-3,1.864211401E-3
1.049665478E0,-2.929474926E-3,-4.926844500E-3,1.864211401E-3
1.052153186E0,-7.989477599E-4,-3.861580743E-3,1.864211401E-3
1.054640895E0,2.663159103E-4,-2.796316985E-3,7.989477599E-4
1.057128603E0,1.331579522E-3,-2.796316985E-3,7.989477599E-4
1.059616311E0,1.331579522E-3,-1.731053460E-3,7.989477599E-4
1.062104020E0,2.663159103E-4,-2.796316985E-3,7.989477599E-4
1.064591936E0,-7.989477599E-4,-3.861580743E-3,1.864211401E-3
1.067079853E0,-1.864211401E-3,-3.861580743E-3,7.989477599E-4
1.069567770E0,-2.929474926E-3,-3.861580743E-3,1.864211401E-3
1.072055686E0,-2.929474926E-3,-3.861580743E-3,7.989477599E-4
1.074544020E0,-2.929474926E-3,-3.861580743E-3,7.989477599E-4
1.077031520E0,-7.989477599E-4,-3.861580743E-3,7.989477599E-4
1.079519020E0,-7.989477599E-4,-3.861580743E-3,1.864211401E-3
1.082006520E0,2.663159103E-4,-3.861580743E-3,1.864211401E-3
1.084494020E0,2.663159103E-4,-3.861580743E-3,2.929474926E-3
1.086981520E0,-7.989477599E-4,-3.861580743E-3,2.929474926E-3
1.089469020E0,-7.989477599E-4,-3.861580743E-3,2.929474926E-3
1.091956520E0,-7.989477599E-4,-2.796316985E-3,1.864211401E-3
1.094444072E0,-2.929474926E-3,-2.796316985E-3,2.929474926E-3
1.096931676E0,-2.929474926E-3,-3.861580743E-3,2.929474926E-3
1.099419332E0,-2.929474926E-3,-4.926844500E-3,1.864211401E-3
1.101907041E0,-2.929474926E-3,-4.926844500E-3,1.864211401E-3
1.104394801E0,-1.864211401E-3,-4.926844500E-3,7.989477599E-4
1.106882614E0,-7.989477599E-4,-3.861580743E-3,1.864211401E-3
1.109370478E0,2.663159103E-4,-2.796316985E-3,7.989477599E-4
1.111858395E0,1.331579522E-3,-2.796316985E-3,7.989477599E-4
1.114346311E0,1.331579522E-3,-2.796316985E-3,1.864211401E-3
1.116834228E0,-7.989477599E-4,-2.796316985E-3,7.989477599E-4
1.119322145E0,-7.989477599E-4,-3.861580743E-3,7.989477599E-4
1.121810061E0,-1.864211401E-3,-3.861580743E-3,7.989477599E-4
1.124297978E0,-2.929474926E-3,-3.861580743E-3,7.989477599E-4
1.126785895E0,-2.929474926E-3,-3.861580743E-3,7.989477599E-4
1.129273811E0,-2.929474926E-3,-4.926844500E-3,7.989477599E-4
1.131761728E0,-1.864211401E-3,-4.926844500E-3,7.989477599E-4
1.134249489E0,-1.864211401E-3,-3.861580743E-3,7.989477599E-4
1.136737197E0,-7.989477599E-4,-3.861580743E-3,7.989477599E-4
1.139224905E0,-7.989477599E-4,-2.796316985E-3,-2.663159103E-4
1.141712614E0,-7.989477599E-4,-2.796316985E-3,-2.663159103E-4
1.144200322E0,-1.864211401E-3,-2.796316985E-3,-2.663159103E-4
1.146688030E0,-1.864211401E-3,-3.861580743E-3,-2.663159103E-4
1.149175739E0,-2.929474926E-3,-4.926844500E-3,-2.663159103E-4
1.151663447E0,-2.929474926E-3,-4.926844500E-3,-2.663159103E-4
1.154151155E0,-2.929474926E-3,-3.861580743E-3,-2.663159103E-4
1.156638864E0,-2.929474926E-3,-2.796316985E-3,-2.663159103E-4
1.159126572E0,-2.929474926E-3,-3.861580743E-3,-2.663159103E-4
1.161614280E0,-2.929474926E-3,-3.861580743E-3,-2.663159103E-4
1.164101989E0,-2.929474926E-3,-3.861580743E-3,-2.663159103E-4
1.166589697E0,-1.864211401E-3,-3.861580743E-3,-2.663159103E-4
1.169077405E0,-7.989477599E-4,-2.796316985E-3,-2.663159103E-4
1.171565114E0,-7.989477599E-4,-3.861580743E-3,7.989477599E-4
1.174052822E0,-1.864211401E-3,-3.861580743E-3,7.989477599E-4
1.176540530E0,-2.929474926E-3,-4.926844500E-3,7.989477599E-4
1.179028239E0,-1.864211401E-3,-4.926844500E-3,1.864211401E-3
1.181515947E0,-1.864211401E-3,-4.926844500E-3,7.989477599E-4
1.184003655E0,-7.989477599E-4,-3.861580743E-3,7.989477599E-4
1.186491364E0,2.663159103E-4,-3.861580743E-3,7.989477599E-4
1.188979072E0,2.663159103E-4,-3.861580743E-3,7.989477599E-4
1.191466780E0,2.663159103E-4,-2.796316985E-3,7.989477599E-4
1.193954489E0,2.663159103E-4,-3.861580743E-3,1.864211401E-3
1.196442197E0,-7.989477599E-4,-3.861580743E-3,1.864211401E-3
1.198929905E0,-1.864211401E-3,-3.861580743E-3,7.989477599E-4
1.201417614E0,-2.929474926E-3,-3.861580743E-3,7.989477599E-4
1.203905322E0,-2.929474926E-3,-4.926844500E-3,1.864211401E-3
1.206393030E0,-3.994738683E-3,-4.926844500E-3,7.989477599E-4
1.208880739E0,-2.929474926E-3,-4.926844500E-3,7.989477599E-4
1.211368447E0,-1.864211401E-3,-4.926844500E-3,7.989477599E-4
1.213856155E0,-1.864211401E-3,-3.861580743E-3,1.864211401E-3
1.216343864E0,-7.989477599E-4,-3.861580743E-3,7.989477599E-4
1.218831572E0,-7.989477599E-4,-3.861580743E-3,1.864211401E-3
1.221319280E0,-1.864211401E-3,-4.926844500E-3,2.929474926E-3
1.223807041E0,-7.989477599E-4,-4.926844500E-3,2.929474926E-3
1.226294801E0,-7.989477599E-4,-4.926844500E-3,2.929474926E-3
1.228782561E0,-7.989477599E-4,-3.861580743E-3,1.864211401E-3
1.231270322E0,-7.989477599E-4,-3.861580743E-3,2.929474926E-3
1.233758082E0,-7.989477599E-4,-3.861580743E-3,2.929474926E-3
1.236245843E0,-7.989477599E-4,-3.861580743E-3,2.929474926E-3
1.238733603E0,-7.989477599E-4,-3.861580743E-3,7.989477599E-4
1.241221364E0,-7.989477599E-4,-4.926844500E-3,-2.663159103E-4
1.243709124E0,-7.989477599E-4,-4.926844500E-3,-2.663159103E-4
1.246196884E0,-7.989477599E-4,-3.861580743E-3,7.989477599E-4
1.248684645E0,-7.989477599E-4,-3.861580743E-3,-2.663159103E-4
1.251172405E0,-7.989477599E-4,-4.926844500E-3,1.864211401E-3
1.253660166E0,-7.989477599E-4,-4.926844500E-3,7.989477599E-4
1.256147926E0,-7.989477599E-4,-4.926844500E-3,7.989477599E-4
1.258635686E0,-7.989477599E-4,-4.926844500E-3,7.989477599E-4
1.261123447E0,-7.989477599E-4,-4.926844500E-3,7.989477599E-4
1.263611207E0,-7.989477599E-4,-4.926844500E-3,7.989477599E-4
1.266098968E0,-7.989477599E-4,-4.926844500E-3,7.989477599E-4
1.268586728E0,2.663159103E-4,-4.926844500E-3,7.989477599E-4
1.271074489E0,2.663159103E-4,-3.861580743E-3,7.989477599E-4
1.273562249E0,2.663159103E-4,-3.861580743E-3,7.989477599E-4
1.276050009E0,2.663159103E-4,-3.861580743E-3,7.989477599E-4
1.278537770E0,-7.989477599E-4,-3.861580743E-3,1.864211401E-3
1.281025530E0,-7.989477599E-4,-3.861580743E-3,1.864211401E-3
1.283513291E0,-7.989477599E-4,-3.861580743E-3,7.989477599E-4
1.286001051E0,-7.989477599E-4,-3.861580743E-3,1.864211401E-3
1.288488811E0,-7.989477599E-4,-3.861580743E-3,7.989477599E-4
1.290976572E0,-7.989477599E-4,-4.926844500E-3,7.989477599E-4
1.293464332E0,-7.989477599E-4,-3.861580743E-3,7.989477599E-4
1.295952093E0,-7.989477599E-4,-4.926844500E-3,1.864211401E-3
1.298439853E0,-7.989477599E-4,-4.926844500E-3,1.864211401E-3
1.300927614E0,-7.989477599E-4,-4.926844500E-3,1.864211401E-3
1.303415374E0,-7.989477599E-4,-4.926844500E-3,1.864211401E-3
1.305903134E0,-7.989477599E-4,-4.926844500E-3,2.929474926E-3
1.308390895E0,-7.989477599E-4,-3.861580743E-3,1.864211401E-3
1.310878655E0,-7.989477599E-4,-3.861580743E-3,1.864211401E-3
1.313366416E0,2.663159103E-4,-3.861580743E-3,2.929474926E-3
1.315854176E0,2.663159103E-4,-3.861580743E-3,1.864211401E-3
1.318341936E0,2.663159103E-4,-3.861580743E-3,1.864211401E-3
1.320829697E0,-7.989477599E-4,-3.861580743E-3,2.929474926E-3
1.323317457E0,-7.989477599E-4,-3.861580743E-3,1.864211401E-3
1.325805218E0,-7.989477599E-4,-3.861580743E-3,7.989477599E-4
1.328292978E0,-7.989477599E-4,-3.861580743E-3,7.989477599E-4
1.330780739E0,-7.989477599E-4,-3.861580743E-3,7.989477599E-4
1.333268499E0,-7.989477599E-4,-3.861580743E-3,1.864211401E-3
1.335756259E0,-7.989477599E-4,-3.861580743E-3,2.929474926E-3
1.338244020E0,-7.989477599E-4,-4.926844500E-3,1.864211401E-3
1.340731780E0,-7.989477599E-4,-3.861580743E-3,7.989477599E-4
1.343219541E0,2.663159103E-4,-3.861580743E-3,7.989477599E-4
1.345707301E0,1.331579522E-3,-3.861580743E-3,7.989477599E-4
1.348195061E0,1.331579522E-3,-3.861580743E-3,1.864211401E-3
1.350682822E0,1.331579522E-3,-3.861580743E-3,7.989477599E-4
1.353170582E0,1.331579522E-3,-4.926844500E-3,1.864211401E-3
1.355658343E0,1.331579522E-3,-4.926844500E-3,7.989477599E-4
1.358146103E0,1.331579522E-3,-3.861580743E-3,7.989477599E-4
1.360633864E0,1.331579522E-3,-3.861580743E-3,7.989477599E-4
1.363121624E0,2.663159103E-4,-3.861580743E-3,7.989477599E-4
1.365609384E0,-7.989477599E-4,-4.926844500E-3,7.989477599E-4
1.368097145E0,-7.989477599E-4,-4.926844500E-3,7.989477599E-4
1.370584905E0,-7.989477599E-4,-4.926844500E-3,7.989477599E-4
1.373072666E0,-7.989477599E-4,-4.926844500E-3,1.864211401E-3
1.375560426E0,1.331579522E-3,-4.926844500E-3,7.989477599E-4
1.378048186E0,3.462106921E-3,-4.926844500E-3,7.989477599E-4
1.380535947E0,3.462106921E-3,-3.861580743E-3,7.989477599E-4
1.383023707E0,2.396843163E-3,-3.861580743E-3,7.989477599E-4
1.385511468E0,2.663159103E-4,-4.926844500E-3,7.989477599E-4
1.387999228E0,-7.989477599E-4,-4.926844500E-3,-2.663159103E-4
1.390486989E0,-1.864211401E-3,-4.926844500E-3,-2.663159103E-4
1.392974749E0,-1.864211401E-3,-4.926844500E-3,7.989477599E-4
1.395462509E0,-1.864211401E-3,-4.926844500E-3,7.989477599E-4
1.397950270E0,-1.864211401E-3,-5.992108025E-3,1.864211401E-3
1.400438030E0,-1.864211401E-3,-5.992108025E-3,7.989477599E-4
1.402925791E0,2.663159103E-4,-4.926844500E-3,7.989477599E-4
1.405413551E0,2.663159103E-4,-3.861580743E-3,7.989477599E-4
1.407901311E0,2.663159103E-4,-3.861580743E-3,1.864211401E-3
1.410389072E0,-7.989477599E-4,-3.861580743E-3,7.989477599E-4
1.412876832E0,-7.989477599E-4,-4.926844500E-3,7.989477599E-4
1.415364541E0,-1.864211401E-3,-4.926844500E-3,-2.663159103E-4
1.417852249E0,-2.929474926E-3,-4.926844500E-3,7.989477599E-4
1.420339957E0,-2.929474926E-3,-3.861580743E-3,7.989477599E-4
1.422827666E0,-1.864211401E-3,-3.861580743E-3,7.989477599E-4
1.425315374E0,-1.864211401E-3,-3.861580743E-3,7.989477599E-4
1.427803082E0,-7.989477599E-4,-3.861580743E-3,7.989477599E-4
1.430290791E0,2.663159103E-4,-2.796316985E-3,7.989477599E-4
1.432778499E0,2.663159103E-4,-2.796316985E-3,7.989477599E-4
1.435266207E0,2.663159103E-4,-2.796316985E-3,7.989477599E-4
1.437753916E0,-7.989477599E-4,-2.796316985E-3,7.989477599E-4
1.440241624E0,-1.864211401E-3,-2.796316985E-3,7.989477599E-4
1.442729332E0,-1.864211401E-3,-2.796316985E-3,1.864211401E-3
1.445217041E0,-1.864211401E-3,-2.796316985E-3,7.989477599E-4
1.447704749E0,-1.864211401E-3,-3.861580743E-3,7.989477599E-4
1.450192457E0,-1.864211401E-3,-3.861580743E-3,7.989477599E-4
1.452680166E0,-7.989477599E-4,-4.926844500E-3,7.989477599E-4
1.455167874E0,-7.989477599E-4,-4.926844500E-3,7.989477599E-4
1.457655582E0,2.663159103E-4,-3.861580743E-3,7.989477599E-4
1.460143291E0,1.331579522E-3,-3.861580743E-3,7.989477599E-4
1.462630999E0,1.331579522E-3,-2.796316985E-3,-2.663159103E-4
1.465118707E0,1.331579522E-3,-2.796316985E-3,7.989477599E-4
1.467606416E0,2.663159103E-4,-3.861580743E-3,7.989477599E-4
1.470094124E0,-7.989477599E-4,-4.926844500E-3,7.989477599E-4
1.472581832E0,-7.989477599E-4,-4.926844500E-3,7.989477599E-4
1.475069541E0,-7.989477599E-4,-4.926844500E-3,7.989477599E-4
1.477557249E0,-7.989477599E-4,-4.926844500E-3,7.989477599E-4
1.480044957E0,2.663159103E-4,-3.861580743E-3,7.989477599E-4
1.482532666E0,2.663159103E-4,-4.926844500E-3,7.989477599E-4
1.485020374E0,2.663159103E-4,-3.861580743E-3,1.864211401E-3
1.487508082E0,2.663159103E-4,-3.861580743E-3,1.864211401E-3
1.489995791E0,2.663159103E-4,-4.926844500E-3,7.989477599E-4
1.492483499E0,2.663159103E-4,-4.926844500E-3,7.989477599E-4
1.494971207E0,-7.989477599E-4,-3.861580743E-3,7.989477599E-4
1.497458916E0,2.663159103E-4,-3.861580743E-3,1.864211401E-3
1.499946624E0,-7.989477599E-4,-3.861580743E-3,1.864211401E-3
1.502434332E0,-7.989477599E-4,-3.861580743E-3,1.864211401E-3
1.504922041E0,2.663159103E-4,-3.861580743E-3,1.864211401E-3
1.507409801E0,2.663159103E-4,-3.861580743E-3,1.864211401E-3
1.509897561E0,-7.989477599E-4,-3.861580743E-3,7.989477599E-4
1.512385322E0,-7.989477599E-4,-3.861580743E-3,7.989477599E-4
1.514873082E0,-7.989477599E-4,-3.861580743E-3,7.989477599E-4
1.517360843E0,2.663159103E-4,-3.861580743E-3,7.989477599E-4
1.519848603E0,-7.989477599E-4,-3.861580743E-3,7.989477599E-4
1.522336364E0,-7.989477599E-4,-3.861580743E-3,7.989477599E-4
1.524824124E0,-7.989477599E-4,-3.861580743E-3,7.989477599E-4
1.527311884E0,-7.989477599E-4,-3.861580743E-3,7.989477599E-4
1.529799645E0,-7.989477599E-4,-3.861580743E-3,7.989477599E-4
1.532287405E0,-7.989477599E-4,-3.861580743E-3,1.864211401E-3
1.534775166E0,-7.989477599E-4,-3.861580743E-3,1.864211401E-3
1.537262926E0,-7.989477599E-4,-3.861580743E-3,1.864211401E-3
1.539750686E0,-7.989477599E-4,-3.861580743E-3,7.989477599E-4
1.542238447E0,-7.989477599E-4,-3.861580743E-3,7.989477599E-4
1.544726207E0,-7.989477599E-4,-2.796316985E-3,7.989477599E-4
1.547213968E0,-7.989477599E-4,-3.861580743E-3,7.989477599E-4
1.549701728E0,-7.989477599E-4,-3.861580743E-3,-2.663159103E-4
1.552189489E0,-7.989477599E-4,-3.861580743E-3,-2.663159103E-4
1.554677249E0,-7.989477599E-4,-3.861580743E-3,-2.663159103E-4
1.557165009E0,-7.989477599E-4,-3.861580743E-3,-2.663159103E-4
1.559652770E0,-7.989477599E-4,-2.796316985E-3,-2.663159103E-4
1.562140530E0,-7.989477599E-4,-2.796316985E-3,-2.663159103E-4
1.564628291E0,-7.989477599E-4,-3.861580743E-3,-2.663159103E-4
1.567116051E0,-7.989477599E-4,-3.861580743E-3,-2.663159103E-4
1.569603811E0,-7.989477599E-4,-4.926844500E-3,7.989477599E-4
1.572091572E0,-7.989477599E-4,-4.926844500E-3,1.864211401E-3
1.574579332E0,-7.989477599E-4,-3.861580743E-3,2.929474926E-3
1.577067093E0,-7.989477599E-4,-3.861580743E-3,1.864211401E-3
1.579554853E0,-7.989477599E-4,-3.861580743E-3,7.989477599E-4
1.582042614E0,-7.989477599E-4,-3.861580743E-3,7.989477599E-4
1.584530374E0,-7.989477599E-4,-3.861580743E-3,7.989477599E-4
1.587018134E0,-7.989477599E-4,-4.926844500E-3,7.989477599E-4
1.589505895E0,2.663159103E-4,-3.861580743E-3,7.989477599E-4
1.591993655E0,-7.989477599E-4,-3.861580743E-3,7.989477599E-4
1.594481416E0,-7.989477599E-4,-3.861580743E-3,7.989477599E-4
1.596969176E0,-7.989477599E-4,-3.861580743E-3,-2.663159103E-4
1.599456936E0,-7.989477599E-4,-3.861580743E-3,7.989477599E-4
1.601944697E0,-7.989477599E-4,-3.861580743E-3,7.989477599E-4
1.604432457E0,-1.864211401E-3,-3.861580743E-3,7.989477599E-4
1.606920218E0,-7.989477599E-4,-2.796316985E-3,7.989477599E-4
1.609407978E0,-7.989477599E-4,-2.796316985E-3,-2.663159103E-4
1.611895739E0,-1.864211401E-3,-2.796316985E-3,7.989477599E-4
1.614383499E0,-1.864211401E-3,-2.796316985E-3,7.989477599E-4
1.616871259E0,-1.864211401E-3,-2.796316985E-3,7.989477599E-4
1.619359020E0,-7.989477599E-4,-2.796316985E-3,-2.663159103E-4
1.621846780E0,-7.989477599E-4,-2.796316985E-3,-2.663159103E-4
1.624334541E0,-7.989477599E-4,-2.796316985E-3,7.989477599E-4
1.626822301E0,-7.989477599E-4,-3.861580743E-3,7.989477599E-4
1.629310061E0,2.663159103E-4,-3.861580743E-3,7.989477599E-4
1.631797822E0,2.663159103E-4,-3.861580743E-3,1.864211401E-3
1.634285582E0,-7.989477599E-4,-3.861580743E-3,1.864211401E-3
1.636773343E0,-7.989477599E-4,-3.861580743E-3,1.864211401E-3
1.639261103E0,-7.989477599E-4,-3.861580743E-3,1.864211401E-3
1.641748864E0,-7.989477599E-4,-3.861580743E-3,2.929474926E-3
1.644236624E0,-7.989477599E-4,-3.861580743E-3,1.864211401E-3
1.646724384E0,-1.864211401E-3,-3.861580743E-3,7.989477599E-4
1.649212145E0,-1.864211401E-3,-3.861580743E-3,7.989477599E-4
1.651699905E0,-7.989477599E-4,-3.861580743E-3,2.929474926E-3
1.654187666E0,-7.989477599E-4,-3.861580743E-3,7.989477599E-4
1.656675426E0,-7.989477599E-4,-2.796316985E-3,1.864211401E-3
1.659163186E0,-7.989477599E-4,-2.796316985E-3,7.989477599E-4
1.661650947E0,2.663159103E-4,-2.796316985E-3,7.989477599E-4
1.664138707E0,2.663159103E-4,-2.796316985E-3,-2.663159103E-4
1.666626468E0,2.663159103E-4,-2.796316985E-3,-2.663159103E-4
1.669114228E0,2.663159103E-4,-2.796316985E-3,7.989477599E-4
1.671601989E0,-7.989477599E-4,-3.861580743E-3,7.989477599E-4
1.674089697E0,-7.989477599E-4,-4.926844500E-3,7.989477599E-4
1.676577405E0,-1.864211401E-3,-3.861580743E-3,7.989477599E-4
1.679065114E0,-7.989477599E-4,-3.861580743E-3,-2.663159103E-4
1.681552822E0,-7.989477599E-4,-3.861580743E-3,7.989477599E-4
1.684040530E0,-7.989477599E-4,-3.861580743E-3,7.989477599E-4
1.686528239E0,-7.989477599E-4,-3.861580743E-3,7.989477599E-4
1.689015947E0,-1.864211401E-3,-3.861580743E-3,1.864211401E-3
1.691503655E0,-7.989477599E-4,-4.926844500E-3,7.989477599E-4
1.693991364E0,-7.989477599E-4,-4.926844500E-3,-2.663159103E-4
1.696479072E0,-7.989477599E-4,-3.861580743E-3,7.989477599E-4
1.698966780E0,-7.989477599E-4,-3.861580743E-3,1.864211401E-3
1.701454489E0,-7.989477599E-4,-4.926844500E-3,1.864211401E-3
1.703942197E0,-7.989477599E-4,-4.926844500E-3,1.864211401E-3
1.706429905E0,2.663159103E-4,-4.926844500E-3,2.929474926E-3
1.708917614E0,2.663159103E-4,-3.861580743E-3,1.864211401E-3
1.711405322E0,2.663159103E-4,-3.861580743E-3,7.989477599E-4
1.713893030E0,-7.989477599E-4,-3.861580743E-3,7.989477599E-4
1.716380739E0,-7.989477599E-4,-4.926844500E-3,7.989477599E-4
1.718868447E0,-7.989477599E-4,-3.861580743E-3,7.989477599E-4
1.721356155E0,2.663159103E-4,-3.861580743E-3,7.989477599E-4
1.723843864E0,-7.989477599E-4,-3.861580743E-3,7.989477599E-4
1.726331572E0,-7.989477599E-4,-3.861580743E-3,7.989477599E-4
1.728819280E0,-7.989477599E-4,-3.861580743E-3,7.989477599E-4
1.731306989E0,2.663159103E-4,-3.861580743E-3,7.989477599E-4
1.733794697E0,2.663159103E-4,-3.861580743E-3,7.989477599E-4
1.736282405E0,2.663159103E-4,-3.861580743E-3,7.989477599E-4
1.738770114E0,2.663159103E-4,-2.796316985E-3,7.989477599E-4
1.741257822E0,1.331579522E-3,-2.796316985E-3,7.989477599E-4
1.743745530E0,1.331579522E-3,-2.796316985E-3,7.989477599E-4
1.746233239E0,1.331579522E-3,-3.861580743E-3,7.989477599E-4
1.748720947E0,2.663159103E-4,-3.861580743E-3,1.864211401E-3
1.751208655E0,2.663159103E-4,-3.861580743E-3,7.989477599E-4
1.753696364E0,2.663159103E-4,-2.796316985E-3,7.989477599E-4
1.756184072E0,2.663159103E-4,-2.796316985E-3,1.864211401E-3
1.758671780E0,-7.989477599E-4,-3.861580743E-3,2.929474926E-3
1.761159489E0,-7.989477599E-4,-3.861580743E-3,2.929474926E-3
1.763647197E0,-7.989477599E-4,-3.861580743E-3,1.864211401E-3
1.766134905E0,-7.989477599E-4,-2.796316985E-3,1.864211401E-3
1.768622614E0,-7.989477599E-4,-2.796316985E-3,7.989477599E-4
1.771110322E0,-7.989477599E-4,-3.861580743E-3,7.989477599E-4
1.773598082E0,-7.989477599E-4,-3.861580743E-3,7.989477599E-4
1.776085843E0,-1.864211401E-3,-3.861580743E-3,1.864211401E-3
1.778573603E0,-1.864211401E-3,-3.861580743E-3,2.929474926E-3
1.781061364E0,-1.864211401E-3,-3.861580743E-3,7.989477599E-4
1.783549124E0,-7.989477599E-4,-3.861580743E-3,1.864211401E-3
1.786036884E0,-7.989477599E-4,-3.861580743E-3,7.989477599E-4
1.788524645E0,2.663159103E-4,-3.861580743E-3,7.989477599E-4
1.791012405E0,2.663159103E-4,-3.861580743E-3,7.989477599E-4
1.793500166E0,2.663159103E-4,-3.861580743E-3,7.989477599E-4
1.795987926E0,2.663159103E-4,-3.861580743E-3,-2.663159103E-4
1.798475686E0,2.663159103E-4,-2.796316985E-3,-2.663159103E-4
1.800963447E0,-7.989477599E-4,-2.796316985E-3,7.989477599E-4
1.803451207E0,-7.989477599E-4,-3.861580743E-3,7.989477599E-4
1.805938968E0,-7.989477599E-4,-3.861580743E-3,1.864211401E-3
1.808426728E0,-7.989477599E-4,-3.861580743E-3,7.989477599E-4
1.810914489E0,-7.989477599E-4,-3.861580743E-3,7.989477599E-4
1.813402249E0,-7.989477599E-4,-3.861580743E-3,7.989477599E-4
1.815890009E0,-7.989477599E-4,-3.861580743E-3,7.989477599E-4
1.818377770E0,-7.989477599E-4,-3.861580743E-3,7.989477599E-4
1.820865530E0,-7.989477599E-4,-3.861580743E-3,7.989477599E-4
1.823353291E0,-7.989477599E-4,-3.861580743E-3,-2.663159103E-4
1.825841051E0,-7.989477599E-4,-3.861580743E-3,7.989477599E-4
1.828328811E0,-7.989477599E-4,-3.861580743E-3,7.989477599E-4
1.830816572E0,-7.989477599E-4,-4.926844500E-3,7.989477599E-4
1.833304332E0,-7.989477599E-4,-3.861580743E-3,7.989477599E-4
1.835792093E0,2.663159103E-4,-3.861580743E-3,1.864211401E-3
1.838279853E0,2.663159103E-4,-3.861580743E-3,1.864211401E-3
1.840767614E0,2.663159103E-4,-3.861580743E-3,2.929474926E-3
1.843255374E0,-7.989477599E-4,-3.861580743E-3,2.929474926E-3
1.845743134E0,-7.989477599E-4,-4.926844500E-3,2.929474926E-3
1.848230895E0,-7.989477599E-4,-3.861580743E-3,7.989477599E-4
1.850718655E0,-7.989477599E-4,-3.861580743E-3,7.989477599E-4
1.853206416E0,-7.989477599E-4,-3.861580743E-3,7.989477599E-4
1.855694176E0,-7.989477599E-4,-4.926844500E-3,7.989477599E-4
1.858181936E0,-7.989477599E-4,-4.926844500E-3,7.989477599E-4
1.860669697E0,-7.989477599E-4,-4.926844500E-3,7.989477599E-4
1.863157457E0,-7.989477599E-4,-4.926844500E-3,7.989477599E-4
1.865645218E0,-7.989477599E-4,-4.926844500E-3,-2.663159103E-4
1.868132978E0,-7.989477599E-4,-3.861580743E-3,-2.663159103E-4
1.870620739E0,-7.989477599E-4,-3.861580743E-3,-2.663159103E-4
1.873108499E0,2.663159103E-4,-3.861580743E-3,7.989477599E-4
1.875596259E0,2.663159103E-4,-4.926844500E-3,-2.663159103E-4
1.878084020E0,2.663159103E-4,-4.926844500E-3,-2.663159103E-4
1.880571780E0,-7.989477599E-4,-4.926844500E-3,-2.663159103E-4
1.883059541E0,2.663159103E-4,-3.861580743E-3,7.989477599E-4
1.885547301E0,2.663159103E-4,-3.861580743E-3,7.989477599E-4
1.888035061E0,-7.989477599E-4,-3.861580743E-3,7.989477599E-4
1.890522822E0,-7.989477599E-4,-3.861580743E-3,1.864211401E-3
1.893010582E0,-7.989477599E-4,-3.861580743E-3,1.864211401E-3
1.895498343E0,-7.989477599E-4,-3.861580743E-3,1.864211401E-3
1.897986103E0,-7.989477599E-4,-3.861580743E-3,7.989477599E-4
1.900473864E0,-7.989477599E-4,-3.861580743E-3,7.989477599E-4
1.902961624E0,-1.864211401E-3,-3.861580743E-3,-2.663159103E-4
1.905449384E0,-1.864211401E-3,-3.861580743E-3,-2.663159103E-4
1.907937145E0,-7.989477599E-4,-3.861580743E-3,-2.663159103E-4
1.910424905E0,-7.989477599E-4,-3.861580743E-3,-2.663159103E-4
1.912912666E0,-7.989477599E-4,-3.861580743E-3,-2.663159103E-4
1.915400426E0,-7.989477599E-4,-3.861580743E-3,-2.663159103E-4
1.917888186E0,-7.989477599E-4,-3.861580743E-3,7.989477599E-4
1.920375947E0,-7.989477599E-4,-4.926844500E-3,7.989477599E-4
1.922863655E0,-7.989477599E-4,-4.926844500E-3,7.989477599E-4
1.925351364E0,-7.989477599E-4,-4.926844500E-3,7.989477599E-4
1.927839072E0,-7.989477599E-4,-4.926844500E-3,7.989477599E-4
1.930326780E0,-7.989477599E-4,-3.861580743E-3,7.989477599E-4
1.932814489E0,-7.989477599E-4,-3.861580743E-3,7.989477599E-4
1.935302197E0,-7.989477599E-4,-3.861580743E-3,7.989477599E-4
1.937789905E0,-7.989477599E-4,-3.861580743E-3,7.989477599E-4
1.940277614E0,-7.989477599E-4,-3.861580743E-3,7.989477599E-4
1.942765322E0,-7.989477599E-4,-3.861580743E-3,7.989477599E-4
1.945253030E0,-7.989477599E-4,-3.861580743E-3,1.864211401E-3
1.947740739E0,-7.989477599E-4,-3.861580743E-3,2.929474926E-3
1.950228447E0,-7.989477599E-4,-3.861580743E-3,2.929474926E-3
1.952716155E0,-7.989477599E-4,-3.861580743E-3,2.929474926E-3
1.955203864E0,-7.989477599E-4,-3.861580743E-3,7.989477599E-4
1.957691572E0,-7.989477599E-4,-3.861580743E-3,1.864211401E-3
1.960179280E0,-7.989477599E-4,-4.926844500E-3,7.989477599E-4
1.962666989E0,-7.989477599E-4,-4.926844500E-3,1.864211401E-3
1.965154697E0,-7.989477599E-4,-4.926844500E-3,2.929474926E-3
1.967642405E0,-7.989477599E-4,-4.926844500E-3,1.864211401E-3
1.970130114E0,-7.989477599E-4,-3.861580743E-3,1.864211401E-3
1.972617822E0,-7.989477599E-4,-3.861580743E-3,2.929474926E-3
1.975105530E0,-7.989477599E-4,-4.926844500E-3,1.864211401E-3
1.977593239E0,-7.989477599E-4,-4.926844500E-3,1.864211401E-3
1.980080947E0,-7.989477599E-4,-4.926844500E-3,1.864211401E-3
1.982568655E0,-7.989477599E-4,-3.861580743E-3,1.864211401E-3
1.985056364E0,-7.989477599E-4,-3.861580743E-3,7.989477599E-4
1.987544072E0,-7.989477599E-4,-3.861580743E-3,7.989477599E-4
1.990031780E0,2.663159103E-4,-3.861580743E-3,7.989477599E-4
1.992519489E0,2.663159103E-4,-3.861580743E-3,7.989477599E-4
1.995007197E0,-7.989477599E-4,-3.861580743E-3,7.989477599E-4
1.997494905E0,2.663159103E-4,-3.861580743E-3,7.989477599E-4
1.999982614E0,2.663159103E-4,-3.861580743E-3,7.989477599E-4
2.002470322E0,2.663159103E-4,-4.926844500E-3,7.989477599E-4
2.004958030E0,2.663159103E-4,-4.926844500E-3,7.989477599E-4
2.007445739E0,-7.989477599E-4,-4.926844500E-3,7.989477599E-4
2.009933447E0,-7.989477599E-4,-4.926844500E-3,7.989477599E-4
2.012421155E0,-7.989477599E-4,-3.861580743E-3,7.989477599E-4
2.014908864E0,2.663159103E-4,-4.926844500E-3,-2.663159103E-4
2.017396572E0,2.663159103E-4,-3.861580743E-3,7.989477599E-4
2.019884280E0,-7.989477599E-4,-3.861580743E-3,7.989477599E-4
2.022371989E0,-7.989477599E-4,-3.861580743E-3,7.989477599E-4
2.024859697E0,2.663159103E-4,-3.861580743E-3,7.989477599E-4
2.027347405E0,-7.989477599E-4,-3.861580743E-3,1.864211401E-3
2.029835166E0,-7.989477599E-4,-3.861580743E-3,7.989477599E-4
2.032322926E0,-7.989477599E-4,-3.861580743E-3,1.864211401E-3
2.034810686E0,-7.989477599E-4,-3.861580743E-3,2.929474926E-3
2.037298447E0,-7.989477599E-4,-4.926844500E-3,2.929474926E-3
2.039786207E0,-1.864211401E-3,-3.861580743E-3,1.864211401E-3
2.042273968E0,-7.989477599E-4,-3.861580743E-3,7.989477599E-4
2.044761728E0,-7.989477599E-4,-3.861580743E-3,7.989477599E-4
2.047249489E0,-7.989477599E-4,-3.861580743E-3,7.989477599E-4
2.049737249E0,-7.989477599E-4,-3.861580743E-3,7.989477599E-4
2.052225009E0,-1.864211401E-3,-3.861580743E-3,-2.663159103E-4
2.054712770E0,-7.989477599E-4,-3.861580743E-3,7.989477599E-4
2.057200530E0,-1.864211401E-3,-3.861580743E-3,7.989477599E-4
2.059688291E0,-7.989477599E-4,-3.861580743E-3,7.989477599E-4
2.062176051E0,-7.989477599E-4,-3.861580743E-3,7.989477599E-4
2.064663811E0,-7.989477599E-4,-3.861580743E-3,7.989477599E-4
2.067151572E0,-7.989477599E-4,-3.861580743E-3,7.989477599E-4
2.069639332E0,-7.989477599E-4,-3.861580743E-3,7.989477599E-4
2.072127093E0,-7.989477599E-4,-2.796316985E-3,-2.663159103E-4
2.074614853E0,-7.989477599E-4,-2.796316985E-3,7.989477599E-4
2.077102614E0,-7.989477599E-4,-3.861580743E-3,7.989477599E-4
2.079590374E0,-7.989477599E-4,-3.861580743E-3,7.989477599E-4
2.082078134E0,2.663159103E-4,-3.861580743E-3,7.989477599E-4
2.084565895E0,2.663159103E-4,-3.861580743E-3,7.989477599E-4
2.087053655E0,2.663159103E-4,-3.861580743E-3,7.989477599E-4
2.089541416E0,-7.989477599E-4,-3.861580743E-3,1.864211401E-3
2.092029176E0,-1.864211401E-3,-3.861580743E-3,7.989477599E-4
2.094516936E0,-1.864211401E-3,-4.926844500E-3,7.989477599E-4
2.097004697E0,-1.864211401E-3,-4.926844500E-3,7.989477599E-4
2.099492457E0,-7.989477599E-4,-4.926844500E-3,7.989477599E-4
2.101980218E0,-7.989477599E-4,-3.861580743E-3,7.989477599E-4
2.104467978E0,-1.864211401E-3,-3.861580743E-3,7.989477599E-4
2.106955739E0,-7.989477599E-4,-3.861580743E-3,7.989477599E-4
2.109443499E0,-7.989477599E-4,-3.861580743E-3,7.989477599E-4
2.111931259E0,2.663159103E-4,-4.926844500E-3,7.989477599E-4
2.114419020E0,2.663159103E-4,-3.861580743E-3,-2.663159103E-4
2.116906780E0,-7.989477599E-4,-3.861580743E-3,-2.663159103E-4
2.119394541E0,-7.989477599E-4,-3.861580743E-3,7.989477599E-4
2.121882301E0,-7.989477599E-4,-3.861580743E-3,7.989477599E-4
2.124370061E0,-1.864211401E-3,-3.861580743E-3,7.989477599E-4
2.126857822E0,-7.989477599E-4,-3.861580743E-3,7.989477599E-4
2.129345582E0,-7.989477599E-4,-4.926844500E-3,7.989477599E-4
2.131833343E0,-7.989477599E-4,-3.861580743E-3,7.989477599E-4
2.134321103E0,-7.989477599E-4,-3.861580743E-3,7.989477599E-4
2.136808864E0,-7.989477599E-4,-3.861580743E-3,1.864211401E-3
2.139296624E0,-7.989477599E-4,-3.861580743E-3,7.989477599E-4
2.141784384E0,-7.989477599E-4,-3.861580743E-3,1.864211401E-3
2.144272145E0,-7.989477599E-4,-3.861580743E-3,7.989477599E-4
2.146759905E0,-7.989477599E-4,-3.861580743E-3,1.864211401E-3
2.149247666E0,-7.989477599E-4,-3.861580743E-3,1.864211401E-3
2.151735426E0,-7.989477599E-4,-3.861580743E-3,2.929474926E-3
2.154223186E0,-1.864211401E-3,-3.861580743E-3,1.864211401E-3
2.156710947E0,-1.864211401E-3,-2.796316985E-3,1.864211401E-3
2.159198707E0,-7.989477599E-4,-3.861580743E-3,7.989477599E-4
2.161686468E0,-7.989477599E-4,-3.861580743E-3,7.989477599E-4
2.164174228E0,-7.989477599E-4,-2.796316985E-3,7.989477599E-4
2.166661936E0,-1.864211401E-3,-2.796316985E-3,7.989477599E-4
2.169149645E0,-1.864211401E-3,-2.796316985E-3,7.989477599E-4
2.171637353E0,-1.864211401E-3,-3.861580743E-3,7.989477599E-4
2.174125061E0,-1.864211401E-3,-3.861580743E-3,7.989477599E-4
2.176612770E0,-1.864211401E-3,-2.796316985E-3,7.989477599E-4
2.179100478E0,-1.864211401E-3,-2.796316985E-3,7.989477599E-4
2.181588186E0,-1.864211401E-3,-2.796316985E-3,7.989477599E-4
2.184075895E0,-1.864211401E-3,-3.861580743E-3,7.989477599E-4
2.186563603E0,-7.989477599E-4,-3.861580743E-3,-2.663159103E-4
2.189051311E0,-7.989477599E-4,-3.861580743E-3,-2.663159103E-4
2.191539020E0,-1.864211401E-3,-3.861580743E-3,-2.663159103E-4
2.194026728E0,-7.989477599E-4,-2.796316985E-3,-2.663159103E-4
2.196514436E0,-7.989477599E-4,-3.861580743E-3,7.989477599E-4
2.199002145E0,-7.989477599E-4,-3.861580743E-3,7.989477599E-4
2.201489853E0,-7.989477599E-4,-3.861580743E-3,7.989477599E-4
2.203977561E0,-7.989477599E-4,-3.861580743E-3,7.989477599E-4
2.206465270E0,-7.989477599E-4,-3.861580743E-3,7.989477599E-4
2.208952978E0,-7.989477599E-4,-3.861580743E-3,7.989477599E-4
2.211440686E0,-7.989477599E-4,-3.861580743E-3,7.989477599E-4
2.213928395E0,-7.989477599E-4,-3.861580743E-3,7.989477599E-4
2.216416103E0,-7.989477599E-4,-3.861580743E-3,7.989477599E-4
2.218903811E0,-7.989477599E-4,-3.861580743E-3,7.989477599E-4
2.221391520E0,-1.864211401E-3,-3.861580743E-3,2.929474926E-3
2.223879228E0,-1.864211401E-3,-3.861580743E-3,2.929474926E-3
2.226366936E0,-7.989477599E-4,-3.861580743E-3,2.929474926E-3
2.228854645E0,-1.864211401E-3,-3.861580743E-3,2.929474926E-3
2.231342353E0,-7.989477599E-4,-3.861580743E-3,1.864211401E-3
2.233830061E0,-7.989477599E-4,-3.861580743E-3,7.989477599E-4
2.236317770E0,-7.989477599E-4,-4.926844500E-3,7.989477599E-4
2.238805478E0,-7.989477599E-4,-3.861580743E-3,1.864211401E-3
2.241293186E0,2.663159103E-4,-3.861580743E-3,1.864211401E-3
2.243780895E0,2.663159103E-4,-2.796316985E-3,7.989477599E-4
2.246268603E0,2.663159103E-4,-3.861580743E-3,7.989477599E-4
2.248756311E0,2.663159103E-4,-3.861580743E-3,7.989477599E-4
2.251244020E0,-7.989477599E-4,-3.861580743E-3,7.989477599E-4
2.253731728E0,-7.989477599E-4,-3.861580743E-3,-2.663159103E-4
2.256219436E0,-7.989477599E-4,-3.861580743E-3,-2.663159103E-4
2.258707145E0,-7.989477599E-4,-3.861580743E-3,7.989477599E-4
2.261194853E0,-7.989477599E-4,-3.861580743E-3,-2.663159103E-4
2.263682561E0,-7.989477599E-4,-3.861580743E-3,-2.663159103E-4
2.266170270E0,-7.989477599E-4,-3.861580743E-3,-2.663159103E-4
2.268657978E0,-7.989477599E-4,-3.861580743E-3,-2.663159103E-4
2.271145686E0,-7.989477599E-4,-3.861580743E-3,-2.663159103E-4
2.273633395E0,-1.864211401E-3,-3.861580743E-3,7.989477599E-4
2.276121103E0,-1.864211401E-3,-4.926844500E-3,7.989477599E-4
2.278608811E0,-1.864211401E-3,-4.926844500E-3,7.989477599E-4
2.281096520E0,-1.864211401E-3,-4.926844500E-3,7.989477599E-4
2.283584280E0,-7.989477599E-4,-4.926844500E-3,7.989477599E-4
2.286072041E0,-7.989477599E-4,-4.926844500E-3,7.989477599E-4
2.288559801E0,-7.989477599E-4,-4.926844500E-3,1.864211401E-3
2.291047561E0,-1.864211401E-3,-3.861580743E-3,2.929474926E-3
2.293535322E0,-1.864211401E-3,-4.926844500E-3,1.864211401E-3
2.296023082E0,-7.989477599E-4,-4.926844500E-3,1.864211401E-3
2.298510843E0,-7.989477599E-4,-3.861580743E-3,1.864211401E-3
2.300998603E0,-7.989477599E-4,-3.861580743E-3,2.929474926E-3
2.303486364E0,-7.989477599E-4,-3.861580743E-3,2.929474926E-3
2.305974124E0,-7.989477599E-4,-3.861580743E-3,2.929474926E-3
2.308461884E0,-7.989477599E-4,-3.861580743E-3,2.929474926E-3
2.310949645E0,-7.989477599E-4,-3.861580743E-3,1.864211401E-3
2.313437405E0,-7.989477599E-4,-3.861580743E-3,7.989477599E-4
2.315925166E0,-7.989477599E-4,-3.861580743E-3,7.989477599E-4
2.318412926E0,-7.989477599E-4,-2.796316985E-3,7.989477599E-4
2.320900686E0,-7.989477599E-4,-2.796316985E-3,7.989477599E-4
2.323388447E0,-7.989477599E-4,-3.861580743E-3,7.989477599E-4
2.325876207E0,-7.989477599E-4,-4.926844500E-3,1.864211401E-3
2.328363968E0,-1.864211401E-3,-4.926844500E-3,2.929474926E-3
2.330851728E0,-7.989477599E-4,-3.861580743E-3,1.864211401E-3
2.333339489E0,-7.989477599E-4,-3.861580743E-3,1.864211401E-3
2.335827249E0,-1.864211401E-3,-3.861580743E-3,1.864211401E-3
2.338315009E0,-1.864211401E-3,-3.861580743E-3,7.989477599E-4
2.340802770E0,-1.864211401E-3,-3.861580743E-3,7.989477599E-4
2.343290530E0,-7.989477599E-4,-3.861580743E-3,7.989477599E-4
2.345778291E0,-1.864211401E-3,-3.861580743E-3,7.989477599E-4
2.348266051E0,-7.989477599E-4,-3.861580743E-3,7.989477599E-4
2.350753811E0,-1.864211401E-3,-3.861580743E-3,7.989477599E-4
2.353241572E0,-1.864211401E-3,-3.861580743E-3,7.989477599E-4
2.355729332E0,-1.864211401E-3,-3.861580743E-3,-2.663159103E-4
2.358217093E0,-7.989477599E-4,-3.861580743E-3,-2.663159103E-4
2.360704853E0,-1.864211401E-3,-3.861580743E-3,-2.663159103E-4
2.363192614E0,-1.864211401E-3,-3.861580743E-3,7.989477599E-4
2.365680374E0,-7.989477599E-4,-3.861580743E-3,7.989477599E-4
2.368168134E0,-7.989477599E-4,-3.861580743E-3,7.989477599E-4
2.370655895E0,-7.989477599E-4,-3.861580743E-3,7.989477599E-4
2.373143655E0,-7.989477599E-4,-4.926844500E-3,7.989477599E-4
2.375631416E0,-7.989477599E-4,-4.926844500E-3,7.989477599E-4
2.378119176E0,-7.989477599E-4,-3.861580743E-3,7.989477599E-4
2.380606936E0,-7.989477599E-4,-3.861580743E-3,7.989477599E-4
2.383094697E0,-7.989477599E-4,-4.926844500E-3,7.989477599E-4
2.385582457E0,-7.989477599E-4,-4.926844500E-3,7.989477599E-4
2.388070218E0,-7.989477599E-4,-4.926844500E-3,7.989477599E-4
2.390557978E0,-7.989477599E-4,-4.926844500E-3,7.989477599E-4
2.393045739E0,-7.989477599E-4,-3.861580743E-3,7.989477599E-4
2.395533499E0,-7.989477599E-4,-3.861580743E-3,7.989477599E-4
2.398021259E0,-7.989477599E-4,-4.926844500E-3,1.864211401E-3
2.400509020E0,-7.989477599E-4,-4.926844500E-3,2.929474926E-3
2.402996780E0,-7.989477599E-4,-3.861580743E-3,2.929474926E-3
2.405484541E0,-7.989477599E-4,-3.861580743E-3,1.864211401E-3
2.407972249E0,-7.989477599E-4,-3.861580743E-3,7.989477599E-4
2.410459957E0,-7.989477599E-4,-3.861580743E-3,7.989477599E-4
2.412947666E0,-7.989477599E-4,-3.861580743E-3,7.989477599E-4
2.415435374E0,-7.989477599E-4,-4.926844500E-3,7.989477599E-4
2.417923082E0,-7.989477599E-4,-3.861580743E-3,7.989477599E-4
2.420410791E0,-7.989477599E-4,-3.861580743E-3,7.989477599E-4
2.422898499E0,-7.989477599E-4,-3.861580743E-3,7.989477599E-4
2.425386207E0,2.663159103E-4,-3.861580743E-3,-2.663159103E-4
2.427873916E0,2.663159103E-4,-3.861580743E-3,7.989477599E-4
2.430361624E0,2.663159103E-4,-3.861580743E-3,7.989477599E-4
2.432849332E0,1.331579522E-3,-4.926844500E-3,7.989477599E-4
2.435337041E0,2.663159103E-4,-4.926844500E-3,7.989477599E-4
2.437824749E0,2.663159103E-4,-3.861580743E-3,7.989477599E-4
2.440312457E0,2.663159103E-4,-3.861580743E-3,7.989477599E-4
2.442800166E0,-7.989477599E-4,-3.861580743E-3,7.989477599E-4
2.445287874E0,-7.989477599E-4,-3.861580743E-3,7.989477599E-4
2.447775582E0,-7.989477599E-4,-3.861580743E-3,7.989477599E-4
2.450263291E0,-7.989477599E-4,-3.861580743E-3,1.864211401E-3
2.452750999E0,-7.989477599E-4,-3.861580743E-3,7.989477599E-4
2.455238707E0,-7.989477599E-4,-3.861580743E-3,7.989477599E-4
2.457726416E0,-7.989477599E-4,-4.926844500E-3,1.864211401E-3
2.460214124E0,-7.989477599E-4,-4.926844500E-3,1.864211401E-3
2.462701832E0,-7.989477599E-4,-4.926844500E-3,1.864211401E-3
2.465189541E0,-7.989477599E-4,-4.926844500E-3,1.864211401E-3
2.467677249E0,-7.989477599E-4,-4.926844500E-3,7.989477599E-4
2.470164957E0,-7.989477599E-4,-4.926844500E-3,7.989477599E-4
2.472652666E0,2.663159103E-4,-4.926844500E-3,7.989477599E-4
2.475140374E0,2.663159103E-4,-3.861580743E-3,7.989477599E-4
2.477628082E0,-7.989477599E-4,-3.861580743E-3,7.989477599E-4
2.480115791E0,-7.989477599E-4,-3.861580743E-3,7.989477599E-4
2.482603499E0,-7.989477599E-4,-3.861580743E-3,1.864211401E-3
2.485091207E0,-7.989477599E-4,-3.861580743E-3,1.864211401E-3
2.487578916E0,-7.989477599E-4,-3.861580743E-3,2.929474926E-3
2.490066624E0,-1.864211401E-3,-3.861580743E-3,2.929474926E-3
2.492554332E0,-7.989477599E-4,-3.861580743E-3,2.929474926E-3
2.495042041E0,-1.864211401E-3,-3.861580743E-3,2.929474926E-3
2.497529749E0,-7.989477599E-4,-3.861580743E-3,1.864211401E-3
2.500017457E0,-7.989477599E-4,-3.861580743E-3,2.929474926E-3
2.502505166E0,-7.989477599E-4,-3.861580743E-3,1.864211401E-3
2.504992874E0,-7.989477599E-4,-3.861580743E-3,2.929474926E-3
2.507480582E0,-7.989477599E-4,-2.796316985E-3,1.864211401E-3
2.509968291E0,-7.989477599E-4,-2.796316985E-3,7.989477599E-4
2.512455999E0,-7.989477599E-4,-2.796316985E-3,7.989477599E-4
2.514943707E0,-7.989477599E-4,-2.796316985E-3,7.989477599E-4
2.517431416E0,-7.989477599E-4,-3.861580743E-3,7.989477599E-4
2.519919124E0,2.663159103E-4,-3.861580743E-3,7.989477599E-4
2.522406832E0,2.663159103E-4,-3.861580743E-3,7.989477599E-4
2.524894541E0,2.663159103E-4,-3.861580743E-3,7.989477599E-4
2.527382249E0,2.663159103E-4,-3.861580743E-3,7.989477599E-4
2.529869957E0,2.663159103E-4,-4.926844500E-3,-2.663159103E-4
2.532357666E0,-7.989477599E-4,-4.926844500E-3,7.989477599E-4
2.534845426E0,-7.989477599E-4,-4.926844500E-3,1.864211401E-3
2.537333186E0,-7.989477599E-4,-4.926844500E-3,7.989477599E-4
2.539820947E0,-7.989477599E-4,-3.861580743E-3,7.989477599E-4
2.542308707E0,-7.989477599E-4,-3.861580743E-3,7.989477599E-4
2.544796468E0,-7.989477599E-4,-4.926844500E-3,7.989477599E-4
2.547284228E0,-7.989477599E-4,-4.926844500E-3,7.989477599E-4
2.549771989E0,-7.989477599E-4,-4.926844500E-3,7.989477599E-4
2.552259749E0,-7.989477599E-4,-4.926844500E-3,1.864211401E-3
2.554747509E0,-7.989477599E-4,-4.926844500E-3,1.864211401E-3
2.557235270E0,-7.989477599E-4,-4.926844500E-3,2.929474926E-3
2.559723030E0,-7.989477599E-4,-4.926844500E-3,2.929474926E-3
2.562210791E0,-7.989477599E-4,-4.926844500E-3,1.864211401E-3
2.564698551E0,-7.989477599E-4,-4.926844500E-3,1.864211401E-3
2.567186311E0,-7.989477599E-4,-3.861580743E-3,2.929474926E-3
2.569674072E0,2.663159103E-4,-3.861580743E-3,2.929474926E-3
2.572161832E0,2.663159103E-4,-3.861580743E-3,2.929474926E-3
2.574649593E0,-7.989477599E-4,-3.861580743E-3,2.929474926E-3
2.577137353E0,-7.989477599E-4,-3.861580743E-3,2.929474926E-3
2.579625114E0,-7.989477599E-4,-3.861580743E-3,2.929474926E-3
2.582112874E0,-7.989477599E-4,-3.861580743E-3,2.929474926E-3
2.584600634E0,-7.989477599E-4,-3.861580743E-3,2.929474926E-3
2.587088395E0,-7.989477599E-4,-3.861580743E-3,2.929474926E-3
2.589576155E0,2.663159103E-4,-3.861580743E-3,2.929474926E-3
2.592063916E0,2.663159103E-4,-3.861580743E-3,2.929474926E-3
2.594551676E0,2.663159103E-4,-3.861580743E-3,2.929474926E-3
2.597039436E0,2.663159103E-4,-3.861580743E-3,2.929474926E-3
2.599527197E0,1.331579522E-3,-4.926844500E-3,1.864211401E-3
2.602014957E0,2.663159103E-4,-4.926844500E-3,2.929474926E-3
2.604502718E0,2.663159103E-4,-4.926844500E-3,2.929474926E-3
2.606990478E0,2.663159103E-4,-4.926844500E-3,1.864211401E-3
2.609478239E0,2.663159103E-4,-4.926844500E-3,1.864211401E-3
2.611965999E0,2.663159103E-4,-3.861580743E-3,1.864211401E-3
2.614453759E0,2.663159103E-4,-3.861580743E-3,1.864211401E-3
2.616941520E0,2.663159103E-4,-4.926844500E-3,1.864211401E-3
2.619429280E0,2.663159103E-4,-3.861580743E-3,2.929474926E-3
2.621917041E0,-7.989477599E-4,-3.861580743E-3,2.929474926E-3
2.624404801E0,2.663159103E-4,-3.861580743E-3,1.864211401E-3
2.626892561E0,1.331579522E-3,-2.796316985E-3,7.989477599E-4
2.629380322E0,2.663159103E-4,-2.796316985E-3,7.989477599E-4
2.631868082E0,-7.989477599E-4,-3.861580743E-3,7.989477599E-4
2.634355843E0,-7.989477599E-4,-3.861580743E-3,1.864211401E-3
2.636843603E0,-7.989477599E-4,-3.861580743E-3,7.989477599E-4
2.639331364E0,-7.989477599E-4,-3.861580743E-3,1.864211401E-3
2.641819124E0,-7.989477599E-4,-3.861580743E-3,7.989477599E-4
2.644306884E0,-7.989477599E-4,-3.861580743E-3,7.989477599E-4
2.646794645E0,-7.989477599E-4,-3.861580743E-3,1.864211401E-3
2.649282353E0,-7.989477599E-4,-3.861580743E-3,2.929474926E-3
2.651770061E0,-1.864211401E-3,-3.861580743E-3,2.929474926E-3
2.654257770E0,-7.989477599E-4,-3.861580743E-3,1.864211401E-3
2.656745478E0,-7.989477599E-4,-3.861580743E-3,7.989477599E-4
2.659233186E0,-7.989477599E-4,-3.861580743E-3,7.989477599E-4
2.661720895E0,-7.989477599E-4,-3.861580743E-3,7.989477599E-4
2.664208603E0,-7.989477599E-4,-3.861580743E-3,1.864211401E-3
2.666696311E0,-7.989477599E-4,-3.861580743E-3,7.989477599E-4
2.669184020E0,-7.989477599E-4,-3.861580743E-3,1.864211401E-3
2.671671728E0,-7.989477599E-4,-3.861580743E-3,1.864211401E-3
2.674159436E0,-7.989477599E-4,-3.861580743E-3,2.929474926E-3
2.676647145E0,-7.989477599E-4,-3.861580743E-3,2.929474926E-3
2.679134853E0,-7.989477599E-4,-3.861580743E-3,1.864211401E-3
2.681622561E0,-7.989477599E-4,-3.861580743E-3,1.864211401E-3
2.684110270E0,-7.989477599E-4,-3.861580743E-3,7.989477599E-4
2.686597978E0,-7.989477599E-4,-3.861580743E-3,1.864211401E-3
2.689085686E0,2.663159103E-4,-3.861580743E-3,1.864211401E-3
2.691573395E0,-7.989477599E-4,-3.861580743E-3,7.989477599E-4
2.694061103E0,-7.989477599E-4,-3.861580743E-3,7.989477599E-4
2.696548811E0,-7.989477599E-4,-3.861580743E-3,7.989477599E-4
2.699036520E0,-7.989477599E-4,-3.861580743E-3,7.989477599E-4
2.701524228E0,-7.989477599E-4,-3.861580743E-3,7.989477599E-4
2.704011936E0,2.663159103E-4,-3.861580743E-3,7.989477599E-4
2.706499645E0,-7.989477599E-4,-3.861580743E-3,7.989477599E-4
2.708987353E0,-7.989477599E-4,-3.861580743E-3,1.864211401E-3
2.711475061E0,-7.989477599E-4,-3.861580743E-3,2.929474926E-3
2.713962770E0,-7.989477599E-4,-3.861580743E-3,7.989477599E-4
2.716450478E0,-1.864211401E-3,-3.861580743E-3,7.989477599E-4
2.718938186E0,-1.864211401E-3,-4.926844500E-3,7.989477599E-4
2.721425895E0,-7.989477599E-4,-3.861580743E-3,1.864211401E-3
2.723913603E0,-1.864211401E-3,-3.861580743E-3,7.989477599E-4
2.726401311E0,-7.989477599E-4,-3.861580743E-3,7.989477599E-4
2.728889020E0,-7.989477599E-4,-3.861580743E-3,7.989477599E-4
2.731376728E0,-7.989477599E-4,-3.861580743E-3,7.989477599E-4
2.733864436E0,-7.989477599E-4,-3.861580743E-3,1.864211401E-3
2.736352145E0,-7.989477599E-4,-4.926844500E-3,7.989477599E-4
2.738839853E0,-7.989477599E-4,-3.861580743E-3,7.989477599E-4
2.741327561E0,-7.989477599E-4,-2.796316985E-3,7.989477599E-4
2.743815270E0,-7.989477599E-4,-2.796316985E-3,7.989477599E-4
2.746302978E0,-7.989477599E-4,-2.796316985E-3,7.989477599E-4
2.748790686E0,-1.864211401E-3,-3.861580743E-3,7.989477599E-4
2.751278395E0,-1.864211401E-3,-3.861580743E-3,7.989477599E-4
2.753766103E0,-1.864211401E-3,-3.861580743E-3,7.989477599E-4
2.756253811E0,-7.989477599E-4,-2.796316985E-3,7.989477599E-4
2.758741520E0,-7.989477599E-4,-3.861580743E-3,7.989477599E-4
2.761229228E0,-7.989477599E-4,-3.861580743E-3,-2.663159103E-4
2.763716936E0,-1.864211401E-3,-3.861580743E-3,-2.663159103E-4
2.766204645E0,-1.864211401E-3,-3.861580743E-3,-2.663159103E-4
2.768692353E0,-7.989477599E-4,-3.861580743E-3,-2.663159103E-4
2.771180061E0,-7.989477599E-4,-3.861580743E-3,7.989477599E-4
2.773667770E0,-7.989477599E-4,-3.861580743E-3,7.989477599E-4
2.776155478E0,-7.989477599E-4,-3.861580743E-3,7.989477599E-4
2.778643186E0,-7.989477599E-4,-4.926844500E-3,7.989477599E-4
2.781130895E0,-7.989477599E-4,-3.861580743E-3,7.989477599E-4
2.783618655E0,-7.989477599E-4,-3.861580743E-3,7.989477599E-4
2.786106416E0,-7.989477599E-4,-3.861580743E-3,7.989477599E-4
2.788594176E0,-7.989477599E-4,-3.861580743E-3,7.989477599E-4
2.791081936E0,-7.989477599E-4,-2.796316985E-3,7.989477599E-4
2.793569697E0,-7.989477599E-4,-3.861580743E-3,7.989477599E-4
2.796057457E0,-7.989477599E-4,-3.861580743E-3,7.989477599E-4
2.798545218E0,-7.989477599E-4,-3.861580743E-3,7.989477599E-4
2.801032978E0,-7.989477599E-4,-3.861580743E-3,7.989477599E-4
2.803520739E0,-7.989477599E-4,-3.861580743E-3,2.929474926E-3
2.806008499E0,-7.989477599E-4,-3.861580743E-3,1.864211401E-3
2.808496259E0,-7.989477599E-4,-4.926844500E-3,7.989477599E-4
2.810984020E0,-7.989477599E-4,-4.926844500E-3,7.989477599E-4
2.813471780E0,-7.989477599E-4,-3.861580743E-3,7.989477599E-4
2.815959541E0,-7.989477599E-4,-4.926844500E-3,7.989477599E-4
2.818447301E0,-7.989477599E-4,-3.861580743E-3,7.989477599E-4
2.820935061E0,-1.864211401E-3,-3.861580743E-3,1.864211401E-3
2.823422822E0,-7.989477599E-4,-3.861580743E-3,1.864211401E-3
2.825910582E0,-7.989477599E-4,-3.861580743E-3,1.864211401E-3
2.828398343E0,-7.989477599E-4,-3.861580743E-3,-2.663159103E-4
2.830886103E0,-7.989477599E-4,-2.796316985E-3,-2.663159103E-4
2.833373864E0,-7.989477599E-4,-2.796316985E-3,-2.663159103E-4
2.835861624E0,-7.989477599E-4,-3.861580743E-3,7.989477599E-4
2.838349384E0,-7.989477599E-4,-3.861580743E-3,7.989477599E-4
2.840837145E0,-7.989477599E-4,-3.861580743E-3,7.989477599E-4
2.843324905E0,-1.864211401E-3,-3.861580743E-3,1.864211401E-3
2.845812666E0,-7.989477599E-4,-3.861580743E-3,7.989477599E-4
2.848300426E0,-7.989477599E-4,-3.861580743E-3,7.989477599E-4
2.850788186E0,-7.989477599E-4,-3.861580743E-3,7.989477599E-4
2.853275947E0,-7.989477599E-4,-4.926844500E-3,7.989477599E-4
2.855763707E0,-7.989477599E-4,-4.926844500E-3,1.864211401E-3
2.858251468E0,-7.989477599E-4,-3.861580743E-3,1.864211401E-3
2.860739228E0,-7.989477599E-4,-3.861580743E-3,1.864211401E-3
2.863226989E0,-1.864211401E-3,-3.861580743E-3,1.864211401E-3
2.865714749E0,-1.864211401E-3,-3.861580743E-3,2.929474926E-3
2.868202509E0,-1.864211401E-3,-3.861580743E-3,1.864211401E-3
2.870690270E0,-7.989477599E-4,-3.861580743E-3,1.864211401E-3
2.873178030E0,-7.989477599E-4,-3.861580743E-3,1.864211401E-3
2.875665791E0,-7.989477599E-4,-3.861580743E-3,1.864211401E-3
2.878153551E0,-7.989477599E-4,-3.861580743E-3,1.864211401E-3
2.880641311E0,2.663159103E-4,-3.861580743E-3,1.864211401E-3
2.883129072E0,2.663159103E-4,-3.861580743E-3,2.929474926E-3
2.885616832E0,-7.989477599E-4,-3.861580743E-3,1.864211401E-3
2.888104593E0,2.663159103E-4,-2.796316985E-3,7.989477599E-4
2.890592301E0,-7.989477599E-4,-3.861580743E-3,7.989477599E-4
2.893080009E0,-7.989477599E-4,-3.861580743E-3,7.989477599E-4
2.895567718E0,-7.989477599E-4,-4.926844500E-3,7.989477599E-4
2.898055426E0,-7.989477599E-4,-4.926844500E-3,7.989477599E-4
2.900543134E0,-7.989477599E-4,-3.861580743E-3,7.989477599E-4
2.903030843E0,-7.989477599E-4,-3.861580743E-3,7.989477599E-4
2.905518551E0,-7.989477599E-4,-3.861580743E-3,7.989477599E-4
2.908006259E0,-7.989477599E-4,-2.796316985E-3,7.989477599E-4
2.910493968E0,-7.989477599E-4,-2.796316985E-3,7.989477599E-4
2.912981676E0,-7.989477599E-4,-3.861580743E-3,7.989477599E-4
2.915469384E0,-7.989477599E-4,-3.861580743E-3,1.864211401E-3
2.917957093E0,-7.989477599E-4,-3.861580743E-3,7.989477599E-4
2.920444801E0,2.663159103E-4,-3.861580743E-3,1.864211401E-3
2.922932509E0,-7.989477599E-4,-3.861580743E-3,1.864211401E-3
2.925420218E0,-7.989477599E-4,-4.926844500E-3,2.929474926E-3
2.927907926E0,-7.989477599E-4,-4.926844500E-3,2.929474926E-3
2.930395634E0,-7.989477599E-4,-4.926844500E-3,2.929474926E-3
2.932883343E0,-7.989477599E-4,-4.926844500E-3,1.864211401E-3
2.935371051E0,-7.989477599E-4,-4.926844500E-3,1.864211401E-3
2.937858759E0,-7.989477599E-4,-5.992108025E-3,2.929474926E-3
2.940346468E0,-7.989477599E-4,-5.992108025E-3,2.929474926E-3
2.942834176E0,-7.989477599E-4,-4.926844500E-3,2.929474926E-3
2.945321884E0,-7.989477599E-4,-4.926844500E-3,2.929474926E-3
2.947809593E0,-7.989477599E-4,-3.861580743E-3,1.864211401E-3
2.950297301E0,-7.989477599E-4,-4.926844500E-3,7.989477599E-4
2.952785009E0,-7.989477599E-4,-4.926844500E-3,1.864211401E-3
2.955272718E0,-7.989477599E-4,-4.926844500E-3,7.989477599E-4
2.957760426E0,-7.989477599E-4,-3.861580743E-3,7.989477599E-4
2.960248134E0,-7.989477599E-4,-3.861580743E-3,7.989477599E-4
2.962735843E0,-7.989477599E-4,-3.861580743E-3,7.989477599E-4
2.965223551E0,-7.989477599E-4,-3.861580743E-3,7.989477599E-4
2.967711259E0,2.663159103E-4,-4.926844500E-3,1.864211401E-3
2.970198968E0,2.663159103E-4,-4.926844500E-3,1.864211401E-3
2.972686676E0,-7.989477599E-4,-4.926844500E-3,7.989477599E-4
2.975174384E0,-7.989477599E-4,-4.926844500E-3,2.929474926E-3
2.977662093E0,-7.989477599E-4,-3.861580743E-3,1.864211401E-3
2.980149801E0,-7.989477599E-4,-3.861580743E-3,2.929474926E-3
2.982637509E0,-7.989477599E-4,-4.926844500E-3,2.929474926E-3
2.985125218E0,-7.989477599E-4,-4.926844500E-3,2.929474926E-3
2.987612926E0,-7.989477599E-4,-3.861580743E-3,2.929474926E-3
2.990100634E0,-7.989477599E-4,-3.861580743E-3,1.864211401E-3
2.992588343E0,-7.989477599E-4,-3.861580743E-3,7.989477599E-4
2.995076051E0,-7.989477599E-4,-3.861580743E-3,7.989477599E-4
2.997563759E0,2.663159103E-4,-3.861580743E-3,1.864211401E-3
3.000051468E0,-7.989477599E-4,-3.861580743E-3,7.989477599E-4
3.002539176E0,-7.989477599E-4,-3.861580743E-3,1.864211401E-3
3.005026884E0,2.663159103E-4,-3.861580743E-3,1.864211401E-3
3.007514593E0,-7.989477599E-4,-2.796316985E-3,7.989477599E-4
3.010002301E0,-7.989477599E-4,-3.861580743E-3,7.989477599E-4
3.012490009E0,-7.989477599E-4,-3.861580743E-3,7.989477599E-4
3.014977718E0,-7.989477599E-4,-4.926844500E-3,7.989477599E-4
3.017465426E0,2.663159103E-4,-3.861580743E-3,-2.663159103E-4
3.019953134E0,2.663159103E-4,-3.861580743E-3,7.989477599E-4
3.022440843E0,-7.989477599E-4,-3.861580743E-3,7.989477599E-4
3.024928551E0,-7.989477599E-4,-3.861580743E-3,7.989477599E-4
3.027416259E0,-7.989477599E-4,-3.861580743E-3,7.989477599E-4
3.029904020E0,-7.989477599E-4,-3.861580743E-3,1.864211401E-3
3.032391780E0,-7.989477599E-4,-3.861580743E-3,1.864211401E-3
3.034879541E0,-7.989477599E-4,-3.861580743E-3,7.989477599E-4
3.037367301E0,-7.989477599E-4,-2.796316985E-3,7.989477599E-4
3.039855061E0,-7.989477599E-4,-2.796316985E-3,7.989477599E-4
3.042342822E0,-7.989477599E-4,-2.796316985E-3,7.989477599E-4
3.044830582E0,-7.989477599E-4,-2.796316985E-3,7.989477599E-4
3.047318343E0,-7.989477599E-4,-2.796316985E-3,1.864211401E-3
3.049806103E0,-7.989477599E-4,-3.861580743E-3,7.989477599E-4
3.052293864E0,-7.989477599E-4,-3.861580743E-3,1.864211401E-3
3.054781624E0,-7.989477599E-4,-3.861580743E-3,2.929474926E-3
3.057269384E0,-7.989477599E-4,-3.861580743E-3,1.864211401E-3
3.059757145E0,-7.989477599E-4,-3.861580743E-3,7.989477599E-4
3.062244905E0,-7.989477599E-4,-3.861580743E-3,1.864211401E-3
3.064732666E0,-7.989477599E-4,-3.861580743E-3,7.989477599E-4
3.067220426E0,-7.989477599E-4,-3.861580743E-3,2.929474926E-3
3.069708186E0,-7.989477599E-4,-4.926844500E-3,1.864211401E-3
3.072195947E0,-7.989477599E-4,-3.861580743E-3,2.929474926E-3
3.074683707E0,-7.989477599E-4,-3.861580743E-3,2.929474926E-3
3.077171468E0,-7.989477599E-4,-3.861580743E-3,1.864211401E-3
3.079659228E0,-7.989477599E-4,-3.861580743E-3,7.989477599E-4
3.082146989E0,-7.989477599E-4,-3.861580743E-3,7.989477599E-4
3.084634749E0,-7.989477599E-4,-3.861580743E-3,7.989477599E-4
3.087122509E0,-7.989477599E-4,-3.861580743E-3,7.989477599E-4
3.089610270E0,-7.989477599E-4,-3.861580743E-3,7.989477599E-4
3.092098030E0,-7.989477599E-4,-3.861580743E-3,7.989477599E-4
3.094585791E0,-7.989477599E-4,-3.861580743E-3,1.864211401E-3
3.097073551E0,-7.989477599E-4,-3.861580743E-3,7.989477599E-4
3.099561311E0,-7.989477599E-4,-3.861580743E-3,7.989477599E-4
3.102049072E0,-7.989477599E-4,-3.861580743E-3,7.989477599E-4
3.104536832E0,-7.989477599E-4,-2.796316985E-3,7.989477599E-4
3.107024593E0,-7.989477599E-4,-2.796316985E-3,7.989477599E-4
3.109512353E0,-7.989477599E-4,-2.796316985E-3,1.864211401E-3
3.112000114E0,-7.989477599E-4,-3.861580743E-3,1.864211401E-3
3.114487874E0,-7.989477599E-4,-3.861580743E-3,2.929474926E-3
3.116975634E0,-7.989477599E-4,-3.861580743E-3,1.864211401E-3
3.119463395E0,-7.989477599E-4,-2.796316985E-3,1.864211401E-3
3.121951155E0,-7.989477599E-4,-2.796316985E-3,7.989477599E-4
3.124438916E0,-7.989477599E-4,-2.796316985E-3,7.989477599E-4
3.126926676E0,-7.989477599E-4,-3.861580743E-3,1.864211401E-3
3.129414436E0,-7.989477599E-4,-3.861580743E-3,1.864211401E-3
3.131902197E0,-7.989477599E-4,-3.861580743E-3,1.864211401E-3
3.134389957E0,-7.989477599E-4,-2.796316985E-3,7.989477599E-4
3.136877666E0,-7.989477599E-4,-2.796316985E-3,1.864211401E-3
3.139365374E0,-1.864211401E-3,-3.861580743E-3,7.989477599E-4
3.141853082E0,-7.989477599E-4,-3.861580743E-3,1.864211401E-3
3.144340791E0,-7.989477599E-4,-3.861580743E-3,1.864211401E-3
3.146828499E0,-7.989477599E-4,-3.861580743E-3,2.929474926E-3
3.149316207E0,-7.989477599E-4,-3.861580743E-3,7.989477599E-4
3.151803916E0,-7.989477599E-4,-2.796316985E-3,7.989477599E-4
3.154291624E0,-7.989477599E-4,-3.861580743E-3,1.864211401E-3
3.156779332E0,-7.989477599E-4,-3.861580743E-3,1.864211401E-3
3.159267041E0,-7.989477599E-4,-3.861580743E-3,2.929474926E-3
3.161754749E0,-1.864211401E-3,-3.861580743E-3,2.929474926E-3
3.164242457E0,-7.989477599E-4,-3.861580743E-3,1.864211401E-3
3.166730166E0,-7.989477599E-4,-3.861580743E-3,1.864211401E-3
3.169217874E0,-7.989477599E-4,-3.861580743E-3,2.929474926E-3
3.171705582E0,-7.989477599E-4,-3.861580743E-3,1.864211401E-3
3.174193291E0,-7.989477599E-4,-3.861580743E-3,7.989477599E-4
3.176680999E0,-7.989477599E-4,-3.861580743E-3,7.989477599E-4
3.179168707E0,-7.989477599E-4,-3.861580743E-3,7.989477599E-4
3.181656416E0,-7.989477599E-4,-3.861580743E-3,7.989477599E-4
3.184144124E0,-1.864211401E-3,-3.861580743E-3,7.989477599E-4
3.186631832E0,-7.989477599E-4,-3.861580743E-3,7.989477599E-4
3.189119541E0,-7.989477599E-4,-3.861580743E-3,1.864211401E-3
3.191607249E0,-7.989477599E-4,-3.861580743E-3,7.989477599E-4
3.194094957E0,-7.989477599E-4,-3.861580743E-3,7.989477599E-4
3.196582666E0,-7.989477599E-4,-3.861580743E-3,7.989477599E-4
3.199070374E0,-7.989477599E-4,-3.861580743E-3,7.989477599E-4
3.201558082E0,-7.989477599E-4,-3.861580743E-3,7.989477599E-4
3.204045791E0,2.663159103E-4,-3.861580743E-3,7.989477599E-4
3.206533499E0,2.663159103E-4,-3.861580743E-3,7.989477599E-4
3.209021207E0,-7.989477599E-4,-2.796316985E-3,7.989477599E-4
3.211508916E0,-7.989477599E-4,-2.796316985E-3,7.989477599E-4
3.213996624E0,-7.989477599E-4,-3.861580743E-3,7.989477599E-4
3.216484332E0,-7.989477599E-4,-3.861580743E-3,7.989477599E-4
3.218972041E0,-7.989477599E-4,-3.861580743E-3,7.989477599E-4
3.221459749E0,-7.989477599E-4,-3.861580743E-3,7.989477599E-4
3.223947457E0,-7.989477599E-4,-3.861580743E-3,7.989477599E-4
3.226435166E0,-1.864211401E-3,-3.861580743E-3,-2.663159103E-4
3.228922874E0,-1.864211401E-3,-3.861580743E-3,-2.663159103E-4
3.231410582E0,-1.864211401E-3,-3.861580743E-3,7.989477599E-4
3.233898291E0,-7.989477599E-4,-3.861580743E-3,7.989477599E-4
3.236385999E0,-7.989477599E-4,-2.796316985E-3,7.989477599E-4
3.238873707E0,-7.989477599E-4,-2.796316985E-3,7.989477599E-4
3.241361416E0,-7.989477599E-4,-3.861580743E-3,7.989477599E-4
3.243849124E0,-7.989477599E-4,-3.861580743E-3,7.989477599E-4
3.246336832E0,-7.989477599E-4,-3.861580743E-3,1.864211401E-3
3.248824541E0,-7.989477599E-4,-3.861580743E-3,1.864211401E-3
3.251312249E0,2.663159103E-4,-3.861580743E-3,1.864211401E-3
3.253799957E0,2.663159103E-4,-3.861580743E-3,1.864211401E-3
3.256287666E0,2.663159103E-4,-3.861580743E-3,1.864211401E-3
3.258775374E0,2.663159103E-4,-3.861580743E-3,2.929474926E-3
3.261263082E0,-7.989477599E-4,-3.861580743E-3,1.864211401E-3
3.263750791E0,-7.989477599E-4,-3.861580743E-3,1.864211401E-3
3.266238499E0,-7.989477599E-4,-3.861580743E-3,1.864211401E-3
3.268726207E0,-7.989477599E-4,-3.861580743E-3,7.989477599E-4
3.271213916E0,-7.989477599E-4,-3.861580743E-3,7.989477599E-4
3.273701624E0,-7.989477599E-4,-3.861580743E-3,7.989477599E-4
3.276189384E0,-7.989477599E-4,-3.861580743E-3,7.989477599E-4
3.278677145E0,-7.989477599E-4,-3.861580743E-3,1.864211401E-3
3.281164905E0,-7.989477599E-4,-3.861580743E-3,1.864211401E-3
3.283652666E0,-7.989477599E-4,-3.861580743E-3,1.864211401E-3
3.286140426E0,-7.989477599E-4,-3.861580743E-3,2.929474926E-3
3.288628186E0,-7.989477599E-4,-3.861580743E-3,1.864211401E-3
3.291115947E0,2.663159103E-4,-3.861580743E-3,7.989477599E-4
3.293603707E0,2.663159103E-4,-3.861580743E-3,7.989477599E-4
3.296091468E0,-7.989477599E-4,-4.926844500E-3,7.989477599E-4
3.298579228E0,-7.989477599E-4,-3.861580743E-3,7.989477599E-4
3.301066989E0,-7.989477599E-4,-4.926844500E-3,7.989477599E-4
3.303554749E0,-7.989477599E-4,-4.926844500E-3,7.989477599E-4
3.306042509E0,-7.989477599E-4,-3.861580743E-3,7.989477599E-4
3.308530270E0,-7.989477599E-4,-3.861580743E-3,7.989477599E-4
3.311018030E0,-7.989477599E-4,-2.796316985E-3,7.989477599E-4
3.313505791E0,-7.989477599E-4,-2.796316985E-3,7.989477599E-4
3.315993551E0,-7.989477599E-4,-2.796316985E-3,1.864211401E-3
3.318481311E0,-7.989477599E-4,-2.796316985E-3,1.864211401E-3
3.320969072E0,-7.989477599E-4,-2.796316985E-3,1.864211401E-3
3.323456832E0,-7.989477599E-4,-2.796316985E-3,7.989477599E-4
3.325944593E0,-7.989477599E-4,-2.796316985E-3,7.989477599E-4
3.328432353E0,2.663159103E-4,-2.796316985E-3,7.989477599E-4
3.330920114E0,2.663159103E-4,-2.796316985E-3,7.989477599E-4
3.333407874E0,-7.989477599E-4,-2.796316985E-3,1.864211401E-3
3.335895634E0,-7.989477599E-4,-2.796316985E-3,7.989477599E-4
3.338383395E0,2.663159103E-4,-2.796316985E-3,1.864211401E-3
3.340871155E0,-7.989477599E-4,-3.861580743E-3,1.864211401E-3
3.343358916E0,-7.989477599E-4,-2.796316985E-3,1.864211401E-3
3.345846676E0,-7.989477599E-4,-3.861580743E-3,2.929474926E-3
3.348334436E0,-7.989477599E-4,-3.861580743E-3,1.864211401E-3
3.350822197E0,-7.989477599E-4,-2.796316985E-3,7.989477599E-4
3.353309957E0,-7.989477599E-4,-2.796316985E-3,7.989477599E-4
3.355797718E0,-7.989477599E-4,-2.796316985E-3,7.989477599E-4
3.358285478E0,-7.989477599E-4,-3.861580743E-3,7.989477599E-4
3.360773239E0,-7.989477599E-4,-3.861580743E-3,7.989477599E-4
3.363260999E0,-7.989477599E-4,-4.926844500E-3,1.864211401E-3
3.365748759E0,-7.989477599E-4,-3.861580743E-3,1.864211401E-3
3.368236520E0,2.663159103E-4,-3.861580743E-3,7.989477599E-4
3.370724280E0,2.663159103E-4,-3.861580743E-3,7.989477599E-4
3.373212041E0,-7.989477599E-4,-3.861580743E-3,1.864211401E-3
3.375699801E0,-7.989477599E-4,-4.926844500E-3,1.864211401E-3
3.378187561E0,-7.989477599E-4,-4.926844500E-3,2.929474926E-3
3.380675322E0,-1.864211401E-3,-3.861580743E-3,2.929474926E-3
3.383163082E0,-1.864211401E-3,-3.861580743E-3,2.929474926E-3
3.385650791E0,-1.864211401E-3,-4.926844500E-3,1.864211401E-3
3.388138499E0,-1.864211401E-3,-4.926844500E-3,1.864211401E-3
3.390626207E0,-7.989477599E-4,-4.926844500E-3,7.989477599E-4
3.393113916E0,-7.989477599E-4,-4.926844500E-3,7.989477599E-4
3.395601624E0,-7.989477599E-4,-4.926844500E-3,7.989477599E-4
3.398089332E0,-7.989477599E-4,-4.926844500E-3,1.864211401E-3
3.400577041E0,-7.989477599E-4,-4.926844500E-3,1.864211401E-3
3.403064749E0,-7.989477599E-4,-4.926844500E-3,1.864211401E-3
3.405552457E0,-7.989477599E-4,-4.926844500E-3,2.929474926E-3
3.408040166E0,-1.864211401E-3,-3.861580743E-3,2.929474926E-3
3.410527874E0,-7.989477599E-4,-3.861580743E-3,1.864211401E-3
3.413015582E0,-1.864211401E-3,-2.796316985E-3,7.989477599E-4
3.415503291E0,-1.864211401E-3,-2.796316985E-3,7.989477599E-4
3.417990999E0,-7.989477599E-4,-2.796316985E-3,7.989477599E-4
3.420478707E0,-1.864211401E-3,-2.796316985E-3,7.989477599E-4
3.422966416E0,-2.929474926E-3,-2.796316985E-3,-2.663159103E-4
3.425454124E0,-1.864211401E-3,-2.796316985E-3,-2.663159103E-4
3.427941832E0,-1.864211401E-3,-3.861580743E-3,-2.663159103E-4
3.430429541E0,-1.864211401E-3,-3.861580743E-3,-2.663159103E-4
3.432917249E0,-1.864211401E-3,-3.861580743E-3,-2.663159103E-4
3.435404957E0,-1.864211401E-3,-3.861580743E-3,-2.663159103E-4
3.437892666E0,-1.864211401E-3,-4.926844500E-3,-2.663159103E-4
3.440380374E0,-1.864211401E-3,-4.926844500E-3,-2.663159103E-4
3.442868082E0,-1.864211401E-3,-4.926844500E-3,-2.663159103E-4
3.445355791E0,-7.989477599E-4,-3.861580743E-3,-2.663159103E-4
3.447843499E0,-1.864211401E-3,-4.926844500E-3,-2.663159103E-4
3.450331207E0,-7.989477599E-4,-4.926844500E-3,-2.663159103E-4
3.452818916E0,-7.989477599E-4,-4.926844500E-3,-2.663159103E-4
3.455306624E0,-7.989477599E-4,-3.861580743E-3,7.989477599E-4
3.457794332E0,-7.989477599E-4,-3.861580743E-3,7.989477599E-4
3.460282041E0,-7.989477599E-4,-3.861580743E-3,7.989477599E-4
3.462769749E0,-7.989477599E-4,-3.861580743E-3,7.989477599E-4
3.465257457E0,-7.989477599E-4,-3.861580743E-3,1.864211401E-3
3.467745166E0,-7.989477599E-4,-3.861580743E-3,7.989477599E-4
3.470232874E0,-7.989477599E-4,-3.861580743E-3,7.989477599E-4
3.472720582E0,-7.989477599E-4,-3.861580743E-3,7.989477599E-4
3.475208291E0,2.663159103E-4,-3.861580743E-3,7.989477599E-4
3.477695999E0,2.663159103E-4,-3.861580743E-3,7.989477599E-4
3.480183707E0,-7.989477599E-4,-4.926844500E-3,7.989477599E-4
3.482671416E0,-7.989477599E-4,-3.861580743E-3,7.989477599E-4
3.485159124E0,-7.989477599E-4,-3.861580743E-3,7.989477599E-4
3.487646832E0,-7.989477599E-4,-3.861580743E-3,7.989477599E-4
3.490134541E0,-7.989477599E-4,-3.861580743E-3,7.989477599E-4
3.492622249E0,-7.989477599E-4,-3.861580743E-3,7.989477599E-4
3.495109957E0,-7.989477599E-4,-3.861580743E-3,7.989477599E-4
3.497597666E0,-7.989477599E-4,-3.861580743E-3,7.989477599E-4
3.500085374E0,-7.989477599E-4,-3.861580743E-3,7.989477599E-4
3.502573082E0,-7.989477599E-4,-3.861580743E-3,7.989477599E-4
3.505060791E0,-7.989477599E-4,-4.926844500E-3,7.989477599E-4
3.507548499E0,2.663159103E-4,-4.926844500E-3,7.989477599E-4
3.510036207E0,-7.989477599E-4,-3.861580743E-3,7.989477599E-4
3.512523916E0,-7.989477599E-4,-4.926844500E-3,7.989477599E-4
3.515011624E0,-7.989477599E-4,-4.926844500E-3,-2.663159103E-4
3.517499332E0,2.663159103E-4,-4.926844500E-3,-2.663159103E-4
3.519987093E0,2.663159103E-4,-4.926844500E-3,7.989477599E-4
3.522474853E0,1.331579522E-3,-4.926844500E-3,7.989477599E-4
3.524962614E0,1.331579522E-3,-4.926844500E-3,7.989477599E-4
3.527450374E0,2.663159103E-4,-4.926844500E-3,1.864211401E-3
3.529938134E0,2.663159103E-4,-4.926844500E-3,7.989477599E-4
3.532425895E0,1.331579522E-3,-4.926844500E-3,7.989477599E-4
3.534913655E0,1.331579522E-3,-4.926844500E-3,7.989477599E-4
3.537401416E0,2.396843163E-3,-4.926844500E-3,7.989477599E-4
3.539889176E0,2.396843163E-3,-3.861580743E-3,7.989477599E-4
3.542376936E0,1.331579522E-3,-4.926844500E-3,-2.663159103E-4
3.544864697E0,2.663159103E-4,-4.926844500E-3,7.989477599E-4
3.547352457E0,-7.989477599E-4,-4.926844500E-3,7.989477599E-4
3.549840218E0,2.663159103E-4,-4.926844500E-3,7.989477599E-4
3.552327978E0,2.663159103E-4,-3.861580743E-3,7.989477599E-4
3.554815739E0,2.663159103E-4,-3.861580743E-3,1.864211401E-3
3.557303499E0,-7.989477599E-4,-3.861580743E-3,1.864211401E-3
3.559791259E0,-7.989477599E-4,-4.926844500E-3,7.989477599E-4
3.562279020E0,-7.989477599E-4,-4.926844500E-3,7.989477599E-4
3.564766780E0,-7.989477599E-4,-4.926844500E-3,7.989477599E-4
3.567254541E0,-7.989477599E-4,-3.861580743E-3,7.989477599E-4
3.569742301E0,-7.989477599E-4,-3.861580743E-3,-2.663159103E-4
3.572230061E0,2.663159103E-4,-3.861580743E-3,7.989477599E-4
3.574717822E0,2.663159103E-4,-3.861580743E-3,7.989477599E-4
3.577205582E0,-7.989477599E-4,-3.861580743E-3,7.989477599E-4
3.579693343E0,-7.989477599E-4,-3.861580743E-3,7.989477599E-4
3.582181103E0,-7.989477599E-4,-3.861580743E-3,1.864211401E-3
3.584668864E0,-1.864211401E-3,-3.861580743E-3,2.929474926E-3
3.587156624E0,-1.864211401E-3,-3.861580743E-3,2.929474926E-3
3.589644384E0,-1.864211401E-3,-3.861580743E-3,7.989477599E-4
3.592132145E0,-1.864211401E-3,-3.861580743E-3,7.989477599E-4
3.594619905E0,-7.989477599E-4,-2.796316985E-3,7.989477599E-4
3.597107666E0,-1.864211401E-3,-3.861580743E-3,1.864211401E-3
3.599595426E0,-1.864211401E-3,-3.861580743E-3,2.929474926E-3
3.602083186E0,-1.864211401E-3,-3.861580743E-3,2.929474926E-3
3.604570947E0,-1.864211401E-3,-3.861580743E-3,1.864211401E-3
3.607058707E0,-7.989477599E-4,-3.861580743E-3,1.864211401E-3
3.609546468E0,-7.989477599E-4,-4.926844500E-3,7.989477599E-4
3.612034228E0,-1.864211401E-3,-4.926844500E-3,1.864211401E-3
3.614521989E0,-1.864211401E-3,-3.861580743E-3,7.989477599E-4
3.617009749E0,-1.864211401E-3,-3.861580743E-3,7.989477599E-4
3.619497509E0,-7.989477599E-4,-3.861580743E-3,7.989477599E-4
3.621985270E0,-7.989477599E-4,-3.861580743E-3,7.989477599E-4
3.624473030E0,2.663159103E-4,-2.796316985E-3,7.989477599E-4
3.626960791E0,2.663159103E-4,-2.796316985E-3,1.864211401E-3
3.629448551E0,-7.989477599E-4,-2.796316985E-3,1.864211401E-3
3.631936311E0,-1.864211401E-3,-2.796316985E-3,7.989477599E-4
3.634424072E0,-1.864211401E-3,-1.731053460E-3,7.989477599E-4
3.636911780E0,-7.989477599E-4,-1.731053460E-3,7.989477599E-4
3.639399489E0,-7.989477599E-4,-1.731053460E-3,-2.663159103E-4
3.641887197E0,-7.989477599E-4,-2.796316985E-3,7.989477599E-4
3.644374905E0,-7.989477599E-4,-2.796316985E-3,7.989477599E-4
3.646862614E0,-7.989477599E-4,-3.861580743E-3,7.989477599E-4
3.649350322E0,-7.989477599E-4,-3.861580743E-3,7.989477599E-4
3.651838030E0,-7.989477599E-4,-2.796316985E-3,-2.663159103E-4
3.654325739E0,-7.989477599E-4,-3.861580743E-3,-2.663159103E-4
3.656813447E0,-7.989477599E-4,-3.861580743E-3,-2.663159103E-4
3.659301155E0,-7.989477599E-4,-3.861580743E-3,7.989477599E-4
3.661788864E0,-7.989477599E-4,-3.861580743E-3,7.989477599E-4
3.664276572E0,-7.989477599E-4,-3.861580743E-3,7.989477599E-4
3.666764280E0,-7.989477599E-4,-2.796316985E-3,7.989477599E-4
3.669251989E0,-7.989477599E-4,-2.796316985E-3,7.989477599E-4
3.671739697E0,-7.989477599E-4,-2.796316985E-3,7.989477599E-4
3.674227405E0,-7.989477599E-4,-2.796316985E-3,7.989477599E-4
3.676715114E0,-1.864211401E-3,-2.796316985E-3,7.989477599E-4
3.679202822E0,-1.864211401E-3,-2.796316985E-3,1.864211401E-3
3.681690530E0,-7.989477599E-4,-3.861580743E-3,1.864211401E-3
3.684178239E0,-7.989477599E-4,-3.861580743E-3,1.864211401E-3
3.686665947E0,-7.989477599E-4,-3.861580743E-3,7.989477599E-4
3.689153655E0,-7.989477599E-4,-3.861580743E-3,7.989477599E-4
3.691641364E0,-7.989477599E-4,-3.861580743E-3,7.989477599E-4
3.694129072E0,-7.989477599E-4,-3.861580743E-3,7.989477599E-4
3.696616780E0,-7.989477599E-4,-4.926844500E-3,7.989477599E-4
3.699104489E0,-7.989477599E-4,-4.926844500E-3,2.929474926E-3
3.701592197E0,2.663159103E-4,-3.861580743E-3,2.929474926E-3
3.704079905E0,2.663159103E-4,-3.861580743E-3,2.929474926E-3
3.706567614E0,2.663159103E-4,-3.861580743E-3,2.929474926E-3
3.709055322E0,-7.989477599E-4,-4.926844500E-3,1.864211401E-3
3.711543030E0,-7.989477599E-4,-4.926844500E-3,2.929474926E-3
3.714030739E0,-7.989477599E-4,-3.861580743E-3,1.864211401E-3
3.716518447E0,-7.989477599E-4,-3.861580743E-3,7.989477599E-4
3.719006155E0,-7.989477599E-4,-3.861580743E-3,7.989477599E-4
3.721493864E0,-1.864211401E-3,-3.861580743E-3,7.989477599E-4
3.723981572E0,-7.989477599E-4,-3.861580743E-3,7.989477599E-4
3.726469280E0,-7.989477599E-4,-3.861580743E-3,7.989477599E-4
3.728956989E0,-7.989477599E-4,-3.861580743E-3,7.989477599E-4
3.731444697E0,-7.989477599E-4,-2.796316985E-3,7.989477599E-4
3.733932405E0,-7.989477599E-4,-2.796316985E-3,7.989477599E-4
3.736420114E0,-7.989477599E-4,-3.861580743E-3,7.989477599E-4
3.738907822E0,-7.989477599E-4,-3.861580743E-3,7.989477599E-4
3.741395530E0,-7.989477599E-4,-3.861580743E-3,-2.663159103E-4
3.743883239E0,-7.989477599E-4,-3.861580743E-3,-2.663159103E-4
3.746370947E0,-7.989477599E-4,-3.861580743E-3,-2.663159103E-4
3.748858655E0,-7.989477599E-4,-3.861580743E-3,7.989477599E-4
3.751346364E0,-7.989477599E-4,-3.861580743E-3,7.989477599E-4
3.753834072E0,-7.989477599E-4,-3.861580743E-3,7.989477599E-4
3.756321780E0,-7.989477599E-4,-3.861580743E-3,1.864211401E-3
3.758809489E0,-7.989477599E-4,-3.861580743E-3,1.864211401E-3
3.761297197E0,-7.989477599E-4,-3.861580743E-3,-2.663159103E-4
3.763784957E0,-7.989477599E-4,-3.861580743E-3,7.989477599E-4
3.766272718E0,-7.989477599E-4,-3.861580743E-3,7.989477599E-4
3.768760478E0,-7.989477599E-4,-3.861580743E-3,7.989477599E-4
3.771248239E0,-7.989477599E-4,-3.861580743E-3,7.989477599E-4
3.773735999E0,-1.864211401E-3,-3.861580743E-3,-2.663159103E-4
3.776223759E0,-7.989477599E-4,-3.861580743E-3,7.989477599E-4
3.778711520E0,-7.989477599E-4,-2.796316985E-3,7.989477599E-4
3.781199280E0,-7.989477599E-4,-2.796316985E-3,7.989477599E-4
3.783687041E0,-7.989477599E-4,-2.796316985E-3,1.864211401E-3
3.786174801E0,-7.989477599E-4,-2.796316985E-3,7.989477599E-4
3.788662561E0,-7.989477599E-4,-2.796316985E-3,1.864211401E-3
3.791150322E0,-7.989477599E-4,-2.796316985E-3,7.989477599E-4
3.793638082E0,-7.989477599E-4,-2.796316985E-3,7.989477599E-4
3.796125843E0,-1.864211401E-3,-2.796316985E-3,7.989477599E-4
3.798613603E0,-2.929474926E-3,-2.796316985E-3,7.989477599E-4
3.801101364E0,-1.864211401E-3,-2.796316985E-3,7.989477599E-4
3.803589124E0,-7.989477599E-4,-2.796316985E-3,7.989477599E-4
3.806076884E0,-7.989477599E-4,-2.796316985E-3,7.989477599E-4
3.808564645E0,-7.989477599E-4,-2.796316985E-3,1.864211401E-3
3.811052405E0,-7.989477599E-4,-3.861580743E-3,1.864211401E-3
3.813540166E0,-7.989477599E-4,-3.861580743E-3,1.864211401E-3
3.816027926E0,-7.989477599E-4,-3.861580743E-3,1.864211401E-3
3.818515686E0,-1.864211401E-3,-3.861580743E-3,1.864211401E-3
3.821003447E0,-7.989477599E-4,-3.861580743E-3,7.989477599E-4
3.823491207E0,-1.864211401E-3,-3.861580743E-3,1.864211401E-3
3.825978968E0,-1.864211401E-3,-3.861580743E-3,7.989477599E-4
3.828466728E0,-1.864211401E-3,-3.861580743E-3,1.864211401E-3
3.830954489E0,-7.989477599E-4,-3.861580743E-3,1.864211401E-3
3.833442249E0,-7.989477599E-4,-3.861580743E-3,7.989477599E-4
3.835930009E0,-7.989477599E-4,-3.861580743E-3,7.989477599E-4
3.838417770E0,-7.989477599E-4,-3.861580743E-3,7.989477599E-4
3.840905530E0,-7.989477599E-4,-3.861580743E-3,2.929474926E-3
3.843393291E0,-7.989477599E-4,-3.861580743E-3,2.929474926E-3
3.845881051E0,-7.989477599E-4,-3.861580743E-3,2.929474926E-3
3.848368811E0,-7.989477599E-4,-2.796316985E-3,1.864211401E-3
3.850856572E0,-7.989477599E-4,-2.796316985E-3,1.864211401E-3
3.853344332E0,-7.989477599E-4,-2.796316985E-3,1.864211401E-3
3.855832093E0,-7.989477599E-4,-2.796316985E-3,1.864211401E-3
3.858319853E0,-7.989477599E-4,-2.796316985E-3,7.989477599E-4
3.860807614E0,-7.989477599E-4,-2.796316985E-3,7.989477599E-4
3.863295374E0,-7.989477599E-4,-2.796316985E-3,7.989477599E-4
3.865783134E0,-7.989477599E-4,-3.861580743E-3,7.989477599E-4
3.868270895E0,-7.989477599E-4,-3.861580743E-3,7.989477599E-4
3.870758655E0,-7.989477599E-4,-4.926844500E-3,2.929474926E-3
3.873246416E0,-7.989477599E-4,-4.926844500E-3,1.864211401E-3
3.875734176E0,-7.989477599E-4,-3.861580743E-3,1.864211401E-3
3.878221936E0,-1.864211401E-3,-4.926844500E-3,2.929474926E-3
3.880709697E0,-7.989477599E-4,-4.926844500E-3,2.929474926E-3
3.883197405E0,-7.989477599E-4,-4.926844500E-3,2.929474926E-3
3.885685114E0,-1.864211401E-3,-4.926844500E-3,2.929474926E-3
3.888172822E0,-7.989477599E-4,-4.926844500E-3,2.929474926E-3
3.890660530E0,-7.989477599E-4,-3.861580743E-3,1.864211401E-3
3.893148239E0,-7.989477599E-4,-2.796316985E-3,7.989477599E-4
3.895635947E0,-7.989477599E-4,-2.796316985E-3,7.989477599E-4
3.898123655E0,-7.989477599E-4,-3.861580743E-3,-2.663159103E-4
3.900611364E0,-7.989477599E-4,-3.861580743E-3,7.989477599E-4
3.903099072E0,-7.989477599E-4,-3.861580743E-3,7.989477599E-4
3.905586780E0,-7.989477599E-4,-2.796316985E-3,7.989477599E-4
3.908074489E0,-7.989477599E-4,-3.861580743E-3,-2.663159103E-4
3.910562197E0,-7.989477599E-4,-3.861580743E-3,-2.663159103E-4
3.913049905E0,-7.989477599E-4,-4.926844500E-3,-2.663159103E-4
3.915537614E0,-7.989477599E-4,-4.926844500E-3,-2.663159103E-4
3.918025322E0,-7.989477599E-4,-4.926844500E-3,-2.663159103E-4
3.920513030E0,-7.989477599E-4,-4.926844500E-3,-2.663159103E-4
3.923000739E0,-7.989477599E-4,-3.861580743E-3,-2.663159103E-4
3.925488447E0,-7.989477599E-4,-4.926844500E-3,-2.663159103E-4
3.927976155E0,-7.989477599E-4,-4.926844500E-3,7.989477599E-4
3.930463864E0,-7.989477599E-4,-4.926844500E-3,7.989477599E-4
3.932951572E0,-7.989477599E-4,-4.926844500E-3,7.989477599E-4
3.935439280E0,-7.989477599E-4,-4.926844500E-3,7.989477599E-4
3.937926989E0,-7.989477599E-4,-3.861580743E-3,7.989477599E-4
3.940414697E0,-7.989477599E-4,-3.861580743E-3,1.864211401E-3
3.942902405E0,-7.989477599E-4,-3.861580743E-3,7.989477599E-4
3.945390114E0,-7.989477599E-4,-4.926844500E-3,7.989477599E-4
3.947877822E0,-7.989477599E-4,-3.861580743E-3,7.989477599E-4
3.950365530E0,-7.989477599E-4,-3.861580743E-3,1.864211401E-3
3.952853239E0,-7.989477599E-4,-3.861580743E-3,2.929474926E-3
3.955340947E0,-7.989477599E-4,-3.861580743E-3,2.929474926E-3
3.957828655E0,-1.864211401E-3,-3.861580743E-3,1.864211401E-3
3.960316364E0,-7.989477599E-4,-3.861580743E-3,7.989477599E-4
3.962804072E0,-7.989477599E-4,-3.861580743E-3,7.989477599E-4
3.965291780E0,-7.989477599E-4,-2.796316985E-3,7.989477599E-4
3.967779489E0,-7.989477599E-4,-2.796316985E-3,7.989477599E-4
3.970267197E0,-7.989477599E-4,-3.861580743E-3,1.864211401E-3
3.972754905E0,-1.864211401E-3,-3.861580743E-3,7.989477599E-4
3.975242614E0,-7.989477599E-4,-3.861580743E-3,7.989477599E-4
3.977730322E0,-7.989477599E-4,-3.861580743E-3,7.989477599E-4
3.980218030E0,-7.989477599E-4,-3.861580743E-3,7.989477599E-4
3.982705739E0,-7.989477599E-4,-3.861580743E-3,7.989477599E-4
3.985193447E0,-7.989477599E-4,-4.926844500E-3,7.989477599E-4
3.987681155E0,-7.989477599E-4,-4.926844500E-3,7.989477599E-4
3.990168864E0,-7.989477599E-4,-4.926844500E-3,7.989477599E-4
3.992656572E0,-7.989477599E-4,-3.861580743E-3,7.989477599E-4
3.995144280E0,-7.989477599E-4,-3.861580743E-3,7.989477599E-4
3.997631989E0,-7.989477599E-4,-3.861580743E-3,-2.663159103E-4
4.000119697E0,-7.989477599E-4,-4.926844500E-3,7.989477599E-4
4.002607405E0,-7.989477599E-4,-4.926844500E-3,2.929474926E-3
4.005095166E0,-7.989477599E-4,-4.926844500E-3,2.929474926E-3
4.007582926E0,-7.989477599E-4,-3.861580743E-3,1.864211401E-3
4.010070686E0,-7.989477599E-4,-4.926844500E-3,7.989477599E-4
4.012558447E0,-7.989477599E-4,-4.926844500E-3,7.989477599E-4
4.015046207E0,-7.989477599E-4,-4.926844500E-3,7.989477599E-4
4.017533968E0,-7.989477599E-4,-3.861580743E-3,1.864211401E-3
4.020021728E0,-7.989477599E-4,-3.861580743E-3,7.989477599E-4
4.022509489E0,-7.989477599E-4,-3.861580743E-3,7.989477599E-4
4.024997249E0,-7.989477599E-4,-3.861580743E-3,1.864211401E-3
4.027485009E0,-7.989477599E-4,-3.861580743E-3,1.864211401E-3
4.029972770E0,-7.989477599E-4,-3.861580743E-3,1.864211401E-3
4.032460530E0,-7.989477599E-4,-4.926844500E-3,7.989477599E-4
4.034948291E0,-7.989477599E-4,-4.926844500E-3,7.989477599E-4
4.037436051E0,-7.989477599E-4,-4.926844500E-3,7.989477599E-4
4.039923811E0,2.663159103E-4,-3.861580743E-3,7.989477599E-4
4.042411572E0,2.663159103E-4,-3.861580743E-3,7.989477599E-4
4.044899332E0,2.663159103E-4,-4.926844500E-3,7.989477599E-4
4.047387093E0,2.663159103E-4,-4.926844500E-3,7.989477599E-4
4.049874853E0,2.663159103E-4,-3.861580743E-3,1.864211401E-3
4.052362614E0,2.663159103E-4,-3.861580743E-3,7.989477599E-4
4.054850374E0,1.331579522E-3,-3.861580743E-3,7.989477599E-4
4.057338134E0,2.663159103E-4,-3.861580743E-3,7.989477599E-4
4.059825895E0,2.663159103E-4,-3.861580743E-3,7.989477599E-4
4.062313655E0,-7.989477599E-4,-3.861580743E-3,7.989477599E-4
4.064801416E0,-7.989477599E-4,-3.861580743E-3,7.989477599E-4
4.067289176E0,-7.989477599E-4,-3.861580743E-3,7.989477599E-4
4.069776936E0,-7.989477599E-4,-3.861580743E-3,7.989477599E-4
4.072264697E0,-7.989477599E-4,-3.861580743E-3,7.989477599E-4
4.074752457E0,-7.989477599E-4,-3.861580743E-3,7.989477599E-4
4.077240218E0,-7.989477599E-4,-3.861580743E-3,7.989477599E-4
4.079727978E0,-7.989477599E-4,-3.861580743E-3,7.989477599E-4
4.082215739E0,-7.989477599E-4,-3.861580743E-3,-2.663159103E-4
4.084703499E0,-7.989477599E-4,-3.861580743E-3,-2.663159103E-4
4.087191259E0,-7.989477599E-4,-3.861580743E-3,-2.663159103E-4
4.089679020E0,-7.989477599E-4,-3.861580743E-3,-2.663159103E-4
4.092166780E0,-7.989477599E-4,-3.861580743E-3,-2.663159103E-4
4.094654541E0,-7.989477599E-4,-2.796316985E-3,-2.663159103E-4
4.097142301E0,-7.989477599E-4,-2.796316985E-3,7.989477599E-4
4.099630061E0,-7.989477599E-4,-2.796316985E-3,7.989477599E-4
4.102117822E0,-7.989477599E-4,-3.861580743E-3,1.864211401E-3
4.104605582E0,-7.989477599E-4,-3.861580743E-3,1.864211401E-3
4.107093343E0,-7.989477599E-4,-2.796316985E-3,7.989477599E-4
4.109581103E0,-7.989477599E-4,-2.796316985E-3,7.989477599E-4
4.112068864E0,-7.989477599E-4,-2.796316985E-3,7.989477599E-4
4.114556624E0,-7.989477599E-4,-3.861580743E-3,7.989477599E-4
4.117044384E0,-7.989477599E-4,-3.861580743E-3,-2.663159103E-4
4.119532145E0,-7.989477599E-4,-3.861580743E-3,7.989477599E-4
4.122019905E0,-7.989477599E-4,-3.861580743E-3,7.989477599E-4
4.124507666E0,-7.989477599E-4,-3.861580743E-3,7.989477599E-4
4.126995426E0,-7.989477599E-4,-3.861580743E-3,7.989477599E-4
4.129483134E0,-7.989477599E-4,-3.861580743E-3,-2.663159103E-4
4.131970843E0,-7.989477599E-4,-3.861580743E-3,-2.663159103E-4
4.134458551E0,-7.989477599E-4,-3.861580743E-3,7.989477599E-4
4.136946259E0,-7.989477599E-4,-3.861580743E-3,7.989477599E-4
4.139433968E0,-1.864211401E-3,-3.861580743E-3,7.989477599E-4
4.141921676E0,-7.989477599E-4,-2.796316985E-3,7.989477599E-4
4.144409384E0,-1.864211401E-3,-2.796316985E-3,1.864211401E-3
4.146897093E0,-1.864211401E-3,-3.861580743E-3,1.864211401E-3
4.149384801E0,-7.989477599E-4,-3.861580743E-3,1.864211401E-3
4.151872509E0,-7.989477599E-4,-3.861580743E-3,7.989477599E-4
4.154360218E0,-7.989477599E-4,-3.861580743E-3,7.989477599E-4
4.156847926E0,-7.989477599E-4,-3.861580743E-3,7.989477599E-4
4.159335634E0,-1.864211401E-3,-3.861580743E-3,7.989477599E-4
4.161823343E0,-7.989477599E-4,-3.861580743E-3,7.989477599E-4
4.164311051E0,-7.989477599E-4,-3.861580743E-3,7.989477599E-4
4.166798759E0,-7.989477599E-4,-3.861580743E-3,1.864211401E-3
4.169286468E0,-7.989477599E-4,-3.861580743E-3,1.864211401E-3
4.171774176E0,-7.989477599E-4,-3.861580743E-3,1.864211401E-3
4.174261884E0,2.663159103E-4,-3.861580743E-3,7.989477599E-4
4.176749593E0,2.663159103E-4,-3.861580743E-3,7.989477599E-4
4.179237301E0,-7.989477599E-4,-3.861580743E-3,1.864211401E-3
4.181725009E0,-7.989477599E-4,-3.861580743E-3,2.929474926E-3
4.184212718E0,-7.989477599E-4,-3.861580743E-3,7.989477599E-4
4.186700426E0,-7.989477599E-4,-2.796316985E-3,7.989477599E-4
4.189188134E0,-1.864211401E-3,-3.861580743E-3,7.989477599E-4
4.191675843E0,-7.989477599E-4,-2.796316985E-3,-2.663159103E-4
4.194163551E0,-7.989477599E-4,-3.861580743E-3,-2.663159103E-4
4.196651259E0,2.663159103E-4,-2.796316985E-3,-2.663159103E-4
4.199138968E0,2.663159103E-4,-2.796316985E-3,-2.663159103E-4
4.201626676E0,2.663159103E-4,-2.796316985E-3,-2.663159103E-4
4.204114384E0,-7.989477599E-4,-2.796316985E-3,-2.663159103E-4
4.206602093E0,-1.864211401E-3,-3.861580743E-3,7.989477599E-4
4.209089801E0,-2.929474926E-3,-3.861580743E-3,7.989477599E-4
4.211577509E0,-1.864211401E-3,-3.861580743E-3,7.989477599E-4
4.214065218E0,-1.864211401E-3,-3.861580743E-3,7.989477599E-4
4.216552926E0,-7.989477599E-4,-3.861580743E-3,1.864211401E-3
4.219040634E0,-7.989477599E-4,-3.861580743E-3,7.989477599E-4
4.221528343E0,-7.989477599E-4,-3.861580743E-3,7.989477599E-4
4.224016051E0,-7.989477599E-4,-3.861580743E-3,7.989477599E-4
4.226503759E0,-7.989477599E-4,-3.861580743E-3,7.989477599E-4
4.228991468E0,-7.989477599E-4,-3.861580743E-3,7.989477599E-4
4.231479176E0,-7.989477599E-4,-3.861580743E-3,7.989477599E-4
4.233966884E0,-7.989477599E-4,-3.861580743E-3,1.864211401E-3
4.236454593E0,-1.864211401E-3,-3.861580743E-3,7.989477599E-4
4.238942301E0,-1.864211401E-3,-3.861580743E-3,7.989477599E-4
4.241430009E0,-1.864211401E-3,-3.861580743E-3,7.989477599E-4
4.243917718E0,-7.989477599E-4,-3.861580743E-3,7.989477599E-4
4.246405426E0,-7.989477599E-4,-3.861580743E-3,7.989477599E-4
4.248893134E0,-7.989477599E-4,-3.861580743E-3,-2.663159103E-4
4.251380895E0,-7.989477599E-4,-3.861580743E-3,7.989477599E-4
4.253868655E0,-7.989477599E-4,-3.861580743E-3,-2.663159103E-4
4.256356416E0,-7.989477599E-4,-3.861580743E-3,7.989477599E-4
4.258844176E0,-7.989477599E-4,-2.796316985E-3,-2.663159103E-4
4.261331936E0,-1.864211401E-3,-2.796316985E-3,-2.663159103E-4
4.263819697E0,-1.864211401E-3,-3.861580743E-3,7.989477599E-4
4.266307457E0,-1.864211401E-3,-3.861580743E-3,7.989477599E-4
4.268795218E0,-1.864211401E-3,-3.861580743E-3,7.989477599E-4
4.271282978E0,-1.864211401E-3,-3.861580743E-3,7.989477599E-4
4.273770739E0,-7.989477599E-4,-3.861580743E-3,7.989477599E-4
4.276258499E0,-7.989477599E-4,-2.796316985E-3,-2.663159103E-4
4.278746259E0,-7.989477599E-4,-2.796316985E-3,-2.663159103E-4
4.281234020E0,-7.989477599E-4,-2.796316985E-3,-2.663159103E-4
4.283721780E0,-7.989477599E-4,-2.796316985E-3,-2.663159103E-4
4.286209541E0,-1.864211401E-3,-3.861580743E-3,-2.663159103E-4
4.288697301E0,-7.989477599E-4,-3.861580743E-3,-2.663159103E-4
4.291185061E0,-7.989477599E-4,-3.861580743E-3,7.989477599E-4
4.293672822E0,-7.989477599E-4,-3.861580743E-3,7.989477599E-4
4.296160582E0,-7.989477599E-4,-3.861580743E-3,7.989477599E-4
4.298648343E0,-7.989477599E-4,-2.796316985E-3,7.989477599E-4
4.301136103E0,-7.989477599E-4,-2.796316985E-3,7.989477599E-4
4.303623864E0,-1.864211401E-3,-3.861580743E-3,7.989477599E-4
4.306111624E0,-1.864211401E-3,-3.861580743E-3,7.989477599E-4
4.308599384E0,-2.929474926E-3,-3.861580743E-3,7.989477599E-4
4.311087145E0,-1.864211401E-3,-3.861580743E-3,7.989477599E-4
4.313574905E0,-7.989477599E-4,-2.796316985E-3,7.989477599E-4
4.316062666E0,-7.989477599E-4,-3.861580743E-3,7.989477599E-4
4.318550426E0,-7.989477599E-4,-4.926844500E-3,7.989477599E-4
4.321038186E0,-7.989477599E-4,-4.926844500E-3,1.864211401E-3
4.323525947E0,-7.989477599E-4,-4.926844500E-3,7.989477599E-4
4.326013707E0,-7.989477599E-4,-3.861580743E-3,7.989477599E-4
4.328501468E0,-7.989477599E-4,-3.861580743E-3,1.864211401E-3
4.330989228E0,-7.989477599E-4,-3.861580743E-3,7.989477599E-4
4.333476989E0,-7.989477599E-4,-3.861580743E-3,7.989477599E-4
4.335964749E0,-7.989477599E-4,-3.861580743E-3,7.989477599E-4
4.338452509E0,-7.989477599E-4,-3.861580743E-3,7.989477599E-4
4.340940270E0,-7.989477599E-4,-3.861580743E-3,7.989477599E-4
4.343428030E0,-7.989477599E-4,-3.861580743E-3,7.989477599E-4
4.345915791E0,-7.989477599E-4,-3.861580743E-3,7.989477599E-4
4.348403551E0,-7.989477599E-4,-4.926844500E-3,7.989477599E-4
4.350891311E0,-7.989477599E-4,-4.926844500E-3,7.989477599E-4
4.353379072E0,-7.989477599E-4,-3.861580743E-3,-2.663159103E-4
4.355866832E0,-7.989477599E-4,-3.861580743E-3,-2.663159103E-4
4.358354593E0,2.663159103E-4,-3.861580743E-3,7.989477599E-4
4.360842353E0,2.663159103E-4,-3.861580743E-3,7.989477599E-4
4.363330114E0,-7.989477599E-4,-4.926844500E-3,7.989477599E-4
4.365817874E0,-7.989477599E-4,-4.926844500E-3,7.989477599E-4
4.368305634E0,-7.989477599E-4,-4.926844500E-3,1.864211401E-3
4.370793395E0,-7.989477599E-4,-4.926844500E-3,7.989477599E-4
4.373281103E0,-1.864211401E-3,-4.926844500E-3,7.989477599E-4
4.375768811E0,-7.989477599E-4,-4.926844500E-3,7.989477599E-4
4.378256520E0,-7.989477599E-4,-4.926844500E-3,7.989477599E-4
4.380744228E0,-7.989477599E-4,-4.926844500E-3,7.989477599E-4
4.383231936E0,-7.989477599E-4,-4.926844500E-3,-2.663159103E-4
4.385719645E0,-7.989477599E-4,-4.926844500E-3,7.989477599E-4
4.388207353E0,-7.989477599E-4,-4.926844500E-3,7.989477599E-4
4.390695061E0,-7.989477599E-4,-5.992108025E-3,7.989477599E-4
4.393182770E0,-7.989477599E-4,-5.992108025E-3,7.989477599E-4
4.395670478E0,-1.864211401E-3,-5.992108025E-3,1.864211401E-3
4.398158186E0,-1.864211401E-3,-5.992108025E-3,1.864211401E-3
4.400645895E0,-7.989477599E-4,-5.992108025E-3,1.864211401E-3
4.403133603E0,-7.989477599E-4,-5.992108025E-3,7.989477599E-4
4.405621311E0,-7.989477599E-4,-4.926844500E-3,7.989477599E-4
4.408109020E0,-7.989477599E-4,-4.926844500E-3,7.989477599E-4
4.410596728E0,2.663159103E-4,-4.926844500E-3,1.864211401E-3
4.413084436E0,-7.989477599E-4,-3.861580743E-3,7.989477599E-4
4.415572145E0,-7.989477599E-4,-3.861580743E-3,7.989477599E-4
4.418059853E0,-7.989477599E-4,-3.861580743E-3,7.989477599E-4
4.420547561E0,-7.989477599E-4,-4.926844500E-3,7.989477599E-4
4.423035270E0,-1.864211401E-3,-4.926844500E-3,7.989477599E-4
4.425522978E0,-7.989477599E-4,-4.926844500E-3,7.989477599E-4
4.428010686E0,-7.989477599E-4,-4.926844500E-3,-2.663159103E-4
4.430498395E0,-7.989477599E-4,-4.926844500E-3,7.989477599E-4
4.432986103E0,-7.989477599E-4,-3.861580743E-3,7.989477599E-4
4.435473811E0,-7.989477599E-4,-4.926844500E-3,7.989477599E-4
4.437961520E0,-7.989477599E-4,-4.926844500E-3,7.989477599E-4
4.440449228E0,-7.989477599E-4,-4.926844500E-3,7.989477599E-4
4.442936936E0,-7.989477599E-4,-4.926844500E-3,7.989477599E-4
4.445424645E0,-7.989477599E-4,-4.926844500E-3,1.864211401E-3
4.447912353E0,-7.989477599E-4,-4.926844500E-3,2.929474926E-3
4.450400061E0,-7.989477599E-4,-4.926844500E-3,1.864211401E-3
4.452887770E0,-7.989477599E-4,-3.861580743E-3,1.864211401E-3
4.455375478E0,-7.989477599E-4,-3.861580743E-3,7.989477599E-4
4.457863186E0,2.663159103E-4,-3.861580743E-3,7.989477599E-4
4.460350895E0,2.663159103E-4,-3.861580743E-3,7.989477599E-4
4.462838603E0,2.663159103E-4,-3.861580743E-3,7.989477599E-4
4.465326311E0,-7.989477599E-4,-3.861580743E-3,7.989477599E-4
4.467814020E0,-7.989477599E-4,-4.926844500E-3,7.989477599E-4
4.470301728E0,-7.989477599E-4,-4.926844500E-3,7.989477599E-4
4.472789436E0,-7.989477599E-4,-3.861580743E-3,7.989477599E-4
4.475277145E0,-7.989477599E-4,-3.861580743E-3,-2.663159103E-4
4.477764853E0,2.663159103E-4,-3.861580743E-3,-2.663159103E-4
4.480252561E0,-7.989477599E-4,-3.861580743E-3,7.989477599E-4
4.482740270E0,-7.989477599E-4,-2.796316985E-3,7.989477599E-4
4.485227978E0,-7.989477599E-4,-3.861580743E-3,7.989477599E-4
4.487715686E0,-7.989477599E-4,-3.861580743E-3,-2.663159103E-4
4.490203395E0,-7.989477599E-4,-3.861580743E-3,-2.663159103E-4
4.492691103E0,-7.989477599E-4,-3.861580743E-3,-2.663159103E-4
4.495178811E0,-7.989477599E-4,-3.861580743E-3,7.989477599E-4
4.497666572E0,-7.989477599E-4,-3.861580743E-3,7.989477599E-4
4.500154332E0,-7.989477599E-4,-3.861580743E-3,1.864211401E-3
4.502642093E0,-7.989477599E-4,-4.926844500E-3,7.989477599E-4
4.505129853E0,-7.989477599E-4,-3.861580743E-3,7.989477599E-4
4.507617614E0,2.663159103E-4,-3.861580743E-3,7.989477599E-4
4.510105374E0,2.663159103E-4,-3.861580743E-3,7.989477599E-4
4.512593134E0,2.663159103E-4,-3.861580743E-3,7.989477599E-4
4.515080895E0,2.663159103E-4,-3.861580743E-3,7.989477599E-4
4.517568655E0,2.663159103E-4,-3.861580743E-3,7.989477599E-4
4.520056416E0,-7.989477599E-4,-3.861580743E-3,7.989477599E-4
4.522544176E0,-7.989477599E-4,-3.861580743E-3,-2.663159103E-4
4.525031936E0,-7.989477599E-4,-4.926844500E-3,-2.663159103E-4
4.527519697E0,-7.989477599E-4,-4.926844500E-3,7.989477599E-4
4.530007457E0,-7.989477599E-4,-3.861580743E-3,-2.663159103E-4
4.532495218E0,2.663159103E-4,-3.861580743E-3,-2.663159103E-4
4.534982978E0,-7.989477599E-4,-3.861580743E-3,-2.663159103E-4
4.537470739E0,-7.989477599E-4,-2.796316985E-3,-2.663159103E-4
4.539958499E0,-7.989477599E-4,-2.796316985E-3,-2.663159103E-4
4.542446259E0,-1.864211401E-3,-2.796316985E-3,7.989477599E-4
4.544934020E0,-7.989477599E-4,-2.796316985E-3,7.989477599E-4
4.547421780E0,-7.989477599E-4,-2.796316985E-3,7.989477599E-4
4.549909541E0,-7.989477599E-4,-2.796316985E-3,7.989477599E-4
4.552397301E0,-7.989477599E-4,-2.796316985E-3,7.989477599E-4
4.554885061E0,-7.989477599E-4,-3.861580743E-3,1.864211401E-3
4.557372822E0,-7.989477599E-4,-2.796316985E-3,1.864211401E-3
4.559860582E0,-7.989477599E-4,-3.861580743E-3,1.864211401E-3
4.562348343E0,-1.864211401E-3,-2.796316985E-3,1.864211401E-3
4.564836103E0,-1.864211401E-3,-2.796316985E-3,1.864211401E-3
4.567323864E0,-7.989477599E-4,-3.861580743E-3,2.929474926E-3
4.569811624E0,-7.989477599E-4,-3.861580743E-3,2.929474926E-3
4.572299384E0,-7.989477599E-4,-3.861580743E-3,2.929474926E-3
4.574787145E0,-7.989477599E-4,-4.926844500E-3,2.929474926E-3
4.577274905E0,-7.989477599E-4,-4.926844500E-3,1.864211401E-3
4.579762666E0,-7.989477599E-4,-3.861580743E-3,1.864211401E-3
4.582250426E0,-7.989477599E-4,-4.926844500E-3,1.864211401E-3
4.584738186E0,-7.989477599E-4,-4.926844500E-3,7.989477599E-4
4.587225947E0,-7.989477599E-4,-4.926844500E-3,-2.663159103E-4
4.589713707E0,2.663159103E-4,-3.861580743E-3,7.989477599E-4
4.592201468E0,-7.989477599E-4,-3.861580743E-3,7.989477599E-4
4.594689228E0,-7.989477599E-4,-3.861580743E-3,1.864211401E-3
4.597176989E0,-7.989477599E-4,-3.861580743E-3,7.989477599E-4
4.599664749E0,-7.989477599E-4,-4.926844500E-3,7.989477599E-4
4.602152509E0,-7.989477599E-4,-4.926844500E-3,7.989477599E-4
4.604640270E0,-7.989477599E-4,-4.926844500E-3,7.989477599E-4
4.607128030E0,2.663159103E-4,-3.861580743E-3,7.989477599E-4
4.609615791E0,-7.989477599E-4,-3.861580743E-3,7.989477599E-4
4.612103551E0,-7.989477599E-4,-3.861580743E-3,7.989477599E-4
4.614591311E0,-7.989477599E-4,-2.796316985E-3,7.989477599E-4
4.617079020E0,2.663159103E-4,-2.796316985E-3,7.989477599E-4
4.619566728E0,2.663159103E-4,-2.796316985E-3,1.864211401E-3
4.622054436E0,-7.989477599E-4,-2.796316985E-3,7.989477599E-4
4.624542145E0,2.663159103E-4,-2.796316985E-3,7.989477599E-4
4.627029853E0,-7.989477599E-4,-2.796316985E-3,7.989477599E-4
4.629517561E0,-7.989477599E-4,-3.861580743E-3,7.989477599E-4
4.632005270E0,-7.989477599E-4,-2.796316985E-3,7.989477599E-4
4.634492978E0,-7.989477599E-4,-2.796316985E-3,7.989477599E-4
4.636980686E0,-7.989477599E-4,-2.796316985E-3,1.864211401E-3
4.639468395E0,-7.989477599E-4,-2.796316985E-3,1.864211401E-3
4.641956103E0,-7.989477599E-4,-2.796316985E-3,1.864211401E-3
4.644443811E0,-7.989477599E-4,-2.796316985E-3,1.864211401E-3
4.646931520E0,-7.989477599E-4,-2.796316985E-3,1.864211401E-3
4.649419228E0,-7.989477599E-4,-2.796316985E-3,7.989477599E-4
4.651906936E0,2.663159103E-4,-2.796316985E-3,7.989477599E-4
4.654394645E0,2.663159103E-4,-2.796316985E-3,7.989477599E-4
4.656882353E0,2.663159103E-4,-3.861580743E-3,7.989477599E-4
4.659370061E0,1.331579522E-3,-3.861580743E-3,7.989477599E-4
4.661857770E0,2.663159103E-4,-2.796316985E-3,7.989477599E-4
4.664345478E0,2.663159103E-4,-3.861580743E-3,7.989477599E-4
4.666833186E0,2.663159103E-4,-3.861580743E-3,1.864211401E-3
4.669320895E0,2.663159103E-4,-2.796316985E-3,1.864211401E-3
4.671808603E0,2.663159103E-4,-2.796316985E-3,1.864211401E-3
4.674296311E0,2.663159103E-4,-3.861580743E-3,1.864211401E-3
4.676784020E0,1.331579522E-3,-3.861580743E-3,1.864211401E-3
4.679271728E0,1.331579522E-3,-3.861580743E-3,1.864211401E-3
4.681759436E0,1.331579522E-3,-3.861580743E-3,1.864211401E-3
4.684247145E0,2.663159103E-4,-4.926844500E-3,1.864211401E-3
4.686734853E0,2.663159103E-4,-4.926844500E-3,1.864211401E-3
4.689222561E0,1.331579522E-3,-4.926844500E-3,7.989477599E-4
4.691710270E0,1.331579522E-3,-3.861580743E-3,7.989477599E-4
4.694197978E0,1.331579522E-3,-3.861580743E-3,7.989477599E-4
4.696685686E0,1.331579522E-3,-3.861580743E-3,7.989477599E-4
4.699173395E0,1.331579522E-3,-3.861580743E-3,7.989477599E-4
4.701661103E0,1.331579522E-3,-3.861580743E-3,7.989477599E-4
4.704148811E0,1.331579522E-3,-3.861580743E-3,7.989477599E-4
4.706636520E0,2.663159103E-4,-3.861580743E-3,7.989477599E-4
4.709124228E0,-7.989477599E-4,-2.796316985E-3,-2.663159103E-4
4.711611936E0,2.663159103E-4,-3.861580743E-3,-2.663159103E-4
4.714099645E0,1.331579522E-3,-3.861580743E-3,7.989477599E-4
4.716587353E0,1.331579522E-3,-2.796316985E-3,7.989477599E-4
4.719075061E0,2.396843163E-3,-2.796316985E-3,7.989477599E-4
4.721562770E0,2.396843163E-3,-3.861580743E-3,2.929474926E-3
4.724050478E0,2.396843163E-3,-4.926844500E-3,1.864211401E-3
4.726538186E0,3.462106921E-3,-3.861580743E-3,1.864211401E-3
4.729025895E0,2.396843163E-3,-2.796316985E-3,1.864211401E-3
4.731513603E0,1.331579522E-3,-3.861580743E-3,1.864211401E-3
4.734001311E0,2.663159103E-4,-3.861580743E-3,1.864211401E-3
4.736489020E0,-3.994738683E-3,-2.796316985E-3,1.864211401E-3
4.738976728E0,-3.994738683E-3,-4.926844500E-3,2.929474926E-3
4.741464436E0,-1.864211401E-3,-4.926844500E-3,2.929474926E-3
4.743952145E0,1.331579522E-3,-1.731053460E-3,7.989477599E-4
4.746439905E0,3.462106921E-3,-6.657897611E-4,7.989477599E-4
4.748927666E0,3.462106921E-3,-3.861580743E-3,7.989477599E-4
4.751415426E0,3.462106921E-3,-4.926844500E-3,1.864211401E-3
4.753903186E0,3.462106921E-3,-3.861580743E-3,7.989477599E-4
4.756390947E0,3.462106921E-3,-3.861580743E-3,7.989477599E-4
4.758878707E0,3.462106921E-3,-3.861580743E-3,7.989477599E-4
4.761366468E0,2.396843163E-3,-3.861580743E-3,7.989477599E-4
4.763854228E0,1.331579522E-3,-2.796316985E-3,-2.663159103E-4
4.766341989E0,2.663159103E-4,-3.861580743E-3,-2.663159103E-4
4.768829749E0,-7.989477599E-4,-4.926844500E-3,-2.663159103E-4
4.771317509E0,-7.989477599E-4,-4.926844500E-3,-2.663159103E-4
4.773805270E0,-7.989477599E-4,-3.861580743E-3,-2.663159103E-4
4.776293030E0,-7.989477599E-4,-3.861580743E-3,-2.663159103E-4
4.778780791E0,-7.989477599E-4,-4.926844500E-3,7.989477599E-4
4.781268551E0,-7.989477599E-4,-5.992108025E-3,7.989477599E-4
4.783756311E0,-7.989477599E-4,-7.057371549E-3,7.989477599E-4
4.786244072E0,2.663159103E-4,-5.992108025E-3,-2.663159103E-4
4.788731832E0,1.331579522E-3,-4.926844500E-3,-2.663159103E-4
4.791219593E0,2.396843163E-3,-4.926844500E-3,7.989477599E-4
4.793707353E0,1.331579522E-3,-4.926844500E-3,7.989477599E-4
4.796195114E0,1.331579522E-3,-5.992108025E-3,1.864211401E-3
4.798682874E0,1.331579522E-3,-5.992108025E-3,1.864211401E-3
4.801170634E0,2.663159103E-4,-4.926844500E-3,7.989477599E-4
4.803658395E0,2.663159103E-4,-3.861580743E-3,-2.663159103E-4
4.806146155E0,-7.989477599E-4,-3.861580743E-3,-2.663159103E-4
4.808633916E0,-1.864211401E-3,-4.926844500E-3,7.989477599E-4
4.811121676E0,-1.864211401E-3,-5.992108025E-3,7.989477599E-4
4.813609436E0,-1.864211401E-3,-4.926844500E-3,7.989477599E-4
4.816097197E0,-7.989477599E-4,-4.926844500E-3,7.989477599E-4
4.818584957E0,-7.989477599E-4,-4.926844500E-3,7.989477599E-4
4.821072718E0,2.663159103E-4,-3.861580743E-3,7.989477599E-4
4.823560478E0,2.663159103E-4,-3.861580743E-3,7.989477599E-4
4.826048239E0,-7.989477599E-4,-3.861580743E-3,1.864211401E-3
4.828535999E0,-7.989477599E-4,-4.926844500E-3,1.864211401E-3
4.831023759E0,-7.989477599E-4,-4.926844500E-3,7.989477599E-4
4.833511520E0,2.663159103E-4,-4.926844500E-3,7.989477599E-4
4.835999280E0,2.663159103E-4,-3.861580743E-3,1.864211401E-3
4.838487041E0,2.663159103E-4,-4.926844500E-3,7.989477599E-4
4.840974801E0,2.663159103E-4,-5.992108025E-3,7.989477599E-4
4.843462561E0,2.663159103E-4,-5.992108025E-3,7.989477599E-4
4.845950322E0,-7.989477599E-4,-5.992108025E-3,7.989477599E-4
4.848438082E0,-7.989477599E-4,-4.926844500E-3,7.989477599E-4
4.850925843E0,-7.989477599E-4,-4.926844500E-3,1.864211401E-3
4.853413603E0,-7.989477599E-4,-4.926844500E-3,2.929474926E-3
4.855901364E0,-7.989477599E-4,-4.926844500E-3,1.864211401E-3
4.858389124E0,-7.989477599E-4,-4.926844500E-3,1.864211401E-3
4.860876832E0,2.663159103E-4,-4.926844500E-3,7.989477599E-4
4.863364541E0,1.331579522E-3,-3.861580743E-3,7.989477599E-4
4.865852249E0,2.663159103E-4,-3.861580743E-3,7.989477599E-4
4.868339957E0,2.663159103E-4,-3.861580743E-3,1.864211401E-3
4.870827666E0,-1.864211401E-3,-2.796316985E-3,7.989477599E-4
4.873315374E0,-2.929474926E-3,-3.861580743E-3,1.864211401E-3
4.875803082E0,-7.989477599E-4,-3.861580743E-3,7.989477599E-4
4.878290791E0,2.663159103E-4,-1.731053460E-3,7.989477599E-4
4.880778499E0,2.396843163E-3,-6.657897611E-4,-2.663159103E-4
4.883266207E0,1.331579522E-3,-1.731053460E-3,7.989477599E-4
4.885753916E0,2.663159103E-4,-4.926844500E-3,7.989477599E-4
4.888241624E0,1.331579522E-3,-4.926844500E-3,1.864211401E-3
4.890729332E0,2.663159103E-4,-3.861580743E-3,1.864211401E-3
4.893217041E0,-7.989477599E-4,-4.926844500E-3,1.864211401E-3
4.895704749E0,-7.989477599E-4,-5.992108025E-3,7.989477599E-4
4.898192457E0,-1.864211401E-3,-4.926844500E-3,-2.663159103E-4
4.900680166E0,-1.864211401E-3,-4.926844500E-3,-2.663159103E-4
4.903167874E0,-2.929474926E-3,-5.992108025E-3,7.989477599E-4
4.905655582E0,-2.929474926E-3,-5.992108025E-3,7.989477599E-4
4.908143291E0,-2.929474926E-3,-4.926844500E-3,7.989477599E-4
4.910630999E0,-1.864211401E-3,-4.926844500E-3,-2.663159103E-4
4.913118707E0,-2.929474926E-3,-4.926844500E-3,-2.663159103E-4
4.915606416E0,-1.864211401E-3,-4.926844500E-3,7.989477599E-4
4.918094124E0,-1.864211401E-3,-3.861580743E-3,7.989477599E-4
4.920581832E0,-7.989477599E-4,-3.861580743E-3,7.989477599E-4
4.923069541E0,-7.989477599E-4,-2.796316985E-3,7.989477599E-4
4.925557249E0,-7.989477599E-4,-2.796316985E-3,7.989477599E-4
4.928044957E0,-7.989477599E-4,-2.796316985E-3,7.989477599E-4
4.930532666E0,-7.989477599E-4,-2.796316985E-3,7.989477599E-4
4.933020374E0,-7.989477599E-4,-3.861580743E-3,1.864211401E-3
4.935508082E0,-7.989477599E-4,-2.796316985E-3,7.989477599E-4
4.937995791E0,-7.989477599E-4,-2.796316985E-3,7.989477599E-4
4.940483499E0,-7.989477599E-4,-2.796316985E-3,7.989477599E-4
4.942971207E0,-7.989477599E-4,-3.861580743E-3,7.989477599E-4
4.945458916E0,-7.989477599E-4,-4.926844500E-3,1.864211401E-3
4.947946624E0,-7.989477599E-4,-4.926844500E-3,1.864211401E-3
4.950434332E0,-7.989477599E-4,-4.926844500E-3,7.989477599E-4
4.952922041E0,2.663159103E-4,-4.926844500E-3,7.989477599E-4
4.955409749E0,2.663159103E-4,-4.926844500E-3,1.864211401E-3
4.957897457E0,2.663159103E-4,-4.926844500E-3,1.864211401E-3
4.960385166E0,2.663159103E-4,-5.992108025E-3,7.989477599E-4
4.962872874E0,2.663159103E-4,-5.992108025E-3,1.864211401E-3
4.965360582E0,-7.989477599E-4,-4.926844500E-3,1.864211401E-3
4.967848291E0,-7.989477599E-4,-4.926844500E-3,1.864211401E-3
4.970335999E0,-7.989477599E-4,-4.926844500E-3,1.864211401E-3
4.972823707E0,-7.989477599E-4,-4.926844500E-3,1.864211401E-3
4.975311416E0,-7.989477599E-4,-4.926844500E-3,7.989477599E-4
4.977799124E0,-7.989477599E-4,-3.861580743E-3,-2.663159103E-4
4.980286832E0,-7.989477599E-4,-3.861580743E-3,7.989477599E-4
4.982774541E0,2.663159103E-4,-3.861580743E-3,7.989477599E-4
4.985262249E0,-7.989477599E-4,-2.796316985E-3,7.989477599E-4
4.987749957E0,-7.989477599E-4,-2.796316985E-3,1.864211401E-3
4.990237666E0,-7.989477599E-4,-2.796316985E-3,7.989477599E-4
