"Time (s)","Acceleration x (m/s^2)","Acceleration y (m/s^2)","Acceleration z (m/s^2)"
2.694938400E-2,-9.767146111E0,-7.020996213E-1,1.705868691E-1
2.944412400E-2,-9.652224541E0,-7.260416746E-1,7.960720360E-2
3.193886300E-2,-9.546878815E0,-7.643488646E-1,1.735796221E-2
3.443360300E-2,-9.475052834E0,-8.026561141E-1,-2.094926499E-2
3.692839400E-2,-9.417592049E0,-8.553285599E-1,-5.925649032E-2
3.942584200E-2,-9.403226852E0,-9.175778031E-1,-7.362170517E-2
4.192329000E-2,-9.408015251E0,-9.941922426E-1,-3.531447425E-2
4.437329000E-2,-9.470264435E0,-1.099537134E0,-1.795651275E-3
4.682329000E-2,-9.714473724E0,-1.334168911E0,8.918401599E-2
4.927329000E-2,-1.033696556E1,-1.736394763E0,3.094505668E-1
5.172776900E-2,-1.064821243E1,-1.722029567E0,4.243722558E-1
5.418224900E-2,-1.050455952E1,-1.492186189E0,4.626794755E-1
5.664704000E-2,-1.015500641E1,-1.228824019E0,5.153518915E-1
5.912297800E-2,-9.824606895E0,-9.750386477E-1,6.111199856E-1
6.161021700E-2,-9.585186958E0,-7.499836683E-1,7.116764784E-1
6.410834200E-2,-9.465476036E0,-5.632359385E-1,7.882909179E-1
6.661651900E-2,-9.441534042E0,-4.578910768E-1,8.170213103E-1
6.913349900E-2,-9.431957245E0,-3.956418335E-1,8.265981078E-1
7.165776900E-2,-9.451110840E0,-3.573346138E-1,8.170213103E-1
7.418761300E-2,-9.532513618E0,-3.573346138E-1,8.218097091E-1
7.672110300E-2,-9.628282547E0,-3.764882088E-1,8.074445128E-1
7.925625900E-2,-9.690531731E0,-3.908534348E-1,7.404068708E-1
8.178454000E-2,-9.733627319E0,-3.908534348E-1,6.637924314E-1
8.427224900E-2,-9.762357712E0,-3.333925903E-1,5.632359385E-1
8.675995700E-2,-9.982624054E0,-2.567781210E-1,5.087678507E-2
8.924766500E-2,-1.020767879E1,-1.945288926E-1,-3.513490856E-1
9.173537400E-2,-9.939528465E0,-2.759317458E-1,-1.885433793E-1
9.422308200E-2,-9.580398560E0,-4.004302323E-1,-2.094926499E-2
9.671079000E-2,-9.226056099E0,-5.392939448E-1,3.573346138E-1
9.919849900E-2,-8.957905769E0,-6.733692288E-1,7.787141204E-1
1.016862070E-1,-8.857349396E0,-7.930793166E-1,1.147421122E0
1.041739150E-1,-8.852560997E0,-8.696937561E-1,1.458667397E0
1.066616240E-1,-8.933963776E0,-9.127894044E-1,1.712452769E0
1.091493320E-1,-9.048885345E0,-9.367313981E-1,1.923142552E0
1.116370400E-1,-9.163806915E0,-9.271546006E-1,2.076371431E0
1.141247490E-1,-9.297882080E0,-9.175778031E-1,2.172139406E0
1.166124570E-1,-9.417592049E0,-8.792705536E-1,2.172139406E0
1.191001650E-1,-9.537302017E0,-8.505401611E-1,2.071583033E0
1.215878740E-1,-9.637859344E0,-8.313865662E-1,1.927930951E0
1.240755820E-1,-9.719262123E0,-8.313865662E-1,1.784278870E0
1.265632900E-1,-9.786299706E0,-7.930793166E-1,1.669357181E0
1.290509990E-1,-9.838972092E0,-7.356184721E-1,1.607107878E0
1.315387070E-1,-9.891644478E0,-6.733692288E-1,1.573589087E0
1.340264150E-1,-9.925163269E0,-6.015431881E-1,1.602319479E0
1.365141240E-1,-9.958682060E0,-5.153518915E-1,1.659780383E0
1.390018320E-1,-9.958682060E0,-4.339490533E-1,1.722029567E0
1.414895400E-1,-9.963470459E0,-3.333925903E-1,1.765125155E0
1.439772490E-1,-9.973047256E0,-2.519897223E-1,1.769913554E0
1.464649570E-1,-9.973047256E0,-2.136825025E-1,1.736394763E0
1.489526650E-1,-9.958682060E0,-1.897404790E-1,1.683722377E0
1.514403740E-1,-9.973047256E0,-1.753752679E-1,1.635838270E0
1.539280820E-1,-9.992200851E0,-1.657984704E-1,1.597531080E0
1.564157900E-1,-1.003050804E1,-1.610100716E-1,1.597531080E0
1.589034990E-1,-1.004966164E1,-1.610100716E-1,1.592742682E0
1.613912070E-1,-1.007839203E1,-1.610100716E-1,1.559223890E0
1.638789150E-1,-1.010233402E1,-1.705868691E-1,1.492186189E0
1.663666240E-1,-1.013106441E1,-1.993172914E-1,1.439513803E0
1.688543320E-1,-1.013585281E1,-2.759317458E-1,1.367687702E0
1.713420400E-1,-1.012627602E1,-3.525462151E-1,1.267131209E0
1.738297490E-1,-1.009754562E1,-4.052186310E-1,1.166574836E0
1.763174570E-1,-1.002093124E1,-4.674678743E-1,1.080383539E0
1.788051650E-1,-9.929951668E0,-5.297171474E-1,1.027711034E0
1.812928740E-1,-9.786299706E0,-5.967547894E-1,9.415197968E-1
1.837805820E-1,-9.671378136E0,-6.398503780E-1,8.649053574E-1
1.862682900E-1,-9.556455612E0,-6.781576276E-1,7.835025191E-1
1.887559990E-1,-9.479841232E0,-7.308300734E-1,7.116764784E-1
1.912437070E-1,-9.412803650E0,-7.643488646E-1,6.733692288E-1
1.937314150E-1,-9.326612473E0,-7.882909179E-1,6.637924314E-1
1.962191240E-1,-9.278728485E0,-8.122329116E-1,6.446388364E-1
1.987068320E-1,-9.254786491E0,-8.122329116E-1,6.398503780E-1
2.011945400E-1,-9.302670479E0,-7.882909179E-1,6.494272351E-1
2.036822490E-1,-9.384073257E0,-7.739257216E-1,6.637924314E-1
2.061699570E-1,-9.518148422E0,-7.068880796E-1,6.925228238E-1
2.086576650E-1,-9.633070946E0,-6.350619793E-1,7.164648771E-1
2.111453740E-1,-9.752780914E0,-5.728127360E-1,7.260416746E-1
2.136330820E-1,-9.862914085E0,-5.345055461E-1,7.164648771E-1
2.161207900E-1,-9.944316864E0,-4.866214991E-1,6.925228238E-1
2.186084990E-1,-1.003529644E1,-4.722562730E-1,6.590040326E-1
2.210962070E-1,-1.007360363E1,-4.626794755E-1,6.542156339E-1
2.235839150E-1,-1.009754562E1,-4.435258508E-1,6.159083843E-1
2.260716240E-1,-1.010712242E1,-4.291606545E-1,5.967547894E-1
2.285593320E-1,-1.011191082E1,-4.052186310E-1,5.536591411E-1
2.310470400E-1,-1.014064121E1,-3.716998100E-1,5.153518915E-1
2.335347490E-1,-1.013585281E1,-3.429693878E-1,4.674678743E-1
2.360224570E-1,-1.013106441E1,-3.286041915E-1,4.147954583E-1
2.385101650E-1,-1.012627602E1,-3.094505668E-1,3.621230125E-1
2.409978740E-1,-1.012627602E1,-3.142389655E-1,3.381809890E-1
2.434855820E-1,-1.009754562E1,-3.190273643E-1,3.190273643E-1
2.459732900E-1,-1.001135445E1,-3.477577865E-1,3.142389655E-1
2.484609990E-1,-9.906009674E0,-3.525462151E-1,2.950853705E-1
2.509487070E-1,-9.795876503E0,-3.812766075E-1,2.807201445E-1
2.534364150E-1,-9.719262123E0,-4.243722558E-1,2.519897223E-1
2.559241240E-1,-9.637859344E0,-4.722562730E-1,2.567781210E-1
2.584118320E-1,-9.575610161E0,-5.201402903E-1,2.280477136E-1
2.608995400E-1,-9.537302017E0,-5.536591411E-1,2.232593149E-1
2.633872490E-1,-9.484629631E0,-5.871779919E-1,2.280477136E-1
2.658749570E-1,-9.451110840E0,-6.063315868E-1,2.232593149E-1
2.683626650E-1,-9.427168846E0,-6.398503780E-1,2.376245260E-1
2.708503740E-1,-9.422380447E0,-6.685808301E-1,2.615665495E-1
2.733380820E-1,-9.427168846E0,-7.260416746E-1,3.046621680E-1
2.758257900E-1,-9.446322441E0,-7.499836683E-1,3.573346138E-1
2.783134990E-1,-9.475052834E0,-7.643488646E-1,4.531026781E-1
2.808012070E-1,-9.498994827E0,-7.835025191E-1,5.488707423E-1
2.832889670E-1,-9.556455612E0,-7.835025191E-1,6.829460263E-1
2.857767280E-1,-9.628282547E0,-7.691373229E-1,7.930793166E-1
2.882644880E-1,-9.666589737E0,-7.787141204E-1,8.936358094E-1
2.907522490E-1,-9.685743332E0,-8.026561141E-1,9.750386477E-1
2.932400090E-1,-9.666589737E0,-8.265981078E-1,1.046864748E0
2.957277690E-1,-9.652224541E0,-8.601169586E-1,1.118690729E0
2.982155300E-1,-9.685743332E0,-8.840589523E-1,1.200093627E0
3.007032900E-1,-9.719262123E0,-8.888474107E-1,1.252766013E0
3.031910510E-1,-9.791088104E0,-8.984242082E-1,1.305438519E0
3.056788110E-1,-9.929951668E0,-8.601169586E-1,1.386841297E0
3.081665710E-1,-1.008318043E1,-7.978677154E-1,1.444302201E0
3.106543320E-1,-1.023162079E1,-7.164648771E-1,1.453878999E0
3.131420920E-1,-1.030344677E1,-6.590040326E-1,1.487397790E0
3.156298530E-1,-1.033696556E1,-6.254851818E-1,1.468244195E0
3.181176130E-1,-1.032260036E1,-5.823895931E-1,1.391629696E0
3.206053740E-1,-1.031781197E1,-5.871779919E-1,1.305438519E0
3.230931340E-1,-1.030344677E1,-5.919663906E-1,1.224035621E0
3.255808940E-1,-1.022683239E1,-6.015431881E-1,1.137844324E0
3.280686550E-1,-1.013106441E1,-6.159083843E-1,1.046864748E0
3.305564150E-1,-9.992200851E0,-6.015431881E-1,9.846154451E-1
3.330441760E-1,-9.853337288E0,-5.871779919E-1,9.415197968E-1
3.355319360E-1,-9.747992516E0,-6.015431881E-1,9.080010056E-1
3.380196960E-1,-9.661801338E0,-6.159083843E-1,8.361749649E-1
3.405074570E-1,-9.575610161E0,-6.494272351E-1,8.170213103E-1
3.429952170E-1,-9.498994827E0,-7.068880796E-1,8.074445128E-1
3.454829780E-1,-9.388861656E0,-7.451952696E-1,7.787141204E-1
3.479707380E-1,-9.293093681E0,-7.739257216E-1,7.451952696E-1
3.504584990E-1,-9.245209694E0,-8.074445128E-1,7.308300734E-1
3.529462590E-1,-9.206902504E0,-8.313865662E-1,7.260416746E-1
3.554340190E-1,-9.182960510E0,-8.649053574E-1,7.691373229E-1
3.579217800E-1,-9.154230118E0,-8.792705536E-1,8.361749649E-1
3.604095400E-1,-9.135076523E0,-8.649053574E-1,9.127894044E-1
3.628973010E-1,-9.168595314E0,-8.553285599E-1,9.558850527E-1
3.653850610E-1,-9.182960510E0,-8.409633636E-1,9.798270464E-1
3.678727690E-1,-9.192537308E0,-8.265981078E-1,1.008557439E0
3.703604780E-1,-9.235632896E0,-8.122329116E-1,1.013345838E0
3.728481860E-1,-9.259574890E0,-7.978677154E-1,1.032499433E0
3.753358940E-1,-9.312247276E0,-7.930793166E-1,1.042076349E0
3.778236030E-1,-9.393650055E0,-7.643488646E-1,1.022922635E0
3.803113110E-1,-9.460687637E0,-7.308300734E-1,1.008557439E0
3.827990190E-1,-9.561244011E0,-7.068880796E-1,1.018134236E0
3.852867280E-1,-9.633070946E0,-6.637924314E-1,1.013345838E0
3.877744360E-1,-9.690531731E0,-6.254851818E-1,9.654618502E-1
3.902621440E-1,-9.743204117E0,-5.823895931E-1,9.463081956E-1
3.927498530E-1,-9.786299706E0,-5.584475398E-1,9.271546006E-1
3.952375610E-1,-9.805453300E0,-5.488707423E-1,9.319429994E-1
3.977252690E-1,-9.834183693E0,-5.201402903E-1,9.080010056E-1
4.002129780E-1,-9.882067680E0,-5.009866953E-1,8.649053574E-1
4.027006860E-1,-9.934740067E0,-4.914098978E-1,8.457517624E-1
4.051883940E-1,-9.992200851E0,-4.531026781E-1,8.313865662E-1
4.076761030E-1,-1.002571964E1,-4.004302323E-1,8.218097091E-1
4.101638110E-1,-1.002571964E1,-3.525462151E-1,8.218097091E-1
4.126515190E-1,-1.000177765E1,-3.046621680E-1,8.457517624E-1
4.151392280E-1,-9.992200851E0,-2.711433470E-1,8.792705536E-1
4.176269360E-1,-9.996989250E0,-2.759317458E-1,9.271546006E-1
4.201146440E-1,-1.000177765E1,-3.046621680E-1,9.654618502E-1
4.226023530E-1,-9.996989250E0,-3.621230125E-1,9.989806414E-1
4.250900610E-1,-9.968258858E0,-4.100070298E-1,1.027711034E0
4.275777690E-1,-9.934740067E0,-4.435258508E-1,1.032499433E0
4.300654780E-1,-9.906009674E0,-4.578910768E-1,1.085171938E0
4.325531860E-1,-9.886856079E0,-4.578910768E-1,1.142632723E0
4.350408940E-1,-9.891644478E0,-4.961982965E-1,1.195305228E0
4.375286030E-1,-9.882067680E0,-5.536591411E-1,1.243189216E0
4.400163110E-1,-9.838972092E0,-6.111199856E-1,1.295861721E0
4.425040190E-1,-9.776722908E0,-6.398503780E-1,1.315015316E0
4.449917280E-1,-9.724050522E0,-6.829460263E-1,1.329380512E0
4.474794360E-1,-9.680954933E0,-7.116764784E-1,1.324592113E0
4.499671440E-1,-9.637859344E0,-7.547720671E-1,1.334168911E0
4.524548530E-1,-9.633070946E0,-7.739257216E-1,1.334168911E0
4.549425610E-1,-9.652224541E0,-7.930793166E-1,1.353322506E0
4.574302690E-1,-9.661801338E0,-7.835025191E-1,1.367687702E0
4.599179780E-1,-9.700108528E0,-7.930793166E-1,1.386841297E0
4.624056860E-1,-9.747992516E0,-7.882909179E-1,1.391629696E0
4.648933940E-1,-9.800664902E0,-7.787141204E-1,1.377264500E0
4.673811030E-1,-9.838972092E0,-8.026561141E-1,1.362899303E0
4.698688110E-1,-9.886856079E0,-8.265981078E-1,1.362899303E0
4.723565190E-1,-9.944316864E0,-8.505401611E-1,1.353322506E0
4.748442280E-1,-9.973047256E0,-8.601169586E-1,1.386841297E0
4.773319360E-1,-9.996989250E0,-8.696937561E-1,1.410783410E0
4.798196440E-1,-1.004487324E1,-8.553285599E-1,1.420360208E0
4.823073530E-1,-1.010712242E1,-8.553285599E-1,1.420360208E0
4.847950610E-1,-1.018852520E1,-8.361749649E-1,1.449090600E0
4.872827690E-1,-1.028429317E1,-8.361749649E-1,1.492186189E0
4.897704780E-1,-1.039442635E1,-8.122329116E-1,1.516128182E0
4.922581860E-1,-1.051892471E1,-8.074445128E-1,1.535281897E0
4.947458940E-1,-1.066257763E1,-8.218097091E-1,1.520916581E0
4.972336030E-1,-1.078228760E1,-8.313865662E-1,1.482609391E0
4.997213110E-1,-1.093072796E1,-8.361749649E-1,1.410783410E0
5.022090190E-1,-1.102170753E1,-7.882909179E-1,1.286284804E0
5.046967280E-1,-1.109832191E1,-7.308300734E-1,1.128267527E0
5.071844360E-1,-1.116535950E1,-6.590040326E-1,9.558850527E-1
5.096721440E-1,-1.120845509E1,-6.111199856E-1,7.404068708E-1
5.121598530E-1,-1.121803188E1,-5.967547894E-1,5.632359385E-1
5.146475610E-1,-1.124676228E1,-5.823895931E-1,4.052186310E-1
5.171352690E-1,-1.127070427E1,-5.871779919E-1,2.615665495E-1
5.196229780E-1,-1.128985786E1,-6.159083843E-1,1.514332592E-1
5.221106860E-1,-1.128506947E1,-6.542156339E-1,5.087678507E-2
5.245983940E-1,-1.127070427E1,-7.212532759E-1,-6.584054790E-3
5.270861030E-1,-1.126591587E1,-8.122329116E-1,-7.362170517E-2
5.295738110E-1,-1.127549267E1,-8.888474107E-1,-1.119289324E-1
5.320615190E-1,-1.128985786E1,-9.654618502E-1,-1.358709484E-1
5.345492280E-1,-1.129943466E1,-1.070806742E0,-1.167173311E-1
5.370369360E-1,-1.128506947E1,-1.113902330E0,-7.362170517E-2
5.395246440E-1,-1.127549267E1,-1.142632723E0,-3.531447425E-2
5.420123530E-1,-1.125633907E1,-1.166574836E0,-2.094926499E-2
5.445000610E-1,-1.126591587E1,-1.214458823E0,-1.616086066E-2
5.469877690E-1,-1.132337666E1,-1.281496406E0,2.992752008E-3
5.494754780E-1,-1.139041424E1,-1.338957310E0,4.129998013E-2
5.519631860E-1,-1.144308662E1,-1.382052898E0,1.083376259E-1
5.544508940E-1,-1.150054741E1,-1.429937005E0,1.753752679E-1
5.569386030E-1,-1.156279755E1,-1.449090600E0,2.136825025E-1
5.594263110E-1,-1.162025833E1,-1.468244195E0,2.615665495E-1
5.619140190E-1,-1.168250751E1,-1.487397790E0,2.615665495E-1
5.644017280E-1,-1.173517990E1,-1.496974587E0,2.328361124E-1
5.668894360E-1,-1.181658268E1,-1.525704980E0,1.705868691E-1
5.693771440E-1,-1.188362026E1,-1.564012289E0,1.274912357E-1
5.718648530E-1,-1.196023464E1,-1.592742682E0,9.876082093E-2
5.743525610E-1,-1.202248383E1,-1.592742682E0,9.876082093E-2
5.768402690E-1,-1.208952141E1,-1.564012289E0,8.439560980E-2
5.793279780E-1,-1.215655899E1,-1.516128182E0,9.397241473E-2
5.818156860E-1,-1.220923138E1,-1.463455796E0,7.960720360E-2
5.843034460E-1,-1.227626896E1,-1.405994892E0,6.045359373E-2
5.867912070E-1,-1.234330654E1,-1.367687702E0,2.693476900E-2
5.892789670E-1,-1.242470932E1,-1.372476101E0,-4.967968538E-2
5.917667280E-1,-1.249174690E1,-1.391629696E0,-1.358709484E-1
5.942544880E-1,-1.253963184E1,-1.405994892E0,-2.029085904E-1
5.967422490E-1,-1.255878544E1,-1.410783410E0,-2.507926226E-1
5.992300090E-1,-1.257315063E1,-1.410783410E0,-2.651578486E-1
6.017177690E-1,-1.263061142E1,-1.382052898E0,-2.029085904E-1
6.042055300E-1,-1.267370701E1,-1.348534107E0,-1.071405262E-1
6.066932900E-1,-1.275032139E1,-1.300650120E0,1.256955881E-2
6.091810510E-1,-1.279820538E1,-1.262342811E0,1.227028370E-1
6.116688110E-1,-1.285566616E1,-1.271919608E0,2.280477136E-1
6.141565710E-1,-1.289397335E1,-1.257554412E0,3.477577865E-1
6.166443320E-1,-1.287481976E1,-1.267131209E0,4.626794755E-1
6.191320920E-1,-1.281257057E1,-1.252766013E0,6.159083843E-1
6.216198530E-1,-1.273595619E1,-1.281496406E0,7.451952696E-1
6.241076130E-1,-1.262582302E1,-1.343745708E0,8.313865662E-1
6.265953740E-1,-1.247738171E1,-1.410783410E0,8.984242082E-1
6.290831340E-1,-1.230978775E1,-1.492186189E0,9.846154451E-1
6.315708940E-1,-1.212782860E1,-1.573589087E0,1.080383539E0
6.340586550E-1,-1.190756226E1,-1.664568782E0,1.166574836E0
6.365464150E-1,-1.169208431E1,-1.779490471E0,1.262342811E0
6.390341760E-1,-1.146224022E1,-1.903988957E0,1.338957310E0
6.415219360E-1,-1.125633907E1,-1.990180135E0,1.415571809E0
6.440096960E-1,-1.107437992E1,-2.071583033E0,1.511339784E0
6.464974570E-1,-1.091636276E1,-2.129043818E0,1.611896276E0
6.489852170E-1,-1.079186440E1,-2.152985811E0,1.683722377E0
6.514729780E-1,-1.075834560E1,-2.138620615E0,1.789067268E0
6.539607380E-1,-1.077749920E1,-2.085948229E0,1.875258446E0
6.564484990E-1,-1.084453678E1,-1.975814939E0,1.942296147E0
6.589362590E-1,-1.093551636E1,-1.846528053E0,1.947084546E0
6.614240190E-1,-1.106959152E1,-1.702875972E0,1.889623642E0
6.639117800E-1,-1.122760868E1,-1.564012289E0,1.793855667E0
6.663995400E-1,-1.139041424E1,-1.415571809E0,1.659780383E0
6.688872490E-1,-1.152927876E1,-1.257554412E0,1.520916581E0
6.713749570E-1,-1.168729591E1,-1.051653147E0,1.353322506E0
6.738626650E-1,-1.183573627E1,-8.265981078E-1,1.195305228E0
6.763503740E-1,-1.200811863E1,-5.776011348E-1,1.022922635E0
6.788380820E-1,-1.218050098E1,-3.238157928E-1,8.170213103E-1
6.813257900E-1,-1.236724854E1,-1.227028370E-1,5.680243373E-1
6.838134990E-1,-1.255399704E1,4.967968538E-2,3.333925903E-1
6.863012070E-1,-1.270722580E1,1.981201917E-1,1.514332592E-1
6.887889150E-1,-1.284608936E1,3.034650683E-1,-2.094926499E-2
6.912766240E-1,-1.294664574E1,3.800795078E-1,-2.076970041E-1
6.937643320E-1,-1.302326012E1,4.183867574E-1,-3.226186931E-1
6.962520400E-1,-1.306156731E1,4.279635549E-1,-3.896563351E-1
6.987397490E-1,-1.303762531E1,3.848679364E-1,-4.327519536E-1
7.012274570E-1,-1.290355015E1,2.890998423E-1,-4.806360006E-1
7.037151650E-1,-1.268328381E1,1.502361596E-1,-5.141547918E-1
7.062028740E-1,-1.242470932E1,-1.256955881E-2,-5.237316489E-1
7.086905820E-1,-1.214698219E1,-1.753752679E-1,-4.519055784E-1
7.111782900E-1,-1.191235065E1,-3.429693878E-1,-3.226186931E-1
7.136659990E-1,-1.168729591E1,-5.345055461E-1,-1.741781682E-1
7.161537070E-1,-1.147181702E1,-7.499836683E-1,-1.795651275E-3
7.186414150E-1,-1.127549267E1,-9.750386477E-1,1.514332592E-1
7.211291240E-1,-1.106959152E1,-1.204882026E0,2.759317458E-1
7.236168320E-1,-1.085411358E1,-1.425148606E0,3.860650361E-1
7.261045400E-1,-1.066257763E1,-1.587954283E0,5.105634928E-1
7.285922490E-1,-1.052371311E1,-1.726817966E0,6.015431881E-1
7.310799570E-1,-1.040879154E1,-1.846528053E0,7.164648771E-1
7.335676650E-1,-1.032260036E1,-1.937507749E0,8.505401611E-1
7.360553740E-1,-1.023640919E1,-1.980603337E0,9.894038439E-1
7.385430820E-1,-1.013585281E1,-1.985391736E0,1.080383539E0
7.410307900E-1,-1.004487324E1,-1.951872945E0,1.152209520E0
7.435184990E-1,-9.987412453E0,-1.884835243E0,1.200093627E0
7.460062070E-1,-9.992200851E0,-1.841739655E0,1.204882026E0
7.484939150E-1,-1.006402683E1,-1.817797661E0,1.156997919E0
7.509816240E-1,-1.012148762E1,-1.832162857E0,1.089960337E0
7.534693320E-1,-1.020767879E1,-1.832162857E0,1.013345838E0
7.559570400E-1,-1.029386997E1,-1.789067268E0,8.984242082E-1
7.584447490E-1,-1.039921474E1,-1.674145579E0,8.074445128E-1
7.609324570E-1,-1.055244446E1,-1.492186189E0,7.404068708E-1
7.634201650E-1,-1.077271080E1,-1.310226917E0,7.020996213E-1
7.659078740E-1,-1.101213074E1,-1.104325533E0,6.733692288E-1
7.683955820E-1,-1.126112747E1,-9.080010056E-1,6.542156339E-1
7.708832900E-1,-1.150533581E1,-7.691373229E-1,6.111199856E-1
7.733709990E-1,-1.173517990E1,-6.590040326E-1,5.584475398E-1
7.758587070E-1,-1.186446667E1,-5.776011348E-1,5.105634928E-1
7.783464150E-1,-1.196502304E1,-5.057750940E-1,4.387374520E-1
7.808341240E-1,-1.199854183E1,-4.147954583E-1,3.573346138E-1
7.833218320E-1,-1.200333023E1,-3.142389655E-1,2.663549483E-1
7.858095400E-1,-1.198896503E1,-2.280477136E-1,1.466448605E-1
7.882972490E-1,-1.199854183E1,-1.705868691E-1,2.693476900E-2
7.907849570E-1,-1.197938824E1,-1.418564469E-1,-5.925649032E-2
7.932726650E-1,-1.193629265E1,-1.514332592E-1,-1.071405262E-1
7.957603740E-1,-1.185010147E1,-2.041056901E-1,-1.262941360E-1
7.982480820E-1,-1.173517990E1,-3.333925903E-1,-1.215057373E-1
8.007357900E-1,-1.156279755E1,-4.674678743E-1,-8.798690885E-2
8.032234990E-1,-1.135689545E1,-5.919663906E-1,-4.489128292E-2
8.057112070E-1,-1.112226391E1,-7.068880796E-1,2.693476900E-2
8.081989150E-1,-1.086847878E1,-8.457517624E-1,7.960720360E-2
8.106866240E-1,-1.064821243E1,-9.989806414E-1,1.514332592E-1
8.131743320E-1,-1.045667553E1,-1.176151633E0,2.184709013E-1
8.156620400E-1,-1.030823517E1,-1.343745708E0,3.525462151E-1
8.181497490E-1,-1.018373680E1,-1.492186189E0,4.961982965E-1
8.206374570E-1,-1.009754562E1,-1.621473074E0,6.637924314E-1
8.231251650E-1,-1.004487324E1,-1.722029567E0,8.313865662E-1
8.256128740E-1,-1.002571964E1,-1.774701953E0,9.319429994E-1
8.281005820E-1,-1.002571964E1,-1.827374458E0,1.051653147E0
8.305882900E-1,-1.004966164E1,-1.870470047E0,1.166574836E0
8.330759990E-1,-1.005445004E1,-1.899200439E0,1.276708007E0
8.355637070E-1,-1.006402683E1,-1.918354154E0,1.372476101E0
8.380514150E-1,-1.005923843E1,-1.889623642E0,1.477820992E0
8.405391240E-1,-1.009754562E1,-1.803432465E0,1.520916581E0
8.430268320E-1,-1.013585281E1,-1.707664371E0,1.525704980E0
8.455145400E-1,-1.023162079E1,-1.578377485E0,1.482609391E0
8.480022490E-1,-1.041357994E1,-1.405994892E0,1.396418095E0
8.504899570E-1,-1.064342403E1,-1.200093627E0,1.310226917E0
8.529776650E-1,-1.091636276E1,-9.415197968E-1,1.219247222E0
8.554653740E-1,-1.120845509E1,-6.302735806E-1,1.104325533E0
8.579530820E-1,-1.148618221E1,-3.525462151E-1,9.367313981E-1
8.604407900E-1,-1.175912189E1,-1.083376259E-1,7.404068708E-1
8.629284990E-1,-1.200333023E1,1.071405262E-1,5.680243373E-1
8.654162070E-1,-1.220444298E1,2.747346461E-1,4.004302323E-1
8.679039150E-1,-1.238161373E1,3.944447339E-1,2.615665495E-1
8.703916240E-1,-1.250132370E1,4.902127981E-1,1.035492271E-1
8.728793320E-1,-1.256357384E1,6.051344872E-1,-2.573766746E-2
8.753670400E-1,-1.260188103E1,7.056909800E-1,-1.789665818E-1
8.778547490E-1,-1.261624622E1,7.679402232E-1,-3.226186931E-1
8.803424570E-1,-1.263539982E1,7.775170207E-1,-4.806360006E-1
8.828301650E-1,-1.262582302E1,7.200561762E-1,-6.290764809E-1
8.853178740E-1,-1.257793903E1,5.955576897E-1,-7.823054194E-1
8.878055820E-1,-1.246780491E1,4.423287511E-1,-9.115923047E-1
8.902932900E-1,-1.227626896E1,2.843114436E-1,-1.021725535E0
8.927810510E-1,-1.202248383E1,1.023521200E-1,-1.117493629E0
8.952688110E-1,-1.171123791E1,-7.960720360E-2,-1.213261724E0
8.977565710E-1,-1.133774185E1,-2.950853705E-1,-1.294664621E0
9.002443320E-1,-1.092115116E1,-5.392939448E-1,-1.328183413E0
9.027320920E-1,-1.054286766E1,-8.265981078E-1,-1.328183413E0
9.052198530E-1,-1.019810200E1,-1.142632723E0,-1.280299306E0
9.077076130E-1,-9.877279282E0,-1.444302201E0,-1.174954534E0
9.101953740E-1,-9.618705750E0,-1.736394763E0,-1.026513934E0
9.126831340E-1,-9.403226852E0,-1.990180135E0,-8.637082577E-1
9.151708940E-1,-9.249998093E0,-2.200869799E0,-7.009025216E-1
9.176586550E-1,-9.106346130E0,-2.311003208E0,-5.668272376E-1
9.201464150E-1,-9.015366554E0,-2.334945202E0,-4.279635549E-1
9.226341760E-1,-8.957905769E0,-2.306214809E0,-2.747346461E-1
9.251219360E-1,-8.996212959E0,-2.248754025E0,-8.319851011E-2
9.276096960E-1,-9.101557732E0,-2.162562609E0,1.179144308E-1
9.300974570E-1,-9.240421295E0,-2.052429438E0,3.381809890E-1
9.325852170E-1,-9.431957245E0,-1.923142552E0,5.488707423E-1
9.350729780E-1,-9.609128952E0,-1.784278870E0,7.068880796E-1
9.375607380E-1,-9.776722908E0,-1.611896276E0,8.122329116E-1
9.400484990E-1,-9.929951668E0,-1.425148606E0,8.696937561E-1
9.425362590E-1,-1.005445004E1,-1.214458823E0,8.696937561E-1
9.450240190E-1,-1.022683239E1,-9.463081956E-1,8.696937561E-1
9.475117800E-1,-1.037048435E1,-6.542156339E-1,8.457517624E-1
9.499995400E-1,-1.049498272E1,-3.812766075E-1,7.930793166E-1
9.524873010E-1,-1.058596325E1,-1.466448605E-1,7.020996213E-1
9.549750610E-1,-1.070088482E1,4.010287672E-2,5.967547894E-1
9.574628210E-1,-1.080622959E1,1.837549806E-1,5.057750940E-1
9.599505820E-1,-1.091636276E1,2.795230448E-1,3.573346138E-1
9.624383420E-1,-1.101691914E1,3.752911091E-1,1.897404790E-1
9.649261030E-1,-1.110789871E1,4.710591733E-1,-3.531447425E-2
9.674138630E-1,-1.117972469E1,5.572504401E-1,-2.507926226E-1
9.699016240E-1,-1.120366669E1,6.434416771E-1,-4.758476019E-1
9.723893840E-1,-1.119887829E1,6.961141229E-1,-7.296329737E-1
9.748771440E-1,-1.115578270E1,7.439981699E-1,-9.403226972E-1
9.773648530E-1,-1.109353352E1,7.823054194E-1,-1.136647224E0
9.798525610E-1,-1.103128433E1,7.535749674E-1,-1.328183413E0
9.823402690E-1,-1.091636276E1,6.865373254E-1,-1.495777488E0
9.848279780E-1,-1.079186440E1,5.285200477E-1,-1.634641171E0
9.873156860E-1,-1.062905884E1,2.986766696E-1,-1.749562860E0
9.898033940E-1,-1.042315674E1,4.967968538E-2,-1.826177359E0
9.922911030E-1,-1.017894840E1,-2.184709013E-1,-1.874061346E0
9.947788110E-1,-9.886856079E0,-5.057750940E-1,-1.902791858E0
9.972665190E-1,-9.580398560E0,-7.882909179E-1,-1.893214941E0
9.997542280E-1,-9.302670479E0,-1.051653147E0,-1.840542555E0
1.002241936E0,-9.068038940E0,-1.286284804E0,-1.759139657E0
1.004729644E0,-8.905233383E0,-1.520916581E0,-1.668160081E0
1.007217353E0,-8.785523415E0,-1.774701953E0,-1.586757183E0
1.009705061E0,-8.713697433E0,-1.990180135E0,-1.514931083E0
1.012192769E0,-8.670601845E0,-2.200869799E0,-1.452681899E0
1.014680478E0,-8.646659851E0,-2.397194386E0,-1.395220995E0
1.017168186E0,-8.680178642E0,-2.579153776E0,-1.342548609E0
1.019655894E0,-8.742427826E0,-2.737171173E0,-1.309029818E0
1.022143603E0,-8.833407402E0,-2.866457939E0,-1.285087705E0
1.024631311E0,-8.962694168E0,-3.010110140E0,-1.323395014E0
1.027119019E0,-9.087192535E0,-3.125031710E0,-1.419163108E0
1.029606728E0,-9.182960510E0,-3.177704096E0,-1.572391987E0
1.032094436E0,-9.226056099E0,-3.206434727E0,-1.792658567E0
1.034582144E0,-9.245209694E0,-3.182492495E0,-2.070385933E0
1.037069853E0,-9.297882080E0,-3.062782526E0,-2.372055292E0
1.039557561E0,-9.331400871E0,-2.856881142E0,-2.644994259E0
1.042045269E0,-9.360131264E0,-2.507327795E0,-2.889202833E0
1.044532978E0,-9.422380447E0,-2.081159830E0,-3.147776604E0
1.047020686E0,-9.580398560E0,-1.645415068E0,-3.329735994E0
1.049508394E0,-9.767146111E0,-1.243189216E0,-3.492541790E0
1.051996103E0,-9.920374870E0,-9.127894044E-1,-3.593098164E0
1.054483811E0,-9.968258858E0,-7.020996213E-1,-3.636193752E0
1.056971519E0,-9.920374870E0,-4.914098978E-1,-3.645770550E0
1.059459228E0,-9.824606895E0,-2.855085433E-1,-3.617040157E0
1.061946936E0,-9.690531731E0,-1.083376259E-1,-3.506906986E0
1.064434644E0,-9.537302017E0,5.925649032E-2,-3.277063608E0
1.066922353E0,-9.412803650E0,2.124854028E-1,-2.961029053E0
1.069410061E0,-9.288305283E0,2.890998423E-1,-2.592321873E0
1.071897769E0,-9.139864922E0,3.034650683E-1,-2.175730705E0
1.074385478E0,-8.967482567E0,2.890998423E-1,-1.759139657E0
1.076873186E0,-8.809465408E0,2.268506140E-1,-1.352125406E0
1.079360894E0,-8.665813446E0,1.071405262E-1,-9.929951429E-1
1.081848603E0,-8.503006935E0,-2.693476900E-2,-6.434416771E-1
1.084336311E0,-8.344989777E0,-2.088941038E-1,-2.699462473E-1
1.086824019E0,-8.191761017E0,-4.435258508E-1,7.481880486E-2
1.089311728E0,-8.028955460E0,-7.308300734E-1,3.860650361E-1
1.091799436E0,-7.866149902E0,-9.894038439E-1,6.829460263E-1
1.094287144E0,-7.655459881E0,-1.180940032E0,9.558850527E-1
1.096774853E0,-7.463923931E0,-1.291073322E0,1.219247222E0
1.099262561E0,-7.339425087E0,-1.358110905E0,1.420360208E0
1.101750269E0,-7.253233910E0,-1.449090600E0,1.621473074E0
1.104237978E0,-7.195773125E0,-1.535281897E0,1.741183162E0
1.106725686E0,-7.143100739E0,-1.626261473E0,1.793855667E0
1.109213394E0,-7.109581947E0,-1.674145579E0,1.803432465E0
1.111701103E0,-7.104793549E0,-1.674145579E0,1.741183162E0
1.114188811E0,-7.171831131E0,-1.578377485E0,1.645415068E0
1.116676519E0,-7.262810707E0,-1.396418095E0,1.578377485E0
1.119164228E0,-7.406463146E0,-1.142632723E0,1.496974587E0
1.121651936E0,-7.607575893E0,-8.936358094E-1,1.343745708E0
1.124139644E0,-7.837419033E0,-6.542156339E-1,1.118690729E0
1.126627353E0,-8.048109055E0,-4.578910768E-1,7.978677154E-1
1.129115061E0,-8.254010201E0,-2.807201445E-1,4.674678743E-1
1.131602769E0,-8.440757751E0,-1.322796494E-1,1.657984704E-1
1.134090478E0,-8.617929459E0,-7.781155407E-3,-1.693897694E-1
1.136578186E0,-8.795100212E0,7.841010392E-2,-5.237316489E-1
1.139065894E0,-8.919598579E0,1.598129570E-1,-8.637082577E-1
1.141553603E0,-8.991424561E0,2.124854028E-1,-1.165377736E0
1.144041311E0,-9.020154953E0,2.555810213E-1,-1.423951507E0
1.146529019E0,-9.044096947E0,2.507926226E-1,-1.634641171E0
1.149016728E0,-9.087192535E0,1.789665818E-1,-1.802235365E0
1.151504436E0,-9.101557732E0,4.489128292E-2,-1.926733851E0
1.153992144E0,-9.068038940E0,-1.083376259E-1,-2.022501945E0
1.156479853E0,-8.991424561E0,-2.998737693E-1,-2.094327927E0
1.158967561E0,-8.890868187E0,-4.722562730E-1,-2.147000313E0
1.161455269E0,-8.847772598E0,-6.111199856E-1,-2.147000313E0
1.163942978E0,-8.871714592E0,-7.164648771E-1,-2.036867142E0
1.166430686E0,-8.890868187E0,-8.074445128E-1,-1.854907751E0
1.168918394E0,-8.905233383E0,-8.936358094E-1,-1.644217968E0
1.171406103E0,-8.900444984E0,-1.008557439E0,-1.414374709E0
1.173893811E0,-8.852560997E0,-1.133055925E0,-1.241992116E0
1.176381519E0,-8.785523415E0,-1.267131209E0,-1.060032845E0
1.178869228E0,-8.718485832E0,-1.377264500E0,-9.307458997E-1
1.181356936E0,-8.675390244E0,-1.458667397E0,-7.727286220E-1
1.183844644E0,-8.689755440E0,-1.468244195E0,-6.147112846E-1
1.186332353E0,-8.732851028E0,-1.410783410E0,-4.279635549E-1
1.188820061E0,-8.790311813E0,-1.315015316E0,-2.412158251E-1
1.191307769E0,-8.838195801E0,-1.209670424E0,-5.925649032E-2
1.193795478E0,-8.886079788E0,-1.128267527E0,7.481880486E-2
1.196283186E0,-8.905233383E0,-1.056441545E0,1.610100716E-1
1.198770946E0,-8.943540573E0,-1.013345838E0,1.849520802E-1
1.201258707E0,-8.953117371E0,-9.798270464E-1,1.227028370E-1
1.203746467E0,-8.948328972E0,-9.415197968E-1,3.651157767E-2
1.206234228E0,-8.929175377E0,-8.792705536E-1,-5.925649032E-2
1.208721988E0,-8.924386978E0,-8.074445128E-1,-1.789665818E-1
1.211209749E0,-8.910021782E0,-7.164648771E-1,-3.130418658E-1
1.213697509E0,-8.914810181E0,-6.111199856E-1,-4.662707746E-1
1.216185269E0,-8.905233383E0,-5.249287486E-1,-6.338648796E-1
1.218673030E0,-8.881291389E0,-4.578910768E-1,-8.110358119E-1
1.221160790E0,-8.833407402E0,-4.531026781E-1,-1.007360339E0
1.223648551E0,-8.790311813E0,-5.153518915E-1,-1.218050122E0
1.226136311E0,-8.742427826E0,-6.111199856E-1,-1.423951507E0
1.228624071E0,-8.689755440E0,-7.356184721E-1,-1.620275974E0
1.231111832E0,-8.656236649E0,-8.505401611E-1,-1.816600561E0
1.233599592E0,-8.622717857E0,-9.463081956E-1,-1.988983035E0
1.236087353E0,-8.593987465E0,-1.032499433E0,-2.166153908E0
1.238575113E0,-8.526948929E0,-1.085171938E0,-2.324171305E0
1.241062874E0,-8.416815758E0,-1.161786318E0,-2.501342297E0
1.243550634E0,-8.263586998E0,-1.252766013E0,-2.635417461E0
1.246038394E0,-8.119935036E0,-1.324592113E0,-2.788646460E0
1.248526155E0,-7.995436668E0,-1.358110905E0,-2.908356428E0
1.251013915E0,-7.957129478E0,-1.358110905E0,-2.984971046E0
1.253501676E0,-7.976283073E0,-1.324592113E0,-3.008913040E0
1.255989436E0,-8.005013466E0,-1.319803715E0,-2.975394249E0
1.258477196E0,-8.091204643E0,-1.348534107E0,-2.956240654E0
1.260964957E0,-8.172607422E0,-1.367687702E0,-2.927510023E0
1.263452717E0,-8.254010201E0,-1.425148606E0,-2.889202833E0
1.265940478E0,-8.330624580E0,-1.453878999E0,-2.850895643E0
1.268428238E0,-8.407238960E0,-1.473032594E0,-2.803011656E0
1.270915999E0,-8.517372131E0,-1.506551385E0,-2.769492865E0
1.273403759E0,-8.632294655E0,-1.501762986E0,-2.716820478E0
1.275891519E0,-8.761581421E0,-1.496974587E0,-2.635417461E0
1.278379280E0,-8.886079788E0,-1.449090600E0,-2.501342297E0
1.280867040E0,-8.991424561E0,-1.410783410E0,-2.362478495E0
1.283354749E0,-9.091980934E0,-1.367687702E0,-2.233191729E0
1.285842457E0,-9.115922928E0,-1.319803715E0,-2.118269920E0
1.288330165E0,-9.125499725E0,-1.281496406E0,-2.032078743E0
1.290817874E0,-9.101557732E0,-1.224035621E0,-1.965041041E0
1.293305582E0,-9.048885345E0,-1.180940032E0,-1.893214941E0
1.295793290E0,-9.005789757E0,-1.161786318E0,-1.840542555E0
1.298280999E0,-8.933963776E0,-1.133055925E0,-1.778293371E0
1.300768707E0,-8.866926193E0,-1.104325533E0,-1.711255670E0
1.303256415E0,-8.785523415E0,-1.066018343E0,-1.682525277E0
1.305744124E0,-8.699332237E0,-1.022922635E0,-1.653794765E0
1.308231832E0,-8.603564262E0,-9.558850527E-1,-1.644217968E0
1.310719540E0,-8.498218536E0,-9.127894044E-1,-1.677736878E0
1.313207249E0,-8.354566574E0,-9.032126069E-1,-1.725620866E0
1.315694957E0,-8.153453827E0,-9.127894044E-1,-1.792658567E0
1.318182665E0,-7.918822289E0,-9.271546006E-1,-1.850119352E0
1.320670374E0,-7.645883083E0,-9.367313981E-1,-1.950675845E0
1.323158082E0,-7.349001884E0,-9.415197968E-1,-2.036867142E0
1.325645790E0,-7.095216751E0,-9.319429994E-1,-2.137423515E0
1.328133499E0,-6.846219540E0,-9.080010056E-1,-2.266710520E0
1.330621207E0,-6.640318394E0,-9.032126069E-1,-2.424727678E0
1.333108915E0,-6.487089634E0,-9.271546006E-1,-2.573168278E0
1.335596624E0,-6.391321659E0,-9.606734514E-1,-2.740762472E0
1.338084332E0,-6.314706802E0,-9.846154451E-1,-2.913144827E0
1.340572040E0,-6.271611214E0,-9.989806414E-1,-3.052008629E0
1.343059749E0,-6.199785233E0,-9.702502489E-1,-3.210026026E0
1.345547457E0,-6.137536049E0,-9.415197968E-1,-3.382408381E0
1.348035165E0,-6.080075264E0,-9.319429994E-1,-3.559579372E0
1.350522874E0,-6.051344872E0,-9.080010056E-1,-3.717596769E0
1.353010582E0,-6.036979675E0,-8.601169586E-1,-3.870825529E0
1.355498290E0,-6.099228859E0,-8.409633636E-1,-4.014477730E0
1.357985999E0,-6.194996834E0,-8.457517624E-1,-4.148552895E0
1.360473707E0,-6.353013992E0,-8.936358094E-1,-4.215590477E0
1.362961415E0,-6.520608425E0,-9.271546006E-1,-4.234744072E0
1.365449124E0,-6.669048786E0,-9.367313981E-1,-4.201225281E0
1.367936832E0,-6.769605160E0,-8.936358094E-1,-4.124610901E0
1.370424540E0,-6.846219540E0,-8.170213103E-1,-4.057573318E0
1.372912249E0,-6.889315605E0,-7.116764784E-1,-3.976170540E0
1.375399957E0,-6.956353188E0,-6.015431881E-1,-3.856460333E0
1.377887665E0,-7.047332764E0,-5.105634928E-1,-3.731961966E0
1.380375374E0,-7.157465935E0,-4.052186310E-1,-3.645770550E0
1.382863082E0,-7.272387505E0,-3.094505668E-1,-3.511695385E0
1.385350790E0,-7.416039944E0,-2.184709013E-1,-3.368043184E0
1.387838499E0,-7.530961514E0,-1.179144308E-1,-3.224391222E0
1.390326207E0,-7.607575893E0,-2.693476900E-2,-3.047220230E0
1.392813915E0,-7.641094685E0,5.446808785E-2,-2.893991232E0
1.395301624E0,-7.660248280E0,1.262941360E-1,-2.731185675E0
1.397789332E0,-7.717709064E0,1.885433793E-1,-2.534861088E0
1.400277040E0,-7.794323444E0,2.603694201E-1,-2.338536501E0
1.402764749E0,-7.904457092E0,2.986766696E-1,-2.161365509E0
1.405252457E0,-7.981071472E0,3.321954906E-1,-1.993771434E0
1.407740165E0,-8.005013466E0,2.890998423E-1,-1.874061346E0
1.410227874E0,-7.966706276E0,1.933317930E-1,-1.768716455E0
1.412715582E0,-7.904457092E0,7.841010392E-2,-1.629852772E0
1.415203290E0,-7.827842236E0,-4.129998013E-2,-1.558026791E0
1.417690999E0,-7.736862659E0,-1.562216580E-1,-1.476623893E0
1.420178707E0,-7.650671482E0,-2.472013235E-1,-1.409586191E0
1.422666415E0,-7.535749912E0,-3.190273643E-1,-1.352125406E0
1.425154124E0,-7.411251545E0,-4.004302323E-1,-1.241992116E0
1.427641832E0,-7.315483093E0,-4.866214991E-1,-1.151012421E0
1.430129540E0,-7.210138321E0,-5.584475398E-1,-1.021725535E0
1.432617249E0,-7.181407928E0,-6.637924314E-1,-9.690531492E-1
1.435104957E0,-7.190984726E0,-7.356184721E-1,-9.403226972E-1
1.437592665E0,-7.210138321E0,-8.122329116E-1,-9.642647505E-1
1.440080374E0,-7.176619530E0,-8.936358094E-1,-1.012148738E0
1.442568082E0,-7.085639954E0,-1.018134236E0,-1.060032845E0
1.445055790E0,-6.932411194E0,-1.142632723E0,-1.141435623E0
1.447543499E0,-6.812700748E0,-1.267131209E0,-1.222838521E0
1.450031207E0,-6.755239964E0,-1.348534107E0,-1.318606615E0
1.452518915E0,-6.731297970E0,-1.382052898E0,-1.404797792E0
1.455006624E0,-6.726509571E0,-1.386841297E0,-1.500565886E0
1.457494332E0,-6.697779179E0,-1.386841297E0,-1.567603588E0
1.459982040E0,-6.678625584E0,-1.415571809E0,-1.605910778E0
1.462469749E0,-6.654683590E0,-1.487397790E0,-1.639429569E0
1.464957457E0,-6.659471989E0,-1.578377485E0,-1.692102075E0
1.467445165E0,-6.659471989E0,-1.707664371E0,-1.783081770E0
1.469932874E0,-6.673837185E0,-1.779490471E0,-1.859696150E0
1.472420582E0,-6.721721172E0,-1.808220863E0,-1.931522250E0
1.474908290E0,-6.788758755E0,-1.793855667E0,-1.955464244E0
1.477395999E0,-6.831854343E0,-1.765125155E0,-2.008136749E0
1.479883707E0,-6.870162010E0,-1.741183162E0,-2.089539528E0
1.482371415E0,-6.894104004E0,-1.702875972E0,-2.161365509E0
1.484859124E0,-6.927622795E0,-1.650203466E0,-2.185307503E0
1.487346832E0,-6.980295181E0,-1.592742682E0,-2.185307503E0
1.489834540E0,-7.076063156E0,-1.535281897E0,-2.175730705E0
1.492322249E0,-7.171831131E0,-1.506551385E0,-2.170942307E0
1.494809957E0,-7.277175903E0,-1.506551385E0,-2.180519104E0
1.497297665E0,-7.387309551E0,-1.530493379E0,-2.228403330E0
1.499785374E0,-7.507019520E0,-1.626261473E0,-2.300229311E0
1.502273082E0,-7.583633900E0,-1.731606364E0,-2.419939280E0
1.504760842E0,-7.602787495E0,-1.846528053E0,-2.544437885E0
1.507248603E0,-7.597999096E0,-1.975814939E0,-2.678513050E0
1.509736363E0,-7.569268703E0,-2.090736628E0,-2.788646460E0
1.512224124E0,-7.497442722E0,-2.239177227E0,-2.903568029E0
1.514711884E0,-7.406463146E0,-2.349310398E0,-2.999336243E0
1.517199644E0,-7.296329498E0,-2.469020605E0,-3.099892616E0
1.519687405E0,-7.214926720E0,-2.574365377E0,-3.200449228E0
1.522175165E0,-7.147889137E0,-2.650979757E0,-3.296217203E0
1.524662926E0,-7.085639954E0,-2.694075346E0,-3.396773577E0
1.527150686E0,-7.085639954E0,-2.718017578E0,-3.502118587E0
1.529638446E0,-7.100005150E0,-2.718017578E0,-3.602674961E0
1.532126207E0,-7.152677536E0,-2.713229179E0,-3.655347347E0
1.534613967E0,-7.195773125E0,-2.684498549E0,-3.688866377E0
1.537101728E0,-7.248445511E0,-2.665344954E0,-3.684077978E0
1.539589488E0,-7.305906296E0,-2.646191359E0,-3.698443174E0
1.542077249E0,-7.372944355E0,-2.622249365E0,-3.736750364E0
1.544565009E0,-7.416039944E0,-2.579153776E0,-3.736750364E0
1.547052769E0,-7.454347134E0,-2.536058187E0,-3.736750364E0
1.549540530E0,-7.435193539E0,-2.478597403E0,-3.736750364E0
1.552028290E0,-7.416039944E0,-2.406771183E0,-3.731961966E0
1.554516051E0,-7.368155956E0,-2.325368404E0,-3.722385168E0
1.557003811E0,-7.301117897E0,-2.258330822E0,-3.679289579E0
1.559491571E0,-7.224503517E0,-2.181716204E0,-3.593098164E0
1.561979332E0,-7.162254333E0,-2.119467020E0,-3.449446201E0
1.564467092E0,-7.138312340E0,-2.057217836E0,-3.262698412E0
1.566954853E0,-7.143100739E0,-2.033275843E0,-3.028066635E0
1.569442613E0,-7.119158745E0,-2.009333849E0,-2.798223257E0
1.571930374E0,-7.104793549E0,-2.047641039E0,-2.549226284E0
1.574418134E0,-7.080851555E0,-2.095525026E0,-2.352901697E0
1.576905894E0,-7.056909561E0,-2.148197412E0,-2.166153908E0
1.579393655E0,-6.975506783E0,-2.215235233E0,-1.988983035E0
1.581881415E0,-6.894104004E0,-2.296638012E0,-1.830965757E0
1.584369176E0,-6.798335552E0,-2.397194386E0,-1.668160081E0
1.586856936E0,-6.697779179E0,-2.502539396E0,-1.510142684E0
1.589344644E0,-6.625953197E0,-2.617460966E0,-1.385644197E0
1.591832353E0,-6.554127216E0,-2.689286947E0,-1.304241419E0
1.594320061E0,-6.511031628E0,-2.751536369E0,-1.294664621E0
1.596807769E0,-6.496666431E0,-2.828150749E0,-1.356913805E0
1.599295478E0,-6.506243229E0,-2.919130325E0,-1.481412292E0
1.601783186E0,-6.549338818E0,-2.995744944E0,-1.615487576E0
1.604270894E0,-6.611588001E0,-3.029263735E0,-1.735197663E0
1.606758603E0,-6.721721172E0,-3.038840532E0,-1.850119352E0
1.609246311E0,-6.870162010E0,-2.990956545E0,-1.969829440E0
1.611734019E0,-7.052121162E0,-2.880823135E0,-2.089539528E0
1.614221728E0,-7.214926720E0,-2.756324768E0,-2.204461098E0
1.616709436E0,-7.396886349E0,-2.617460966E0,-2.343324900E0
1.619197144E0,-7.593210697E0,-2.445078373E0,-2.539649487E0
1.621684853E0,-7.827842236E0,-2.243965626E0,-2.688089848E0
1.624172561E0,-8.033743858E0,-1.994968534E0,-2.831742048E0
1.626660269E0,-8.254010201E0,-1.736394763E0,-2.961029053E0
1.629147978E0,-8.455122948E0,-1.473032594E0,-3.071162224E0
1.631635686E0,-8.613141060E0,-1.224035621E0,-3.186083794E0
1.634123394E0,-8.742427826E0,-9.989806414E-1,-3.334524393E0
1.636611103E0,-8.866926193E0,-7.739257216E-1,-3.463811398E0
1.639098811E0,-8.953117371E0,-5.776011348E-1,-3.521272182E0
1.641586519E0,-8.996212959E0,-4.291606545E-1,-3.511695385E0
1.644074228E0,-9.020154953E0,-3.238157928E-1,-3.487753391E0
1.646561936E0,-9.053673744E0,-2.567781210E-1,-3.468599796E0
1.649049644E0,-9.063250542E0,-2.041056901E-1,-3.391985178E0
1.651537353E0,-9.068038940E0,-2.041056901E-1,-3.315370798E0
1.654025061E0,-9.068038940E0,-1.945288926E-1,-3.238756418E0
1.656512769E0,-9.053673744E0,-1.849520802E-1,-3.119046211E0
1.659000478E0,-9.010578156E0,-1.945288926E-1,-3.008913040E0
1.661488186E0,-8.967482567E0,-2.328361124E-1,-2.893991232E0
1.663975894E0,-8.905233383E0,-3.142389655E-1,-2.793434858E0
1.666463603E0,-8.833407402E0,-4.147954583E-1,-2.673724651E0
1.668951311E0,-8.737639427E0,-5.297171474E-1,-2.544437885E0
1.671439019E0,-8.632294655E0,-6.877344251E-1,-2.400785685E0
1.673926728E0,-8.536525726E0,-8.457517624E-1,-2.247556925E0
1.676414436E0,-8.435969353E0,-1.003769040E0,-2.108693123E0
1.678902144E0,-8.330624580E0,-1.142632723E0,-1.965041041E0
1.681389853E0,-8.263586998E0,-1.257554412E0,-1.850119352E0
1.683877561E0,-8.201337814E0,-1.358110905E0,-1.768716455E0
1.686365269E0,-8.129511833E0,-1.444302201E0,-1.706467271E0
1.688852978E0,-8.038532257E0,-1.496974587E0,-1.653794765E0
1.691340686E0,-7.981071472E0,-1.544858694E0,-1.629852772E0
1.693828394E0,-7.961917877E0,-1.602319479E0,-1.615487576E0
1.696316103E0,-7.947552681E0,-1.611896276E0,-1.644217968E0
1.698803811E0,-7.923610687E0,-1.607107878E0,-1.682525277E0
1.701291519E0,-7.914033890E0,-1.578377485E0,-1.706467271E0
1.703779228E0,-7.890091896E0,-1.544858694E0,-1.735197663E0
1.706266936E0,-7.851784706E0,-1.525704980E0,-1.759139657E0
1.708754644E0,-7.794323444E0,-1.520916581E0,-1.821388960E0
1.711242353E0,-7.693767071E0,-1.520916581E0,-1.883638144E0
1.713730061E0,-7.569268703E0,-1.535281897E0,-1.974617839E0
1.716217769E0,-7.463923931E0,-1.544858694E0,-2.079962730E0
1.718705478E0,-7.363367558E0,-1.559223890E0,-2.156577110E0
1.721193186E0,-7.258022308E0,-1.525704980E0,-2.237980127E0
1.723680894E0,-7.152677536E0,-1.477820992E0,-2.357690096E0
1.726168603E0,-7.037755966E0,-1.434725404E0,-2.458246708E0
1.728656311E0,-6.927622795E0,-1.377264500E0,-2.558803082E0
1.731144019E0,-6.860584736E0,-1.372476101E0,-2.649782658E0
1.733631728E0,-6.851007938E0,-1.405994892E0,-2.731185675E0
1.736119436E0,-6.918045998E0,-1.449090600E0,-2.779069662E0
1.738607144E0,-7.037755966E0,-1.468244195E0,-2.812588453E0
1.741094853E0,-7.214926720E0,-1.458667397E0,-2.812588453E0
1.743582561E0,-7.444770336E0,-1.386841297E0,-2.788646460E0
1.746070269E0,-7.679401875E0,-1.286284804E0,-2.745550871E0
1.748557978E0,-7.918822289E0,-1.161786318E0,-2.721608877E0
1.751045686E0,-8.148665428E0,-1.051653147E0,-2.697666883E0
1.753533394E0,-8.349778175E0,-9.463081956E-1,-2.688089848E0
1.756021103E0,-8.498218536E0,-8.553285599E-1,-2.683301449E0
1.758508811E0,-8.598775864E0,-7.835025191E-1,-2.664147854E0
1.760996519E0,-8.670601845E0,-7.739257216E-1,-2.616263866E0
1.763484228E0,-8.704120636E0,-7.499836683E-1,-2.582745075E0
1.765971936E0,-8.737639427E0,-7.547720671E-1,-2.554014683E0
1.768459644E0,-8.708909035E0,-7.739257216E-1,-2.530072689E0
1.770947353E0,-8.656236649E0,-8.122329116E-1,-2.544437885E0
1.773435061E0,-8.603564262E0,-8.744821548E-1,-2.577956676E0
1.775922769E0,-8.550890923E0,-9.510966539E-1,-2.597110271E0
1.778410478E0,-8.483853340E0,-1.022922635E0,-2.611475468E0
1.780898186E0,-8.402450562E0,-1.099537134E0,-2.630629063E0
1.783385894E0,-8.301894188E0,-1.152209520E0,-2.611475468E0
1.785873603E0,-8.191761017E0,-1.195305228E0,-2.592321873E0
1.788361311E0,-8.110358238E0,-1.252766013E0,-2.530072689E0
1.790849019E0,-8.043320656E0,-1.315015316E0,-2.467823505E0
1.793336728E0,-8.019378662E0,-1.401206493E0,-2.400785685E0
1.795824436E0,-8.019378662E0,-1.473032594E0,-2.290652514E0
1.798312144E0,-8.048109055E0,-1.535281897E0,-2.156577110E0
1.800799853E0,-8.062474251E0,-1.592742682E0,-2.012925148E0
1.803287561E0,-8.067262650E0,-1.635838270E0,-1.936310649E0
1.805775269E0,-8.105569839E0,-1.650203466E0,-1.950675845E0
1.808262978E0,-8.148665428E0,-1.659780383E0,-2.027290344E0
1.810750686E0,-8.230068207E0,-1.664568782E0,-2.142211914E0
1.813238394E0,-8.330624580E0,-1.635838270E0,-2.281075716E0
1.815726155E0,-8.498218536E0,-1.626261473E0,-2.424727678E0
1.818213915E0,-8.723274231E0,-1.611896276E0,-2.534861088E0
1.820701676E0,-9.039308548E0,-1.583165884E0,-2.625840664E0
1.823189436E0,-9.446322441E0,-1.525704980E0,-2.673724651E0
1.825677196E0,-9.896432877E0,-1.401206493E0,-2.697666883E0
1.828164957E0,-1.029386997E1,-1.243189216E0,-2.712032080E0
1.830652717E0,-1.061948204E1,-1.085171938E0,-2.774281263E0
1.833140478E0,-1.084932518E1,-9.319429994E-1,-2.874837637E0
1.835628238E0,-1.102170753E1,-8.026561141E-1,-3.004124641E0
1.838115999E0,-1.112705231E1,-6.781576276E-1,-3.128623009E0
1.840603759E0,-1.117972469E1,-5.823895931E-1,-3.277063608E0
1.843091519E0,-1.117493629E1,-5.105634928E-1,-3.406350374E0
1.845579280E0,-1.113184071E1,-4.195838571E-1,-3.511695385E0
1.848067040E0,-1.108395672E1,-3.573346138E-1,-3.550002575E0
1.850554801E0,-1.101213074E1,-3.190273643E-1,-3.559579372E0
1.853042561E0,-1.089242077E1,-2.807201445E-1,-3.526060581E0
1.855530321E0,-1.070567322E1,-2.711433470E-1,-3.468599796E0
1.858018082E0,-1.048540592E1,-2.615665495E-1,-3.411138773E0
1.860505842E0,-1.023162079E1,-2.472013235E-1,-3.334524393E0
1.862993603E0,-9.929951668E0,-2.376245260E-1,-3.291428804E0
1.865481363E0,-9.613917351E0,-2.088941038E-1,-3.195660830E0
1.867969124E0,-9.312247276E0,-2.041056901E-1,-3.090315819E0
1.870456884E0,-9.024943352E0,-1.753752679E-1,-2.970605850E0
1.872944644E0,-8.804677010E0,-1.801636815E-1,-2.798223257E0
1.875432405E0,-8.617929459E0,-2.519897223E-1,-2.635417461E0
1.877920165E0,-8.450334549E0,-3.812766075E-1,-2.496553898E0
1.880407926E0,-8.325836182E0,-5.871779919E-1,-2.376843691E0
1.882895686E0,-8.254010201E0,-8.122329116E-1,-2.261922121E0
1.885383446E0,-8.201337814E0,-1.075595140E0,-2.118269920E0
1.887871207E0,-8.153453827E0,-1.305438519E0,-1.955464244E0
1.890358967E0,-8.119935036E0,-1.535281897E0,-1.807023764E0
1.892846728E0,-8.110358238E0,-1.741183162E0,-1.672948480E0
1.895334488E0,-8.105569839E0,-1.908777356E0,-1.596333981E0
1.897822249E0,-8.158242226E0,-2.018910646E0,-1.534084797E0
1.900309957E0,-8.258798599E0,-2.066794634E0,-1.538873196E0
1.902797665E0,-8.455122948E0,-2.033275843E0,-1.548449993E0
1.905285374E0,-8.761581421E0,-1.913565755E0,-1.596333981E0
1.907773082E0,-9.154230118E0,-1.741183162E0,-1.644217968E0
1.910260790E0,-9.542090416E0,-1.525704980E0,-1.696890473E0
1.912748499E0,-9.853337288E0,-1.315015316E0,-1.773504853E0
1.915236207E0,-1.011669922E1,-1.128267527E0,-1.926733851E0
1.917723915E0,-1.029865837E1,-9.654618502E-1,-2.132635117E0
1.920211624E0,-1.041836834E1,-7.787141204E-1,-2.376843691E0
1.922699332E0,-1.046146393E1,-6.302735806E-1,-2.592321873E0
1.925187040E0,-1.042794514E1,-4.578910768E-1,-2.764704466E0
1.927674749E0,-1.032260036E1,-2.902969420E-1,-2.903568029E0
1.930162457E0,-1.016458321E1,-1.083376259E-1,-2.999336243E0
1.932650165E0,-9.968258858E0,5.925649032E-2,-3.095104218E0
1.935137874E0,-9.738415718E0,2.316390127E-1,-3.162141800E0
1.937625582E0,-9.470264435E0,4.040215313E-1,-3.224391222E0
1.940113290E0,-9.192537308E0,5.907692909E-1,-3.257910013E0
1.942600999E0,-8.905233383E0,7.583633661E-1,-3.281852007E0
1.945088707E0,-8.622717857E0,8.732850552E-1,-3.301005602E0
1.947576415E0,-8.373720169E0,9.451110959E-1,-3.272275209E0
1.950064124E0,-8.177395821E0,9.355342984E-1,-3.214814425E0
1.952551832E0,-8.105569839E0,8.062474132E-1,-3.162141800E0
1.955039540E0,-8.134300232E0,5.141547918E-1,-3.085527420E0
1.957527249E0,-8.249221802E0,1.137245819E-2,-2.989759445E0
1.960014957E0,-8.321047783E0,-5.776011348E-1,-2.874837637E0
1.962502665E0,-8.287528992E0,-1.133055925E0,-2.692878246E0
1.964990374E0,-8.167819023E0,-1.520916581E0,-2.515707493E0
1.967478082E0,-8.009801865E0,-1.765125155E0,-2.357690096E0
1.969965790E0,-7.890091896E0,-1.817797661E0,-2.247556925E0
1.972453499E0,-7.789535046E0,-1.784278870E0,-2.108693123E0
1.974941207E0,-7.770381451E0,-1.722029567E0,-1.931522250E0
1.977428915E0,-7.851784706E0,-1.664568782E0,-1.730409265E0
1.979916624E0,-7.990648270E0,-1.635838270E0,-1.572391987E0
1.982404332E0,-8.172607422E0,-1.635838270E0,-1.423951507E0
1.984892040E0,-8.388085365E0,-1.640626669E0,-1.328183413E0
1.987379749E0,-8.608352661E0,-1.597531080E0,-1.270722508E0
1.989867457E0,-8.814253807E0,-1.492186189E0,-1.232415318E0
1.992355165E0,-9.005789757E0,-1.343745708E0,-1.237203717E0
1.994842874E0,-9.130288124E0,-1.166574836E0,-1.270722508E0
1.997330582E0,-9.249998093E0,-9.846154451E-1,-1.352125406E0
1.999818290E0,-9.317035675E0,-7.787141204E-1,-1.462258697E0
2.002305999E0,-9.317035675E0,-6.159083843E-1,-1.649006367E0
2.004793707E0,-9.307458878E0,-4.770447016E-1,-1.859696150E0
2.007281415E0,-9.254786491E0,-3.094505668E-1,-2.094327927E0
2.009769124E0,-9.202114105E0,-1.610100716E-1,-2.352901697E0
2.012256832E0,-9.144653320E0,6.584054790E-3,-2.616263866E0
2.014744540E0,-9.039308548E0,1.933317930E-1,-2.889202833E0
2.017232249E0,-8.871714592E0,3.944447339E-1,-3.162141800E0
2.019719957E0,-8.670601845E0,5.668272376E-1,-3.391985178E0
2.022207665E0,-8.445546150E0,7.104793787E-1,-3.626616955E0
2.024695374E0,-8.277952194E0,8.637082577E-1,-3.866037130E0
2.027183082E0,-8.273163795E0,9.020155072E-1,-4.057573318E0
2.029670790E0,-8.412027359E0,8.062474132E-1,-4.177283287E0
2.032158499E0,-8.598775864E0,5.811924338E-1,-4.177283287E0
2.034646207E0,-8.780735016E0,2.172738016E-1,-4.100668907E0
2.037133915E0,-8.957905769E0,-1.897404790E-1,-4.024054527E0
2.039621624E0,-9.106346130E0,-5.297171474E-1,-3.933074951E0
2.042109332E0,-9.206902504E0,-8.170213103E-1,-3.803787947E0
2.044597040E0,-9.235632896E0,-9.989806414E-1,-3.669712543E0
2.047084749E0,-9.221267700E0,-1.137844324E0,-3.521272182E0
2.049572457E0,-9.173383713E0,-1.238400817E0,-3.353677988E0
2.052060165E0,-9.130288124E0,-1.362899303E0,-3.162141800E0
2.054547874E0,-9.091980934E0,-1.492186189E0,-2.961029053E0
2.057035582E0,-9.072827339E0,-1.578377485E0,-2.740762472E0
2.059523290E0,-9.106346130E0,-1.664568782E0,-2.486977100E0
2.062010999E0,-9.182960510E0,-1.698087573E0,-2.204461098E0
2.064498707E0,-9.293093681E0,-1.678933978E0,-1.921945453E0
2.066986415E0,-9.408015251E0,-1.650203466E0,-1.620275974E0
2.069474124E0,-9.498994827E0,-1.587954283E0,-1.356913805E0
2.071961832E0,-9.609128952E0,-1.492186189E0,-1.122282028E0
2.074449540E0,-9.700108528E0,-1.386841297E0,-9.211691022E-1
2.076937249E0,-9.767146111E0,-1.262342811E0,-7.727286220E-1
2.079424957E0,-9.805453300E0,-1.156997919E0,-6.530185342E-1
2.081912665E0,-9.800664902E0,-1.061229944E0,-6.051344872E-1
2.084400374E0,-9.747992516E0,-9.463081956E-1,-6.147112846E-1
2.086888082E0,-9.704896927E0,-8.361749649E-1,-6.290764809E-1
2.089375790E0,-9.695320129E0,-6.973112226E-1,-6.769605279E-1
2.091863499E0,-9.680954933E0,-5.392939448E-1,-7.104793787E-1
2.094351207E0,-9.676166534E0,-3.573346138E-1,-8.110358119E-1
2.096838915E0,-9.671378136E0,-1.801636815E-1,-9.115923047E-1
2.099326624E0,-9.666589737E0,2.573766746E-2,-1.016937137E0
2.101814332E0,-9.661801338E0,2.460042238E-1,-1.122282028E0
2.104302040E0,-9.647436142E0,4.279635549E-1,-1.222838521E0
2.106789749E0,-9.652224541E0,5.141547918E-1,-1.318606615E0
2.109277457E0,-9.714473724E0,4.471171796E-1,-1.328183413E0
2.111765165E0,-9.819818497E0,2.029085904E-1,-1.332971811E0
2.114252874E0,-9.939528465E0,-1.705868691E-1,-1.356913805E0
2.116740582E0,-9.973047256E0,-5.728127360E-1,-1.400009394E0
2.119228290E0,-9.944316864E0,-9.415197968E-1,-1.490989089E0
2.121715999E0,-9.877279282E0,-1.219247222E0,-1.558026791E0
2.124203759E0,-9.829395294E0,-1.425148606E0,-1.625064373E0
2.126691519E0,-9.762357712E0,-1.544858694E0,-1.696890473E0
2.129179280E0,-9.724050522E0,-1.626261473E0,-1.783081770E0
2.131667040E0,-9.728838921E0,-1.698087573E0,-1.898003340E0
2.134154801E0,-9.767146111E0,-1.750759959E0,-2.003348351E0
2.136642561E0,-9.853337288E0,-1.755548358E0,-2.089539528E0
2.139130321E0,-9.992200851E0,-1.707664371E0,-2.132635117E0
2.141618082E0,-1.017416000E1,-1.607107878E0,-2.142211914E0
2.144105842E0,-1.035611916E1,-1.473032594E0,-2.151788712E0
2.146593603E0,-1.051892471E1,-1.310226917E0,-2.142211914E0
2.149081363E0,-1.066257763E1,-1.147421122E0,-2.123058319E0
2.151569124E0,-1.077271080E1,-1.003769040E0,-2.127846718E0
2.154056884E0,-1.080622959E1,-8.505401611E-1,-2.118269920E0
2.156544644E0,-1.085411358E1,-7.308300734E-1,-2.094327927E0
2.159032405E0,-1.085890198E1,-5.967547894E-1,-2.079962730E0
2.161520165E0,-1.079665279E1,-5.153518915E-1,-2.022501945E0
2.164007926E0,-1.069130802E1,-3.908534348E-1,-1.988983035E0
2.166495686E0,-1.056202126E1,-2.998737693E-1,-1.907580256E0
2.168983446E0,-1.043273354E1,-1.993172914E-1,-1.859696150E0
2.171471207E0,-1.031781197E1,-6.524199992E-2,-1.830965757E0
2.173958967E0,-1.022204399E1,1.023521200E-1,-1.749562860E0
2.176446728E0,-1.011191082E1,3.034650683E-1,-1.711255670E0
2.178934488E0,-1.000656605E1,4.902127981E-1,-1.653794765E0
2.181422249E0,-9.906009674E0,6.530185342E-1,-1.620275974E0
2.183910009E0,-9.824606895E0,7.535749674E-1,-1.548449993E0
2.186397769E0,-9.752780914E0,8.732850552E-1,-1.481412292E0
2.188885530E0,-9.733627319E0,9.259575009E-1,-1.366490602E0
2.191373290E0,-9.743204117E0,9.451110959E-1,-1.208473325E0
2.193861051E0,-9.824606895E0,8.732850552E-1,-1.031302333E0
2.196348811E0,-9.987412453E0,7.344213724E-1,-8.110358119E-1
2.198836571E0,-1.019810200E1,4.997895956E-1,-5.237316489E-1
2.201324332E0,-1.043752193E1,2.507926226E-1,-2.412158251E-1
2.203812092E0,-1.067215443E1,1.795651275E-3,2.214636654E-2
2.206299853E0,-1.082059479E1,-1.610100716E-1,1.657984704E-1
2.208787561E0,-1.091157436E1,-2.280477136E-1,1.610100716E-1
2.211275269E0,-1.096903515E1,-2.041056901E-1,6.045359373E-2
2.213762978E0,-1.099297714E1,-1.274912357E-1,-1.262941360E-1
2.216250686E0,-1.099297714E1,-5.087678507E-2,-3.657143116E-1
2.218738394E0,-1.098818874E1,-2.693476900E-2,-6.290764809E-1
2.221226103E0,-1.099297714E1,-4.129998013E-2,-8.972271085E-1
2.223713811E0,-1.098340034E1,-7.003039867E-2,-1.189319730E0
2.226201519E0,-1.099297714E1,-1.322796494E-1,-1.452681899E0
2.228689228E0,-1.096903515E1,-1.849520802E-1,-1.658583283E0
2.231176936E0,-1.094030476E1,-2.184709013E-1,-1.845330954E0
2.233664644E0,-1.088284397E1,-2.472013235E-1,-1.979406238E0
2.236152353E0,-1.080144119E1,-2.759317458E-1,-2.094327927E0
2.238640061E0,-1.073440361E1,-2.998737693E-1,-2.233191729E0
2.241127769E0,-1.065300083E1,-2.950853705E-1,-2.367266893E0
2.243615478E0,-1.054286766E1,-3.046621680E-1,-2.472611904E0
2.246103186E0,-1.044231033E1,-3.333925903E-1,-2.549226284E0
2.248590894E0,-1.031781197E1,-3.142389655E-1,-2.601898670E0
2.251078603E0,-1.016937160E1,-3.190273643E-1,-2.630629063E0
2.253566311E0,-1.002571964E1,-3.190273643E-1,-2.611475468E0
2.256054019E0,-9.862914085E0,-3.142389655E-1,-2.577956676E0
2.258541728E0,-9.700108528E0,-2.855085433E-1,-2.506130695E0
2.261029436E0,-9.570821762E0,-2.041056901E-1,-2.400785685E0
2.263517144E0,-9.441534042E0,-1.274912357E-1,-2.242768526E0
2.266004853E0,-9.345766068E0,-6.524199992E-2,-2.046443939E0
2.268492561E0,-9.302670479E0,-4.608838260E-2,-1.835754156E0
2.270980269E0,-9.288305283E0,-8.918401599E-2,-1.620275974E0
2.273467978E0,-9.326612473E0,-1.562216580E-1,-1.414374709E0
2.275955686E0,-9.427168846E0,-3.046621680E-1,-1.213261724E0
2.278443394E0,-9.522936821E0,-5.057750940E-1,-1.064821243E0
2.280931103E0,-9.628282547E0,-6.877344251E-1,-9.738415480E-1
2.283418811E0,-9.738415718E0,-8.313865662E-1,-9.307458997E-1
2.285906519E0,-9.858125687E0,-8.840589523E-1,-9.307458997E-1
2.288394228E0,-9.982624054E0,-8.601169586E-1,-9.738415480E-1
2.290881936E0,-1.015500641E1,-8.026561141E-1,-1.050456047E0
2.293369644E0,-1.034654236E1,-7.404068708E-1,-1.131858826E0
2.295857353E0,-1.052850151E1,-6.829460263E-1,-1.237203717E0
2.298345061E0,-1.069609642E1,-6.781576276E-1,-1.371279001E0
2.300832769E0,-1.083017159E1,-7.308300734E-1,-1.534084797E0
2.303320478E0,-1.089720917E1,-7.787141204E-1,-1.692102075E0
2.305808186E0,-1.092593956E1,-8.170213103E-1,-1.826177359E0
2.308295894E0,-1.094988155E1,-8.409633636E-1,-1.979406238E0
2.310783603E0,-1.091636276E1,-8.361749649E-1,-2.113481522E0
2.313271311E0,-1.083974838E1,-8.361749649E-1,-2.247556925E0
2.315759019E0,-1.071525002E1,-8.505401611E-1,-2.386420488E0
2.318246728E0,-1.056202126E1,-9.127894044E-1,-2.525284290E0
2.320734436E0,-1.039921474E1,-9.606734514E-1,-2.621052265E0
2.323222144E0,-1.019810200E1,-1.003769040E0,-2.664147854E0
2.325709853E0,-9.996989250E0,-1.066018343E0,-2.659359455E0
2.328197561E0,-9.781511307E0,-1.113902330E0,-2.621052265E0
2.330685269E0,-9.542090416E0,-1.147421122E0,-2.573168278E0
2.333172978E0,-9.317035675E0,-1.152209520E0,-2.491765499E0
2.335660686E0,-9.087192535E0,-1.180940032E0,-2.386420488E0
2.338148394E0,-8.847772598E0,-1.190516829E0,-2.319382906E0
2.340636103E0,-8.589199066E0,-1.185728431E0,-2.228403330E0
2.343123811E0,-8.349778175E0,-1.156997919E0,-2.118269920E0
2.345611519E0,-8.115146637E0,-1.118690729E0,-1.998559833E0
2.348099228E0,-7.914033890E0,-1.066018343E0,-1.874061346E0
2.350586936E0,-7.784746647E0,-9.846154451E-1,-1.739986062E0
2.353074644E0,-7.703343868E0,-9.223662019E-1,-1.558026791E0
2.355562353E0,-7.746439457E0,-9.032126069E-1,-1.352125406E0
2.358050061E0,-7.856573105E0,-9.223662019E-1,-1.103128433E0
2.360537769E0,-8.019378662E0,-9.894038439E-1,-8.684966564E-1
2.363025478E0,-8.234856606E0,-1.089960337E0,-7.104793787E-1
2.365513186E0,-8.459911346E0,-1.156997919E0,-6.099228859E-1
2.368000894E0,-8.656236649E0,-1.200093627E0,-5.668272376E-1
2.370488603E0,-8.842984200E0,-1.200093627E0,-6.242880821E-1
2.372976311E0,-9.020154953E0,-1.171363235E0,-7.392097712E-1
2.375464019E0,-9.202114105E0,-1.142632723E0,-8.924387097E-1
2.377951728E0,-9.412803650E0,-1.133055925E0,-1.055244446E0
2.380439436E0,-9.628282547E0,-1.094748735E0,-1.246780515E0
2.382927144E0,-9.824606895E0,-1.037287831E0,-1.476623893E0
2.385414853E0,-9.987412453E0,-9.702502489E-1,-1.720832467E0
2.387902561E0,-1.010233402E1,-8.888474107E-1,-1.965041041E0
2.390390269E0,-1.020289040E1,-7.691373229E-1,-2.204461098E0
2.392877978E0,-1.026513958E1,-6.446388364E-1,-2.443881273E0
2.395365686E0,-1.035611916E1,-5.728127360E-1,-2.659359455E0
2.397853394E0,-1.043273354E1,-4.866214991E-1,-2.831742048E0
2.400341103E0,-1.046625233E1,-4.483142793E-1,-2.927510023E0
2.402828811E0,-1.048061752E1,-4.147954583E-1,-2.984971046E0
2.405316519E0,-1.045667553E1,-3.621230125E-1,-3.047220230E0
2.407804228E0,-1.039921474E1,-3.142389655E-1,-3.056797028E0
2.410291936E0,-1.030823517E1,-2.807201445E-1,-3.042431831E0
2.412779644E0,-1.019810200E1,-2.567781210E-1,-2.999336243E0
2.415267353E0,-1.008796883E1,-2.280477136E-1,-2.927510023E0
2.417755061E0,-9.958682060E0,-2.232593149E-1,-2.793434858E0
2.420242769E0,-9.815030098E0,-2.088941038E-1,-2.654571056E0
2.422730478E0,-9.637859344E0,-1.849520802E-1,-2.477400303E0
2.425218186E0,-9.470264435E0,-1.562216580E-1,-2.276287317E0
2.427705894E0,-9.307458878E0,-1.179144308E-1,-2.036867142E0
2.430193655E0,-9.154230118E0,-1.179144308E-1,-1.797446966E0
2.432681415E0,-9.010578156E0,-1.274912357E-1,-1.538873196E0
2.435169176E0,-8.890868187E0,-1.657984704E-1,-1.275510907E0
2.437656936E0,-8.823830605E0,-2.136825025E-1,-9.786299467E-1
2.440144696E0,-8.828619003E0,-2.711433470E-1,-6.721721292E-1
2.442632457E0,-8.852560997E0,-3.333925903E-1,-3.848679364E-1
2.445120217E0,-8.943540573E0,-4.052186310E-1,-9.756372124E-2
2.447607978E0,-9.058462143E0,-4.961982965E-1,1.562216580E-1
2.450095738E0,-9.202114105E0,-5.823895931E-1,3.621230125E-1
2.452583499E0,-9.384073257E0,-6.829460263E-1,5.105634928E-1
2.455071259E0,-9.575610161E0,-7.882909179E-1,6.159083843E-1
2.457559019E0,-9.728838921E0,-8.409633636E-1,6.398503780E-1
2.460046780E0,-9.896432877E0,-8.649053574E-1,5.680243373E-1
2.462534540E0,-1.003529644E1,-8.744821548E-1,4.004302323E-1
2.465022301E0,-1.014542961E1,-8.553285599E-1,1.849520802E-1
2.467510061E0,-1.026035118E1,-8.409633636E-1,-6.883329898E-2
2.469997821E0,-1.038484955E1,-8.170213103E-1,-3.800795078E-1
2.472485582E0,-1.052371311E1,-7.835025191E-1,-7.056909800E-1
2.474973342E0,-1.065778923E1,-7.499836683E-1,-1.055244446E0
2.477461103E0,-1.079665279E1,-6.637924314E-1,-1.390432596E0
2.479948863E0,-1.093551636E1,-5.297171474E-1,-1.716044068E0
2.482436624E0,-1.104086113E1,-3.812766075E-1,-2.003348351E0
2.484924384E0,-1.117014790E1,-2.232593149E-1,-2.257133722E0
2.487412144E0,-1.126112747E1,-9.397241473E-2,-2.520495892E0
2.489899905E0,-1.132337666E1,1.616086066E-2,-2.716820478E0
2.492387665E0,-1.138562584E1,1.215057373E-1,-2.927510023E0
2.494875426E0,-1.139999104E1,1.693897694E-1,-3.109469414E0
2.497363186E0,-1.138083744E1,1.933317930E-1,-3.243544817E0
2.499850946E0,-1.132337666E1,2.220622003E-1,-3.334524393E0
2.502338707E0,-1.125155067E1,2.699462473E-1,-3.358466387E0
2.504826467E0,-1.116057110E1,2.986766696E-1,-3.324947596E0
2.507314228E0,-1.102649593E1,3.274070919E-1,-3.248333216E0
2.509801988E0,-1.088763237E1,3.274070919E-1,-3.119046211E0
2.512289749E0,-1.075834560E1,3.369838893E-1,-2.922721624E0
2.514777457E0,-1.062427044E1,3.274070919E-1,-2.683301449E0
2.517265165E0,-1.049977112E1,2.986766696E-1,-2.386420488E0
2.519752874E0,-1.041836834E1,2.747346461E-1,-2.089539528E0
2.522240582E0,-1.034654236E1,2.172738016E-1,-1.778293371E0
2.524728290E0,-1.030344677E1,1.119289324E-1,-1.467047095E0
2.527215999E0,-1.025556278E1,-2.214636654E-2,-1.127070427E0
2.529703707E0,-1.020289040E1,-1.610100716E-1,-8.301894665E-1
2.532191415E0,-1.017894840E1,-2.855085433E-1,-5.716156363E-1
2.534679124E0,-1.014064121E1,-4.195838571E-1,-3.321954906E-1
2.537166832E0,-1.009754562E1,-5.584475398E-1,-1.598129570E-1
2.539654540E0,-1.003529644E1,-7.020996213E-1,-3.052607179E-2
2.542142249E0,-9.934740067E0,-8.361749649E-1,9.876082093E-2
2.544629957E0,-9.819818497E0,-9.750386477E-1,1.993172914E-1
2.547117665E0,-9.709685326E0,-1.104325533E0,2.807201445E-1
2.549605374E0,-9.623494148E0,-1.219247222E0,3.333925903E-1
2.552093082E0,-9.575610161E0,-1.257554412E0,3.956418335E-1
2.554580790E0,-9.546878815E0,-1.233612418E0,4.195838571E-1
2.557068499E0,-9.566033363E0,-1.156997919E0,4.243722558E-1
2.559556207E0,-9.613917351E0,-1.066018343E0,4.243722558E-1
2.562043915E0,-9.685743332E0,-9.798270464E-1,4.387374520E-1
2.564531624E0,-9.824606895E0,-8.936358094E-1,4.435258508E-1
2.567019332E0,-9.968258858E0,-8.170213103E-1,4.674678743E-1
2.569507040E0,-1.011669922E1,-7.691373229E-1,4.961982965E-1
2.571994749E0,-1.024119759E1,-7.356184721E-1,5.392939448E-1
2.574482457E0,-1.034175396E1,-6.829460263E-1,5.488707423E-1
2.576970165E0,-1.041836834E1,-6.590040326E-1,5.345055461E-1
2.579457874E0,-1.047104073E1,-6.494272351E-1,4.818331003E-1
2.581945582E0,-1.050934792E1,-6.446388364E-1,3.764882088E-1
2.584433290E0,-1.052850151E1,-6.350619793E-1,2.663549483E-1
2.586920999E0,-1.058117485E1,-6.159083843E-1,1.514332592E-1
2.589408707E0,-1.061948204E1,-6.159083843E-1,1.735796221E-2
2.591896415E0,-1.067215443E1,-5.967547894E-1,-1.502361596E-1
2.594384124E0,-1.073440361E1,-5.871779919E-1,-3.752911091E-1
2.596871832E0,-1.081101799E1,-5.632359385E-1,-6.242880821E-1
2.599359540E0,-1.090678596E1,-5.345055461E-1,-8.254010081E-1
2.601847249E0,-1.105043793E1,-5.009866953E-1,-9.882067442E-1
2.604334957E0,-1.118930149E1,-4.387374520E-1,-1.179742932E0
2.606822665E0,-1.135210705E1,-3.669114113E-1,-1.332971811E0
2.609310374E0,-1.149097061E1,-2.759317458E-1,-1.495777488E0
2.611798082E0,-1.163941193E1,-1.610100716E-1,-1.639429569E0
2.614285790E0,-1.173039150E1,-4.608838260E-2,-1.716044068E0
2.616773499E0,-1.179264069E1,3.531447425E-2,-1.744774461E0
2.619261207E0,-1.182615948E1,1.023521200E-1,-1.720832467E0
2.621748915E0,-1.186925507E1,1.071405262E-1,-1.672948480E0
2.624236624E0,-1.188362026E1,8.319851011E-2,-1.634641171E0
2.626724332E0,-1.188362026E1,2.573766746E-2,-1.615487576E0
2.629212040E0,-1.185488987E1,-2.214636654E-2,-1.577180386E0
2.631699749E0,-1.177348709E1,-6.524199992E-2,-1.543661594E0
2.634187457E0,-1.167771912E1,-9.876082093E-2,-1.462258697E0
2.636675165E0,-1.153406715E1,-1.562216580E-1,-1.356913805E0
2.639162874E0,-1.138083744E1,-2.376245260E-1,-1.232415318E0
2.641650582E0,-1.120845509E1,-3.429693878E-1,-1.098340034E0
2.644138290E0,-1.101691914E1,-4.531026781E-1,-9.546879530E-1
2.646625999E0,-1.083017159E1,-5.728127360E-1,-8.493430614E-1
2.649113707E0,-1.067215443E1,-6.637924314E-1,-7.344213724E-1
2.651601415E0,-1.049498272E1,-7.404068708E-1,-6.386532784E-1
2.654089124E0,-1.031781197E1,-8.313865662E-1,-5.237316489E-1
2.656576832E0,-1.014542961E1,-8.840589523E-1,-4.375403523E-1
2.659064540E0,-1.000177765E1,-9.415197968E-1,-3.657143116E-1
2.661552249E0,-9.886856079E0,-9.702502489E-1,-2.699462473E-1
2.664039957E0,-9.800664902E0,-9.941922426E-1,-1.933317930E-1
2.666527665E0,-9.781511307E0,-1.003769040E0,-1.646013707E-1
2.669015374E0,-9.767146111E0,-1.003769040E0,-1.071405262E-1
2.671503082E0,-9.786299706E0,-9.989806414E-1,-5.446808785E-2
2.673990790E0,-9.867702484E0,-9.750386477E-1,-3.052607179E-2
2.676478499E0,-9.963470459E0,-9.750386477E-1,-3.531447425E-2
2.678966207E0,-1.004487324E1,-9.702502489E-1,-9.277531505E-2
2.681453915E0,-1.012627602E1,-9.846154451E-1,-2.076970041E-1
2.683941624E0,-1.023162079E1,-9.941922426E-1,-3.705027103E-1
2.686429332E0,-1.032260036E1,-1.018134236E0,-5.380968451E-1
2.688917040E0,-1.038963795E1,-1.003769040E0,-7.009025216E-1
2.691404749E0,-1.047104073E1,-1.018134236E0,-8.828618526E-1
2.693892457E0,-1.060511684E1,-1.008557439E0,-1.040879130E0
2.696380165E0,-1.070567322E1,-9.846154451E-1,-1.203684926E0
2.698867874E0,-1.079186440E1,-9.558850527E-1,-1.390432596E0
2.701355582E0,-1.086369038E1,-9.319429994E-1,-1.596333981E0
2.703843290E0,-1.091157436E1,-9.080010056E-1,-1.816600561E0
2.706330999E0,-1.092593956E1,-9.032126069E-1,-1.998559833E0
2.708818707E0,-1.091636276E1,-8.792705536E-1,-2.151788712E0
2.711306415E0,-1.092115116E1,-8.649053574E-1,-2.271498919E0
2.713794124E0,-1.091157436E1,-8.457517624E-1,-2.343324900E0
2.716281832E0,-1.090678596E1,-8.170213103E-1,-2.328959703E0
2.718769540E0,-1.088763237E1,-8.505401611E-1,-2.305017710E0
2.721257249E0,-1.082059479E1,-8.984242082E-1,-2.223614931E0
2.723744957E0,-1.071525002E1,-9.798270464E-1,-2.127846718E0
2.726232665E0,-1.056680965E1,-1.075595140E0,-1.984194636E0
2.728720374E0,-1.037527275E1,-1.176151633E0,-1.792658567E0
2.731208082E0,-1.018373680E1,-1.276708007E0,-1.591545582E0
2.733695790E0,-9.944316864E0,-1.377264500E0,-1.361702204E0
2.736183499E0,-9.728838921E0,-1.473032594E0,-1.151012421E0
2.738671259E0,-9.556455612E0,-1.549647093E0,-9.259575009E-1
2.741159019E0,-9.384073257E0,-1.578377485E0,-7.248445749E-1
2.743646780E0,-9.269151688E0,-1.592742682E0,-5.237316489E-1
2.746134540E0,-9.173383713E0,-1.587954283E0,-3.274070919E-1
2.748622301E0,-9.106346130E0,-1.559223890E0,-1.406593472E-1
2.751110061E0,-9.082404137E0,-1.520916581E0,6.524199992E-2
2.753597821E0,-9.087192535E0,-1.473032594E0,2.615665495E-1
2.756085582E0,-9.125499725E0,-1.382052898E0,4.914098978E-1
2.758573342E0,-9.178172112E0,-1.281496406E0,7.020996213E-1
2.761061103E0,-9.269151688E0,-1.180940032E0,9.175778031E-1
2.763548863E0,-9.374496460E0,-1.104325533E0,1.094748735E0
2.766036624E0,-9.518148422E0,-9.894038439E-1,1.243189216E0
2.768524384E0,-9.666589737E0,-8.553285599E-1,1.329380512E0
2.771012144E0,-9.848548889E0,-7.451952696E-1,1.362899303E0
2.773499905E0,-1.005445004E1,-6.206967831E-1,1.338957310E0
2.775987665E0,-1.027950478E1,-5.105634928E-1,1.276708007E0
2.778475426E0,-1.050455952E1,-4.291606545E-1,1.123479128E0
2.780963186E0,-1.070088482E1,-3.956418335E-1,9.032126069E-1
2.783450946E0,-1.085890198E1,-3.525462151E-1,6.206967831E-1
2.785938707E0,-1.100734234E1,-3.142389655E-1,2.998737693E-1
2.788426467E0,-1.108395672E1,-2.998737693E-1,-1.137245819E-2
2.790914228E0,-1.110311031E1,-2.998737693E-1,-2.603694201E-1
2.793401988E0,-1.108874512E1,-3.477577865E-1,-4.854243994E-1
2.795889749E0,-1.103128433E1,-3.812766075E-1,-6.099228859E-1
2.798377509E0,-1.094988155E1,-4.578910768E-1,-6.913257241E-1
2.800865269E0,-1.085890198E1,-5.536591411E-1,-7.152677774E-1
2.803353030E0,-1.076792240E1,-6.877344251E-1,-6.913257241E-1
2.805840790E0,-1.067694283E1,-8.265981078E-1,-6.434416771E-1
2.808328551E0,-1.056680965E1,-9.558850527E-1,-5.524620414E-1
2.810816311E0,-1.043752193E1,-1.104325533E0,-4.806360006E-1
2.813304071E0,-1.029386997E1,-1.209670424E0,-3.848679364E-1
2.815791832E0,-1.015500641E1,-1.329380512E0,-2.747346461E-1
2.818279592E0,-1.003050804E1,-1.405994892E0,-1.167173311E-1
2.820767353E0,-9.934740067E0,-1.449090600E0,6.524199992E-2
2.823255061E0,-9.829395294E0,-1.496974587E0,2.519897223E-1
2.825742769E0,-9.728838921E0,-1.564012289E0,4.147954583E-1
2.828230478E0,-9.613917351E0,-1.611896276E0,5.728127360E-1
2.830718186E0,-9.518148422E0,-1.645415068E0,7.116764784E-1
2.833205894E0,-9.393650055E0,-1.659780383E0,8.888474107E-1
2.835693603E0,-9.278728485E0,-1.702875972E0,1.037287831E0
2.838181311E0,-9.216479301E0,-1.707664371E0,1.190516829E0
2.840669019E0,-9.154230118E0,-1.717241168E0,1.324592113E0
2.843156728E0,-9.139864922E0,-1.731606364E0,1.425148606E0
2.845644436E0,-9.120711327E0,-1.722029567E0,1.516128182E0
2.848132144E0,-9.101557732E0,-1.731606364E0,1.587954283E0
2.850619853E0,-9.106346130E0,-1.736394763E0,1.635838270E0
2.853107561E0,-9.125499725E0,-1.789067268E0,1.674145579E0
2.855595269E0,-9.187748909E0,-1.851316452E0,1.693299174E0
2.858082978E0,-9.245209694E0,-1.951872945E0,1.707664371E0
2.860570686E0,-9.278728485E0,-2.057217836E0,1.693299174E0
2.863058394E0,-9.302670479E0,-2.124255419E0,1.635838270E0
2.865546103E0,-9.340977669E0,-2.167351007E0,1.530493379E0
2.868033811E0,-9.364919662E0,-2.176927805E0,1.415571809E0
2.870521519E0,-9.412803650E0,-2.152985811E0,1.257554412E0
2.873009228E0,-9.436745644E0,-2.138620615E0,1.075595140E0
2.875496936E0,-9.470264435E0,-2.133832216E0,9.127894044E-1
2.877984644E0,-9.489418030E0,-2.124255419E0,7.787141204E-1
2.880472353E0,-9.537302017E0,-2.114678621E0,6.973112226E-1
2.882960061E0,-9.599552155E0,-2.066794634E0,6.206967831E-1
2.885447769E0,-9.695320129E0,-2.009333849E0,5.440823436E-1
2.887935478E0,-9.800664902E0,-1.951872945E0,4.818331003E-1
2.890423186E0,-9.977835655E0,-1.875258446E0,4.387374520E-1
2.892910894E0,-1.013106441E1,-1.789067268E0,3.908534348E-1
2.895398603E0,-1.025077438E1,-1.741183162E0,3.860650361E-1
2.897886311E0,-1.030823517E1,-1.702875972E0,3.956418335E-1
2.900374019E0,-1.032738876E1,-1.654991984E0,4.722562730E-1
2.902861728E0,-1.033696556E1,-1.621473074E0,5.680243373E-1
2.905349436E0,-1.030823517E1,-1.597531080E0,6.877344251E-1
2.907837144E0,-1.029865837E1,-1.583165884E0,8.122329116E-1
2.910324853E0,-1.031781197E1,-1.611896276E0,9.367313981E-1
2.912812561E0,-1.037527275E1,-1.683722377E0,1.008557439E0
2.915300269E0,-1.042794514E1,-1.798644066E0,1.051653147E0
2.917787978E0,-1.043273354E1,-1.947084546E0,1.089960337E0
2.920275686E0,-1.038963795E1,-2.085948229E0,1.166574836E0
2.922763394E0,-1.037048435E1,-2.196081400E0,1.219247222E0
2.925251103E0,-1.032260036E1,-2.277484417E0,1.238400817E0
2.927738811E0,-1.024119759E1,-2.267907619E0,1.195305228E0
2.930226519E0,-1.015021801E1,-2.267907619E0,1.094748735E0
2.932714228E0,-1.005445004E1,-2.186504602E0,9.654618502E-1
2.935201936E0,-9.973047256E0,-2.090736628E0,8.122329116E-1
2.937689644E0,-9.958682060E0,-2.004545450E0,6.733692288E-1
2.940177353E0,-1.005445004E1,-1.994968534E0,5.823895931E-1
2.942665061E0,-1.007839203E1,-2.057217836E0,5.919663906E-1
2.945152769E0,-1.003050804E1,-2.009333849E0,5.201402903E-1
2.947640478E0,-1.004966164E1,-1.803432465E0,2.041056901E-1
2.950128186E0,-1.015500641E1,-1.530493379E0,-1.358709484E-1
2.952615894E0,-1.026513958E1,-1.233612418E0,-3.752911091E-1
2.955103603E0,-1.040400314E1,-9.989806414E-1,-5.189431906E-1
2.957591311E0,-1.056680965E1,-8.122329116E-1,-5.668272376E-1
2.960079019E0,-1.079186440E1,-6.542156339E-1,-5.524620414E-1
2.962566728E0,-1.102170753E1,-4.961982965E-1,-5.572504401E-1
2.965054436E0,-1.124197388E1,-3.333925903E-1,-6.003460884E-1
2.967542144E0,-1.143350983E1,-1.801636815E-1,-6.625953317E-1
2.970029853E0,-1.158195114E1,-7.481880486E-2,-7.344213724E-1
2.972517561E0,-1.167771912E1,-4.129998013E-2,-8.254010081E-1
2.975005269E0,-1.174954510E1,-2.693476900E-2,-9.163807034E-1
2.977492978E0,-1.178306389E1,-2.992752008E-3,-9.355342984E-1
2.979980686E0,-1.178306389E1,-3.172317147E-2,-9.163807034E-1
2.982468394E0,-1.175433350E1,-8.918401599E-2,-8.780734539E-1
2.984956103E0,-1.170644951E1,-1.705868691E-1,-7.727286220E-1
2.987443811E0,-1.163462353E1,-2.998737693E-1,-6.386532784E-1
2.989931519E0,-1.152927876E1,-4.100070298E-1,-4.950011969E-1
2.992419228E0,-1.140956783E1,-5.536591411E-1,-3.321954906E-1
2.994906936E0,-1.126591587E1,-6.925228238E-1,-1.598129570E-1
2.997394644E0,-1.111747551E1,-8.505401611E-1,2.693476900E-2
2.999882353E0,-1.094988155E1,-1.022922635E0,1.897404790E-1
3.002370061E0,-1.076313400E1,-1.204882026E0,3.812766075E-1
3.004857769E0,-1.059075165E1,-1.372476101E0,5.488707423E-1
3.007345478E0,-1.044231033E1,-1.506551385E0,6.877344251E-1
3.009833186E0,-1.032260036E1,-1.650203466E0,8.074445128E-1
3.012320894E0,-1.021246719E1,-1.808220863E0,8.170213103E-1
3.014808603E0,-1.012148762E1,-1.923142552E0,7.499836683E-1
3.017296311E0,-1.007360363E1,-2.047641039E0,5.632359385E-1
3.019784019E0,-1.004966164E1,-2.172139406E0,3.142389655E-1
3.022271728E0,-1.004966164E1,-2.306214809E0,4.129998013E-2
3.024759436E0,-1.007360363E1,-2.430713177E0,-1.885433793E-1
3.027247144E0,-1.006881523E1,-2.531269789E0,-4.183867574E-1
3.029734853E0,-1.004487324E1,-2.641402960E0,-6.147112846E-1
3.032222561E0,-1.000656605E1,-2.737171173E0,-8.206126094E-1
3.034710269E0,-9.953893661E0,-2.804208755E0,-9.786299467E-1
3.037197978E0,-9.920374870E0,-2.828150749E0,-1.079186440E0
3.039685686E0,-9.882067680E0,-2.842515945E0,-1.155800819E0
3.042173394E0,-9.848548889E0,-2.823362350E0,-1.174954534E0
3.044661103E0,-9.858125687E0,-2.756324768E0,-1.184531331E0
3.047148811E0,-9.872490883E0,-2.627037764E0,-1.194108129E0
3.049636519E0,-9.877279282E0,-2.521692991E0,-1.222838521E0
3.052124280E0,-9.886856079E0,-2.406771183E0,-1.256357312E0
3.054612040E0,-9.906009674E0,-2.301426411E0,-1.241992116E0
3.057099801E0,-9.949105263E0,-2.181716204E0,-1.174954534E0
3.059587561E0,-9.992200851E0,-2.047641039E0,-1.055244446E0
3.062075321E0,-1.002571964E1,-1.937507749E0,-9.355342984E-1
3.064563082E0,-1.006881523E1,-1.817797661E0,-8.062474132E-1
3.067050842E0,-1.010712242E1,-1.683722377E0,-6.721721292E-1
3.069538603E0,-1.015021801E1,-1.559223890E0,-5.620388389E-1
3.072026363E0,-1.016937160E1,-1.415571809E0,-4.662707746E-1
3.074514124E0,-1.022204399E1,-1.310226917E0,-3.800795078E-1
3.077001884E0,-1.027950478E1,-1.190516829E0,-3.369838893E-1
3.079489644E0,-1.036090755E1,-1.085171938E0,-3.274070919E-1
3.081977405E0,-1.045188713E1,-9.846154451E-1,-2.938882709E-1
3.084465165E0,-1.054765606E1,-8.888474107E-1,-2.795230448E-1
3.086952926E0,-1.064821243E1,-8.361749649E-1,-2.699462473E-1
3.089440686E0,-1.072482681E1,-8.313865662E-1,-2.699462473E-1
3.091928446E0,-1.075355721E1,-8.457517624E-1,-2.747346461E-1
3.094416207E0,-1.072482681E1,-9.271546006E-1,-2.843114436E-1
3.096903967E0,-1.068651962E1,-1.056441545E0,-3.082534671E-1
3.099391728E0,-1.066257763E1,-1.195305228E0,-3.321954906E-1
3.101879488E0,-1.060511684E1,-1.386841297E0,-3.178302646E-1
3.104367249E0,-1.051892471E1,-1.573589087E0,-3.130418658E-1
3.106855009E0,-1.038963795E1,-1.798644066E0,-3.178302646E-1
3.109342769E0,-1.025556278E1,-2.009333849E0,-3.274070919E-1
3.111830530E0,-1.005923843E1,-2.272696018E0,-3.417722881E-1
3.114318290E0,-9.834183693E0,-2.521692991E0,-3.752911091E-1
3.116806051E0,-9.599552155E0,-2.746747971E0,-3.609259129E-1
3.119293811E0,-9.350554466E0,-2.957437754E0,-3.369838893E-1
3.121781571E0,-9.115922928E0,-3.125031710E0,-2.938882709E-1
3.124269332E0,-8.929175377E0,-3.259107113E0,-2.316390127E-1
3.126757092E0,-8.747216225E0,-3.354875088E0,-1.741781682E-1
3.129244853E0,-8.632294655E0,-3.407547474E0,-1.023521200E-1
3.131732613E0,-8.541314125E0,-3.388393879E0,-3.052607179E-2
3.134220321E0,-8.498218536E0,-3.350086689E0,5.566519126E-2
3.136708030E0,-8.531737328E0,-3.254318714E0,1.322796494E-1
3.139195738E0,-8.584410667E0,-3.129820108E0,1.897404790E-1
3.141683446E0,-8.675390244E0,-2.976591349E0,2.663549483E-1
3.144171155E0,-8.809465408E0,-2.813785553E0,3.286041915E-1
3.146658863E0,-8.977059364E0,-2.627037764E0,3.621230125E-1
3.149146571E0,-9.149441719E0,-2.445078373E0,3.908534348E-1
3.151634280E0,-9.307458878E0,-2.248754025E0,4.147954583E-1
3.154121988E0,-9.465476036E0,-2.062006235E0,4.483142793E-1
3.156609696E0,-9.628282547E0,-1.889623642E0,4.722562730E-1
3.159097405E0,-9.815030098E0,-1.702875972E0,4.483142793E-1
3.161585113E0,-1.001614285E1,-1.506551385E0,3.669114113E-1
3.164072821E0,-1.022204399E1,-1.324592113E0,2.855085433E-1
3.166560530E0,-1.040879154E1,-1.152209520E0,2.088941038E-1
3.169048238E0,-1.058117485E1,-1.027711034E0,1.131260321E-1
3.171535946E0,-1.071525002E1,-9.463081956E-1,-4.967968538E-2
3.174023655E0,-1.079186440E1,-9.127894044E-1,-1.885433793E-1
3.176511363E0,-1.084932518E1,-8.888474107E-1,-3.274070919E-1
3.178999071E0,-1.086847878E1,-8.744821548E-1,-4.519055784E-1
3.181486780E0,-1.092115116E1,-8.409633636E-1,-5.189431906E-1
3.183974488E0,-1.095945835E1,-7.739257216E-1,-5.380968451E-1
3.186462196E0,-1.098340034E1,-7.547720671E-1,-5.333084464E-1
3.188949905E0,-1.100255394E1,-7.978677154E-1,-5.620388389E-1
3.191437613E0,-1.097382355E1,-9.223662019E-1,-5.955576897E-1
3.193925321E0,-1.090678596E1,-1.109113932E0,-6.147112846E-1
3.196413030E0,-1.079186440E1,-1.324592113E0,-6.147112846E-1
3.198900738E0,-1.064342403E1,-1.592742682E0,-5.955576897E-1
3.201388446E0,-1.043752193E1,-1.817797661E0,-5.285200477E-1
3.203876155E0,-1.021246719E1,-2.038064241E0,-4.375403523E-1
3.206363863E0,-9.968258858E0,-2.248754025E0,-3.513490856E-1
3.208851571E0,-9.728838921E0,-2.401982784E0,-2.412158251E-1
3.211339280E0,-9.503783226E0,-2.550423384E0,-1.598129570E-1
3.213826988E0,-9.317035675E0,-2.679710150E0,-6.883329898E-2
3.216314696E0,-9.115922928E0,-2.775478363E0,-1.616086066E-2
3.218802405E0,-8.957905769E0,-2.861669540E0,6.524199992E-2
3.221290113E0,-8.847772598E0,-2.914341927E0,1.179144308E-1
3.223777821E0,-8.785523415E0,-2.947860956E0,1.705868691E-1
3.226265530E0,-8.752004623E0,-2.938283920E0,2.041056901E-1
3.228753238E0,-8.752004623E0,-2.933495522E0,2.328361124E-1
3.231240946E0,-8.785523415E0,-2.880823135E0,2.376245260E-1
3.233728655E0,-8.857349396E0,-2.785055161E0,2.232593149E-1
3.236216363E0,-8.977059364E0,-2.655768156E0,1.753752679E-1
3.238704071E0,-9.106346130E0,-2.492962599E0,1.179144308E-1
3.241191780E0,-9.269151688E0,-2.315791607E0,5.566519126E-2
3.243679488E0,-9.475052834E0,-2.148197412E0,-1.137245819E-2
3.246167196E0,-9.695320129E0,-1.994968534E0,-6.883329898E-2
3.248654905E0,-9.906009674E0,-1.884835243E0,-1.885433793E-1
3.251142613E0,-1.008796883E1,-1.789067268E0,-3.178302646E-1
3.253630321E0,-1.020289040E1,-1.712452769E0,-4.135983288E-1
3.256118030E0,-1.027471638E1,-1.659780383E0,-4.806360006E-1
3.258605738E0,-1.031781197E1,-1.640626669E0,-5.907692909E-1
3.261093446E0,-1.034654236E1,-1.607107878E0,-6.961141229E-1
3.263581155E0,-1.037527275E1,-1.559223890E0,-8.110358119E-1
3.266068863E0,-1.039921474E1,-1.501762986E0,-9.259575009E-1
3.268556571E0,-1.043752193E1,-1.425148606E0,-1.045667648E0
3.271044280E0,-1.049977112E1,-1.315015316E0,-1.131858826E0
3.273531988E0,-1.060990524E1,-1.161786318E0,-1.160589218E0
3.276019696E0,-1.072961521E1,-1.018134236E0,-1.165377736E0
3.278507405E0,-1.080622959E1,-8.744821548E-1,-1.174954534E0
3.280995113E0,-1.093072796E1,-7.787141204E-1,-1.189319730E0
3.283482821E0,-1.108874512E1,-7.643488646E-1,-1.237203717E0
3.285970530E0,-1.125155067E1,-8.218097091E-1,-1.280299306E0
3.288458238E0,-1.132337666E1,-9.223662019E-1,-1.332971811E0
3.290945946E0,-1.135210705E1,-1.051653147E0,-1.342548609E0
3.293433655E0,-1.132337666E1,-1.200093627E0,-1.285087705E0
3.295921363E0,-1.122760868E1,-1.348534107E0,-1.189319730E0
3.298409071E0,-1.107916832E1,-1.511339784E0,-1.103128433E0
3.300896780E0,-1.091636276E1,-1.674145579E0,-1.016937137E0
3.303384488E0,-1.074876881E1,-1.841739655E0,-9.642647505E-1
3.305872196E0,-1.060511684E1,-1.980603337E0,-9.068039060E-1
3.308359905E0,-1.047104073E1,-2.124255419E0,-8.541314602E-1
3.310847613E0,-1.039921474E1,-2.258330822E0,-8.014590144E-1
3.313335321E0,-1.037527275E1,-2.363675594E0,-7.104793787E-1
3.315823030E0,-1.035611916E1,-2.469020605E0,-6.482301354E-1
3.318310738E0,-1.036569595E1,-2.564788580E0,-5.716156363E-1
3.320798446E0,-1.038963795E1,-2.650979757E0,-5.285200477E-1
3.323286155E0,-1.040879154E1,-2.708440781E0,-4.806360006E-1
3.325773863E0,-1.044709873E1,-2.722805977E0,-4.327519536E-1
3.328261571E0,-1.050934792E1,-2.694075346E0,-3.992331326E-1
3.330749280E0,-1.055723286E1,-2.660556555E0,-3.944447339E-1
3.333236988E0,-1.060990524E1,-2.607884169E0,-4.040215313E-1
3.335724696E0,-1.066736603E1,-2.540846586E0,-4.614823759E-1
3.338212405E0,-1.075834560E1,-2.445078373E0,-5.093663931E-1
3.340700113E0,-1.086847878E1,-2.320580006E0,-5.955576897E-1
3.343187821E0,-1.098818874E1,-2.196081400E0,-6.913257241E-1
3.345675530E0,-1.112705231E1,-2.062006235E0,-7.679402232E-1
3.348163238E0,-1.128985786E1,-1.927930951E0,-8.445546627E-1
3.350650946E0,-1.142393303E1,-1.774701953E0,-9.259575009E-1
3.353138655E0,-1.158673954E1,-1.592742682E0,-1.021725535E0
3.355626363E0,-1.177348709E1,-1.386841297E0,-1.079186440E0
3.358114071E0,-1.199375343E1,-1.156997919E0,-1.146224022E0
3.360601780E0,-1.219486618E1,-9.415197968E-1,-1.189319730E0
3.363089540E0,-1.236246014E1,-7.212532759E-1,-1.203684926E0
3.365577301E0,-1.251568985E1,-5.871779919E-1,-1.265934110E0
3.368065061E0,-1.268807220E1,-5.392939448E-1,-1.371279001E0
3.370552821E0,-1.282214737E1,-5.919663906E-1,-1.505354285E0
3.373040582E0,-1.289876175E1,-7.260416746E-1,-1.649006367E0
3.375528342E0,-1.286045456E1,-9.175778031E-1,-1.744774461E0
3.378016103E0,-1.276468658E1,-1.104325533E0,-1.759139657E0
3.380503863E0,-1.258751583E1,-1.291073322E0,-1.706467271E0
3.382991624E0,-1.237203693E1,-1.501762986E0,-1.558026791E0
3.385479384E0,-1.209909821E1,-1.722029567E0,-1.390432596E0
3.387967144E0,-1.178306389E1,-1.971026540E0,-1.208473325E0
3.390454905E0,-1.150533581E1,-2.234388828E0,-1.016937137E0
3.392942665E0,-1.122760868E1,-2.478597403E0,-8.301894665E-1
3.395430426E0,-1.098818874E1,-2.703652382E0,-6.625953317E-1
3.397918186E0,-1.080144119E1,-2.928707123E0,-5.380968451E-1
3.400405946E0,-1.063863564E1,-3.096301317E0,-4.375403523E-1
3.402893707E0,-1.057638645E1,-3.177704096E0,-2.938882709E-1
3.405381467E0,-1.059554005E1,-3.201646328E0,-1.454477459E-1
3.407869228E0,-1.067694283E1,-3.163338900E0,3.651157767E-2
3.410356988E0,-1.078707600E1,-3.072359324E0,1.705868691E-1
3.412844749E0,-1.092593956E1,-2.943072557E0,2.950853705E-1
3.415332509E0,-1.107916832E1,-2.794631958E0,3.908534348E-1
3.417820269E0,-1.125633907E1,-2.631826162E0,4.291606545E-1
3.420308030E0,-1.141914463E1,-2.464232206E0,4.147954583E-1
3.422795790E0,-1.157237434E1,-2.291849613E0,3.621230125E-1
3.425283551E0,-1.170644951E1,-2.114678621E0,2.950853705E-1
3.427771311E0,-1.183094788E1,-1.913565755E0,1.993172914E-1
3.430259071E0,-1.194586945E1,-1.702875972E0,9.397241473E-2
3.432746832E0,-1.207994461E1,-1.520916581E0,-2.573766746E-2
3.435234592E0,-1.220444298E1,-1.396418095E0,-1.741781682E-1
3.437722353E0,-1.231936455E1,-1.310226917E0,-3.321954906E-1
3.440210113E0,-1.241992092E1,-1.243189216E0,-4.806360006E-1
3.442697874E0,-1.251568985E1,-1.190516829E0,-6.003460884E-1
3.445185582E0,-1.256836224E1,-1.137844324E0,-6.530185342E-1
3.447673290E0,-1.262103462E1,-1.089960337E0,-7.104793787E-1
3.450160999E0,-1.267370701E1,-1.046864748E0,-7.823054194E-1
3.452648707E0,-1.274074459E1,-1.003769040E0,-8.158242106E-1
3.455136415E0,-1.281257057E1,-9.941922426E-1,-8.397662640E-1
3.457624124E0,-1.288918495E1,-1.003769040E0,-8.445546627E-1
3.460111832E0,-1.296579933E1,-1.051653147E0,-8.301894665E-1
3.462599540E0,-1.299452972E1,-1.128267527E0,-7.918822169E-1
3.465087249E0,-1.295143414E1,-1.252766013E0,-7.344213724E-1
3.467574957E0,-1.279341698E1,-1.429937005E0,-6.482301354E-1
3.470062665E0,-1.255878544E1,-1.659780383E0,-4.950011969E-1
3.472550374E0,-1.225232697E1,-1.865681648E0,-3.321954906E-1
3.475038082E0,-1.189798546E1,-2.095525026E0,-1.502361596E-1
3.477525790E0,-1.152927876E1,-2.325368404E0,5.566519126E-2
3.480013499E0,-1.120366669E1,-2.583942175E0,2.328361124E-1
3.482501207E0,-1.090678596E1,-2.828150749E0,3.860650361E-1
3.484988915E0,-1.067694283E1,-3.048417330E0,5.153518915E-1
3.487476624E0,-1.049498272E1,-3.206434727E0,6.159083843E-1
3.489964332E0,-1.037527275E1,-3.321356297E0,7.020996213E-1
3.492452040E0,-1.029865837E1,-3.345298290E0,7.547720671E-1
3.494939749E0,-1.026992798E1,-3.316567898E0,7.930793166E-1
3.497427457E0,-1.027471638E1,-3.220799923E0,7.978677154E-1
3.499915165E0,-1.033696556E1,-3.072359324E0,7.643488646E-1
3.502402874E0,-1.045188713E1,-2.914341927E0,7.116764784E-1
3.504890582E0,-1.059075165E1,-2.741959572E0,6.494272351E-1
3.507378290E0,-1.076792240E1,-2.540846586E0,5.776011348E-1
3.509865999E0,-1.098818874E1,-2.354098797E0,5.009866953E-1
3.512353707E0,-1.121324348E1,-2.138620615E0,3.621230125E-1
3.514841415E0,-1.144787502E1,-1.908777356E0,2.088941038E-1
3.517329124E0,-1.169687271E1,-1.631049871E0,3.172317147E-2
3.519816832E0,-1.196023464E1,-1.334168911E0,-2.220622003E-1
3.522304540E0,-1.226190376E1,-1.018134236E0,-5.333084464E-1
3.524792249E0,-1.253484344E1,-7.116764784E-1,-8.541314602E-1
3.527279957E0,-1.279820538E1,-4.243722558E-1,-1.184531331E0
3.529767665E0,-1.302326012E1,-1.705868691E-1,-1.510142684E0
3.532255374E0,-1.324352646E1,4.010287672E-2,-1.850119352E0
3.534743082E0,-1.343506241E1,1.933317930E-1,-2.142211914E0
3.537230790E0,-1.354998493E1,2.938882709E-1,-2.386420488E0
3.539718499E0,-1.360265732E1,3.178302646E-1,-2.601898670E0
3.542206207E0,-1.363617611E1,3.130418658E-1,-2.798223257E0
3.544693915E0,-1.362181091E1,2.795230448E-1,-2.956240654E0
3.547181624E0,-1.359308052E1,1.646013707E-1,-3.071162224E0
3.549669332E0,-1.350688934E1,6.584054790E-3,-3.066373825E0
3.552157040E0,-1.332971764E1,-2.472013235E-1,-2.956240654E0
3.554644749E0,-1.308550930E1,-5.201402903E-1,-2.807800055E0
3.557132457E0,-1.270243740E1,-8.170213103E-1,-2.630629063E0
3.559620165E0,-1.223317337E1,-1.171363235E0,-2.443881273E0
3.562107874E0,-1.176869869E1,-1.540070295E0,-2.185307503E0
3.564595582E0,-1.129464626E1,-1.951872945E0,-1.845330954E0
3.567083290E0,-1.084932518E1,-2.344521999E0,-1.462258697E0
3.569570999E0,-1.044231033E1,-2.713229179E0,-1.093551636E0
3.572058707E0,-1.008318043E1,-3.034052134E0,-7.152677774E-1
3.574546415E0,-9.786299706E0,-3.292625904E0,-3.848679364E-1
3.577034124E0,-9.561244011E0,-3.493738890E0,-6.404489279E-2
3.579521832E0,-9.403226852E0,-3.618237257E0,2.232593149E-1
3.582009540E0,-9.331400871E0,-3.685275078E0,4.770447016E-1
3.584497249E0,-9.321824074E0,-3.699640274E0,7.451952696E-1
3.586984957E0,-9.398438454E0,-3.637390852E0,9.654618502E-1
3.589472665E0,-9.580398560E0,-3.512892485E0,1.113902330E0
3.591960374E0,-9.819818497E0,-3.330933094E0,1.185728431E0
3.594448082E0,-1.009754562E1,-3.105878115E0,1.171363235E0
3.596935790E0,-1.037048435E1,-2.856881142E0,1.070806742E0
3.599423499E0,-1.063863564E1,-2.564788580E0,9.223662019E-1
3.601911207E0,-1.091157436E1,-2.258330822E0,7.451952696E-1
3.604398915E0,-1.118451309E1,-1.947084546E0,5.680243373E-1
3.606886624E0,-1.147181702E1,-1.616684675E0,3.812766075E-1
3.609374332E0,-1.178306389E1,-1.286284804E0,1.753752679E-1
3.611862040E0,-1.214219379E1,-9.654618502E-1,-4.010287672E-2
3.614349749E0,-1.254442024E1,-6.685808301E-1,-2.699462473E-1
3.616837457E0,-1.298495293E1,-3.381809890E-1,-5.428852439E-1
3.619325165E0,-1.338239002E1,2.094926499E-2,-8.493430614E-1
3.621812874E0,-1.375588608E1,3.609259129E-1,-1.160589218E0
3.624300582E0,-1.407670879E1,6.625953317E-1,-1.476623893E0
3.626788290E0,-1.430655193E1,9.546879530E-1,-1.787870169E0
3.629275999E0,-1.444062710E1,1.198896527E0,-2.099116325E0
3.631763707E0,-1.450766563E1,1.385644197E0,-2.395997286E0
3.634251415E0,-1.448851204E1,1.505354285E0,-2.654571056E0
3.636739124E0,-1.437837791E1,1.548449993E0,-2.879626036E0
3.639226832E0,-1.418205357E1,1.534084797E0,-3.085527420E0
3.641714540E0,-1.392826843E1,1.438316703E0,-3.286640406E0
3.644202249E0,-1.359786892E1,1.323395014E0,-3.435081005E0
3.646689957E0,-1.322437286E1,1.189319730E0,-3.530848980E0
3.649177665E0,-1.281257057E1,1.045667648E0,-3.559579372E0
3.651665374E0,-1.242949772E1,8.876502514E-1,-3.516483784E0
3.654153082E0,-1.207036781E1,7.344213724E-1,-3.439869404E0
3.656640790E0,-1.175433350E1,5.620388389E-1,-3.310582399E0
3.659128499E0,-1.148618221E1,3.752911091E-1,-3.142988205E0
3.661616207E0,-1.128506947E1,1.550245583E-1,-2.951452255E0
3.664103915E0,-1.113662910E1,-6.524199992E-2,-2.731185675E0
3.666591624E0,-1.103128433E1,-2.902969420E-1,-2.486977100E0
3.669079332E0,-1.089720917E1,-5.057750940E-1,-2.209249735E0
3.671567040E0,-1.077749920E1,-6.637924314E-1,-1.921945453E0
3.674054749E0,-1.063863564E1,-7.835025191E-1,-1.658583283E0
3.676542457E0,-1.047104073E1,-8.553285599E-1,-1.395220995E0
3.679030217E0,-1.032260036E1,-8.792705536E-1,-1.160589218E0
3.681517978E0,-1.016937160E1,-8.936358094E-1,-9.307458997E-1
3.684005738E0,-1.001135445E1,-8.984242082E-1,-7.200561762E-1
3.686493499E0,-9.915586472E0,-8.840589523E-1,-5.476736426E-1
3.688981259E0,-9.862914085E0,-8.792705536E-1,-3.848679364E-1
3.691469019E0,-9.795876503E0,-8.888474107E-1,-2.795230448E-1
3.693956780E0,-9.781511307E0,-8.888474107E-1,-2.029085904E-1
3.696444540E0,-9.757569313E0,-8.792705536E-1,-1.502361596E-1
3.698932301E0,-9.757569313E0,-8.457517624E-1,-1.310825497E-1
3.701420061E0,-9.724050522E0,-7.739257216E-1,-1.741781682E-1
3.703907821E0,-9.714473724E0,-6.973112226E-1,-2.507926226E-1
3.706395582E0,-9.709685326E0,-5.728127360E-1,-3.513490856E-1
3.708883342E0,-9.781511307E0,-4.195838571E-1,-4.902127981E-1
3.711371103E0,-9.858125687E0,-2.519897223E-1,-6.386532784E-1
3.713858863E0,-9.944316864E0,-1.179144308E-1,-7.775170207E-1
3.716346624E0,-9.968258858E0,-7.781155407E-3,-9.068039060E-1
3.718834384E0,-9.982624054E0,1.454477459E-1,-1.083974838E0
3.721322144E0,-1.000656605E1,2.986766696E-1,-1.256357312E0
3.723809905E0,-1.006881523E1,4.519055784E-1,-1.400009394E0
3.726297665E0,-1.011669922E1,6.099228859E-1,-1.514931083E0
3.728785426E0,-1.017416000E1,7.631517649E-1,-1.629852772E0
3.731273186E0,-1.020289040E1,8.876502514E-1,-1.749562860E0
3.733760946E0,-1.023162079E1,9.882067442E-1,-1.878849745E0
3.736248707E0,-1.025556278E1,1.074398041E0,-1.998559833E0
3.738736467E0,-1.027471638E1,1.151012421E0,-2.113481522E0
3.741224228E0,-1.027950478E1,1.189319730E0,-2.218826532E0
3.743711988E0,-1.026035118E1,1.246780515E0,-2.295440912E0
3.746199749E0,-1.021725559E1,1.313818216E0,-2.314594507E0
3.748687509E0,-1.014064121E1,1.371279001E0,-2.300229311E0
3.751175269E0,-1.000656605E1,1.395220995E0,-2.247556925E0
3.753663030E0,-9.858125687E0,1.395220995E0,-2.151788712E0
3.756150790E0,-9.671378136E0,1.347337008E0,-2.022501945E0
3.758638551E0,-9.513360023E0,1.251568913E0,-1.850119352E0
3.761126259E0,-9.331400871E0,1.151012421E0,-1.629852772E0
3.763613967E0,-9.178172112E0,1.045667648E0,-1.400009394E0
3.766101676E0,-9.001001358E0,9.451110959E-1,-1.203684926E0
3.768589384E0,-8.814253807E0,8.684966564E-1,-1.045667648E0
3.771077092E0,-8.656236649E0,7.727286220E-1,-8.589198589E-1
3.773564801E0,-8.512583733E0,6.769605279E-1,-6.434416771E-1
3.776052509E0,-8.435969353E0,5.859808922E-1,-4.231751561E-1
3.778540217E0,-8.392873764E0,4.710591733E-1,-1.933317930E-1
3.781027926E0,-8.344989777E0,3.226186931E-1,-1.795651275E-3
3.783515634E0,-8.268375397E0,1.837549806E-1,1.083376259E-1
3.786003342E0,-8.172607422E0,2.573766746E-2,1.466448605E-1
3.788491051E0,-8.062474251E0,-1.083376259E-1,1.083376259E-1
3.790978759E0,-7.928399086E0,-2.088941038E-1,3.172317147E-2
3.793466467E0,-7.765593052E0,-2.855085433E-1,-6.404489279E-2
3.795954176E0,-7.612364292E0,-3.477577865E-1,-1.693897694E-1
3.798441884E0,-7.516596317E0,-4.100070298E-1,-2.843114436E-1
3.800929592E0,-7.449558735E0,-4.818331003E-1,-3.752911091E-1
3.803417301E0,-7.420828342E0,-5.440823436E-1,-4.710591733E-1
3.805905009E0,-7.420828342E0,-5.967547894E-1,-5.764040351E-1
3.808392717E0,-7.507019520E0,-6.494272351E-1,-7.009025216E-1
3.810880426E0,-7.645883083E0,-6.781576276E-1,-7.870938182E-1
3.813368134E0,-7.765593052E0,-6.159083843E-1,-9.786299467E-1
3.815855842E0,-7.875726700E0,-4.961982965E-1,-1.227626920E0
3.818343551E0,-8.038532257E0,-3.812766075E-1,-1.486200690E0
3.820831259E0,-8.234856606E0,-3.046621680E-1,-1.692102075E0
3.823318967E0,-8.455122948E0,-2.376245260E-1,-1.859696150E0
3.825806676E0,-8.704120636E0,-1.466448605E-1,-2.036867142E0
3.828294384E0,-8.962694168E0,-6.524199992E-2,-2.209249735E0
3.830782092E0,-9.226056099E0,-7.781155407E-3,-2.381632090E0
3.833269801E0,-9.513360023E0,1.616086066E-2,-2.534861088E0
3.835757509E0,-9.786299706E0,1.137245819E-2,-2.668936253E0
3.838245217E0,-1.005923843E1,-1.256955881E-2,-2.735974073E0
3.840732926E0,-1.030823517E1,-4.129998013E-2,-2.755127668E0
3.843220634E0,-1.050934792E1,-3.172317147E-2,-2.707243681E0
3.845708342E0,-1.069130802E1,-2.992752008E-3,-2.659359455E0
3.848196051E0,-1.079665279E1,8.319851011E-2,-2.568379879E0
3.850683759E0,-1.081580639E1,1.358709484E-1,-2.486977100E0
3.853171467E0,-1.076313400E1,1.262941360E-1,-2.429516077E0
3.855659176E0,-1.065778923E1,7.841010392E-2,-2.319382906E0
3.858146884E0,-1.048061752E1,-3.172317147E-2,-2.151788712E0
3.860634592E0,-1.024598598E1,-1.322796494E-1,-1.993771434E0
3.863122301E0,-9.934740067E0,-2.519897223E-1,-1.854907751E0
3.865610009E0,-9.575610161E0,-3.716998100E-1,-1.725620866E0
3.868097717E0,-9.221267700E0,-4.626794755E-1,-1.653794765E0
3.870585426E0,-8.914810181E0,-5.440823436E-1,-1.596333981E0
3.873073134E0,-8.646659851E0,-5.967547894E-1,-1.591545582E0
3.875560842E0,-8.426392555E0,-6.637924314E-1,-1.596333981E0
3.878048551E0,-8.268375397E0,-7.451952696E-1,-1.591545582E0
3.880536259E0,-8.143877029E0,-8.361749649E-1,-1.601122379E0
3.883023967E0,-8.033743858E0,-9.127894044E-1,-1.625064373E0
3.885511676E0,-7.966706276E0,-9.415197968E-1,-1.639429569E0
3.887999384E0,-7.928399086E0,-9.654618502E-1,-1.639429569E0
3.890487092E0,-7.933187485E0,-9.654618502E-1,-1.663371682E0
3.892974801E0,-7.961917877E0,-9.510966539E-1,-1.677736878E0
3.895462509E0,-8.038532257E0,-9.606734514E-1,-1.687313676E0
3.897950217E0,-8.177395821E0,-9.846154451E-1,-1.749562860E0
3.900437926E0,-8.292317390E0,-1.032499433E0,-1.802235365E0
3.902925634E0,-8.421604156E0,-1.056441545E0,-1.864484549E0
3.905413342E0,-8.546102524E0,-1.027711034E0,-1.945887446E0
3.907901051E0,-8.689755440E0,-9.798270464E-1,-2.075174332E0
3.910388759E0,-8.814253807E0,-8.936358094E-1,-2.223614931E0
3.912876467E0,-8.938752174E0,-8.265981078E-1,-2.348113298E0
3.915364176E0,-9.044096947E0,-7.739257216E-1,-2.443881273E0
3.917851884E0,-9.154230118E0,-7.595604658E-1,-2.496553898E0
3.920339592E0,-9.273940086E0,-8.074445128E-1,-2.568379879E0
3.922827301E0,-9.408015251E0,-8.553285599E-1,-2.664147854E0
3.925315009E0,-9.556455612E0,-9.463081956E-1,-2.692878246E0
3.927802717E0,-9.747992516E0,-1.018134236E0,-2.707243681E0
3.930290426E0,-9.977835655E0,-1.070806742E0,-2.688089848E0
3.932778134E0,-1.017894840E1,-1.089960337E0,-2.664147854E0
3.935265842E0,-1.034654236E1,-1.123479128E0,-2.659359455E0
3.937753551E0,-1.047582912E1,-1.185728431E0,-2.688089848E0
3.940241259E0,-1.055244446E1,-1.310226917E0,-2.726397276E0
3.942728967E0,-1.061948204E1,-1.458667397E0,-2.779069662E0
3.945216676E0,-1.071046162E1,-1.635838270E0,-2.831742048E0
3.947704384E0,-1.078707600E1,-1.784278870E0,-2.893991232E0
3.950192092E0,-1.080144119E1,-1.903988957E0,-2.932298422E0
3.952679801E0,-1.080144119E1,-1.999756932E0,-2.965817451E0
3.955167509E0,-1.072482681E1,-2.105101824E0,-3.023278236E0
3.957655217E0,-1.062427044E1,-2.200869799E0,-3.085527420E0
3.960142926E0,-1.051413631E1,-2.253542423E0,-3.214814425E0
3.962630634E0,-1.039442635E1,-2.267907619E0,-3.324947596E0
3.965118342E0,-1.037048435E1,-2.229600430E0,-3.487753391E0
3.967606051E0,-1.025556278E1,-2.205658197E0,-3.607463360E0
3.970093759E0,-1.005445004E1,-2.129043818E0,-3.511695385E0
3.972581467E0,-9.896432877E0,-2.038064241E0,-3.530848980E0
3.975069176E0,-9.747992516E0,-2.028487444E0,-3.631405354E0
3.977556884E0,-9.566033363E0,-2.038064241E0,-3.775057554E0
3.980044592E0,-9.350554466E0,-2.052429438E0,-3.861248732E0
3.982532301E0,-9.163806915E0,-1.956661344E0,-3.894767523E0
3.985020009E0,-9.010578156E0,-1.813009262E0,-3.870825529E0
3.987507717E0,-8.871714592E0,-1.654991984E0,-3.770269156E0
3.989995426E0,-8.780735016E0,-1.540070295E0,-3.640982151E0
3.992483134E0,-8.747216225E0,-1.449090600E0,-3.502118587E0
3.994970842E0,-8.771158218E0,-1.415571809E0,-3.358466387E0
3.997458551E0,-8.804677010E0,-1.382052898E0,-3.190872431E0
3.999946259E0,-8.804677010E0,-1.329380512E0,-3.037643433E0
4.002434019E0,-8.742427826E0,-1.295861721E0,-2.879626036E0
4.004921780E0,-8.637083054E0,-1.224035621E0,-2.759916067E0
4.007409540E0,-8.522160530E0,-1.113902330E0,-2.635417461E0
4.009897301E0,-8.426392555E0,-9.989806414E-1,-2.515707493E0
4.012385061E0,-8.325836182E0,-8.744821548E-1,-2.400785685E0
4.014872821E0,-8.225279808E0,-8.265981078E-1,-2.276287317E0
4.017360582E0,-8.081627846E0,-8.026561141E-1,-2.180519104E0
4.019848342E0,-7.909245491E0,-8.457517624E-1,-2.103904724E0
4.022336103E0,-7.727285862E0,-9.080010056E-1,-2.027290344E0
4.024823863E0,-7.569268703E0,-9.654618502E-1,-1.945887446E0
4.027311624E0,-7.387309551E0,-9.846154451E-1,-1.835754156E0
4.029799384E0,-7.186196327E0,-9.750386477E-1,-1.730409265E0
4.032287144E0,-6.956353188E0,-9.463081956E-1,-1.615487576E0
4.034774905E0,-6.697779179E0,-9.606734514E-1,-1.505354285E0
4.037262665E0,-6.443994045E0,-9.846154451E-1,-1.395220995E0
4.039750426E0,-6.161478043E0,-1.061229944E0,-1.280299306E0
4.042238186E0,-5.850231647E0,-1.152209520E0,-1.174954534E0
4.044725946E0,-5.524620533E0,-1.219247222E0,-1.055244446E0
4.047213707E0,-5.136759758E0,-1.257554412E0,-9.546879530E-1
4.049701467E0,-4.772840977E0,-1.204882026E0,-8.684966564E-1
4.052189228E0,-4.423287868E0,-1.109113932E0,-7.823054194E-1
4.054676988E0,-4.126406670E0,-9.894038439E-1,-6.673837304E-1
4.057164749E0,-3.915716887E0,-8.074445128E-1,-5.285200477E-1
4.059652509E0,-3.772064686E0,-6.302735806E-1,-3.513490856E-1
4.062140269E0,-3.647566319E0,-4.387374520E-1,-1.598129570E-1
4.064628030E0,-3.508702517E0,-2.280477136E-1,2.214636654E-2
4.067115790E0,-3.360262156E0,-3.651157767E-2,1.657984704E-1
4.069603551E0,-3.192667961E0,1.550245583E-1,2.519897223E-1
4.072091311E0,-3.029862165E0,3.226186931E-1,2.759317458E-1
4.074579071E0,-2.857479811E0,4.710591733E-1,2.472013235E-1
4.077066832E0,-2.709039211E0,6.194996834E-1,1.562216580E-1
4.079554592E0,-2.622848034E0,7.775170207E-1,3.172317147E-2
4.082042353E0,-2.584540844E0,9.403226972E-1,-9.756372124E-2
4.084530061E0,-2.579752445E0,1.117493629E0,-2.747346461E-1
4.087017769E0,-2.608482838E0,1.241992116E0,-4.997895956E-1
4.089505478E0,-2.594117641E0,1.361702204E0,-7.487865686E-1
4.091993186E0,-2.579752445E0,1.443105102E0,-1.026513934E0
4.094480894E0,-2.555810213E0,1.495777488E0,-1.342548609E0
4.096968603E0,-2.555810213E0,1.514931083E0,-1.658583283E0
4.099456311E0,-2.522291422E0,1.519719481E0,-1.998559833E0
4.101944019E0,-2.498349428E0,1.486200690E0,-2.367266893E0
4.104431728E0,-2.493561029E0,1.438316703E0,-2.721608877E0
4.106919436E0,-2.507926226E0,1.385644197E0,-3.008913040E0
4.109407144E0,-2.536656618E0,1.323395014E0,-3.296217203E0
4.111894853E0,-2.574964046E0,1.256357312E0,-3.559579372E0
4.114382561E0,-2.642001629E0,1.155800819E0,-3.832518339E0
4.116870269E0,-2.723404408E0,1.069609642E0,-4.071938515E0
4.119357978E0,-2.776076794E0,9.977835417E-1,-4.268262863E0
4.121845686E0,-2.809595585E0,8.828618526E-1,-4.464587688E0
4.124333394E0,-2.833537817E0,7.679402232E-1,-4.665700436E0
4.126821103E0,-2.838326216E0,6.386532784E-1,-4.900332451E0
4.129308811E0,-2.823961020E0,5.237316489E-1,-5.091868401E0
4.131796519E0,-2.800018787E0,3.561375141E-1,-5.278616428E0
4.134284228E0,-2.819172382E0,1.981201917E-1,-5.393537998E0
4.136771936E0,-2.895787001E0,4.489128292E-2,-5.422268391E0
4.139259644E0,-3.010708570E0,-8.439560980E-2,-5.340865612E0
4.141747353E0,-3.154360771E0,-2.328361124E-1,-5.187636375E0
4.144235061E0,-3.302801132E0,-3.716998100E-1,-4.976946831E0
4.146722769E0,-3.417722940E0,-5.057750940E-1,-4.771045208E0
4.149210478E0,-3.542221308E0,-6.542156339E-1,-4.545990467E0
4.151698186E0,-3.642777920E0,-8.170213103E-1,-4.354454517E0
4.154185894E0,-3.748122692E0,-9.798270464E-1,-4.177283287E0
4.156673603E0,-3.872621298E0,-1.133055925E0,-3.985747337E0
4.159161311E0,-4.054580688E0,-1.276708007E0,-3.794211149E0
4.161649019E0,-4.317942619E0,-1.401206493E0,-3.573944569E0
4.164136728E0,-4.590881824E0,-1.516128182E0,-3.363254786E0
4.166624436E0,-4.859032154E0,-1.626261473E0,-3.147776604E0
4.169112144E0,-5.194220543E0,-1.745971560E0,-2.893991232E0
4.171599853E0,-5.553350925E0,-1.856104851E0,-2.625840664E0
4.174087561E0,-5.960365295E0,-1.927930951E0,-2.343324900E0
4.176575269E0,-6.410475254E0,-1.975814939E0,-2.113481522E0
4.179062978E0,-6.827065945E0,-2.018910646E0,-1.902791858E0
4.181550686E0,-7.205349922E0,-2.062006235E0,-1.768716455E0
4.184038394E0,-7.554903507E0,-2.109890223E0,-1.711255670E0
4.186526103E0,-7.866149902E0,-2.143409014E0,-1.720832467E0
4.189013811E0,-8.134300232E0,-2.152985811E0,-1.783081770E0
4.191501519E0,-8.335412979E0,-2.143409014E0,-1.893214941E0
4.193989228E0,-8.512583733E0,-2.133832216E0,-2.046443939E0
4.196476936E0,-8.661025047E0,-2.162562609E0,-2.276287317E0
4.198964644E0,-8.785523415E0,-2.196081400E0,-2.534861088E0
4.201452353E0,-8.847772598E0,-2.267907619E0,-2.826953650E0
4.203940061E0,-8.876502991E0,-2.349310398E0,-3.080739021E0
4.206427769E0,-8.842984200E0,-2.454655409E0,-3.305794001E0
4.208915478E0,-8.766369820E0,-2.545634985E0,-3.492541790E0
4.211403186E0,-8.627506256E0,-2.646191359E0,-3.645770550E0
4.213890894E0,-8.474276543E0,-2.761113167E0,-3.765480757E0
4.216378603E0,-8.258798599E0,-2.880823135E0,-3.856460333E0
4.218866311E0,-8.028955460E0,-3.005321741E0,-3.928286552E0
4.221354019E0,-7.775169849E0,-3.120243311E0,-3.976170540E0
4.223841728E0,-7.535749912E0,-3.225588322E0,-4.024054527E0
4.226329436E0,-7.305906296E0,-3.297414303E0,-4.057573318E0
4.228817144E0,-7.047332764E0,-3.378817081E0,-4.071938515E0
4.231304853E0,-6.827065945E0,-3.450643301E0,-4.076726913E0
4.233792561E0,-6.630741596E0,-3.536834478E0,-4.057573318E0
4.236280269E0,-6.463147640E0,-3.599083662E0,-4.009689331E0
4.238767978E0,-6.329071999E0,-3.666121244E0,-3.918709517E0
4.241255686E0,-6.214150429E0,-3.704428673E0,-3.789422750E0
4.243743394E0,-6.171054840E0,-3.723582268E0,-3.655347347E0
4.246231103E0,-6.156689644E0,-3.704428673E0,-3.554790974E0
4.248718811E0,-6.147112846E0,-3.675698042E0,-3.492541790E0
4.251206519E0,-6.190208435E0,-3.637390852E0,-3.439869404E0
4.253694228E0,-6.290764809E0,-3.579930067E0,-3.420715570E0
4.256181936E0,-6.496666431E0,-3.474585295E0,-3.401561975E0
4.258669644E0,-6.803123951E0,-3.350086689E0,-3.382408381E0
4.261157353E0,-7.147889137E0,-3.192069530E0,-3.368043184E0
4.263645061E0,-7.478289127E0,-3.019686937E0,-3.339312792E0
4.266132769E0,-7.741651058E0,-2.856881142E0,-3.324947596E0
4.268620478E0,-7.928399086E0,-2.727594376E0,-3.310582399E0
4.271108186E0,-8.139088631E0,-2.612672567E0,-3.329735994E0
4.273595894E0,-8.282740593E0,-2.488174200E0,-3.320159197E0
4.276083603E0,-8.383296967E0,-2.349310398E0,-3.348889589E0
4.278571311E0,-8.402450562E0,-2.229600430E0,-3.377619982E0
4.281059019E0,-8.335412979E0,-2.105101824E0,-3.430292368E0
4.283546728E0,-8.210914612E0,-2.009333849E0,-3.463811398E0
4.286034436E0,-8.052897453E0,-1.927930951E0,-3.516483784E0
4.288522144E0,-7.885303497E0,-1.832162857E0,-3.569156170E0
4.291009853E0,-7.741651058E0,-1.741183162E0,-3.569156170E0
4.293497561E0,-7.636306286E0,-1.631049871E0,-3.550002575E0
4.295985269E0,-7.535749912E0,-1.540070295E0,-3.545214176E0
4.298472978E0,-7.430405140E0,-1.439513803E0,-3.540425777E0
4.300960686E0,-7.334636688E0,-1.348534107E0,-3.545214176E0
4.303448394E0,-7.224503517E0,-1.271919608E0,-3.540425777E0
4.305936103E0,-7.109581947E0,-1.204882026E0,-3.545214176E0
4.308423811E0,-7.013813972E0,-1.133055925E0,-3.554790974E0
4.310911519E0,-6.961141586E0,-1.085171938E0,-3.583521366E0
4.313399228E0,-6.922834396E0,-1.056441545E0,-3.573944569E0
4.315886936E0,-6.889315605E0,-1.013345838E0,-3.569156170E0
4.318374644E0,-6.865373611E0,-9.702502489E-1,-3.502118587E0
4.320862353E0,-6.846219540E0,-9.319429994E-1,-3.439869404E0
4.323350061E0,-6.812700748E0,-9.271546006E-1,-3.377619982E0
4.325837769E0,-6.788758755E0,-9.032126069E-1,-3.320159197E0
4.328325530E0,-6.774393559E0,-9.223662019E-1,-3.281852007E0
4.330813290E0,-6.793547153E0,-9.223662019E-1,-3.243544817E0
4.333301051E0,-6.898892403E0,-9.367313981E-1,-3.166930199E0
4.335788811E0,-7.066486359E0,-8.936358094E-1,-3.042431831E0
4.338276571E0,-7.229291916E0,-8.409633636E-1,-2.908356428E0
4.340764332E0,-7.358579159E0,-7.835025191E-1,-2.803011656E0
4.343252092E0,-7.511807919E0,-7.547720671E-1,-2.731185675E0
4.345739853E0,-7.674613476E0,-6.973112226E-1,-2.678513050E0
4.348227613E0,-7.851784706E0,-6.494272351E-1,-2.630629063E0
4.350715374E0,-8.043320656E0,-5.919663906E-1,-2.587533474E0
4.353203134E0,-8.210914612E0,-5.105634928E-1,-2.544437885E0
4.355690894E0,-8.373720169E0,-4.339490533E-1,-2.515707493E0
4.358178655E0,-8.522160530E0,-3.716998100E-1,-2.534861088E0
4.360666415E0,-8.661025047E0,-3.142389655E-1,-2.577956676E0
4.363154176E0,-8.814253807E0,-2.280477136E-1,-2.688089848E0
4.365641936E0,-8.996212959E0,-1.131260321E-1,-2.798223257E0
4.368129696E0,-9.154230118E0,2.094926499E-2,-2.903568029E0
4.370617457E0,-9.293093681E0,1.358709484E-1,-2.989759445E0
4.373105217E0,-9.374496460E0,2.364274114E-1,-3.056797028E0
4.375592978E0,-9.412803650E0,2.938882709E-1,-3.109469414E0
4.378080738E0,-9.388861656E0,2.843114436E-1,-3.138199806E0
4.380568499E0,-9.326612473E0,2.124854028E-1,-3.200449228E0
4.383056259E0,-9.182960510E0,1.071405262E-1,-3.277063608E0
4.385544019E0,-8.986636162E0,-2.693476900E-2,-3.353677988E0
4.388031780E0,-8.742427826E0,-1.945288926E-1,-3.459022999E0
4.390519540E0,-8.479064941E0,-3.573346138E-1,-3.564367771E0
4.393007301E0,-8.234856606E0,-5.297171474E-1,-3.660135746E0
4.395495061E0,-8.024167061E0,-7.116764784E-1,-3.755903959E0
4.397982821E0,-7.794323444E0,-8.601169586E-1,-3.856460333E0
4.400470582E0,-7.617152691E0,-1.003769040E0,-3.937863350E0
4.402958342E0,-7.449558735E0,-1.147421122E0,-3.985747337E0
4.405446103E0,-7.329848289E0,-1.281496406E0,-4.024054527E0
4.407933863E0,-7.243657112E0,-1.377264500E0,-4.019266129E0
4.410421571E0,-7.200561523E0,-1.429937005E0,-4.014477730E0
4.412909280E0,-7.186196327E0,-1.429937005E0,-3.995324135E0
4.415396988E0,-7.214926720E0,-1.434725404E0,-3.976170540E0
4.417884696E0,-7.301117897E0,-1.420360208E0,-3.942651749E0
4.420372405E0,-7.372944355E0,-1.401206493E0,-3.894767523E0
4.422860113E0,-7.459135532E0,-1.410783410E0,-3.866037130E0
4.425347821E0,-7.526173115E0,-1.429937005E0,-3.870825529E0
4.427835530E0,-7.569268703E0,-1.425148606E0,-3.933074951E0
4.430323238E0,-7.607575893E0,-1.434725404E0,-4.000112534E0
4.432810946E0,-7.703343868E0,-1.401206493E0,-4.004900932E0
4.435298655E0,-7.799111843E0,-1.358110905E0,-4.000112534E0
4.437786363E0,-7.909245491E0,-1.276708007E0,-3.952228546E0
4.440274071E0,-8.062474251E0,-1.200093627E0,-3.904344320E0
4.442761780E0,-8.244433403E0,-1.094748735E0,-3.875613928E0
4.445249488E0,-8.445546150E0,-9.846154451E-1,-3.837306738E0
4.447737196E0,-8.637083054E0,-8.744821548E-1,-3.784634352E0
4.450224905E0,-8.823830605E0,-7.739257216E-1,-3.736750364E0
4.452712613E0,-8.948328972E0,-7.020996213E-1,-3.660135746E0
4.455200321E0,-9.044096947E0,-6.494272351E-1,-3.583521366E0
4.457688030E0,-9.101557732E0,-5.632359385E-1,-3.540425777E0
4.460175738E0,-9.163806915E0,-5.009866953E-1,-3.487753391E0
4.462663446E0,-9.187748909E0,-4.722562730E-1,-3.454234600E0
4.465151155E0,-9.192537308E0,-4.818331003E-1,-3.454234600E0
4.467638863E0,-9.182960510E0,-5.392939448E-1,-3.482964993E0
4.470126571E0,-9.135076523E0,-6.254851818E-1,-3.497330189E0
4.472614280E0,-9.072827339E0,-7.499836683E-1,-3.564367771E0
4.475101988E0,-8.967482567E0,-8.696937561E-1,-3.645770550E0
4.477589696E0,-8.814253807E0,-9.798270464E-1,-3.722385168E0
4.480077405E0,-8.651448250E0,-1.066018343E0,-3.784634352E0
4.482565113E0,-8.522160530E0,-1.156997919E0,-3.870825529E0
4.485052821E0,-8.402450562E0,-1.233612418E0,-3.995324135E0
4.487540530E0,-8.301894188E0,-1.329380512E0,-4.110245705E0
4.490028238E0,-8.230068207E0,-1.425148606E0,-4.215590477E0
4.492515946E0,-8.186972618E0,-1.549647093E0,-4.282628059E0
4.495003655E0,-8.153453827E0,-1.654991984E0,-4.311358929E0
4.497491363E0,-8.139088631E0,-1.717241168E0,-4.320935726E0
4.499979071E0,-8.129511833E0,-1.745971560E0,-4.263474464E0
4.502466780E0,-8.148665428E0,-1.712452769E0,-4.215590477E0
4.504954488E0,-8.163030624E0,-1.635838270E0,-4.148552895E0
4.507442196E0,-8.191761017E0,-1.573589087E0,-4.076726913E0
4.509929905E0,-8.210914612E0,-1.487397790E0,-3.976170540E0
4.512417613E0,-8.210914612E0,-1.410783410E0,-3.913921118E0
4.514905321E0,-8.215703011E0,-1.334168911E0,-3.866037130E0
4.517393030E0,-8.220491409E0,-1.209670424E0,-3.784634352E0
4.519880738E0,-8.249221802E0,-1.085171938E0,-3.655347347E0
4.522368446E0,-8.282740593E0,-9.463081956E-1,-3.535637379E0
4.524856155E0,-8.359354973E0,-8.170213103E-1,-3.425503969E0
4.527343863E0,-8.421604156E0,-6.733692288E-1,-3.305794001E0
4.529831571E0,-8.503006935E0,-5.249287486E-1,-3.186083794E0
4.532319280E0,-8.560467720E0,-3.716998100E-1,-3.037643433E0
4.534806988E0,-8.584410667E0,-2.232593149E-1,-2.884414434E0
4.537294696E0,-8.603564262E0,-7.003039867E-2,-2.764704466E0
4.539782405E0,-8.689755440E0,6.404489279E-2,-2.644994259E0
4.542270113E0,-8.775946617E0,1.885433793E-1,-2.577956676E0
4.544757821E0,-8.900444984E0,2.412158251E-1,-2.491765499E0
4.547245530E0,-9.058462143E0,2.460042238E-1,-2.386420488E0
4.549733238E0,-9.230844498E0,1.933317930E-1,-2.314594507E0
4.552220946E0,-9.340977669E0,1.310825497E-1,-2.309806108E0
4.554708655E0,-9.379284859E0,3.531447425E-2,-2.362478495E0
4.557196363E0,-9.331400871E0,-8.439560980E-2,-2.467823505E0
4.559684071E0,-9.249998093E0,-2.615665495E-1,-2.635417461E0
4.562171780E0,-9.130288124E0,-4.674678743E-1,-2.822165251E0
4.564659488E0,-9.010578156E0,-6.973112226E-1,-3.008913040E0
4.567147196E0,-8.890868187E0,-8.984242082E-1,-3.195660830E0
4.569634905E0,-8.823830605E0,-1.061229944E0,-3.363254786E0
4.572122613E0,-8.809465408E0,-1.214458823E0,-3.502118587E0
4.574610321E0,-8.771158218E0,-1.348534107E0,-3.621828556E0
4.577098030E0,-8.718485832E0,-1.477820992E0,-3.698443174E0
4.579585738E0,-8.689755440E0,-1.573589087E0,-3.808576345E0
4.582073446E0,-8.637083054E0,-1.640626669E0,-3.904344320E0
4.584561155E0,-8.613141060E0,-1.650203466E0,-4.009689331E0
4.587048863E0,-8.593987465E0,-1.626261473E0,-4.105457306E0
4.589536571E0,-8.593987465E0,-1.607107878E0,-4.186860085E0
4.592024280E0,-8.608352661E0,-1.540070295E0,-4.244320869E0
4.594511988E0,-8.617929459E0,-1.444302201E0,-4.263474464E0
4.596999696E0,-8.622717857E0,-1.348534107E0,-4.229955673E0
4.599487405E0,-8.627506256E0,-1.247977614E0,-4.182071686E0
4.601975113E0,-8.613141060E0,-1.128267527E0,-4.110245705E0
4.604462821E0,-8.565256119E0,-1.032499433E0,-3.985747337E0
4.606950530E0,-8.507795334E0,-9.175778031E-1,-3.851671934E0
4.609438238E0,-8.392873764E0,-8.313865662E-1,-3.717596769E0
4.611925946E0,-8.244433403E0,-7.308300734E-1,-3.578732967E0
4.614413655E0,-8.072051048E0,-6.350619793E-1,-3.444657803E0
4.616901363E0,-7.904457092E0,-5.680243373E-1,-3.291428804E0
4.619389071E0,-7.760804653E0,-4.866214991E-1,-3.109469414E0
4.621876780E0,-7.693767071E0,-4.243722558E-1,-2.908356428E0
4.624364488E0,-7.727285862E0,-4.052186310E-1,-2.702455282E0
4.626852196E0,-7.866149902E0,-4.818331003E-1,-2.506130695E0
4.629339905E0,-8.081627846E0,-6.111199856E-1,-2.305017710E0
4.631827613E0,-8.340201378E0,-7.164648771E-1,-2.123058319E0
4.634315321E0,-8.608352661E0,-7.691373229E-1,-1.931522250E0
4.636803030E0,-8.871714592E0,-7.547720671E-1,-1.797446966E0
4.639290738E0,-9.120711327E0,-6.590040326E-1,-1.716044068E0
4.641778446E0,-9.364919662E0,-5.297171474E-1,-1.725620866E0
4.644266155E0,-9.556455612E0,-4.339490533E-1,-1.826177359E0
4.646753915E0,-9.719262123E0,-3.908534348E-1,-1.988983035E0
4.649241676E0,-9.877279282E0,-3.956418335E-1,-2.166153908E0
4.651729436E0,-9.982624054E0,-4.435258508E-1,-2.357690096E0
4.654217196E0,-1.006402683E1,-5.201402903E-1,-2.544437885E0
4.656704957E0,-1.011669922E1,-6.111199856E-1,-2.774281263E0
4.659192717E0,-1.012148762E1,-7.356184721E-1,-2.975394249E0
4.661680478E0,-1.010712242E1,-8.553285599E-1,-3.214814425E0
4.664168238E0,-1.006402683E1,-9.463081956E-1,-3.420715570E0
4.666655999E0,-9.982624054E0,-1.022922635E0,-3.593098164E0
4.669143759E0,-9.824606895E0,-1.070806742E0,-3.765480757E0
4.671631519E0,-9.666589737E0,-1.075595140E0,-3.918709517E0
4.674119280E0,-9.518148422E0,-1.085171938E0,-4.043208122E0
4.676607040E0,-9.355342865E0,-1.046864748E0,-4.134187698E0
4.679094801E0,-9.173383713E0,-1.032499433E0,-4.196436882E0
4.681582561E0,-8.991424561E0,-9.989806414E-1,-4.277839661E0
4.684070321E0,-8.795100212E0,-9.846154451E-1,-4.296993732E0
4.686558082E0,-8.584410667E0,-9.558850527E-1,-4.258686066E0
4.689045842E0,-8.344989777E0,-9.367313981E-1,-4.191648483E0
4.691533603E0,-8.139088631E0,-9.175778031E-1,-4.105457306E0
4.694021363E0,-7.928399086E0,-9.175778031E-1,-3.966593742E0
4.696509124E0,-7.751227856E0,-8.936358094E-1,-3.760692358E0
4.698996884E0,-7.688978672E0,-8.840589523E-1,-3.506906986E0
4.701484644E0,-7.722497463E0,-9.510966539E-1,-3.166930199E0
4.703972405E0,-7.856573105E0,-1.094748735E0,-2.750339270E0
4.706460165E0,-8.043320656E0,-1.257554412E0,-2.314594507E0
4.708947926E0,-8.258798599E0,-1.425148606E0,-1.874061346E0
4.711435686E0,-8.445546150E0,-1.573589087E0,-1.462258697E0
4.713923446E0,-8.617929459E0,-1.678933978E0,-1.107916832E0
4.716411207E0,-8.823830605E0,-1.702875972E0,-8.158242106E-1
4.718898967E0,-9.077615738E0,-1.621473074E0,-5.811924338E-1
4.721386728E0,-9.350554466E0,-1.449090600E0,-3.800795078E-1
4.723874488E0,-9.609128952E0,-1.257554412E0,-2.890998423E-1
4.726362249E0,-9.862914085E0,-1.070806742E0,-2.220622003E-1
4.728849957E0,-1.007360363E1,-9.175778031E-1,-1.933317930E-1
4.731337665E0,-1.025077438E1,-7.882909179E-1,-1.981201917E-1
4.733825374E0,-1.043273354E1,-6.877344251E-1,-2.268506140E-1
4.736313082E0,-1.059075165E1,-5.871779919E-1,-2.986766696E-1
4.738800790E0,-1.069609642E1,-4.626794755E-1,-3.752911091E-1
4.741288499E0,-1.072961521E1,-3.525462151E-1,-4.950011969E-1
4.743776207E0,-1.071046162E1,-2.472013235E-1,-6.434416771E-1
4.746263915E0,-1.064342403E1,-1.514332592E-1,-8.254010081E-1
4.748751624E0,-1.055244446E1,-8.918401599E-2,-1.060032845E0
4.751239332E0,-1.042794514E1,-4.608838260E-2,-1.318606615E0
4.753727040E0,-1.026992798E1,1.795651275E-3,-1.596333981E0
4.756214749E0,-1.011669922E1,5.925649032E-2,-1.826177359E0
4.758702457E0,-9.920374870E0,1.310825497E-1,-2.056020737E0
4.761190165E0,-9.714473724E0,2.124854028E-1,-2.300229311E0
4.763677874E0,-9.479841232E0,2.795230448E-1,-2.525284290E0
4.766165582E0,-9.226056099E0,3.513490856E-1,-2.735974073E0
4.768653290E0,-8.948328972E0,3.800795078E-1,-2.917933226E0
4.771140999E0,-8.680178642E0,3.465606868E-1,-3.090315819E0
4.773628707E0,-8.455122948E0,2.555810213E-1,-3.181295395E0
4.776116415E0,-8.287528992E0,7.362170517E-2,-3.301005602E0
4.778604124E0,-8.167819023E0,-1.562216580E-1,-3.358466387E0
4.781091832E0,-8.057685852E0,-4.243722558E-1,-3.339312792E0
4.783579540E0,-7.976283073E0,-7.020996213E-1,-3.286640406E0
4.786067249E0,-7.918822289E0,-9.606734514E-1,-3.181295395E0
4.788554957E0,-7.851784706E0,-1.176151633E0,-3.042431831E0
4.791042665E0,-7.789535046E0,-1.353322506E0,-2.922721624E0
4.793530374E0,-7.712920666E0,-1.482609391E0,-2.803011656E0
4.796018082E0,-7.674613476E0,-1.535281897E0,-2.721608877E0
4.798505790E0,-7.679401875E0,-1.549647093E0,-2.673724651E0
4.800993499E0,-7.741651058E0,-1.530493379E0,-2.625840664E0
4.803481207E0,-7.870938301E0,-1.492186189E0,-2.568379879E0
4.805968915E0,-8.024167061E0,-1.444302201E0,-2.467823505E0
4.808456624E0,-8.234856606E0,-1.353322506E0,-2.367266893E0
4.810944332E0,-8.517372131E0,-1.214458823E0,-2.261922121E0
4.813432040E0,-8.804677010E0,-1.037287831E0,-2.170942307E0
4.815919749E0,-9.101557732E0,-8.026561141E-1,-2.108693123E0
4.818407457E0,-9.393650055E0,-5.823895931E-1,-2.022501945E0
4.820895165E0,-9.637859344E0,-3.621230125E-1,-1.969829440E0
4.823382874E0,-9.882067680E0,-1.466448605E-1,-1.955464244E0
4.825870582E0,-1.010712242E1,7.841010392E-2,-1.926733851E0
4.828358290E0,-1.030344677E1,2.795230448E-1,-1.912368655E0
4.830845999E0,-1.047104073E1,4.566939771E-1,-1.893214941E0
4.833333707E0,-1.061469364E1,6.434416771E-1,-1.902791858E0
4.835821415E0,-1.074876881E1,8.110358119E-1,-1.926733851E0
4.838309124E0,-1.082538319E1,9.690531492E-1,-1.945887446E0
4.840796832E0,-1.086369038E1,1.083974838E0,-1.960252643E0
4.843284540E0,-1.088763237E1,1.165377736E0,-1.960252643E0
4.845772249E0,-1.091157436E1,1.218050122E0,-1.960252643E0
4.848259957E0,-1.087805557E1,1.251568913E0,-1.950675845E0
4.850747665E0,-1.082538319E1,1.237203717E0,-1.931522250E0
4.853235374E0,-1.069130802E1,1.189319730E0,-1.902791858E0
4.855723082E0,-1.052371311E1,1.074398041E0,-1.859696150E0
4.858210790E0,-1.037048435E1,8.972271085E-1,-1.821388960E0
4.860698499E0,-1.023640919E1,6.434416771E-1,-1.763928056E0
4.863186207E0,-1.007360363E1,3.034650683E-1,-1.696890473E0
4.865673915E0,-9.872490883E0,-5.087678507E-2,-1.644217968E0
4.868161624E0,-9.671378136E0,-4.052186310E-1,-1.620275974E0
4.870649332E0,-9.431957245E0,-7.068880796E-1,-1.591545582E0
4.873137040E0,-9.197325706E0,-9.510966539E-1,-1.586757183E0
4.875624749E0,-8.981847763E0,-1.104325533E0,-1.605910778E0
4.878112457E0,-8.785523415E0,-1.214458823E0,-1.610699177E0
4.880600165E0,-8.627506256E0,-1.329380512E0,-1.629852772E0
4.883087874E0,-8.522160530E0,-1.429937005E0,-1.639429569E0
4.885575582E0,-8.459911346E0,-1.501762986E0,-1.692102075E0
4.888063290E0,-8.479064941E0,-1.564012289E0,-1.735197663E0
4.890550999E0,-8.565256119E0,-1.597531080E0,-1.730409265E0
4.893038707E0,-8.670601845E0,-1.583165884E0,-1.696890473E0
4.895526415E0,-8.814253807E0,-1.501762986E0,-1.663371682E0
4.898014124E0,-8.991424561E0,-1.391629696E0,-1.629852772E0
4.900501832E0,-9.178172112E0,-1.233612418E0,-1.610699177E0
4.902989540E0,-9.384073257E0,-1.027711034E0,-1.591545582E0
4.905477249E0,-9.618705750E0,-8.265981078E-1,-1.596333981E0
4.907964957E0,-9.810241699E0,-6.159083843E-1,-1.601122379E0
4.910452665E0,-1.001614285E1,-4.004302323E-1,-1.625064373E0
4.912940374E0,-1.020767879E1,-1.801636815E-1,-1.677736878E0
4.915428082E0,-1.036569595E1,-2.992752008E-3,-1.759139657E0
4.917915790E0,-1.052371311E1,1.454477459E-1,-1.845330954E0
4.920403499E0,-1.064821243E1,2.986766696E-1,-1.950675845E0
4.922891207E0,-1.075834560E1,4.758476019E-1,-2.017713547E0
4.925378915E0,-1.081101799E1,6.673837304E-1,-2.094327927E0
4.927866624E0,-1.087326717E1,8.301894665E-1,-2.175730705E0
4.930354332E0,-1.092115116E1,9.929951429E-1,-2.237980127E0
4.932842040E0,-1.100255394E1,1.112705231E0,-2.300229311E0
4.935329749E0,-1.105522633E1,1.194108129E0,-2.357690096E0
4.937817457E0,-1.110789871E1,1.246780515E0,-2.357690096E0
4.940305165E0,-1.116057110E1,1.241992116E0,-2.343324900E0
4.942792874E0,-1.118451309E1,1.184531331E0,-2.257133722E0
4.945280582E0,-1.119887829E1,1.064821243E0,-2.166153908E0
4.947768290E0,-1.119408989E1,8.780734539E-1,-2.075174332E0
4.950255999E0,-1.117493629E1,6.721721292E-1,-2.022501945E0
4.952743707E0,-1.111747551E1,4.423287511E-1,-1.993771434E0
4.955231415E0,-1.100734234E1,2.364274114E-1,-2.017713547E0
4.957719124E0,-1.084932518E1,2.094926499E-2,-2.056020737E0
4.960206832E0,-1.067694283E1,-1.466448605E-1,-2.123058319E0
4.962694540E0,-1.052371311E1,-3.142389655E-1,-2.204461098E0
4.965182301E0,-1.038006115E1,-4.578910768E-1,-2.295440912E0
4.967670061E0,-1.023640919E1,-5.919663906E-1,-2.376843691E0
4.970157821E0,-1.015979481E1,-7.116764784E-1,-2.434304476E0
4.972645582E0,-1.007839203E1,-8.074445128E-1,-2.453458309E0
4.975133342E0,-1.002093124E1,-8.601169586E-1,-2.458246708E0
4.977621103E0,-9.987412453E0,-8.936358094E-1,-2.467823505E0
4.980108863E0,-9.973047256E0,-9.080010056E-1,-2.482188702E0
4.982596624E0,-9.982624054E0,-9.080010056E-1,-2.510919094E0
4.985084384E0,-9.982624054E0,-9.032126069E-1,-2.501342297E0
4.987572144E0,-9.958682060E0,-8.744821548E-1,-2.491765499E0
4.990059905E0,-9.968258858E0,-8.361749649E-1,-2.491765499E0
4.992547665E0,-1.000656605E1,-7.499836683E-1,-2.477400303E0
4.995035426E0,-1.007360363E1,-6.590040326E-1,-2.458246708E0
4.997523186E0,-1.017416000E1,-5.392939448E-1,-2.419939280E0
5.000010946E0,-1.029386997E1,-3.812766075E-1,-2.338536501E0
5.002498707E0,-1.040879154E1,-2.184709013E-1,-2.281075716E0
5.004986467E0,-1.056680965E1,-3.651157767E-2,-2.242768526E0
5.007474228E0,-1.069130802E1,1.215057373E-1,-2.261922121E0
5.009961988E0,-1.082538319E1,2.603694201E-1,-2.290652514E0
5.012449749E0,-1.094509315E1,3.657143116E-1,-2.333748102E0
5.014937509E0,-1.107916832E1,4.471171796E-1,-2.348113298E0
5.017425269E0,-1.120845509E1,4.997895956E-1,-2.314594507E0
5.019913030E0,-1.133295345E1,5.333084464E-1,-2.266710520E0
