"Time (s)","Gyroscope x (rad/s)","Gyroscope y (rad/s)","Gyroscope z (rad/s)"
7.418761300E-2,-6.880271435E-1,-3.022685647E-2,-1.506016403E-1
7.672110300E-2,-6.709829569E-1,-1.105211023E-2,-1.484711170E-1
7.925625900E-2,-6.443513632E-1,1.344895363E-2,-1.452753246E-1
8.178454000E-2,-6.145239472E-1,3.901528195E-2,-1.367532164E-1
8.427224900E-2,-5.793702602E-1,6.245107949E-2,-1.250353158E-1
8.675995700E-2,-5.463470817E-1,8.375635743E-2,-1.069258377E-1
8.924766500E-2,-5.143891573E-1,1.103879437E-1,-8.349003643E-2
9.173537400E-2,-4.866923392E-1,1.444763839E-1,-5.579318479E-2
9.422308200E-2,-4.621912539E-1,1.828258783E-1,-2.809632942E-2
9.671079000E-2,-4.387554526E-1,2.275669426E-1,-3.595264861E-3
9.919849900E-2,-4.163849354E-1,2.755038142E-1,1.664474420E-2
1.016862070E-1,-3.908185959E-1,3.234406710E-1,2.836264484E-2
1.041739150E-1,-3.652522564E-1,3.671164811E-1,3.155843541E-2
1.066616240E-1,-3.364901543E-1,4.065312445E-1,2.410159074E-2
1.091493320E-1,-3.077280223E-1,4.342280924E-1,8.122635074E-3
1.116370400E-1,-2.779006660E-1,4.512723088E-1,-1.211737376E-2
1.141247490E-1,-2.480732650E-1,4.534028471E-1,-3.874896467E-2
1.166124570E-1,-2.203764170E-1,4.395544231E-1,-6.431528926E-2
1.191001650E-1,-1.948100924E-1,4.097270370E-1,-8.881635964E-2
1.215878740E-1,-1.713742912E-1,3.692470193E-1,-1.090563685E-1
1.240755820E-1,-1.511342824E-1,3.202448785E-1,-1.239700541E-1
1.265632900E-1,-1.351553202E-1,2.659164369E-1,-1.335574239E-1
1.290509990E-1,-1.234374270E-1,2.094574571E-1,-1.378184855E-1
1.315387070E-1,-1.159805804E-1,1.529984921E-1,-1.388837546E-1
1.340264150E-1,-1.106542572E-1,9.973530471E-2,-1.356879622E-1
1.365141240E-1,-1.063932031E-1,4.647212476E-2,-1.292963773E-1
1.390018320E-1,-1.042626798E-1,-3.595264861E-3,-1.229047924E-1
1.414895400E-1,-1.000016257E-1,-5.153212696E-2,-1.143826842E-1
1.439772490E-1,-9.467530251E-2,-9.627319872E-2,-1.058605760E-1
1.464649570E-1,-8.721846342E-2,-1.356879622E-1,-9.627319872E-2
1.489526650E-1,-7.869634777E-2,-1.719069183E-1,-8.668582886E-2
1.514403740E-1,-6.697845459E-2,-2.027995586E-1,-7.709845901E-2
1.539280820E-1,-5.313002318E-2,-2.283658981E-1,-6.644582003E-2
1.564157900E-1,-3.715106845E-2,-2.507364154E-1,-5.579318479E-2
1.589034990E-1,-1.797632314E-2,-2.688459158E-1,-4.407528415E-2
1.613912070E-1,3.328948980E-3,-2.837595940E-1,-3.129211813E-2
1.638789150E-1,2.783001214E-2,-2.954775095E-1,-1.744369231E-2
1.663666240E-1,5.339634046E-2,-3.029343486E-1,-3.595264861E-3
1.688543320E-1,8.215846121E-2,-3.061301410E-1,8.122635074E-3
1.713420400E-1,1.109205782E-1,-3.039996028E-1,2.090579830E-2
1.738297490E-1,1.418132186E-1,-2.976080179E-1,3.262370080E-2
1.763174570E-1,1.716406047E-1,-2.890859246E-1,4.434159771E-2
1.788051650E-1,2.014679909E-1,-2.763027549E-1,5.392897129E-2
1.812928740E-1,2.302301079E-1,-2.613890767E-1,6.138581783E-2
1.837805820E-1,2.579269707E-1,-2.454101145E-1,6.777740270E-2
1.862682900E-1,2.834932804E-1,-2.273006290E-1,7.203845680E-2
1.887559990E-1,3.069290817E-1,-2.070606202E-1,7.416898012E-2
1.912437070E-1,3.261038363E-1,-1.868206114E-1,7.416898012E-2
1.937314150E-1,3.420827985E-1,-1.655153334E-1,7.203845680E-2
1.962191240E-1,3.559312224E-1,-1.431448013E-1,6.671213359E-2
1.987068320E-1,3.665838540E-1,-1.229047924E-1,5.925529078E-2
2.011945400E-1,3.751059473E-1,-1.026647836E-1,4.860265180E-2
2.036822490E-1,3.793670237E-1,-8.455529809E-2,3.795001656E-2
2.061699570E-1,3.825628161E-1,-6.857634336E-2,2.836264484E-2
2.086576650E-1,3.825628161E-1,-5.685844645E-2,1.877527125E-2
2.111453740E-1,3.804322779E-1,-4.727107286E-2,1.025316212E-2
2.136330820E-1,3.783017397E-1,-4.087949172E-2,5.992108025E-3
2.161207900E-1,3.719101548E-1,-3.661843762E-2,3.861580743E-3
2.186084990E-1,3.655185997E-1,-3.555317223E-2,5.992108025E-3
2.210962070E-1,3.559312224E-1,-3.661843762E-2,1.025316212E-2
2.235839150E-1,3.442133069E-1,-3.981423005E-2,1.664474420E-2
2.260716240E-1,3.303648829E-1,-4.620581120E-2,2.410159074E-2
2.285593320E-1,3.143859208E-1,-5.472791940E-2,3.262370080E-2
2.310470400E-1,2.962764502E-1,-6.538055837E-2,4.114580899E-2
2.335347490E-1,2.781669796E-1,-7.709845901E-2,5.179844424E-2
2.360224570E-1,2.568616867E-1,-8.668582886E-2,6.138581783E-2
2.385101650E-1,2.355564237E-1,-9.733846784E-2,7.310371846E-2
2.409978740E-1,2.131858915E-1,-1.047953144E-1,8.375635743E-2
2.434855820E-1,1.908153445E-1,-1.111868918E-1,9.440898895E-2
2.459732900E-1,1.684448123E-1,-1.165132076E-1,1.039963663E-1
2.484609990E-1,1.471395344E-1,-1.186437383E-1,1.135837361E-1
2.509487070E-1,1.237037405E-1,-1.186437383E-1,1.221058443E-1
2.534364150E-1,1.013332009E-1,-1.186437383E-1,1.295626909E-1
2.559241240E-1,8.002793044E-2,-1.154479459E-1,1.338237375E-1
2.584118320E-1,5.978792161E-2,-1.111868918E-1,1.370195299E-1
2.608995400E-1,3.954791278E-2,-1.037300453E-1,1.380847991E-1
2.633872490E-1,2.143843099E-2,-9.307741374E-2,1.370195299E-1
2.658749570E-1,5.459476262E-3,-8.135951310E-2,1.338237375E-1
2.683626650E-1,-8.388951421E-3,-6.644582003E-2,1.295626909E-1
2.708503740E-1,-2.117211558E-2,-4.940159991E-2,1.231711060E-1
2.733380820E-1,-3.182475269E-2,-2.916159295E-2,1.178447902E-1
2.758257900E-1,-4.141212255E-2,-7.856319658E-3,1.103879437E-1
2.783134990E-1,-4.886896908E-2,1.344895363E-2,1.018658355E-1
2.808012070E-1,-5.526055023E-2,3.368896246E-2,9.334372729E-2
2.832889670E-1,-6.058686972E-2,5.286370963E-2,8.375635743E-2
2.857767280E-1,-6.484792382E-2,6.884266436E-2,7.416898012E-2
2.882644880E-1,-6.910897791E-2,8.056056499E-2,6.671213359E-2
2.907522490E-1,-7.230477035E-2,8.908267319E-2,5.925529078E-2
2.932400090E-1,-7.550056279E-2,9.440898895E-2,5.392897129E-2
2.957277690E-1,-7.763108611E-2,9.547425061E-2,4.860265180E-2
2.982155300E-1,-8.082687855E-2,9.334372729E-2,4.327633604E-2
3.007032900E-1,-8.295740932E-2,8.908267319E-2,3.901528195E-2
3.031910510E-1,-8.508793265E-2,8.269108832E-2,3.475422785E-2
3.056788110E-1,-8.721846342E-2,7.416898012E-2,3.262370080E-2
3.081665710E-1,-8.721846342E-2,6.351634115E-2,3.155843541E-2
3.106543320E-1,-8.615319431E-2,4.966791719E-2,3.155843541E-2
3.131420920E-1,-8.402267098E-2,3.475422785E-2,3.581948951E-2
3.156298530E-1,-7.976161689E-2,1.984053478E-2,4.327633604E-2
3.181176130E-1,-7.550056279E-2,3.861580743E-3,5.286370963E-2
3.206053740E-1,-7.017423958E-2,-9.986846708E-3,6.564687192E-2
3.230931340E-1,-6.378266215E-2,-2.170474641E-2,7.949529588E-2
3.255808940E-1,-5.739107728E-2,-3.235738352E-2,9.334372729E-2
3.280686550E-1,-4.993423447E-2,-3.874896467E-2,1.082574204E-1
3.305564150E-1,-4.354264960E-2,-4.301001877E-2,1.210405827E-1
3.330441760E-1,-3.608580679E-2,-4.407528415E-2,1.327584833E-1
3.355319360E-1,-2.862896025E-2,-4.194475710E-2,1.444763839E-1
3.380196960E-1,-2.010685205E-2,-3.555317223E-2,1.529984921E-1
3.405074570E-1,-1.265000552E-2,-2.703106403E-2,1.583248079E-1
3.429952170E-1,-4.127896391E-3,-1.637842879E-2,1.625858694E-1
3.454829780E-1,5.459476262E-3,-4.660528619E-3,1.625858694E-1
3.479707380E-1,1.291632187E-2,8.122635074E-3,1.604553312E-1
3.504584990E-1,2.037316747E-2,2.090579830E-2,1.540637612E-1
3.529462590E-1,2.676474862E-2,3.368896246E-2,1.444763839E-1
3.554340190E-1,3.315633163E-2,4.434159771E-2,1.327584833E-1
3.579217800E-1,3.635212034E-2,5.499423668E-2,1.178447902E-1
3.604095400E-1,3.954791278E-2,6.032055244E-2,1.018658355E-1
3.628973010E-1,4.061317816E-2,6.458161026E-2,8.375635743E-2
3.653850610E-1,4.061317816E-2,6.351634115E-2,6.458161026E-2
3.678727690E-1,3.954791278E-2,6.032055244E-2,4.647212476E-2
3.703604780E-1,3.635212034E-2,5.392897129E-2,2.729738131E-2
3.728481860E-1,3.315633163E-2,4.540686309E-2,1.025316212E-2
3.753358940E-1,2.783001214E-2,3.581948951E-2,-6.791055668E-3
3.778236030E-1,2.143843099E-2,2.410159074E-2,-2.383527346E-2
3.803113110E-1,1.504684892E-2,1.238369010E-2,-3.874896467E-2
3.827990190E-1,7.590003312E-3,6.657897611E-4,-5.259739235E-2
3.852867280E-1,1.198421582E-3,-9.986846708E-3,-6.538055837E-2
3.877744360E-1,-4.127896391E-3,-1.957421936E-2,-7.603318989E-2
3.902621440E-1,-8.388951421E-3,-2.596580051E-2,-8.349003643E-2
3.927498530E-1,-1.158474199E-2,-3.022685647E-2,-8.988162130E-2
3.952375610E-1,-1.371526904E-2,-3.129211813E-2,-9.414267540E-2
3.977252690E-1,-1.478053257E-2,-3.022685647E-2,-9.733846784E-2
4.002129780E-1,-1.584579609E-2,-2.703106403E-2,-9.946899116E-2
4.027006860E-1,-1.584579609E-2,-2.170474641E-2,-1.005342528E-1
4.051883940E-1,-1.584579609E-2,-1.637842879E-2,-1.015995219E-1
4.076761030E-1,-1.584579609E-2,-8.921583183E-3,-1.005342528E-1
4.101638110E-1,-1.691105962E-2,-3.595264861E-3,-9.946899116E-2
4.126515190E-1,-1.797632314E-2,2.796316985E-3,-9.627319872E-2
4.151392280E-1,-1.904158667E-2,9.187898599E-3,-9.307741374E-2
4.176269360E-1,-2.010685205E-2,1.451421715E-2,-8.881635964E-2
4.201146440E-1,-2.117211558E-2,2.090579830E-2,-8.562056720E-2
4.226023530E-1,-2.223737910E-2,2.623211779E-2,-8.135951310E-2
4.250900610E-1,-2.117211558E-2,3.155843541E-2,-7.816372067E-2
4.275777690E-1,-2.117211558E-2,3.475422785E-2,-7.709845901E-2
4.300654780E-1,-2.223737910E-2,3.688475490E-2,-7.603318989E-2
4.325531860E-1,-2.117211558E-2,3.901528195E-2,-7.603318989E-2
4.350408940E-1,-2.223737910E-2,3.901528195E-2,-7.709845901E-2
4.375286030E-1,-2.223737910E-2,3.688475490E-2,-7.922898233E-2
4.400163110E-1,-2.330264263E-2,3.262370080E-2,-8.242477477E-2
4.425040190E-1,-2.330264263E-2,2.623211779E-2,-8.668582886E-2
4.449917280E-1,-2.330264263E-2,1.877527125E-2,-9.201214463E-2
4.474794360E-1,-2.543316968E-2,1.025316212E-2,-9.733846784E-2
4.499671440E-1,-2.756369673E-2,6.657897611E-4,-1.037300453E-1
4.524548530E-1,-3.075948730E-2,-9.986846708E-3,-1.111868918E-1
4.549425610E-1,-3.502054140E-2,-1.957421936E-2,-1.186437383E-1
4.574302690E-1,-3.928159550E-2,-2.916159295E-2,-1.261005849E-1
4.599179780E-1,-4.354264960E-2,-3.874896467E-2,-1.346226931E-1
4.624056860E-1,-4.780370742E-2,-4.727107286E-2,-1.420795321E-1
4.648933940E-1,-5.099949613E-2,-5.472791940E-2,-1.495363861E-1
4.673811030E-1,-5.313002318E-2,-6.005423889E-2,-1.559279710E-1
4.698688110E-1,-5.419528857E-2,-6.431528926E-2,-1.612542868E-1
4.723565190E-1,-5.419528857E-2,-6.644582003E-2,-1.665806025E-1
4.748442280E-1,-5.313002318E-2,-6.751108170E-2,-1.719069183E-1
4.773319360E-1,-4.993423447E-2,-6.644582003E-2,-1.772332340E-1
4.798196440E-1,-4.567318037E-2,-6.431528926E-2,-1.814942956E-1
4.823073530E-1,-3.928159550E-2,-6.005423889E-2,-1.857553422E-1
4.847950610E-1,-3.075948730E-2,-5.472791940E-2,-1.889511347E-1
4.872827690E-1,-2.010685205E-2,-4.940159991E-2,-1.921469271E-1
4.897704780E-1,-5.193160381E-3,-4.301001877E-2,-1.953427196E-1
4.922581860E-1,1.078579482E-2,-3.555317223E-2,-1.974732429E-1
4.947458940E-1,3.102580272E-2,-2.809632942E-2,-1.996037811E-1
4.972336030E-1,5.339634046E-2,-2.063948289E-2,-2.006690353E-1
4.997213110E-1,7.576687634E-2,-1.424790081E-2,-2.006690353E-1
5.022090190E-1,9.813741595E-2,-7.856319658E-3,-1.996037811E-1
5.046967280E-1,1.194426864E-1,-2.530001104E-3,-1.964079887E-1
5.071844360E-1,1.396826953E-1,1.731053460E-3,-1.921469271E-1
5.096721440E-1,1.567269117E-1,5.992108025E-3,-1.857553422E-1
5.121598530E-1,1.695100814E-1,1.131842658E-2,-1.772332340E-1
5.146475610E-1,1.801627129E-1,1.877527125E-2,-1.665806025E-1
5.171352690E-1,1.854890287E-1,2.729738131E-2,-1.559279710E-1
5.196229780E-1,1.886848211E-1,3.581948951E-2,-1.442100704E-1
5.221106860E-1,1.854890287E-1,4.434159771E-2,-1.314269006E-1
5.245983940E-1,1.790974438E-1,5.392897129E-2,-1.186437383E-1
5.270861030E-1,1.673795432E-1,6.351634115E-2,-1.069258377E-1
5.295738110E-1,1.514005959E-1,7.097318769E-2,-9.520793706E-2
5.320615190E-1,1.300953180E-1,7.629951090E-2,-8.455529809E-2
5.345492280E-1,1.045289934E-1,8.056056499E-2,-7.603318989E-2
5.370369360E-1,7.470161468E-2,8.056056499E-2,-6.857634336E-2
5.395246440E-1,4.380896688E-2,7.843003422E-2,-6.111950055E-2
5.420123530E-1,9.720530361E-3,7.310371846E-2,-5.685844645E-2
5.445000610E-1,-2.649843320E-2,6.564687192E-2,-5.153212696E-2
5.469877690E-1,-6.378266215E-2,5.712476373E-2,-4.727107286E-2
5.494754780E-1,-1.010668874E-1,4.647212476E-2,-4.514054582E-2
5.519631860E-1,-1.394163817E-1,3.581948951E-2,-4.194475710E-2
5.544508940E-1,-1.767006069E-1,2.303632535E-2,-3.981423005E-2
5.569386030E-1,-2.118543088E-1,1.025316212E-2,-3.874896467E-2
5.594263110E-1,-2.438122183E-1,-2.530001104E-3,-3.768370301E-2
5.619140190E-1,-2.747048736E-1,-1.531316526E-2,-3.768370301E-2
5.644017280E-1,-3.024017215E-1,-2.490053698E-2,-3.768370301E-2
5.668894360E-1,-3.258375227E-1,-3.342264518E-2,-3.768370301E-2
5.693771440E-1,-3.460775316E-1,-3.768370301E-2,-3.768370301E-2
5.718648530E-1,-3.631217480E-1,-3.768370301E-2,-3.768370301E-2
5.743525610E-1,-3.759049177E-1,-3.448791057E-2,-3.661843762E-2
5.768402690E-1,-3.865575492E-1,-2.703106403E-2,-3.555317223E-2
5.793279780E-1,-3.918838501E-1,-1.637842879E-2,-3.342264518E-2
5.818156860E-1,-3.940143883E-1,-3.595264861E-3,-3.129211813E-2
5.843034460E-1,-3.940143883E-1,1.451421715E-2,-2.703106403E-2
5.867912070E-1,-3.897533417E-1,3.262370080E-2,-2.063948289E-2
5.892789670E-1,-3.844270110E-1,5.605949834E-2,-1.318263728E-2
5.917667280E-1,-3.780354261E-1,8.162582666E-2,-4.660528619E-3
5.942544880E-1,-3.705785871E-1,1.103879437E-1,5.992108025E-3
5.967422490E-1,-3.641870022E-1,1.423458606E-1,1.557948068E-2
5.992300090E-1,-3.577954173E-1,1.774995476E-1,2.729738131E-2
6.017177690E-1,-3.535343707E-1,2.126532495E-1,3.795001656E-2
6.042055300E-1,-3.514038324E-1,2.478069514E-1,4.860265180E-2
6.066932900E-1,-3.492733240E-1,2.797648609E-1,6.138581783E-2
6.091810510E-1,-3.514038324E-1,3.074617088E-1,7.629951090E-2
6.116688110E-1,-3.535343707E-1,3.319627941E-1,9.227846563E-2
6.141565710E-1,-3.599259555E-1,3.511375189E-1,1.103879437E-1
6.166443320E-1,-3.673827946E-1,3.639206886E-1,1.306279600E-1
6.191320920E-1,-3.759049177E-1,3.713775277E-1,1.519332230E-1
6.216198530E-1,-3.865575492E-1,3.735080659E-1,1.732385010E-1
6.241076130E-1,-3.982754350E-1,3.724428117E-1,1.945437789E-1
6.265953740E-1,-4.099933505E-1,3.671164811E-1,2.147837877E-1
6.290831340E-1,-4.217112362E-1,3.596596420E-1,2.350237966E-1
6.315708940E-1,-4.312986135E-1,3.511375189E-1,2.552638054E-1
6.340586550E-1,-4.387554526E-1,3.415501416E-1,2.723080218E-1
6.365464150E-1,-4.440817833E-1,3.340933025E-1,2.861564457E-1
6.390341760E-1,-4.462123215E-1,3.277017176E-1,2.968090773E-1
6.415219360E-1,-4.451470375E-1,3.213101327E-1,3.021354079E-1
6.440096960E-1,-4.398207366E-1,3.170490861E-1,3.032006621E-1
6.464974570E-1,-4.302333593E-1,3.127880394E-1,2.978743315E-1
6.489852170E-1,-4.163849354E-1,3.106575012E-1,2.882869840E-1
6.514729780E-1,-4.004059732E-1,3.074617088E-1,2.723080218E-1
6.539607380E-1,-3.791007102E-1,3.053312004E-1,2.531332672E-1
6.564484990E-1,-3.545996249E-1,3.010701239E-1,2.296974659E-1
6.589362590E-1,-3.279680312E-1,2.968090773E-1,2.041311413E-1
6.614240190E-1,-2.981406748E-1,2.904174924E-1,1.764342934E-1
6.639117800E-1,-2.672480047E-1,2.840259075E-1,1.487374306E-1
6.663995400E-1,-2.352901101E-1,2.786996067E-1,1.231711060E-1
6.688872490E-1,-2.033322006E-1,2.733732760E-1,9.867004305E-2
6.713749570E-1,-1.735048145E-1,2.691122293E-1,7.736477256E-2
6.738626650E-1,-1.458079666E-1,2.637858987E-1,5.925529078E-2
6.763503740E-1,-1.223721579E-1,2.595248520E-1,4.434159771E-2
6.788380820E-1,-1.021321490E-1,2.573943138E-1,3.368896246E-2
6.813257900E-1,-8.615319431E-2,2.563290596E-1,2.836264484E-2
6.838134990E-1,-7.550056279E-2,2.573943138E-1,2.836264484E-2
6.863012070E-1,-7.017423958E-2,2.627206445E-1,3.581948951E-2
6.887889150E-1,-6.910897791E-2,2.691122293E-1,4.860265180E-2
6.912766240E-1,-7.550056279E-2,2.786996067E-1,6.671213359E-2
6.937643320E-1,-8.721846342E-2,2.914827764E-1,9.121319652E-2
6.962520400E-1,-1.031974182E-1,3.063964546E-1,1.199753210E-1
6.987397490E-1,-1.234374270E-1,3.234406710E-1,1.540637612E-1
7.012274570E-1,-1.490037590E-1,3.415501416E-1,1.913479865E-1
7.037151650E-1,-1.756353378E-1,3.607248962E-1,2.318280041E-1
7.062028740E-1,-2.065279931E-1,3.820301592E-1,2.733732760E-1
7.086905820E-1,-2.406164259E-1,4.044007063E-1,3.127880394E-1
7.111782900E-1,-2.747048736E-1,4.278365076E-1,3.511375189E-1
7.136659990E-1,-3.098585606E-1,4.512723088E-1,3.852259517E-1
7.161537070E-1,-3.450122476E-1,4.715123177E-1,4.129228294E-1
7.186414150E-1,-3.791007102E-1,4.896217883E-1,4.363586307E-1
7.211291240E-1,-4.131891429E-1,5.034702420E-1,4.523375630E-1
7.236168320E-1,-4.462123215E-1,5.130575895E-1,4.608596861E-1
7.261045400E-1,-4.792354703E-1,5.173186660E-1,4.651207328E-1
7.285922490E-1,-5.111933947E-1,5.194491744E-1,4.629902244E-1
7.310799570E-1,-5.420860648E-1,5.173186660E-1,4.555333555E-1
7.335676650E-1,-5.708481669E-1,5.119923353E-1,4.438154697E-1
7.360553740E-1,-5.974797606E-1,5.034702420E-1,4.289017618E-1
7.385430820E-1,-6.219807863E-1,4.928175807E-1,4.097270370E-1
7.410307900E-1,-6.422207952E-1,4.789691567E-1,3.884217441E-1
7.435184990E-1,-6.603302956E-1,4.651207328E-1,3.649859428E-1
7.460062070E-1,-6.763092279E-1,4.491417706E-1,3.404848874E-1
7.484939150E-1,-6.890923977E-1,4.342280924E-1,3.149185777E-1
7.509816240E-1,-6.986798048E-1,4.193144143E-1,2.882869840E-1
7.534693320E-1,-7.050713897E-1,4.065312445E-1,2.605901062E-1
7.559570400E-1,-7.114629745E-1,3.958786130E-1,2.328932583E-1
7.584447490E-1,-7.135934830E-1,3.884217441E-1,2.062616795E-1
7.609324570E-1,-7.146587372E-1,3.841606975E-1,1.796300858E-1
7.634201650E-1,-7.135934830E-1,3.852259517E-1,1.561942846E-1
7.659078740E-1,-7.093324065E-1,3.873564899E-1,1.359542757E-1
7.683955820E-1,-7.040061355E-1,3.937480748E-1,1.189100519E-1
7.708832900E-1,-6.965492368E-1,4.033354521E-1,1.071921512E-1
7.733709990E-1,-6.880271435E-1,4.139880836E-1,9.973530471E-2
7.758587070E-1,-6.784397960E-1,4.267712533E-1,9.653951973E-2
7.783464150E-1,-6.688523889E-1,4.384891391E-1,9.653951973E-2
7.808341240E-1,-6.603302956E-1,4.502070546E-1,9.973530471E-2
7.833218320E-1,-6.528734565E-1,4.619249403E-1,1.061268896E-1
7.858095400E-1,-6.475471258E-1,4.725775719E-1,1.146489978E-1
7.882972490E-1,-6.432861090E-1,4.842954874E-1,1.242363751E-1
7.907849570E-1,-6.400902867E-1,4.981439114E-1,1.359542757E-1
7.932726650E-1,-6.379597783E-1,5.151881576E-1,1.508679688E-1
7.957603740E-1,-6.368945241E-1,5.343628526E-1,1.679121852E-1
7.982480820E-1,-6.368945241E-1,5.567334294E-1,1.860216707E-1
8.007357900E-1,-6.368945241E-1,5.791039467E-1,2.051964104E-1
8.032234990E-1,-6.390250325E-1,6.025397182E-1,2.243711501E-1
8.057112070E-1,-6.411555409E-1,6.259755492E-1,2.414153665E-1
8.081989150E-1,-6.432861090E-1,6.483460665E-1,2.563290596E-1
8.106866240E-1,-6.475471258E-1,6.707166433E-1,2.691122293E-1
8.131743320E-1,-6.518082023E-1,6.909566522E-1,2.765690684E-1
8.156620400E-1,-6.581997871E-1,7.080008388E-1,2.797648609E-1
8.181497490E-1,-6.656566262E-1,7.218492627E-1,2.776343226E-1
8.206374570E-1,-6.752439737E-1,7.293061018E-1,2.723080218E-1
8.231251650E-1,-6.848313808E-1,7.293061018E-1,2.616553903E-1
8.256128740E-1,-6.933534741E-1,7.239798307E-1,2.478069514E-1
8.281005820E-1,-7.008103132E-1,7.143924236E-1,2.307627350E-1
8.305882900E-1,-7.072018981E-1,6.994787455E-1,2.105227262E-1
8.330759990E-1,-7.125282288E-1,6.813692451E-1,1.870869249E-1
8.355637070E-1,-7.157239914E-1,6.600639820E-1,1.615206003E-1
8.380514150E-1,-7.167892456E-1,6.355628967E-1,1.327584833E-1
8.405391240E-1,-7.146587372E-1,6.078660488E-1,1.008005738E-1
8.430268320E-1,-7.082671523E-1,5.791039467E-1,6.777740270E-2
8.455145400E-1,-7.008103132E-1,5.503418446E-1,3.368896246E-2
8.480022490E-1,-6.890923977E-1,5.215796828E-1,-1.464737463E-3
8.504899570E-1,-6.752439737E-1,4.938828647E-1,-3.448791057E-2
8.529776650E-1,-6.581997871E-1,4.693817794E-1,-6.538055837E-2
8.554653740E-1,-6.390250325E-1,4.470112622E-1,-9.094688296E-2
8.579530820E-1,-6.187850237E-1,4.278365076E-1,-1.111868918E-1
8.604407900E-1,-5.964145064E-1,4.129228294E-1,-1.239700541E-1
8.629284990E-1,-5.729786754E-1,4.022701681E-1,-1.303616315E-1
8.654162070E-1,-5.484775901E-1,3.958786130E-1,-1.324921697E-1
8.679039150E-1,-5.229113102E-1,3.937480748E-1,-1.271658540E-1
8.703916240E-1,-4.973449707E-1,3.937480748E-1,-1.165132076E-1
8.728793320E-1,-4.717786312E-1,3.969438672E-1,-1.015995219E-1
8.753670400E-1,-4.472775757E-1,4.044007063E-1,-8.349003643E-2
8.778547490E-1,-4.238417745E-1,4.150533378E-1,-6.111950055E-2
8.803424570E-1,-4.004059732E-1,4.299670458E-1,-3.555317223E-2
8.828301650E-1,-3.801659644E-1,4.470112622E-1,-7.856319658E-3
8.853178740E-1,-3.609912097E-1,4.683165252E-1,2.303632535E-2
8.878055820E-1,-3.450122476E-1,4.928175807E-1,5.499423668E-2
8.902932900E-1,-3.311638236E-1,5.205144286E-1,8.801741153E-2
8.927810510E-1,-3.226417303E-1,5.492765903E-1,1.210405827E-1
8.952688110E-1,-3.194459379E-1,5.791039467E-1,1.529984921E-1
8.977565710E-1,-3.194459379E-1,6.089313030E-1,1.817606091E-1
9.002443320E-1,-3.258375227E-1,6.387587190E-1,2.062616795E-1
9.027320920E-1,-3.375554085E-1,6.675208211E-1,2.265016884E-1
9.052198530E-1,-3.535343707E-1,6.930871606E-1,2.382195890E-1
9.077076130E-1,-3.759049177E-1,7.165229321E-1,2.424806356E-1
9.101953740E-1,-4.025365114E-1,7.335671782E-1,2.371543199E-1
9.126831340E-1,-4.334291518E-1,7.452850938E-1,2.243711501E-1
9.151708940E-1,-4.675175846E-1,7.484808564E-1,2.020006180E-1
9.176586550E-1,-5.048018098E-1,7.442198396E-1,1.732385010E-1
9.201464150E-1,-5.420860648E-1,7.346324325E-1,1.370195299E-1
9.226341760E-1,-5.804355145E-1,7.186535001E-1,9.760478139E-2
9.251219360E-1,-6.198502779E-1,6.973482370E-1,5.499423668E-2
9.276096960E-1,-6.550039649E-1,6.728471518E-1,1.131842658E-2
9.300974570E-1,-6.848313808E-1,6.472808123E-1,-3.342264518E-2
9.325852170E-1,-7.093324065E-1,6.195839643E-1,-7.603318989E-2
9.350729780E-1,-7.263766527E-1,5.918871164E-1,-1.165132076E-1
9.375607380E-1,-7.338334918E-1,5.631250143E-1,-1.548627019E-1
9.400484990E-1,-7.338334918E-1,5.343628526E-1,-1.921469271E-1
9.425362590E-1,-7.263766527E-1,5.066660047E-1,-2.251701057E-1
9.450240190E-1,-7.125282288E-1,4.800344408E-1,-2.539322078E-1
9.475117800E-1,-6.912229657E-1,4.576638937E-1,-2.794985473E-1
9.499995400E-1,-6.656566262E-1,4.363586307E-1,-2.986733019E-1
9.524873010E-1,-6.336987019E-1,4.171838760E-1,-3.146522343E-1
9.549750610E-1,-5.985450149E-1,3.980091214E-1,-3.253048956E-1
9.574628210E-1,-5.591302514E-1,3.841606975E-1,-3.338269889E-1
9.599505820E-1,-5.186502337E-1,3.724428117E-1,-3.380880356E-1
9.624383420E-1,-4.760396779E-1,3.617901504E-1,-3.412838280E-1
9.649261030E-1,-4.323638678E-1,3.543333113E-1,-3.402185738E-1
9.674138630E-1,-3.918838501E-1,3.500722647E-1,-3.359575272E-1
9.699016240E-1,-3.514038324E-1,3.479417264E-1,-3.274354041E-1
9.723893840E-1,-3.151848912E-1,3.500722647E-1,-3.157175183E-1
9.748771440E-1,-2.821617126E-1,3.553985953E-1,-2.997385561E-1
9.773648530E-1,-2.533995807E-1,3.649859428E-1,-2.805638015E-1
9.798525610E-1,-2.288985252E-1,3.788343966E-1,-2.603237927E-1
9.823402690E-1,-2.097237855E-1,3.937480748E-1,-2.358227372E-1
9.848279780E-1,-1.958753467E-1,4.118575454E-1,-2.091911435E-1
9.873156860E-1,-1.873532385E-1,4.320975542E-1,-1.836248189E-1
9.898033940E-1,-1.852227151E-1,4.523375630E-1,-1.580584943E-1
9.922911030E-1,-1.884185076E-1,4.736428559E-1,-1.356879622E-1
9.947788110E-1,-1.969406158E-1,4.928175807E-1,-1.175784767E-1
9.972665190E-1,-2.097237855E-1,5.109270811E-1,-1.037300453E-1
9.997542280E-1,-2.278332561E-1,5.247755051E-1,-9.733846784E-2
1.002241936E0,-2.523343265E-1,5.343628526E-1,-9.520793706E-2
1.004729644E0,-2.779006660E-1,5.396891832E-1,-1.005342528E-1
1.007217353E0,-3.066627681E-1,5.396891832E-1,-1.122521535E-1
1.009705061E0,-3.364901543E-1,5.343628526E-1,-1.303616315E-1
1.012192769E0,-3.663175404E-1,5.247755051E-1,-1.527321786E-1
1.014680478E0,-3.961449265E-1,5.119923353E-1,-1.825595498E-1
1.017168186E0,-4.249070287E-1,4.970786572E-1,-2.177132517E-1
1.019655894E0,-4.504733682E-1,4.789691567E-1,-2.560627460E-1
1.022143603E0,-4.717786312E-1,4.597944319E-1,-2.997385561E-1
1.024631311E0,-4.898881316E-1,4.395544231E-1,-3.466101587E-1
1.027119019E0,-5.037365556E-1,4.193144143E-1,-3.945470154E-1
1.029606728E0,-5.143891573E-1,3.990744054E-1,-4.446144104E-1
1.032094436E0,-5.207807422E-1,3.809649050E-1,-4.946818054E-1
1.034582144E0,-5.271723270E-1,3.660512269E-1,-5.458144546E-1
1.037069853E0,-5.324986577E-1,3.564638495E-1,-5.958818197E-1
1.039557561E0,-5.388902426E-1,3.511375189E-1,-6.448839903E-1
1.042045269E0,-5.484775901E-1,3.511375189E-1,-6.896250248E-1
1.044532978E0,-5.612607598E-1,3.564638495E-1,-7.290397882E-1
1.047020686E0,-5.804355145E-1,3.660512269E-1,-7.599324584E-1
1.049508394E0,-6.060018539E-1,3.777691126E-1,-7.823029757E-1
1.051996103E0,-6.379597783E-1,3.937480748E-1,-7.940208912E-1
1.054483811E0,-6.773745418E-1,4.107922912E-1,-7.972166538E-1
1.056971519E0,-7.231808305E-1,4.299670458E-1,-7.897598147E-1
1.059459228E0,-7.753787637E-1,4.491417706E-1,-7.737808824E-1
1.061946936E0,-8.329030275E-1,4.693817794E-1,-7.514103651E-1
1.064434644E0,-8.936230540E-1,4.896217883E-1,-7.237134576E-1
1.066922353E0,-9.543430805E-1,5.109270811E-1,-6.917555928E-1
1.069410061E0,-1.015063047E0,5.311670899E-1,-6.555365920E-1
1.071897769E0,-1.070456743E0,5.514070988E-1,-6.182523966E-1
1.074385478E0,-1.119458914E0,5.705818534E-1,-5.809681416E-1
1.076873186E0,-1.161004186E0,5.865607858E-1,-5.426186919E-1
1.079360894E0,-1.194027424E0,6.014744639E-1,-5.053344369E-1
1.081848603E0,-1.216397882E0,6.131923795E-1,-4.712460041E-1
1.084336311E0,-1.229181051E0,6.238450408E-1,-4.403533638E-1
1.086824019E0,-1.231311560E0,6.323671341E-1,-4.137217700E-1
1.089311728E0,-1.221724272E0,6.398239732E-1,-3.924165070E-1
1.091799436E0,-1.200418949E0,6.462155581E-1,-3.785680532E-1
1.094287144E0,-1.169526339E0,6.515418887E-1,-3.721764982E-1
1.096774853E0,-1.127981067E0,6.547376513E-1,-3.732417524E-1
1.099262561E0,-1.075783134E0,6.558029056E-1,-3.806985915E-1
1.101750269E0,-1.015063047E0,6.547376513E-1,-3.934817612E-1
1.104237978E0,-9.447556734E-1,6.526071429E-1,-4.126565158E-1
1.106725686E0,-8.680567145E-1,6.494113207E-1,-4.392880797E-1
1.109213394E0,-7.870966792E-1,6.440850496E-1,-4.712460041E-1
1.111701103E0,-7.040061355E-1,6.355628967E-1,-5.085302591E-1
1.114188811E0,-6.198502779E-1,6.249102950E-1,-5.500755310E-1
1.116676519E0,-5.367597342E-1,6.121271253E-1,-5.937513113E-1
1.119164228E0,-4.568649530E-1,5.950828791E-1,-6.384924054E-1
1.121651936E0,-3.801659644E-1,5.748428702E-1,-6.821681857E-1
1.124139644E0,-3.077280223E-1,5.524723530E-1,-7.215829492E-1
1.126627353E0,-2.406164259E-1,5.269060135E-1,-7.567366362E-1
1.129115061E0,-1.820269227E-1,5.013396740E-1,-7.865640521E-1
1.131602769E0,-1.319595277E-1,4.768386483E-1,-8.110650778E-1
1.134090478E0,-9.041424841E-2,4.523375630E-1,-8.281093240E-1
1.136578186E0,-6.058686972E-2,4.289017618E-1,-8.387619853E-1
1.139065894E0,-4.141212255E-2,4.054659605E-1,-8.419577479E-1
1.141553603E0,-3.075948730E-2,3.852259517E-1,-8.398272395E-1
1.144041311E0,-3.075948730E-2,3.681817353E-1,-8.302398324E-1
1.146529019E0,-3.821633384E-2,3.564638495E-1,-8.142609000E-1
1.149016728E0,-5.313002318E-2,3.479417264E-1,-7.950861454E-1
1.151504436E0,-7.230477035E-2,3.447459340E-1,-7.727156281E-1
1.153992144E0,-9.787109494E-2,3.447459340E-1,-7.492797971E-1
1.156479853E0,-1.276984811E-1,3.468764722E-1,-7.247787714E-1
1.158967561E0,-1.596563905E-1,3.511375189E-1,-7.013429403E-1
1.161455269E0,-1.958753467E-1,3.553985953E-1,-6.789724231E-1
1.163942978E0,-2.320943177E-1,3.607248962E-1,-6.576671600E-1
1.166430686E0,-2.683132887E-1,3.660512269E-1,-6.395576596E-1
1.168918394E0,-3.013364673E-1,3.703122735E-1,-6.235787272E-1
1.171406103E0,-3.279680312E-1,3.745733202E-1,-6.097303033E-1
1.173893811E0,-3.503385782E-1,3.788343966E-1,-6.001428962E-1
1.176381519E0,-3.652522564E-1,3.798996508E-1,-5.948165655E-1
1.178869228E0,-3.748396337E-1,3.809649050E-1,-5.937513113E-1
1.181356936E0,-3.780354261E-1,3.798996508E-1,-5.969471335E-1
1.183844644E0,-3.759049177E-1,3.777691126E-1,-6.054692268E-1
1.186332353E0,-3.673827946E-1,3.745733202E-1,-6.161218882E-1
1.188820061E0,-3.514038324E-1,3.703122735E-1,-6.278397441E-1
1.191307769E0,-3.300985694E-1,3.639206886E-1,-6.395576596E-1
1.193795478E0,-3.002711833E-1,3.564638495E-1,-6.523408294E-1
1.196283186E0,-2.651174963E-1,3.479417264E-1,-6.640587449E-1
1.198770946E0,-2.257027328E-1,3.372890949E-1,-6.747113466E-1
1.201258707E0,-1.820269227E-1,3.245059252E-1,-6.842987537E-1
1.203746467E0,-1.362205893E-1,3.117227852E-1,-6.928208470E-1
1.206234228E0,-9.041424841E-2,2.968090773E-1,-7.002776861E-1
1.208721988E0,-4.460791498E-2,2.840259075E-1,-7.066692710E-1
1.211209749E0,-9.321057005E-4,2.691122293E-1,-7.109303474E-1
1.213697509E0,3.848264739E-2,2.541985512E-1,-7.130608559E-1
1.216185269E0,7.576687634E-2,2.392848432E-1,-7.119956017E-1
1.218673030E0,1.077247858E-1,2.243711501E-1,-7.087997794E-1
1.221160790E0,1.354216337E-1,2.094574571E-1,-7.024081945E-1
1.223648551E0,1.577921808E-1,1.945437789E-1,-6.928208470E-1
1.226136311E0,1.748363972E-1,1.796300858E-1,-6.821681857E-1
1.228624071E0,1.865542978E-1,1.668469161E-1,-6.693850160E-1
1.231111832E0,1.940111369E-1,1.529984921E-1,-6.576671600E-1
1.233599592E0,1.950764060E-1,1.412805915E-1,-6.459492445E-1
1.236087353E0,1.918806136E-1,1.284974217E-1,-6.342313290E-1
1.238575113E0,1.844237745E-1,1.167795286E-1,-6.225134134E-1
1.241062874E0,1.737711281E-1,1.061268896E-1,-6.129260659E-1
1.243550634E0,1.588574350E-1,9.653951973E-2,-6.033387184E-1
1.246038394E0,1.407479644E-1,8.801741153E-2,-5.969471335E-1
1.248526155E0,1.194426864E-1,8.269108832E-2,-5.937513113E-1
1.251013915E0,9.707214683E-2,7.843003422E-2,-5.916208029E-1
1.253501676E0,7.257108390E-2,7.736477256E-2,-5.916208029E-1
1.255989436E0,4.913528636E-2,7.736477256E-2,-5.926860571E-1
1.258477196E0,2.889527567E-2,8.162582666E-2,-5.948165655E-1
1.260964957E0,9.720530361E-3,8.695214242E-2,-5.990776420E-1
1.263452717E0,-8.388951421E-3,9.440898895E-2,-6.033387184E-1
1.265940478E0,-2.330264263E-2,1.018658355E-1,-6.086649895E-1
1.268428238E0,-3.715106845E-2,1.103879437E-1,-6.150565743E-1
1.270915999E0,-4.993423447E-2,1.178447902E-1,-6.225134134E-1
1.273403759E0,-6.058686972E-2,1.263668984E-1,-6.289049983E-1
1.275891519E0,-7.123950869E-2,1.338237375E-1,-6.352965832E-1
1.278379280E0,-7.869634777E-2,1.402153224E-1,-6.416881680E-1
1.280867040E0,-8.615319431E-2,1.466069072E-1,-6.470144987E-1
1.283354749E0,-9.254477918E-2,1.498026997E-1,-6.523408294E-1
1.285842457E0,-9.787109494E-2,1.508679688E-1,-6.555365920E-1
1.288330165E0,-1.021321490E-1,1.487374306E-1,-6.587324142E-1
1.290817874E0,-1.063932031E-1,1.434111148E-1,-6.597976685E-1
1.293305582E0,-1.095889956E-1,1.348890066E-1,-6.597976685E-1
1.295793290E0,-1.127847880E-1,1.253016293E-1,-6.587324142E-1
1.298280999E0,-1.149153188E-1,1.146489978E-1,-6.566019058E-1
1.300768707E0,-1.149153188E-1,1.039963663E-1,-6.534060836E-1
1.303256415E0,-1.127847880E-1,9.440898895E-2,-6.480797529E-1
1.305744124E0,-1.074584723E-1,8.482161909E-2,-6.406229138E-1
1.308231832E0,-9.893636405E-2,7.629951090E-2,-6.310355663E-1
1.310719540E0,-8.828372508E-2,6.884266436E-2,-6.203829050E-1
1.313207249E0,-7.337003201E-2,6.458161026E-2,-6.065344810E-1
1.315694957E0,-5.419528857E-2,6.138581783E-2,-5.926860571E-1
1.318182665E0,-3.395527974E-2,6.138581783E-2,-5.788376331E-1
1.320670374E0,-1.158474199E-2,6.351634115E-2,-5.639239550E-1
1.323158082E0,1.185105834E-2,6.671213359E-2,-5.511407852E-1
1.325645790E0,3.422159329E-2,7.097318769E-2,-5.404881239E-1
1.328133499E0,5.765739456E-2,7.629951090E-2,-5.309007764E-1
1.330621207E0,8.002793044E-2,8.269108832E-2,-5.255744457E-1
1.333108915E0,1.002679393E-1,8.908267319E-2,-5.213133693E-1
1.335596624E0,1.173121557E-1,9.653951973E-2,-5.213133693E-1
1.338084332E0,1.322258562E-1,1.061268896E-1,-5.223786831E-1
1.340572040E0,1.428784877E-1,1.146489978E-1,-5.255744457E-1
1.343059749E0,1.503353268E-1,1.231711060E-1,-5.309007764E-1
1.345547457E0,1.524658650E-1,1.306279600E-1,-5.372923613E-1
1.348035165E0,1.492700726E-1,1.380847991E-1,-5.458144546E-1
1.350522874E0,1.418132186E-1,1.455416381E-1,-5.543365479E-1
1.353010582E0,1.290300637E-1,1.519332230E-1,-5.649892092E-1
1.355498290E0,1.109205782E-1,1.604553312E-1,-5.767071247E-1
1.357985999E0,8.535424620E-2,1.711079776E-1,-5.894902945E-1
1.360473707E0,5.552686751E-2,1.817606091E-1,-6.033387184E-1
1.362961415E0,1.930790395E-2,1.934785098E-1,-6.171871424E-1
1.365449124E0,-1.904158667E-2,2.041311413E-1,-6.310355663E-1
1.367936832E0,-6.271740049E-2,2.147837877E-1,-6.448839903E-1
1.370424540E0,-1.085237339E-1,2.254364192E-1,-6.576671600E-1
1.372912249E0,-1.575258672E-1,2.350237966E-1,-6.693850160E-1
1.375399957E0,-2.075932473E-1,2.446111590E-1,-6.800376773E-1
1.377887665E0,-2.597911656E-1,2.541985512E-1,-6.874945164E-1
1.380375374E0,-3.141196072E-1,2.648511827E-1,-6.938861012E-1
1.382863082E0,-3.684480488E-1,2.744385600E-1,-6.960166097E-1
1.385350790E0,-4.217112362E-1,2.840259075E-1,-6.949513555E-1
1.387838499E0,-4.749744236E-1,2.925480306E-1,-6.896250248E-1
1.390326207E0,-5.282375813E-1,2.989396155E-1,-6.800376773E-1
1.392813915E0,-5.815007687E-1,3.042659163E-1,-6.672545075E-1
1.395301624E0,-6.326334476E-1,3.074617088E-1,-6.502103209E-1
1.397789332E0,-6.827008128E-1,3.095922470E-1,-6.289049983E-1
1.400277040E0,-7.317029834E-1,3.085269928E-1,-6.044039726E-1
1.402764749E0,-7.775092721E-1,3.032006621E-1,-5.767071247E-1
1.405252457E0,-8.222503662E-1,2.957438231E-1,-5.447492003E-1
1.407740165E0,-8.627303839E-1,2.829606533E-1,-5.106607676E-1
1.410227874E0,-8.989493847E-1,2.680469751E-1,-4.733765423E-1
1.412715582E0,-9.309072495E-1,2.510027587E-1,-4.360923171E-1
1.415203290E0,-9.564735889E-1,2.328932583E-1,-3.988080621E-1
1.417690999E0,-9.756483436E-1,2.158490419E-1,-3.636543751E-1
1.420178707E0,-9.884315133E-1,1.998700947E-1,-3.285006881E-1
1.422666415E0,-9.916272759E-1,1.881521940E-1,-2.976080179E-1
1.425154124E0,-9.873662591E-1,1.806953400E-1,-2.677806616E-1
1.427641832E0,-9.745830894E-1,1.774995476E-1,-2.400837988E-1
1.430129540E0,-9.543430805E-1,1.774995476E-1,-2.145174593E-1
1.432617249E0,-9.255809188E-1,1.796300858E-1,-1.900164038E-1
1.435104957E0,-8.904272318E-1,1.838911325E-1,-1.687111259E-1
1.437592665E0,-8.499472141E-1,1.902827173E-1,-1.495363861E-1
1.440080374E0,-8.062714338E-1,1.988048255E-1,-1.303616315E-1
1.442568082E0,-7.572692633E-1,2.105227262E-1,-1.133174226E-1
1.445055790E0,-7.061366439E-1,2.243711501E-1,-9.627319872E-2
1.447543499E0,-6.539387107E-1,2.392848432E-1,-8.029424399E-2
1.450031207E0,-6.017407775E-1,2.552638054E-1,-6.431528926E-2
1.452518915E0,-5.516734123E-1,2.723080218E-1,-5.259739235E-2
1.455006624E0,-5.037365556E-1,2.893522382E-1,-4.194475710E-2
1.457494332E0,-4.589954615E-1,3.053312004E-1,-3.129211813E-2
1.459982040E0,-4.185154438E-1,3.202448785E-1,-1.957421936E-2
1.462469749E0,-3.812312186E-1,3.308975101E-1,-7.856319658E-3
1.464957457E0,-3.492733240E-1,3.383543491E-1,3.861580743E-3
1.467445165E0,-3.215764761E-1,3.415501416E-1,1.557948068E-2
1.469932874E0,-2.981406748E-1,3.394196332E-1,2.729738131E-2
1.472420582E0,-2.779006660E-1,3.330280483E-1,3.795001656E-2
1.474908290E0,-2.608564198E-1,3.245059252E-1,4.966791719E-2
1.477395999E0,-2.459427416E-1,3.117227852E-1,6.245107949E-2
1.479883707E0,-2.331595868E-1,2.989396155E-1,7.629951090E-2
1.482371415E0,-2.193111479E-1,2.861564457E-1,9.121319652E-2
1.484859124E0,-2.033322006E-1,2.733732760E-1,1.071921512E-1
1.487346832E0,-1.873532385E-1,2.616553903E-1,1.242363751E-1
1.489834540E0,-1.692437679E-1,2.520680130E-1,1.434111148E-1
1.492322249E0,-1.479384899E-1,2.414153665E-1,1.636511236E-1
1.494809957E0,-1.245026886E-1,2.307627350E-1,1.849564016E-1
1.497297665E0,-9.680583328E-2,2.201101035E-1,2.073269337E-1
1.499785374E0,-6.697845459E-2,2.105227262E-1,2.307627350E-1
1.502273082E0,-3.502054140E-2,2.009353489E-1,2.552638054E-1
1.504760842E0,-3.062632866E-3,1.924132407E-1,2.808301151E-1
1.507248603E0,2.996053919E-2,1.849564016E-1,3.053312004E-1
1.509736363E0,6.298371404E-2,1.785648167E-1,3.277017176E-1
1.512224124E0,9.494162351E-2,1.732385010E-1,3.490070105E-1
1.514711884E0,1.279647946E-1,1.700427085E-1,3.671164811E-1
1.517199644E0,1.567269117E-1,1.679121852E-1,3.820301592E-1
1.519687405E0,1.844237745E-1,1.657816470E-1,3.926828206E-1
1.522175165E0,2.099900991E-1,1.647163928E-1,4.012049139E-1
1.524662926E0,2.312953621E-1,1.657816470E-1,4.065312445E-1
1.527150686E0,2.494048476E-1,1.657816470E-1,4.086617529E-1
1.529638446E0,2.643185556E-1,1.668469161E-1,4.107922912E-1
1.532126207E0,2.739059031E-1,1.657816470E-1,4.097270370E-1
1.534613967E0,2.771016955E-1,1.636511236E-1,4.075964987E-1
1.537101728E0,2.739059031E-1,1.593900770E-1,4.054659605E-1
1.539589488E0,2.653838098E-1,1.529984921E-1,4.044007063E-1
1.542077249E0,2.504701018E-1,1.444763839E-1,4.044007063E-1
1.544565009E0,2.302301079E-1,1.338237375E-1,4.044007063E-1
1.547052769E0,2.046637833E-1,1.199753210E-1,4.075964987E-1
1.549540530E0,1.737711281E-1,1.050616279E-1,4.118575454E-1
1.552028290E0,1.375521719E-1,8.801741153E-2,4.193144143E-1
1.554516051E0,9.920267761E-2,7.097318769E-2,4.289017618E-1
1.557003811E0,5.978792161E-2,5.392897129E-2,4.416849315E-1
1.559491571E0,2.037316747E-2,3.901528195E-2,4.555333555E-1
1.561979332E0,-1.904158667E-2,2.729738131E-2,4.704470634E-1
1.564467092E0,-5.526055023E-2,1.877527125E-2,4.853607416E-1
1.566954853E0,-8.615319431E-2,1.131842658E-2,5.002744198E-1
1.569442613E0,-1.117195264E-1,8.122635074E-3,5.162534118E-1
1.571930374E0,-1.276984811E-1,9.187898599E-3,5.301018357E-1
1.574418134E0,-1.372858584E-1,1.131842658E-2,5.428850055E-1
1.576905894E0,-1.383511126E-1,1.771000773E-2,5.535376072E-1
1.579393655E0,-1.319595277E-1,2.623211779E-2,5.631250143E-1
1.581881415E0,-1.181111038E-1,3.688475490E-2,5.684512854E-1
1.584369176E0,-9.680583328E-2,4.860265180E-2,5.727123618E-1
1.586856936E0,-6.804371625E-2,6.138581783E-2,5.705818534E-1
1.589344644E0,-3.182475269E-2,7.310371846E-2,5.673860312E-1
1.591832353E0,9.720530361E-3,8.375635743E-2,5.577986836E-1
1.594320061E0,5.446160212E-2,9.440898895E-2,5.428850055E-1
1.596807769E0,1.023984700E-1,1.050616279E-1,5.226449966E-1
1.599295478E0,1.514005959E-1,1.146489978E-1,4.981439114E-1
1.601783186E0,1.993374527E-1,1.242363751E-1,4.683165252E-1
1.604270894E0,2.451438010E-1,1.348890066E-1,4.352933466E-1
1.606758603E0,2.877543271E-1,1.444763839E-1,3.990744054E-1
1.609246311E0,3.282343447E-1,1.529984921E-1,3.607248962E-1
1.611734019E0,3.623228073E-1,1.604553312E-1,3.213101327E-1
1.614221728E0,3.921501637E-1,1.636511236E-1,2.818953991E-1
1.616709436E0,4.166512489E-1,1.657816470E-1,2.446111590E-1
1.619197144E0,4.347607195E-1,1.647163928E-1,2.105227262E-1
1.621684853E0,4.454133511E-1,1.604553312E-1,1.774995476E-1
1.624172561E0,4.486091435E-1,1.540637612E-1,1.487374306E-1
1.626660269E0,4.432828426E-1,1.444763839E-1,1.253016293E-1
1.629147978E0,4.315649271E-1,1.316932142E-1,1.093226820E-1
1.631635686E0,4.123901725E-1,1.157142594E-1,9.973530471E-2
1.634123394E0,3.857586086E-1,9.867004305E-2,9.760478139E-2
1.636611103E0,3.527354300E-1,8.056056499E-2,1.029310971E-1
1.639098811E0,3.143859208E-1,6.032055244E-2,1.146489978E-1
1.641586519E0,2.717753947E-1,4.008054361E-2,1.316932142E-1
1.644074228E0,2.259690464E-1,2.197106183E-2,1.540637612E-1
1.646561936E0,1.790974438E-1,4.926844500E-3,1.785648167E-1
1.649049644E0,1.332911104E-1,-1.105211023E-2,2.062616795E-1
1.651537353E0,8.855003864E-2,-2.596580051E-2,2.371543199E-1
1.654025061E0,4.807002097E-2,-3.768370301E-2,2.691122293E-1
1.656512769E0,1.398158539E-2,-4.514054582E-2,3.032006621E-1
1.659000478E0,-1.478053257E-2,-4.940159991E-2,3.383543491E-1
1.661488186E0,-3.715106845E-2,-4.833633825E-2,3.745733202E-1
1.663975894E0,-5.099949613E-2,-4.194475710E-2,4.097270370E-1
1.666463603E0,-5.739107728E-2,-3.235738352E-2,4.448807240E-1
1.668951311E0,-5.739107728E-2,-1.850895584E-2,4.789691567E-1
1.671439019E0,-4.993423447E-2,-1.464737463E-3,5.119923353E-1
1.673926728E0,-3.608580679E-2,1.664474420E-2,5.418196917E-1
1.676414436E0,-1.584579609E-2,3.475422785E-2,5.684512854E-1
1.678902144E0,8.655266836E-3,5.073318258E-2,5.908218622E-1
1.681389853E0,3.741738573E-2,6.564687192E-2,6.078660488E-1
1.683877561E0,6.831002980E-2,7.629951090E-2,6.217144728E-1
1.686365269E0,1.013332009E-1,8.482161909E-2,6.291713119E-1
1.688852978E0,1.343563795E-1,8.908267319E-2,6.323671341E-1
1.691340686E0,1.673795432E-1,8.908267319E-2,6.323671341E-1
1.693828394E0,2.004027218E-1,8.695214242E-2,6.281060576E-1
1.696316103E0,2.312953621E-1,7.949529588E-2,6.217144728E-1
1.698803811E0,2.589922249E-1,7.097318769E-2,6.142576337E-1
1.701291519E0,2.845585644E-1,5.925529078E-2,6.036050320E-1
1.703779228E0,3.079943359E-1,4.327633604E-2,5.929523706E-1
1.706266936E0,3.271690905E-1,2.623211779E-2,5.812344551E-1
1.708754644E0,3.431480527E-1,5.992108025E-3,5.695165992E-1
1.711242353E0,3.548659384E-1,-1.637842879E-2,5.588639379E-1
1.713730061E0,3.623228073E-1,-4.194475710E-2,5.460807681E-1
1.716217769E0,3.665838540E-1,-6.964161247E-2,5.322323442E-1
1.718705478E0,3.644533157E-1,-9.733846784E-2,5.173186660E-1
1.721193186E0,3.591270149E-1,-1.261005849E-1,5.013396740E-1
1.723680894E0,3.506048918E-1,-1.548627019E-1,4.842954874E-1
1.726168603E0,3.388870060E-1,-1.814942956E-1,4.672512710E-1
1.728656311E0,3.250385821E-1,-2.081258893E-1,4.502070546E-1
1.731144019E0,3.090596199E-1,-2.315616906E-1,4.320975542E-1
1.733631728E0,2.920154035E-1,-2.518016994E-1,4.139880836E-1
1.736119436E0,2.760364413E-1,-2.677806616E-1,3.969438672E-1
1.738607144E0,2.600574791E-1,-2.794985473E-1,3.809649050E-1
1.741094853E0,2.472743243E-1,-2.858901322E-1,3.660512269E-1
1.743582561E0,2.366216928E-1,-2.858901322E-1,3.543333113E-1
1.746070269E0,2.291648388E-1,-2.816290855E-1,3.458112180E-1
1.748557978E0,2.270343155E-1,-2.741722167E-1,3.404848874E-1
1.751045686E0,2.291648388E-1,-2.624543309E-1,3.404848874E-1
1.753533394E0,2.344911546E-1,-2.475406379E-1,3.468764722E-1
1.756021103E0,2.451438010E-1,-2.294311523E-1,3.585943878E-1
1.758508811E0,2.579269707E-1,-2.081258893E-1,3.745733202E-1
1.760996519E0,2.728406489E-1,-1.857553422E-1,3.958786130E-1
1.763484228E0,2.888196111E-1,-1.623195410E-1,4.193144143E-1
1.765971936E0,3.058638275E-1,-1.410142779E-1,4.438154697E-1
1.768459644E0,3.218427896E-1,-1.218395308E-1,4.693817794E-1
1.770947353E0,3.356912136E-1,-1.047953144E-1,4.960133731E-1
1.773435061E0,3.463438451E-1,-9.094688296E-2,5.215796828E-1
1.775922769E0,3.538006842E-1,-8.029424399E-2,5.439502597E-1
1.778410478E0,3.591270149E-1,-7.390266657E-2,5.652555227E-1
1.780898186E0,3.601922691E-1,-7.070687413E-2,5.844302773E-1
1.783385894E0,3.569964767E-1,-6.964161247E-2,6.004092097E-1
1.785873603E0,3.506048918E-1,-7.070687413E-2,6.121271253E-1
1.788361311E0,3.420827985E-1,-7.603318989E-2,6.217144728E-1
1.790849019E0,3.303648829E-1,-8.349003643E-2,6.281060576E-1
1.793336728E0,3.154512048E-1,-9.307741374E-2,6.323671341E-1
1.795824436E0,3.005374968E-1,-1.090563685E-1,6.323671341E-1
1.798312144E0,2.834932804E-1,-1.271658540E-1,6.281060576E-1
1.800799853E0,2.685796022E-1,-1.516669095E-1,6.217144728E-1
1.803287561E0,2.536658943E-1,-1.793637723E-1,6.099966168E-1
1.805775269E0,2.398174703E-1,-2.123869359E-1,5.972134471E-1
1.808262978E0,2.291648388E-1,-2.454101145E-1,5.801692009E-1
1.810750686E0,2.195774615E-1,-2.752375007E-1,5.599291921E-1
1.813238394E0,2.131858915E-1,-3.018690944E-1,5.375586748E-1
1.815726155E0,2.089248300E-1,-3.242396116E-1,5.151881576E-1
1.818213915E0,2.078595608E-1,-3.391533196E-1,4.917523265E-1
1.820701676E0,2.099900991E-1,-3.476754129E-1,4.683165252E-1
1.823189436E0,2.142511457E-1,-3.487406969E-1,4.459459782E-1
1.825677196E0,2.217079997E-1,-3.444796205E-1,4.267712533E-1
1.828164957E0,2.334259003E-1,-3.359575272E-1,4.118575454E-1
1.830652717E0,2.462090552E-1,-3.242396116E-1,4.012049139E-1
1.833140478E0,2.611227632E-1,-3.093259335E-1,3.980091214E-1
1.835628238E0,2.771016955E-1,-2.933469713E-1,3.990744054E-1
1.838115999E0,2.909501195E-1,-2.752375007E-1,4.054659605E-1
1.840603759E0,3.026680350E-1,-2.549974918E-1,4.171838760E-1
1.843091519E0,3.122554123E-1,-2.347574681E-1,4.320975542E-1
1.845579280E0,3.175817132E-1,-2.123869359E-1,4.491417706E-1
1.848067040E0,3.175817132E-1,-1.900164038E-1,4.693817794E-1
1.850554801E0,3.154512048E-1,-1.676458716E-1,4.917523265E-1
1.853042561E0,3.079943359E-1,-1.452753246E-1,5.141228437E-1
1.855530321E0,2.973417044E-1,-1.261005849E-1,5.364934206E-1
1.858018082E0,2.845585644E-1,-1.069258377E-1,5.577986836E-1
1.860505842E0,2.696448565E-1,-9.094688296E-2,5.780386925E-1
1.862993603E0,2.526006401E-1,-7.709845901E-2,5.972134471E-1
1.865481363E0,2.323606312E-1,-6.644582003E-2,6.142576337E-1
1.867969124E0,2.099900991E-1,-5.898897350E-2,6.291713119E-1
1.870456884E0,1.865542978E-1,-5.472791940E-2,6.419544816E-1
1.872944644E0,1.609879732E-1,-5.472791940E-2,6.526071429E-1
1.875432405E0,1.375521719E-1,-5.792371184E-2,6.621944904E-1
1.877920165E0,1.151816323E-1,-6.431528926E-2,6.685860753E-1
1.880407926E0,9.600688517E-2,-7.283740491E-2,6.739124060E-1
1.882895686E0,7.896266878E-2,-8.455529809E-2,6.749776602E-1
1.885383446E0,6.511423737E-2,-9.627319872E-2,6.717818975E-1
1.887871207E0,5.446160212E-2,-1.101216301E-1,6.643250585E-1
1.890358967E0,4.913528636E-2,-1.261005849E-1,6.504766345E-1
1.892846728E0,5.020054802E-2,-1.420795321E-1,6.302366257E-1
1.895334488E0,5.552686751E-2,-1.569932252E-1,6.046702862E-1
1.897822249E0,6.724476814E-2,-1.719069183E-1,5.737776160E-1
1.900309957E0,8.322372288E-2,-1.846900880E-1,5.375586748E-1
1.902797665E0,1.013332009E-1,-1.964079887E-1,4.970786572E-1
1.905285374E0,1.237037405E-1,-2.049300969E-1,4.565986395E-1
1.907773082E0,1.492700726E-1,-2.113216817E-1,4.161186218E-1
1.910260790E0,1.759016514E-1,-2.145174593E-1,3.820301592E-1
1.912748499E0,2.057290375E-1,-2.155827284E-1,3.532680571E-1
1.915236207E0,2.334259003E-1,-2.145174593E-1,3.308975101E-1
1.917723915E0,2.621880174E-1,-2.113216817E-1,3.159838319E-1
1.920211624E0,2.866890728E-1,-2.059953511E-1,3.074617088E-1
1.922699332E0,3.069290817E-1,-1.985385120E-1,3.063964546E-1
1.925187040E0,3.207775056E-1,-1.900164038E-1,3.095922470E-1
1.927674749E0,3.292996287E-1,-1.793637723E-1,3.181143403E-1
1.930162457E0,3.314301372E-1,-1.687111259E-1,3.308975101E-1
1.932650165E0,3.271690905E-1,-1.569932252E-1,3.458112180E-1
1.935137874E0,3.154512048E-1,-1.452753246E-1,3.639206886E-1
1.937625582E0,2.952111959E-1,-1.346226931E-1,3.852259517E-1
1.940113290E0,2.707101107E-1,-1.250353158E-1,4.075964987E-1
1.942600999E0,2.387522161E-1,-1.175784767E-1,4.331628382E-1
1.945088707E0,2.014679909E-1,-1.111868918E-1,4.597944319E-1
1.947576415E0,1.599227041E-1,-1.069258377E-1,4.896217883E-1
1.950064124E0,1.141163707E-1,-1.037300453E-1,5.194491744E-1
1.952551832E0,6.831002980E-2,-1.015995219E-1,5.503418446E-1
1.955039540E0,2.356895804E-2,-9.840372950E-2,5.801692009E-1
1.957527249E0,-1.797632314E-2,-9.307741374E-2,6.078660488E-1
1.960014957E0,-5.739107728E-2,-8.562056720E-2,6.291713119E-1
1.962502665E0,-9.147951752E-2,-7.816372067E-2,6.408892274E-1
1.964990374E0,-1.245026886E-1,-7.177213579E-2,6.440850496E-1
1.967478082E0,-1.521995366E-1,-6.751108170E-2,6.355628967E-1
1.969965790E0,-1.756353378E-1,-6.644582003E-2,6.174534559E-1
1.972453499E0,-1.948100924E-1,-6.644582003E-2,5.929523706E-1
1.974941207E0,-2.075932473E-1,-6.751108170E-2,5.609944463E-1
1.977428915E0,-2.139848322E-1,-6.857634336E-2,5.247755051E-1
1.979916624E0,-2.129195631E-1,-6.964161247E-2,4.832302332E-1
1.982404332E0,-2.054627240E-1,-7.070687413E-2,4.406196773E-1
1.984892040E0,-1.916143000E-1,-7.390266657E-2,3.980091214E-1
1.987379749E0,-1.724395454E-1,-7.816372067E-2,3.553985953E-1
1.989867457E0,-1.490037590E-1,-8.455529809E-2,3.138532937E-1
1.992355165E0,-1.202416345E-1,-9.307741374E-2,2.755038142E-1
1.994842874E0,-8.934898674E-2,-1.026647836E-1,2.414153665E-1
1.997330582E0,-5.526055023E-2,-1.122521535E-1,2.115879953E-1
1.999818290E0,-1.904158667E-2,-1.207742617E-1,1.870869249E-1
2.002305999E0,1.824264042E-2,-1.271658540E-1,1.668469161E-1
2.004793707E0,5.446160212E-2,-1.303616315E-1,1.529984921E-1
2.007281415E0,8.961530030E-2,-1.303616315E-1,1.434111148E-1
2.009769124E0,1.194426864E-1,-1.271658540E-1,1.391500682E-1
2.012256832E0,1.450090110E-1,-1.207742617E-1,1.402153224E-1
2.014744540E0,1.631184965E-1,-1.122521535E-1,1.455416381E-1
2.017232249E0,1.727058738E-1,-1.015995219E-1,1.551290154E-1
2.019719957E0,1.748363972E-1,-8.881635964E-2,1.711079776E-1
2.022207665E0,1.673795432E-1,-7.390266657E-2,1.892174482E-1
2.024695374E0,1.492700726E-1,-5.898897350E-2,2.126532495E-1
2.027183082E0,1.205079481E-1,-3.981423005E-2,2.371543199E-1
2.029670790E0,8.109319210E-2,-1.957421936E-2,2.637858987E-1
2.032158499E0,3.422159329E-2,6.657897611E-4,2.936132848E-1
2.034646207E0,-1.904158667E-2,1.984053478E-2,3.223754168E-1
2.037133915E0,-7.976161689E-2,3.688475490E-2,3.490070105E-1
2.039621624E0,-1.426121742E-1,4.966791719E-2,3.735080659E-1
2.042109332E0,-2.086585164E-1,6.032055244E-2,3.937480748E-1
2.044597040E0,-2.747048736E-1,6.671213359E-2,4.086617529E-1
2.047084749E0,-3.396859467E-1,7.203845680E-2,4.193144143E-1
2.049572457E0,-3.993407190E-1,7.523424178E-2,4.246407151E-1
2.052060165E0,-4.547344148E-1,7.843003422E-2,4.235754609E-1
2.054547874E0,-5.048018098E-1,8.162582666E-2,4.150533378E-1
2.057035582E0,-5.474123359E-1,8.588688076E-2,4.001396596E-1
2.059523290E0,-5.825660825E-1,8.908267319E-2,3.788343966E-1
2.062010999E0,-6.102629304E-1,9.121319652E-2,3.522028029E-1
2.064498707E0,-6.294376254E-1,9.334372729E-2,3.202448785E-1
2.066986415E0,-6.379597783E-1,9.334372729E-2,2.840259075E-1
2.069474124E0,-6.368945241E-1,9.227846563E-2,2.478069514E-1
2.071961832E0,-6.262418628E-1,8.908267319E-2,2.105227262E-1
2.074449540E0,-6.060018539E-1,8.482161909E-2,1.743037701E-1
2.076937249E0,-5.783050060E-1,7.949529588E-2,1.402153224E-1
2.079424957E0,-5.420860648E-1,7.310371846E-2,1.082574204E-1
2.081912665E0,-4.994754791E-1,6.564687192E-2,7.736477256E-2
2.084400374E0,-4.515386224E-1,5.819002539E-2,5.073318258E-2
2.086888082E0,-4.025365114E-1,5.073318258E-2,2.516685426E-2
2.089375790E0,-3.514038324E-1,4.221107066E-2,2.796316985E-3
2.091863499E0,-3.002711833E-1,3.581948951E-2,-1.637842879E-2
2.094351207E0,-2.502037883E-1,2.836264484E-2,-3.022685647E-2
2.096838915E0,-2.043974549E-1,2.303632535E-2,-3.981423005E-2
2.099326624E0,-1.607216448E-1,1.771000773E-2,-4.194475710E-2
2.101814332E0,-1.223721579E-1,1.451421715E-2,-3.874896467E-2
2.104302040E0,-8.934898674E-2,1.131842658E-2,-2.703106403E-2
2.106789749E0,-6.271740049E-2,9.187898599E-3,-7.856319658E-3
2.109277457E0,-4.034686089E-2,4.926844500E-3,1.664474420E-2
2.111765165E0,-2.223737910E-2,1.731053460E-3,4.540686309E-2
2.114252874E0,-7.323687430E-3,-5.725792143E-3,7.523424178E-2
2.116740582E0,4.394212738E-3,-1.318263728E-2,1.029310971E-1
2.119228290E0,1.078579482E-2,-2.383527346E-2,1.253016293E-1
2.121715999E0,1.398158539E-2,-3.768370301E-2,1.402153224E-1
2.124203759E0,1.291632187E-2,-5.259739235E-2,1.476721764E-1
2.126691519E0,9.720530361E-3,-7.070687413E-2,1.466069072E-1
2.129179280E0,4.394212738E-3,-8.988162130E-2,1.391500682E-1
2.131667040E0,-4.127896391E-3,-1.090563685E-1,1.242363751E-1
2.134154801E0,-1.584579609E-2,-1.271658540E-1,1.029310971E-1
2.136642561E0,-2.862896025E-2,-1.442100704E-1,7.736477256E-2
2.139130321E0,-4.354264960E-2,-1.591237634E-1,4.860265180E-2
2.141618082E0,-5.952160433E-2,-1.740374416E-1,1.771000773E-2
2.144105842E0,-7.443529367E-2,-1.868206114E-1,-1.211737376E-2
2.146593603E0,-9.041424841E-2,-1.985385120E-1,-4.087949172E-2
2.149081363E0,-1.042626798E-1,-2.091911435E-1,-6.644582003E-2
2.151569124E0,-1.170458421E-1,-2.198437899E-1,-9.094688296E-2
2.154056884E0,-1.298290044E-1,-2.283658981E-1,-1.111868918E-1
2.156544644E0,-1.415469050E-1,-2.368880063E-1,-1.271658540E-1
2.159032405E0,-1.521995366E-1,-2.454101145E-1,-1.388837546E-1
2.161520165E0,-1.617869139E-1,-2.539322078E-1,-1.484711170E-1
2.164007926E0,-1.713742912E-1,-2.635195851E-1,-1.537974328E-1
2.166495686E0,-1.798963994E-1,-2.731069624E-1,-1.559279710E-1
2.168983446E0,-1.862879843E-1,-2.837595940E-1,-1.559279710E-1
2.171471207E0,-1.926795542E-1,-2.944122255E-1,-1.537974328E-1
2.173958967E0,-1.969406158E-1,-3.039996028E-1,-1.495363861E-1
2.176446728E0,-1.990711391E-1,-3.125217259E-1,-1.431448013E-1
2.178934488E0,-2.001364082E-1,-3.199785650E-1,-1.324921697E-1
2.181422249E0,-1.990711391E-1,-3.263701499E-1,-1.186437383E-1
2.183910009E0,-1.969406158E-1,-3.306311965E-1,-1.005342528E-1
2.186397769E0,-1.926795542E-1,-3.327617347E-1,-8.135951310E-2
2.188885530E0,-1.862879843E-1,-3.338269889E-1,-5.792371184E-2
2.191373290E0,-1.798963994E-1,-3.327617347E-1,-3.448791057E-2
2.193861051E0,-1.703090221E-1,-3.316964805E-1,-8.921583183E-3
2.196348811E0,-1.585911214E-1,-3.327617347E-1,1.451421715E-2
2.198836571E0,-1.447426975E-1,-3.370227814E-1,3.688475490E-2
2.201324332E0,-1.266332120E-1,-3.455449045E-1,5.712476373E-2
2.203812092E0,-1.031974182E-1,-3.615238369E-1,7.416898012E-2
2.206299853E0,-7.337003201E-2,-3.849596381E-1,8.695214242E-2
2.208787561E0,-3.821633384E-2,-4.147870243E-1,9.760478139E-2
2.211275269E0,3.328948980E-3,-4.467449486E-1,1.061268896E-1
2.213762978E0,4.807002097E-2,-4.808333814E-1,1.125184745E-1
2.216250686E0,9.707214683E-2,-5.106607676E-1,1.189100519E-1
2.218738394E0,1.482048035E-1,-5.362271070E-1,1.242363751E-1
2.221226103E0,2.004027218E-1,-5.522060394E-1,1.306279600E-1
2.223713811E0,2.536658943E-1,-5.617933869E-1,1.380847991E-1
2.226201519E0,3.069290817E-1,-5.639239550E-1,1.455416381E-1
2.228689228E0,3.559312224E-1,-5.596628785E-1,1.540637612E-1
2.231176936E0,4.017375410E-1,-5.490102768E-1,1.604553312E-1
2.233664644E0,4.443480968E-1,-5.362271070E-1,1.657816470E-1
2.236152353E0,4.805670679E-1,-5.202481151E-1,1.711079776E-1
2.238640061E0,5.125249624E-1,-5.032039285E-1,1.743037701E-1
2.241127769E0,5.370260477E-1,-4.861596823E-1,1.785648167E-1
2.243615478E0,5.551354885E-1,-4.701807499E-1,1.806953400E-1
2.246103186E0,5.657881498E-1,-4.542017877E-1,1.828258783E-1
2.248590894E0,5.679186583E-1,-4.414186180E-1,1.838911325E-1
2.251078603E0,5.636576414E-1,-4.318312407E-1,1.860216707E-1
2.253566311E0,5.530049801E-1,-4.254396558E-1,1.881521940E-1
2.256054019E0,5.370260477E-1,-4.211786091E-1,1.902827173E-1
2.258541728E0,5.157207847E-1,-4.201133549E-1,1.924132407E-1
2.261029436E0,4.901544452E-1,-4.211786091E-1,1.945437789E-1
2.263517144E0,4.645881057E-1,-4.243744016E-1,1.956090331E-1
2.266004853E0,4.379565120E-1,-4.297007322E-1,1.977395564E-1
2.268492561E0,4.123901725E-1,-4.371575713E-1,1.998700947E-1
2.270980269E0,3.910849094E-1,-4.467449486E-1,2.020006180E-1
2.273467978E0,3.740406930E-1,-4.584628344E-1,2.051964104E-1
2.275955686E0,3.623228073E-1,-4.723112583E-1,2.062616795E-1
2.278443394E0,3.569964767E-1,-4.882902205E-1,2.051964104E-1
2.280931103E0,3.591270149E-1,-5.053344369E-1,2.030658871E-1
2.283418811E0,3.676491082E-1,-5.223786831E-1,1.988048255E-1
2.285906519E0,3.836280704E-1,-5.383576155E-1,1.924132407E-1
2.288394228E0,4.059986174E-1,-5.522060394E-1,1.849564016E-1
2.290881936E0,4.336954653E-1,-5.617933869E-1,1.774995476E-1
2.293369644E0,4.645881057E-1,-5.681849718E-1,1.711079776E-1
2.295857353E0,4.997417927E-1,-5.692502856E-1,1.668469161E-1
2.298345061E0,5.370260477E-1,-5.671197176E-1,1.657816470E-1
2.300832769E0,5.743102431E-1,-5.607281327E-1,1.679121852E-1
2.303320478E0,6.094639897E-1,-5.522060394E-1,1.732385010E-1
2.305808186E0,6.403566003E-1,-5.415533781E-1,1.817606091E-1
2.308295894E0,6.669881940E-1,-5.330312848E-1,1.913479865E-1
2.310783603E0,6.850976944E-1,-5.245091915E-1,2.041311413E-1
2.313271311E0,6.946850419E-1,-5.181176066E-1,2.179795653E-1
2.315759019E0,6.957502961E-1,-5.138565302E-1,2.328932583E-1
2.318246728E0,6.882934570E-1,-5.117260218E-1,2.499374747E-1
2.320734436E0,6.723145247E-1,-5.117260218E-1,2.680469751E-1
2.323222144E0,6.478134394E-1,-5.117260218E-1,2.850911915E-1
2.325709853E0,6.169208288E-1,-5.149217844E-1,3.000048697E-1
2.328197561E0,5.807018280E-1,-5.191828609E-1,3.149185777E-1
2.330685269E0,5.402218103E-1,-5.255744457E-1,3.266364634E-1
2.333172978E0,4.986765385E-1,-5.330312848E-1,3.351585865E-1
2.335660686E0,4.550007284E-1,-5.404881239E-1,3.404848874E-1
2.338148394E0,4.123901725E-1,-5.479449630E-1,3.426154256E-1
2.340636103E0,3.708449006E-1,-5.543365479E-1,3.404848874E-1
2.343123811E0,3.335606754E-1,-5.585976243E-1,3.330280483E-1
2.345611519E0,2.994722426E-1,-5.607281327E-1,3.223754168E-1
2.348099228E0,2.707101107E-1,-5.596628785E-1,3.085269928E-1
2.350586936E0,2.462090552E-1,-5.564671159E-1,2.904174924E-1
2.353074644E0,2.280995846E-1,-5.511407852E-1,2.691122293E-1
2.355562353E0,2.163816839E-1,-5.436839461E-1,2.467416972E-1
2.358050061E0,2.131858915E-1,-5.351617932E-1,2.201101035E-1
2.360537769E0,2.174469382E-1,-5.266396999E-1,1.924132407E-1
2.363025478E0,2.291648388E-1,-5.191828609E-1,1.636511236E-1
2.365513186E0,2.494048476E-1,-5.138565302E-1,1.327584833E-1
2.368000894E0,2.771016955E-1,-5.095955133E-1,1.018658355E-1
2.370488603E0,3.111901283E-1,-5.053344369E-1,7.097318769E-2
2.372976311E0,3.506048918E-1,-5.000081062E-1,4.221107066E-2
2.375464019E0,3.932154477E-1,-4.936165512E-1,1.557948068E-2
2.377951728E0,4.390217662E-1,-4.829638898E-1,-8.921583183E-3
2.380439436E0,4.837628603E-1,-4.691154659E-1,-3.129211813E-2
2.382927144E0,5.274386406E-1,-4.542017877E-1,-5.153212696E-2
2.385414853E0,5.679186583E-1,-4.371575713E-1,-6.857634336E-2
2.387902561E0,6.030724049E-1,-4.201133549E-1,-8.242477477E-2
2.390390269E0,6.307692528E-1,-4.009386003E-1,-9.201214463E-2
2.392877978E0,6.488786936E-1,-3.806985915E-1,-9.840372950E-2
2.395365686E0,6.595313549E-1,-3.625891209E-1,-1.015995219E-1
2.397853394E0,6.595313549E-1,-3.444796205E-1,-1.015995219E-1
2.400341103E0,6.488786936E-1,-3.274354041E-1,-9.840372950E-2
2.402828811E0,6.286386847E-1,-3.125217259E-1,-9.201214463E-2
2.405316519E0,5.988113284E-1,-3.008038104E-1,-8.349003643E-2
2.407804228E0,5.615270734E-1,-2.912164330E-1,-7.390266657E-2
2.410291936E0,5.157207847E-1,-2.858901322E-1,-6.325002760E-2
2.412779644E0,4.635228515E-1,-2.837595940E-1,-5.153212696E-2
2.415267353E0,4.070638716E-1,-2.837595940E-1,-4.194475710E-2
2.417755061E0,3.463438451E-1,-2.880206704E-1,-3.129211813E-2
2.420242769E0,2.845585644E-1,-2.922817171E-1,-2.277000993E-2
2.422730478E0,2.217079997E-1,-2.986733019E-1,-1.637842879E-2
2.425218186E0,1.620532274E-1,-3.050648868E-1,-1.211737376E-2
2.427705894E0,1.055942550E-1,-3.103911877E-1,-7.856319658E-3
2.430193655E0,5.446160212E-2,-3.167827725E-1,-6.791055668E-3
2.432681415E0,1.078579482E-2,-3.221091032E-1,-7.856319658E-3
2.435169176E0,-2.756369673E-2,-3.263701499E-1,-9.986846708E-3
2.437656936E0,-5.845634267E-2,-3.306311965E-1,-1.531316526E-2
2.440144696E0,-8.082687855E-2,-3.348922431E-1,-2.383527346E-2
2.442632457E0,-9.574057162E-2,-3.402185738E-1,-3.342264518E-2
2.445120217E0,-1.000016257E-1,-3.466101587E-1,-4.514054582E-2
2.447607978E0,-9.467530251E-2,-3.551322520E-1,-5.792371184E-2
2.450095738E0,-7.869634777E-2,-3.647196293E-1,-7.177213579E-2
2.452583499E0,-5.099949613E-2,-3.743070066E-1,-8.668582886E-2
2.455071259E0,-1.371526904E-2,-3.838943839E-1,-9.946899116E-2
2.457559019E0,3.315633163E-2,-3.902859688E-1,-1.122521535E-1
2.460046780E0,9.068056941E-2,-3.945470154E-1,-1.261005849E-1
2.462534540E0,1.535311192E-1,-3.966775537E-1,-1.388837546E-1
2.465022301E0,2.217079997E-1,-3.945470154E-1,-1.527321786E-1
2.467510061E0,2.909501195E-1,-3.892207146E-1,-1.655153334E-1
2.469997821E0,3.601922691E-1,-3.806985915E-1,-1.782985032E-1
2.472485582E0,4.251733422E-1,-3.700459599E-1,-1.900164038E-1
2.474973342E0,4.837628603E-1,-3.561975360E-1,-2.006690353E-1
2.477461103E0,5.348954797E-1,-3.412838280E-1,-2.091911435E-1
2.479948863E0,5.753754973E-1,-3.263701499E-1,-2.155827284E-1
2.482436624E0,6.041376591E-1,-3.103911877E-1,-2.198437899E-1
2.484924384E0,6.201165915E-1,-2.965427637E-1,-2.219743133E-1
2.487412144E0,6.233124137E-1,-2.858901322E-1,-2.209090441E-1
2.489899905E0,6.137250066E-1,-2.763027549E-1,-2.166479975E-1
2.492387665E0,5.913544893E-1,-2.699111700E-1,-2.102564126E-1
2.494875426E0,5.562008023E-1,-2.667153776E-1,-2.027995586E-1
2.497363186E0,5.093291998E-1,-2.656501234E-1,-1.932121962E-1
2.499850946E0,4.507396817E-1,-2.677806616E-1,-1.825595498E-1
2.502338707E0,3.825628161E-1,-2.720417082E-1,-1.719069183E-1
2.504826467E0,3.069290817E-1,-2.773680091E-1,-1.601890177E-1
2.507314228E0,2.270343155E-1,-2.826943398E-1,-1.484711170E-1
2.509801988E0,1.439437568E-1,-2.890859246E-1,-1.378184855E-1
2.512289749E0,6.191844866E-2,-2.944122255E-1,-1.271658540E-1
2.514777457E0,-1.691105962E-2,-2.986733019E-1,-1.165132076E-1
2.517265165E0,-9.254477918E-2,-3.008038104E-1,-1.069258377E-1
2.519752874E0,-1.596563905E-1,-3.008038104E-1,-9.840372950E-2
2.522240582E0,-2.193111479E-1,-2.986733019E-1,-8.988162130E-2
2.524728290E0,-2.683132887E-1,-2.954775095E-1,-8.242477477E-2
2.527215999E0,-3.077280223E-1,-2.912164330E-1,-7.603318989E-2
2.529703707E0,-3.354249001E-1,-2.869553864E-1,-6.964161247E-2
2.532191415E0,-3.524691164E-1,-2.826943398E-1,-6.431528926E-2
2.534679124E0,-3.588607013E-1,-2.773680091E-1,-5.898897350E-2
2.537166832E0,-3.567301631E-1,-2.709764242E-1,-5.259739235E-2
2.539654540E0,-3.460775316E-1,-2.645848691E-1,-4.833633825E-2
2.542142249E0,-3.279680312E-1,-2.592585385E-1,-4.301001877E-2
2.544629957E0,-3.045322299E-1,-2.539322078E-1,-4.087949172E-2
2.547117665E0,-2.789659202E-1,-2.486059070E-1,-4.301001877E-2
2.549605374E0,-2.502037883E-1,-2.454101145E-1,-4.833633825E-2
2.552093082E0,-2.203764170E-1,-2.432795912E-1,-5.898897350E-2
2.554580790E0,-1.905490309E-1,-2.422143221E-1,-7.177213579E-2
2.557068499E0,-1.617869139E-1,-2.443448454E-1,-8.668582886E-2
2.559556207E0,-1.340900660E-1,-2.464753687E-1,-1.026647836E-1
2.562043915E0,-1.063932031E-1,-2.496711612E-1,-1.197090000E-1
2.564531624E0,-7.869634777E-2,-2.528669536E-1,-1.356879622E-1
2.567019332E0,-5.206476152E-2,-2.571280003E-1,-1.506016403E-1
2.569507040E0,-2.436790615E-2,-2.624543309E-1,-1.633848101E-1
2.571994749E0,3.328948980E-3,-2.688459158E-1,-1.740374416E-1
2.574482457E0,3.102580272E-2,-2.763027549E-1,-1.846900880E-1
2.576970165E0,5.978792161E-2,-2.869553864E-1,-1.953427196E-1
2.579457874E0,8.748477697E-2,-2.986733019E-1,-2.038648278E-1
2.581945582E0,1.151816323E-1,-3.114564717E-1,-2.134522051E-1
2.584433290E0,1.428784877E-1,-3.253048956E-1,-2.230395675E-1
2.586920999E0,1.695100814E-1,-3.391533196E-1,-2.336922139E-1
2.589408707E0,1.961416751E-1,-3.540669978E-1,-2.454101145E-1
2.591896415E0,2.217079997E-1,-3.689807057E-1,-2.581932843E-1
2.594384124E0,2.472743243E-1,-3.828291297E-1,-2.731069624E-1
2.596871832E0,2.685796022E-1,-3.945470154E-1,-2.880206704E-1
2.599359540E0,2.877543271E-1,-4.030691385E-1,-3.050648868E-1
2.601847249E0,3.047985733E-1,-4.105259776E-1,-3.210438192E-1
2.604334957E0,3.175817132E-1,-4.126565158E-1,-3.348922431E-1
2.606822665E0,3.282343447E-1,-4.126565158E-1,-3.476754129E-1
2.609310374E0,3.335606754E-1,-4.094607234E-1,-3.583280444E-1
2.611798082E0,3.346259296E-1,-4.030691385E-1,-3.657849133E-1
2.614285790E0,3.303648829E-1,-3.945470154E-1,-3.668501675E-1
2.616773499E0,3.229080439E-1,-3.838943839E-1,-3.647196293E-1
2.619261207E0,3.111901283E-1,-3.743070066E-1,-3.593933284E-1
2.621748915E0,2.952111959E-1,-3.647196293E-1,-3.498059511E-1
2.624236624E0,2.771016955E-1,-3.561975360E-1,-3.380880356E-1
2.626724332E0,2.547311783E-1,-3.508712053E-1,-3.242396116E-1
2.629212040E0,2.291648388E-1,-3.476754129E-1,-3.082606792E-1
2.631699749E0,2.025332451E-1,-3.476754129E-1,-2.901511788E-1
2.634187457E0,1.737711281E-1,-3.487406969E-1,-2.699111700E-1
2.636675165E0,1.439437568E-1,-3.519364893E-1,-2.486059070E-1
2.639162874E0,1.151816323E-1,-3.572627902E-1,-2.283658981E-1
2.641650582E0,9.068056941E-2,-3.625891209E-1,-2.081258893E-1
2.644138290E0,6.724476814E-2,-3.679154217E-1,-1.900164038E-1
2.646625999E0,4.807002097E-2,-3.743070066E-1,-1.740374416E-1
2.649113707E0,3.422159329E-2,-3.796333373E-1,-1.623195410E-1
2.651601415E0,2.356895804E-2,-3.849596381E-1,-1.527321786E-1
2.654089124E0,1.930790395E-2,-3.892207146E-1,-1.474058628E-1
2.656576832E0,2.037316747E-2,-3.924165070E-1,-1.442100704E-1
2.659064540E0,2.676474862E-2,-3.934817612E-1,-1.442100704E-1
2.661552249E0,3.848264739E-2,-3.924165070E-1,-1.463405937E-1
2.664039957E0,5.659212917E-2,-3.892207146E-1,-1.527321786E-1
2.666527665E0,8.002793044E-2,-3.838943839E-1,-1.601890177E-1
2.669015374E0,1.077247858E-1,-3.764375448E-1,-1.708416492E-1
2.671503082E0,1.396826953E-1,-3.679154217E-1,-1.825595498E-1
2.673990790E0,1.759016514E-1,-3.593933284E-1,-1.964079887E-1
2.676478499E0,2.153164148E-1,-3.498059511E-1,-2.102564126E-1
2.678966207E0,2.557964325E-1,-3.402185738E-1,-2.241048366E-1
2.681453915E0,2.984069884E-1,-3.316964805E-1,-2.368880063E-1
2.683941624E0,3.388870060E-1,-3.221091032E-1,-2.507364154E-1
2.686429332E0,3.793670237E-1,-3.114564717E-1,-2.635195851E-1
2.688917040E0,4.155859649E-1,-3.008038104E-1,-2.731069624E-1
2.691404749E0,4.496744275E-1,-2.880206704E-1,-2.816290855E-1
2.693892457E0,4.773712754E-1,-2.763027549E-1,-2.880206704E-1
2.696380165E0,5.008070469E-1,-2.645848691E-1,-2.922817171E-1
2.698867874E0,5.189165473E-1,-2.518016994E-1,-2.954775095E-1
2.701355582E0,5.295692086E-1,-2.400837988E-1,-2.954775095E-1
2.703843290E0,5.338302255E-1,-2.262353599E-1,-2.944122255E-1
2.706330999E0,5.295692086E-1,-2.123869359E-1,-2.890859246E-1
2.708818707E0,5.189165473E-1,-1.964079887E-1,-2.816290855E-1
2.711306415E0,4.997417927E-1,-1.782985032E-1,-2.720417082E-1
2.713794124E0,4.731102288E-1,-1.612542868E-1,-2.603237927E-1
2.716281832E0,4.400870502E-1,-1.431448013E-1,-2.464753687E-1
2.718769540E0,3.996070325E-1,-1.261005849E-1,-2.304964215E-1
2.721257249E0,3.538006842E-1,-1.101216301E-1,-2.123869359E-1
2.723744957E0,3.037332892E-1,-9.627319872E-2,-1.942774504E-1
2.726232665E0,2.504701018E-1,-8.455529809E-2,-1.761679798E-1
2.728720374E0,1.950764060E-1,-7.496792823E-2,-1.591237634E-1
2.731208082E0,1.386174262E-1,-6.751108170E-2,-1.431448013E-1
2.733695790E0,8.428898454E-2,-6.325002760E-2,-1.314269006E-1
2.736183499E0,3.102580272E-2,-6.218476593E-2,-1.239700541E-1
2.738671259E0,-1.691105962E-2,-6.111950055E-2,-1.207742617E-1
2.741159019E0,-6.058686972E-2,-6.111950055E-2,-1.218395308E-1
2.743646780E0,-9.893636405E-2,-6.111950055E-2,-1.271658540E-1
2.746134540E0,-1.298290044E-1,-6.005423889E-2,-1.367532164E-1
2.748622301E0,-1.543300748E-1,-5.898897350E-2,-1.484711170E-1
2.751110061E0,-1.724395454E-1,-5.685844645E-2,-1.623195410E-1
2.753597821E0,-1.820269227E-1,-5.259739235E-2,-1.793637723E-1
2.756085582E0,-1.862879843E-1,-4.940159991E-2,-1.974732429E-1
2.758573342E0,-1.830921918E-1,-4.620581120E-2,-2.166479975E-1
2.761061103E0,-1.724395454E-1,-4.407528415E-2,-2.368880063E-1
2.763548863E0,-1.564605981E-1,-4.407528415E-2,-2.571280003E-1
2.766036624E0,-1.340900660E-1,-4.620581120E-2,-2.741722167E-1
2.768524384E0,-1.074584723E-1,-5.153212696E-2,-2.922817171E-1
2.771012144E0,-7.550056279E-2,-5.792371184E-2,-3.071953952E-1
2.773499905E0,-3.928159550E-2,-6.751108170E-2,-3.189133108E-1
2.775987665E0,-9.321057005E-4,-7.816372067E-2,-3.295659423E-1
2.778475426E0,3.848264739E-2,-8.881635964E-2,-3.370227814E-1
2.780963186E0,7.789740711E-2,-9.840372950E-2,-3.412838280E-1
2.783450946E0,1.141163707E-1,-1.058605760E-1,-3.423491120E-1
2.785938707E0,1.471395344E-1,-1.101216301E-1,-3.402185738E-1
2.788426467E0,1.748363972E-1,-1.101216301E-1,-3.327617347E-1
2.790914228E0,1.950764060E-1,-1.069258377E-1,-3.210438192E-1
2.793401988E0,2.078595608E-1,-9.946899116E-2,-3.071953952E-1
2.795889749E0,2.121206224E-1,-8.881635964E-2,-2.890859246E-1
2.798377509E0,2.078595608E-1,-7.603318989E-2,-2.699111700E-1
2.800865269E0,1.961416751E-1,-6.325002760E-2,-2.518016994E-1
2.803353030E0,1.769669205E-1,-5.153212696E-2,-2.326269448E-1
2.805840790E0,1.514005959E-1,-4.301001877E-2,-2.155827284E-1
2.808328551E0,1.194426864E-1,-3.661843762E-2,-2.006690353E-1
2.810816311E0,8.322372288E-2,-3.448791057E-2,-1.868206114E-1
2.813304071E0,4.487423226E-2,-3.448791057E-2,-1.761679798E-1
2.815791832E0,5.459476262E-3,-3.661843762E-2,-1.676458716E-1
2.818279592E0,-3.289001435E-2,-3.981423005E-2,-1.612542868E-1
2.820767353E0,-7.017423958E-2,-4.301001877E-2,-1.569932252E-1
2.823255061E0,-1.031974182E-1,-4.727107286E-2,-1.559279710E-1
2.825742769E0,-1.308942735E-1,-5.153212696E-2,-1.569932252E-1
2.828230478E0,-1.521995366E-1,-5.579318479E-2,-1.601890177E-1
2.830718186E0,-1.671132296E-1,-5.898897350E-2,-1.655153334E-1
2.833205894E0,-1.756353378E-1,-6.005423889E-2,-1.729721874E-1
2.835693603E0,-1.777658761E-1,-6.111950055E-2,-1.825595498E-1
2.838181311E0,-1.724395454E-1,-6.218476593E-2,-1.932121962E-1
2.840669019E0,-1.617869139E-1,-6.111950055E-2,-2.070606202E-1
2.843156728E0,-1.436774284E-1,-6.005423889E-2,-2.209090441E-1
2.845644436E0,-1.223721579E-1,-5.898897350E-2,-2.358227372E-1
2.848132144E0,-9.574057162E-2,-5.792371184E-2,-2.507364154E-1
2.850619853E0,-6.697845459E-2,-5.685844645E-2,-2.656501234E-1
2.853107561E0,-3.502054140E-2,-5.792371184E-2,-2.794985473E-1
2.855595269E0,-1.997369342E-3,-6.005423889E-2,-2.922817171E-1
2.858082978E0,3.209106624E-2,-6.325002760E-2,-3.050648868E-1
2.860570686E0,6.511423737E-2,-6.964161247E-2,-3.167827725E-1
2.863058394E0,9.707214683E-2,-7.816372067E-2,-3.274354041E-1
2.865546103E0,1.279647946E-1,-8.988162130E-2,-3.391533196E-1
2.868033811E0,1.545963883E-1,-1.037300453E-1,-3.498059511E-1
2.870521519E0,1.790974438E-1,-1.186437383E-1,-3.593933284E-1
2.873009228E0,2.004027218E-1,-1.324921697E-1,-3.689807057E-1
2.875496936E0,2.195774615E-1,-1.442100704E-1,-3.785680532E-1
2.877984644E0,2.344911546E-1,-1.527321786E-1,-3.870901763E-1
2.880472353E0,2.451438010E-1,-1.591237634E-1,-3.945470154E-1
2.882960061E0,2.536658943E-1,-1.665806025E-1,-4.030691385E-1
2.885447769E0,2.589922249E-1,-1.708416492E-1,-4.115912318E-1
2.887935478E0,2.621880174E-1,-1.761679798E-1,-4.190480709E-1
2.890423186E0,2.632532716E-1,-1.782985032E-1,-4.254396558E-1
2.892910894E0,2.621880174E-1,-1.793637723E-1,-4.286354482E-1
2.895398603E0,2.600574791E-1,-1.782985032E-1,-4.297007322E-1
2.897886311E0,2.568616867E-1,-1.761679798E-1,-4.286354482E-1
2.900374019E0,2.547311783E-1,-1.729721874E-1,-4.254396558E-1
2.902861728E0,2.515353858E-1,-1.697763950E-1,-4.211786091E-1
2.905349436E0,2.504701018E-1,-1.655153334E-1,-4.169175625E-1
2.907837144E0,2.504701018E-1,-1.644500792E-1,-4.126565158E-1
2.910324853E0,2.536658943E-1,-1.644500792E-1,-4.083954394E-1
2.912812561E0,2.579269707E-1,-1.655153334E-1,-4.062649310E-1
2.915300269E0,2.664490640E-1,-1.676458716E-1,-4.030691385E-1
2.917787978E0,2.771016955E-1,-1.708416492E-1,-4.020038545E-1
2.920275686E0,2.909501195E-1,-1.751027107E-1,-4.009386003E-1
2.922763394E0,3.079943359E-1,-1.804290265E-1,-4.020038545E-1
2.925251103E0,3.282343447E-1,-1.889511347E-1,-4.041343927E-1
2.927738811E0,3.495396376E-1,-1.985385120E-1,-4.105259776E-1
2.930226519E0,3.740406930E-1,-2.102564126E-1,-4.190480709E-1
2.932714228E0,4.006722867E-1,-2.198437899E-1,-4.297007322E-1
2.935201936E0,4.262386262E-1,-2.283658981E-1,-4.424838722E-1
2.937689644E0,4.518049359E-1,-2.358227372E-1,-4.573975801E-1
2.940177353E0,4.773712754E-1,-2.400837988E-1,-4.723112583E-1
2.942665061E0,5.040028691E-1,-2.432795912E-1,-4.861596823E-1
2.945152769E0,5.316997170E-1,-2.486059070E-1,-4.989428520E-1
2.947640478E0,5.583313107E-1,-2.507364154E-1,-5.127912760E-1
2.950128186E0,5.817670822E-1,-2.454101145E-1,-5.255744457E-1
2.952615894E0,6.009418368E-1,-2.326269448E-1,-5.362271070E-1
2.955103603E0,6.137250066E-1,-2.145174593E-1,-5.447492003E-1
2.957591311E0,6.222470999E-1,-1.953427196E-1,-5.490102768E-1
2.960079019E0,6.254429221E-1,-1.782985032E-1,-5.490102768E-1
2.962566728E0,6.254429221E-1,-1.633848101E-1,-5.426186919E-1
2.965054436E0,6.222470999E-1,-1.516669095E-1,-5.319660306E-1
2.967542144E0,6.158555150E-1,-1.410142779E-1,-5.149217844E-1
2.970029853E0,6.062681675E-1,-1.303616315E-1,-4.946818054E-1
2.972517561E0,5.934849977E-1,-1.186437383E-1,-4.680502117E-1
2.975005269E0,5.785713196E-1,-1.058605760E-1,-4.371575713E-1
2.977492978E0,5.615270734E-1,-9.201214463E-2,-4.030691385E-1
2.979980686E0,5.434176326E-1,-7.603318989E-2,-3.647196293E-1
2.982468394E0,5.253081322E-1,-5.792371184E-2,-3.253048956E-1
2.984956103E0,5.061333776E-1,-3.981423005E-2,-2.837595940E-1
2.987443811E0,4.880239069E-1,-2.170474641E-2,-2.422143221E-1
2.989931519E0,4.720449448E-1,-4.660528619E-3,-2.017343044E-1
2.992419228E0,4.571312666E-1,1.131842658E-2,-1.644500792E-1
2.994906936E0,4.454133511E-1,2.516685426E-2,-1.271658540E-1
2.997394644E0,4.358259737E-1,3.688475490E-2,-9.307741374E-2
2.999882353E0,4.294344187E-1,4.540686309E-2,-6.005423889E-2
3.002370061E0,4.262386262E-1,5.179844424E-2,-3.129211813E-2
3.004857769E0,4.283691347E-1,5.605949834E-2,-7.856319658E-3
3.007345478E0,4.336954653E-1,5.605949834E-2,1.238369010E-2
3.009833186E0,4.432828426E-1,5.286370963E-2,2.623211779E-2
3.012320894E0,4.560659826E-1,4.540686309E-2,3.688475490E-2
3.014808603E0,4.720449448E-1,3.581948951E-2,4.221107066E-2
3.017296311E0,4.880239069E-1,2.516685426E-2,4.434159771E-2
3.019784019E0,5.050681233E-1,1.557948068E-2,4.327633604E-2
3.022271728E0,5.199818015E-1,7.057371549E-3,4.008054361E-2
3.024759436E0,5.306344628E-1,1.731053460E-3,3.475422785E-2
3.027247144E0,5.370260477E-1,-1.464737463E-3,2.942790836E-2
3.029734853E0,5.370260477E-1,-1.464737463E-3,2.303632535E-2
3.032222561E0,5.306344628E-1,-1.464737463E-3,1.557948068E-2
3.034710269E0,5.178512931E-1,6.657897611E-4,8.122635074E-3
3.037197978E0,4.965460002E-1,2.796316985E-3,-3.994738800E-4
3.039685686E0,4.688491523E-1,3.861580743E-3,-8.921583183E-3
3.042173394E0,4.347607195E-1,2.796316985E-3,-1.850895584E-2
3.044661103E0,3.964112401E-1,-1.464737463E-3,-2.809632942E-2
3.047148811E0,3.538006842E-1,-4.660528619E-3,-3.555317223E-2
3.049636519E0,3.079943359E-1,-9.986846708E-3,-4.301001877E-2
3.052124280E0,2.611227632E-1,-1.424790081E-2,-4.940159991E-2
3.054612040E0,2.142511457E-1,-1.744369231E-2,-5.472791940E-2
3.057099801E0,1.673795432E-1,-1.957421936E-2,-5.898897350E-2
3.059587561E0,1.215732098E-1,-1.957421936E-2,-6.111950055E-2
3.062075321E0,7.896266878E-2,-1.850895584E-2,-6.111950055E-2
3.064563082E0,4.167843983E-2,-1.744369231E-2,-6.005423889E-2
3.067050842E0,9.720530361E-3,-1.531316526E-2,-5.685844645E-2
3.069538603E0,-1.691105962E-2,-1.318263728E-2,-5.259739235E-2
3.072026363E0,-3.821633384E-2,-8.921583183E-3,-4.727107286E-2
3.074514124E0,-5.526055023E-2,-5.725792143E-3,-3.981423005E-2
3.077001884E0,-6.591318548E-2,-3.994738800E-4,-3.129211813E-2
3.079489644E0,-7.230477035E-2,5.992108025E-3,-2.063948289E-2
3.081977405E0,-7.550056279E-2,1.238369010E-2,-7.856319658E-3
3.084465165E0,-7.550056279E-2,1.984053478E-2,5.992108025E-3
3.086952926E0,-7.337003201E-2,2.836264484E-2,2.197106183E-2
3.089440686E0,-6.910897791E-2,3.795001656E-2,4.114580899E-2
3.091928446E0,-6.271740049E-2,4.860265180E-2,6.245107949E-2
3.094416207E0,-5.632581562E-2,5.819002539E-2,8.588688076E-2
3.096903967E0,-5.099949613E-2,6.884266436E-2,1.093226820E-1
3.099391728E0,-4.567318037E-2,7.949529588E-2,1.338237375E-1
3.101879488E0,-4.141212255E-2,9.014793485E-2,1.572595388E-1
3.104367249E0,-3.821633384E-2,9.867004305E-2,1.806953400E-1
3.106855009E0,-3.715106845E-2,1.061268896E-1,2.020006180E-1
3.109342769E0,-3.715106845E-2,1.125184745E-1,2.222406268E-1
3.111830530E0,-3.821633384E-2,1.157142594E-1,2.382195890E-1
3.114318290E0,-4.141212255E-2,1.178447902E-1,2.510027587E-1
3.116806051E0,-4.567318037E-2,1.178447902E-1,2.595248520E-1
3.119293811E0,-5.206476152E-2,1.178447902E-1,2.627206445E-1
3.121781571E0,-5.952160433E-2,1.157142594E-1,2.595248520E-1
3.124269332E0,-6.697845459E-2,1.125184745E-1,2.510027587E-1
3.126757092E0,-7.550056279E-2,1.082574204E-1,2.371543199E-1
3.129244853E0,-8.082687855E-2,1.029310971E-1,2.179795653E-1
3.131732613E0,-8.615319431E-2,9.760478139E-2,1.945437789E-1
3.134220321E0,-8.934898674E-2,9.334372729E-2,1.668469161E-1
3.136708030E0,-9.041424841E-2,8.908267319E-2,1.348890066E-1
3.139195738E0,-8.828372508E-2,8.588688076E-2,1.018658355E-1
3.141683446E0,-8.295740932E-2,8.056056499E-2,6.884266436E-2
3.144171155E0,-7.550056279E-2,7.523424178E-2,3.688475490E-2
3.146658863E0,-6.591318548E-2,6.990792602E-2,5.992108025E-3
3.149146571E0,-5.313002318E-2,6.458161026E-2,-2.383527346E-2
3.151634280E0,-3.928159550E-2,5.819002539E-2,-4.940159991E-2
3.154121988E0,-2.436790615E-2,5.073318258E-2,-7.177213579E-2
3.156609696E0,-7.323687430E-3,4.221107066E-2,-8.988162130E-2
3.159097405E0,9.720530361E-3,3.368896246E-2,-1.047953144E-1
3.161585113E0,2.676474862E-2,2.303632535E-2,-1.143826842E-1
3.164072821E0,4.487423226E-2,1.344895363E-2,-1.197090000E-1
3.166560530E0,6.191844866E-2,2.796316985E-3,-1.207742617E-1
3.169048238E0,7.896266878E-2,-6.791055668E-3,-1.165132076E-1
3.171535946E0,9.494162351E-2,-1.318263728E-2,-1.069258377E-1
3.174023655E0,1.087900475E-1,-1.850895584E-2,-9.414267540E-2
3.176511363E0,1.205079481E-1,-2.170474641E-2,-7.709845901E-2
3.178999071E0,1.300953180E-1,-2.277000993E-2,-5.898897350E-2
3.181486780E0,1.354216337E-1,-2.170474641E-2,-3.768370301E-2
3.183974488E0,1.396826953E-1,-1.957421936E-2,-1.531316526E-2
3.186462196E0,1.418132186E-1,-1.637842879E-2,9.187898599E-3
3.188949905E0,1.428784877E-1,-1.105211023E-2,3.475422785E-2
3.191437613E0,1.428784877E-1,-3.595264861E-3,6.351634115E-2
3.193925321E0,1.428784877E-1,7.057371549E-3,9.334372729E-2
3.196413030E0,1.407479644E-1,1.771000773E-2,1.221058443E-1
3.198900738E0,1.375521719E-1,2.836264484E-2,1.498026997E-1
3.201388446E0,1.332911104E-1,4.008054361E-2,1.753690243E-1
3.203876155E0,1.268995255E-1,4.966791719E-2,1.977395564E-1
3.206363863E0,1.205079481E-1,5.819002539E-2,2.158490419E-1
3.208851571E0,1.151816323E-1,6.351634115E-2,2.286322117E-1
3.211339280E0,1.109205782E-1,6.884266436E-2,2.360890508E-1
3.213826988E0,1.077247858E-1,7.097318769E-2,2.382195890E-1
3.216314696E0,1.066595241E-1,7.310371846E-2,2.339585274E-1
3.218802405E0,1.087900475E-1,7.416898012E-2,2.243711501E-1
3.221290113E0,1.130511016E-1,7.523424178E-2,2.094574571E-1
3.223777821E0,1.183774248E-1,7.416898012E-2,1.913479865E-1
3.226265530E0,1.268995255E-1,7.203845680E-2,1.679121852E-1
3.228753238E0,1.354216337E-1,6.884266436E-2,1.423458606E-1
3.231240946E0,1.460742801E-1,6.458161026E-2,1.135837361E-1
3.233728655E0,1.567269117E-1,5.819002539E-2,8.375635743E-2
3.236216363E0,1.663142890E-1,5.073318258E-2,5.499423668E-2
3.238704071E0,1.748363972E-1,4.327633604E-2,2.623211779E-2
3.241191780E0,1.822932363E-1,3.581948951E-2,-3.994738800E-4
3.243679488E0,1.897500902E-1,2.729738131E-2,-2.596580051E-2
3.246167196E0,1.950764060E-1,1.877527125E-2,-4.620581120E-2
3.248654905E0,1.993374527E-1,9.187898599E-3,-6.325002760E-2
3.251142613E0,2.014679909E-1,1.731053460E-3,-7.390266657E-2
3.253630321E0,2.004027218E-1,-5.725792143E-3,-8.029424399E-2
3.256118030E0,1.961416751E-1,-1.424790081E-2,-8.349003643E-2
3.258605738E0,1.908153445E-1,-2.277000993E-2,-8.242477477E-2
3.261093446E0,1.812279820E-1,-3.022685647E-2,-8.029424399E-2
3.263581155E0,1.705753356E-1,-3.768370301E-2,-7.709845901E-2
3.266068863E0,1.556616426E-1,-4.301001877E-2,-7.283740491E-2
3.268556571E0,1.407479644E-1,-4.727107286E-2,-6.751108170E-2
3.271044280E0,1.237037405E-1,-4.833633825E-2,-6.111950055E-2
3.273531988E0,1.066595241E-1,-4.727107286E-2,-5.366265774E-2
3.276019696E0,9.174583107E-2,-4.194475710E-2,-4.407528415E-2
3.278507405E0,7.683213800E-2,-3.555317223E-2,-3.342264518E-2
3.280995113E0,6.298371404E-2,-2.596580051E-2,-1.957421936E-2
3.283482821E0,5.020054802E-2,-1.531316526E-2,-3.595264861E-3
3.285970530E0,3.954791278E-2,-3.595264861E-3,1.557948068E-2
3.288458238E0,2.889527567E-2,1.131842658E-2,3.901528195E-2
3.290945946E0,1.824264042E-2,2.729738131E-2,6.564687192E-2
3.293433655E0,7.590003312E-3,4.540686309E-2,9.334372729E-2
3.295921363E0,-1.997369342E-3,6.138581783E-2,1.221058443E-1
3.298409071E0,-1.265000552E-2,7.736477256E-2,1.498026997E-1
3.300896780E0,-2.223737910E-2,8.908267319E-2,1.743037701E-1
3.303384488E0,-3.182475269E-2,9.973530471E-2,1.956090331E-1
3.305872196E0,-4.034686089E-2,1.093226820E-1,2.126532495E-1
3.308359905E0,-4.886896908E-2,1.189100519E-1,2.275669426E-1
3.310847613E0,-5.526055023E-2,1.274321675E-1,2.371543199E-1
3.313335321E0,-6.165213138E-2,1.370195299E-1,2.435459048E-1
3.315823030E0,-6.591318548E-2,1.466069072E-1,2.478069514E-1
3.318310738E0,-6.804371625E-2,1.551290154E-1,2.478069514E-1
3.320798446E0,-6.804371625E-2,1.647163928E-1,2.456764281E-1
3.323286155E0,-6.591318548E-2,1.721732318E-1,2.403501123E-1
3.325773863E0,-6.271740049E-2,1.785648167E-1,2.328932583E-1
3.328261571E0,-5.952160433E-2,1.828258783E-1,2.233058959E-1
3.330749280E0,-5.632581562E-2,1.849564016E-1,2.126532495E-1
3.333236988E0,-5.206476152E-2,1.838911325E-1,1.998700947E-1
3.335724696E0,-4.993423447E-2,1.806953400E-1,1.860216707E-1
3.338212405E0,-4.780370742E-2,1.753690243E-1,1.721732318E-1
3.340700113E0,-4.780370742E-2,1.668469161E-1,1.572595388E-1
3.343187821E0,-4.886896908E-2,1.572595388E-1,1.444763839E-1
3.345675530E0,-5.099949613E-2,1.466069072E-1,1.327584833E-1
3.348163238E0,-5.419528857E-2,1.370195299E-1,1.221058443E-1
3.350650946E0,-5.845634267E-2,1.274321675E-1,1.157142594E-1
3.353138655E0,-6.378266215E-2,1.189100519E-1,1.103879437E-1
3.355626363E0,-6.804371625E-2,1.125184745E-1,1.093226820E-1
3.358114071E0,-7.230477035E-2,1.093226820E-1,1.125184745E-1
3.360601780E0,-7.550056279E-2,1.082574204E-1,1.221058443E-1
3.363089540E0,-7.763108611E-2,1.114532053E-1,1.359542757E-1
3.365577301E0,-7.763108611E-2,1.167795286E-1,1.551290154E-1
3.368065061E0,-7.656582445E-2,1.274321675E-1,1.806953400E-1
3.370552821E0,-7.337003201E-2,1.423458606E-1,2.126532495E-1
3.373040582E0,-7.230477035E-2,1.636511236E-1,2.499374747E-1
3.375528342E0,-7.230477035E-2,1.881521940E-1,2.925480306E-1
3.378016103E0,-7.337003201E-2,2.190448344E-1,3.383543491E-1
3.380503863E0,-7.656582445E-2,2.520680130E-1,3.873564899E-1
3.382991624E0,-8.189214021E-2,2.840259075E-1,4.352933466E-1
3.385479384E0,-8.828372508E-2,3.170490861E-1,4.821649492E-1
3.387967144E0,-9.574057162E-2,3.468764722E-1,5.247755051E-1
3.390454905E0,-1.021321490E-1,3.745733202E-1,5.631250143E-1
3.392942665E0,-1.074584723E-1,3.990744054E-1,5.940176249E-1
3.395430426E0,-1.127847880E-1,4.214449227E-1,6.174534559E-1
3.397918186E0,-1.149153188E-1,4.406196773E-1,6.323671341E-1
3.400405946E0,-1.159805804E-1,4.576638937E-1,6.398239732E-1
3.402893707E0,-1.149153188E-1,4.736428559E-1,6.398239732E-1
3.405381467E0,-1.117195264E-1,4.864259958E-1,6.323671341E-1
3.407869228E0,-1.074584723E-1,4.981439114E-1,6.185187101E-1
3.410356988E0,-1.000016257E-1,5.077312589E-1,6.004092097E-1
3.412844749E0,-8.934898674E-2,5.141228437E-1,5.801692009E-1
3.415332509E0,-7.656582445E-2,5.162534118E-1,5.588639379E-1
3.417820269E0,-6.165213138E-2,5.151881576E-1,5.364934206E-1
3.420308030E0,-4.673844203E-2,5.098618269E-1,5.162534118E-1
3.422795790E0,-3.182475269E-2,5.013396740E-1,4.960133731E-1
3.425283551E0,-1.904158667E-2,4.906870723E-1,4.768386483E-1
3.427771311E0,-7.323687430E-3,4.757733643E-1,4.597944319E-1
3.430259071E0,2.263685223E-3,4.597944319E-1,4.448807240E-1
3.432746832E0,8.655266836E-3,4.406196773E-1,4.310323000E-1
3.435234592E0,1.291632187E-2,4.225101769E-1,4.203796685E-1
3.437722353E0,1.291632187E-2,4.044007063E-1,4.129228294E-1
3.440210113E0,9.720530361E-3,3.873564899E-1,4.086617529E-1
3.442697874E0,4.394212738E-3,3.724428117E-1,4.086617529E-1
3.445185582E0,-3.062632866E-3,3.596596420E-1,4.118575454E-1
3.447673290E0,-1.158474199E-2,3.490070105E-1,4.182491302E-1
3.450160999E0,-1.904158667E-2,3.415501416E-1,4.267712533E-1
3.452648707E0,-2.649843320E-2,3.383543491E-1,4.374238849E-1
3.455136415E0,-3.289001435E-2,3.404848874E-1,4.502070546E-1
3.457624124E0,-3.928159550E-2,3.479417264E-1,4.651207328E-1
3.460111832E0,-4.354264960E-2,3.596596420E-1,4.853607416E-1
3.462599540E0,-4.780370742E-2,3.767038584E-1,5.087965727E-1
3.465087249E0,-5.099949613E-2,3.980091214E-1,5.364934206E-1
3.467574957E0,-5.313002318E-2,4.203796685E-1,5.673860312E-1
3.470062665E0,-5.419528857E-2,4.438154697E-1,6.004092097E-1
3.472550374E0,-5.526055023E-2,4.661859870E-1,6.323671341E-1
3.475038082E0,-5.526055023E-2,4.864259958E-1,6.621944904E-1
3.477525790E0,-5.419528857E-2,5.034702420E-1,6.866955757E-1
3.480013499E0,-5.313002318E-2,5.173186660E-1,7.058703303E-1
3.482501207E0,-4.993423447E-2,5.269060135E-1,7.165229321E-1
3.484988915E0,-4.673844203E-2,5.332975984E-1,7.186535001E-1
3.487476624E0,-4.141212255E-2,5.354281664E-1,7.122619152E-1
3.489964332E0,-3.502054140E-2,5.332975984E-1,6.973482370E-1
3.492452040E0,-2.543316968E-2,5.290365815E-1,6.760429144E-1
3.494939749E0,-1.584579609E-2,5.215796828E-1,6.483460665E-1
3.497427457E0,-3.062632866E-3,5.119923353E-1,6.153228879E-1
3.499915165E0,9.720530361E-3,4.992091656E-1,5.801692009E-1
3.502402874E0,2.463422157E-2,4.842954874E-1,5.439502597E-1
3.504890582E0,4.061317816E-2,4.672512710E-1,5.045354962E-1
3.507378290E0,5.552686751E-2,4.470112622E-1,4.640554786E-1
3.509865999E0,7.257108390E-2,4.246407151E-1,4.235754609E-1
3.512353707E0,8.748477697E-2,3.990744054E-1,3.830954432E-1
3.514841415E0,1.013332009E-1,3.713775277E-1,3.447459340E-1
3.517329124E0,1.151816323E-1,3.404848874E-1,3.063964546E-1
3.519816832E0,1.268995255E-1,3.085269928E-1,2.701774836E-1
3.522304540E0,1.364869028E-1,2.776343226E-1,2.371543199E-1
3.524792249E0,1.407479644E-1,2.467416972E-1,2.105227262E-1
3.527279957E0,1.439437568E-1,2.201101035E-1,1.892174482E-1
3.529767665E0,1.428784877E-1,1.998700947E-1,1.743037701E-1
3.532255374E0,1.364869028E-1,1.828258783E-1,1.657816470E-1
3.534743082E0,1.258342713E-1,1.732385010E-1,1.636511236E-1
3.537230790E0,1.098553166E-1,1.679121852E-1,1.689774394E-1
3.539718499E0,8.855003864E-2,1.700427085E-1,1.806953400E-1
3.542206207E0,6.298371404E-2,1.796300858E-1,1.988048255E-1
3.544693915E0,3.422159329E-2,1.966743022E-1,2.222406268E-1
3.547181624E0,1.331579551E-4,2.222406268E-1,2.520680130E-1
3.549669332E0,-3.502054140E-2,2.573943138E-1,2.882869840E-1
3.552157040E0,-7.230477035E-2,3.000048697E-1,3.308975101E-1
3.554644749E0,-1.085237339E-1,3.500722647E-1,3.767038584E-1
3.557132457E0,-1.436774284E-1,4.044007063E-1,4.267712533E-1
3.559620165E0,-1.756353378E-1,4.661859870E-1,4.757733643E-1
3.562107874E0,-2.065279931E-1,5.290365815E-1,5.215796828E-1
3.564595582E0,-2.363553643E-1,5.918871164E-1,5.609944463E-1
3.567083290E0,-2.640522122E-1,6.526071429E-1,5.908218622E-1
3.569570999E0,-2.874880135E-1,7.058703303E-1,6.089313030E-1
3.572058707E0,-3.087933064E-1,7.506113648E-1,6.163882017E-1
3.574546415E0,-3.269027770E-1,7.868303657E-1,6.131923795E-1
3.577034124E0,-3.407512009E-1,8.134619594E-1,5.972134471E-1
3.579521832E0,-3.524691164E-1,8.283756375E-1,5.695165992E-1
3.582009540E0,-3.599259555E-1,8.358324766E-1,5.322323442E-1
3.584497249E0,-3.631217480E-1,8.337019682E-1,4.874912798E-1
3.586984957E0,-3.631217480E-1,8.219840527E-1,4.352933466E-1
3.589472665E0,-3.588607013E-1,8.006787896E-1,3.777691126E-1
3.591960374E0,-3.514038324E-1,7.719166875E-1,3.181143403E-1
3.594448082E0,-3.396859467E-1,7.356976867E-1,2.552638054E-1
3.596935790E0,-3.269027770E-1,6.952176690E-1,1.934785098E-1
3.599423499E0,-3.119890988E-1,6.504766345E-1,1.316932142E-1
3.601911207E0,-2.949448824E-1,6.057355404E-1,7.310371846E-2
3.604398915E0,-2.768353820E-1,5.609944463E-1,1.771000773E-2
3.606886624E0,-2.587259114E-1,5.183839202E-1,-3.342264518E-2
3.609374332E0,-2.395511568E-1,4.779039025E-1,-8.029424399E-2
3.611862040E0,-2.214416862E-1,4.395544231E-1,-1.218395308E-1
3.614349749E0,-2.043974549E-1,4.054659605E-1,-1.569932252E-1
3.616837457E0,-1.862879843E-1,3.735080659E-1,-1.857553422E-1
3.619325165E0,-1.703090221E-1,3.468764722E-1,-2.059953511E-1
3.621812874E0,-1.532648057E-1,3.245059252E-1,-2.177132517E-1
3.624300582E0,-1.372858584E-1,3.106575012E-1,-2.187785208E-1
3.626788290E0,-1.213068962E-1,3.053312004E-1,-2.113216817E-1
3.629275999E0,-1.053279415E-1,3.085269928E-1,-1.932121962E-1
3.631763707E0,-8.934898674E-2,3.202448785E-1,-1.676458716E-1
3.634251415E0,-7.550056279E-2,3.383543491E-1,-1.324921697E-1
3.636739124E0,-6.484792382E-2,3.660512269E-1,-9.201214463E-2
3.639226832E0,-5.632581562E-2,4.001396596E-1,-4.727107286E-2
3.641714540E0,-5.099949613E-2,4.384891391E-1,6.657897611E-4
3.644202249E0,-5.099949613E-2,4.832302332E-1,4.860265180E-2
3.646689957E0,-5.632581562E-2,5.301018357E-1,9.547425061E-2
3.649177665E0,-6.697845459E-2,5.780386925E-1,1.380847991E-1
3.651665374E0,-8.402267098E-2,6.259755492E-1,1.774995476E-1
3.654153082E0,-1.074584723E-1,6.728471518E-1,2.094574571E-1
3.656640790E0,-1.372858584E-1,7.143924236E-1,2.371543199E-1
3.659128499E0,-1.724395454E-1,7.516766787E-1,2.573943138E-1
3.661616207E0,-2.107890397E-1,7.825692892E-1,2.712427676E-1
3.664103915E0,-2.512690723E-1,8.092008829E-1,2.797648609E-1
3.666591624E0,-2.949448824E-1,8.305061460E-1,2.829606533E-1
3.669079332E0,-3.375554085E-1,8.454198837E-1,2.797648609E-1
3.671567040E0,-3.791007102E-1,8.539419770E-1,2.723080218E-1
3.674054749E0,-4.185154438E-1,8.571377397E-1,2.605901062E-1
3.676542457E0,-4.536691606E-1,8.560724854E-1,2.456764281E-1
3.679030217E0,-4.845618010E-1,8.507461548E-1,2.275669426E-1
3.681517978E0,-5.101281404E-1,8.432893157E-1,2.073269337E-1
3.684005738E0,-5.314334035E-1,8.326367140E-1,1.849564016E-1
3.686493499E0,-5.463470817E-1,8.166577220E-1,1.604553312E-1
3.688981259E0,-5.569997430E-1,7.996135354E-1,1.348890066E-1
3.691469019E0,-5.623260736E-1,7.783082724E-1,1.082574204E-1
3.693956780E0,-5.633913279E-1,7.559376955E-1,8.056056499E-2
3.696444540E0,-5.601955056E-1,7.314366698E-1,5.179844424E-2
3.698932301E0,-5.538039207E-1,7.037398219E-1,1.984053478E-2
3.701420061E0,-5.442165732E-1,6.760429144E-1,-1.318263728E-2
3.703907821E0,-5.314334035E-1,6.472808123E-1,-4.620581120E-2
3.706395582E0,-5.175849795E-1,6.206492186E-1,-7.922898233E-2
3.708883342E0,-5.026713014E-1,5.961481929E-1,-1.122521535E-1
3.711371103E0,-4.856270552E-1,5.748428702E-1,-1.420795321E-1
3.713858863E0,-4.685828388E-1,5.577986836E-1,-1.697763950E-1
3.716346624E0,-4.526038766E-1,5.428850055E-1,-1.964079887E-1
3.718834384E0,-4.376901984E-1,5.311670899E-1,-2.166479975E-1
3.721322144E0,-4.238417745E-1,5.226449966E-1,-2.368880063E-1
3.723809905E0,-4.121238589E-1,5.162534118E-1,-2.518016994E-1
3.726297665E0,-4.025365114E-1,5.130575895E-1,-2.635195851E-1
3.728785426E0,-3.972101808E-1,5.130575895E-1,-2.741722167E-1
3.731273186E0,-3.940143883E-1,5.141228437E-1,-2.805638015E-1
3.733760946E0,-3.929491341E-1,5.173186660E-1,-2.837595940E-1
3.736248707E0,-3.961449265E-1,5.226449966E-1,-2.848248780E-1
3.738736467E0,-4.014712274E-1,5.290365815E-1,-2.826943398E-1
3.741224228E0,-4.110586047E-1,5.386239290E-1,-2.773680091E-1
3.743711988E0,-4.217112362E-1,5.492765903E-1,-2.688459158E-1
3.746199749E0,-4.355596602E-1,5.631250143E-1,-2.581932843E-1
3.748687509E0,-4.504733682E-1,5.780386925E-1,-2.432795912E-1
3.751175269E0,-4.664523304E-1,5.972134471E-1,-2.273006290E-1
3.753663030E0,-4.813660085E-1,6.163882017E-1,-2.102564126E-1
3.756150790E0,-4.962796867E-1,6.376934648E-1,-1.921469271E-1
3.758638551E0,-5.079975724E-1,6.579334736E-1,-1.751027107E-1
3.761126259E0,-5.186502337E-1,6.771082282E-1,-1.591237634E-1
3.763613967E0,-5.261070728E-1,6.941524148E-1,-1.452753246E-1
3.766101676E0,-5.303681493E-1,7.080008388E-1,-1.335574239E-1
3.768589384E0,-5.314334035E-1,7.186535001E-1,-1.239700541E-1
3.771077092E0,-5.303681493E-1,7.239798307E-1,-1.175784767E-1
3.773564801E0,-5.250418186E-1,7.282408476E-1,-1.122521535E-1
3.776052509E0,-5.154544711E-1,7.282408476E-1,-1.090563685E-1
3.778540217E0,-5.005407333E-1,7.239798307E-1,-1.079910994E-1
3.781027926E0,-4.813660085E-1,7.143924236E-1,-1.090563685E-1
3.783515634E0,-4.579302073E-1,7.016092539E-1,-1.122521535E-1
3.786003342E0,-4.312986135E-1,6.834998131E-1,-1.197090000E-1
3.788491051E0,-4.025365114E-1,6.632598042E-1,-1.292963773E-1
3.790978759E0,-3.716438413E-1,6.419544816E-1,-1.410142779E-1
3.793466467E0,-3.396859467E-1,6.195839643E-1,-1.548627019E-1
3.795954176E0,-3.087933064E-1,5.972134471E-1,-1.729721874E-1
3.798441884E0,-2.779006660E-1,5.748428702E-1,-1.921469271E-1
3.800929592E0,-2.480732650E-1,5.535376072E-1,-2.166479975E-1
3.803417301E0,-2.193111479E-1,5.332975984E-1,-2.443448454E-1
3.805905009E0,-1.926795542E-1,5.130575895E-1,-2.752375007E-1
3.808392717E0,-1.692437679E-1,4.917523265E-1,-3.103911877E-1
3.810880426E0,-1.468732208E-1,4.715123177E-1,-3.476754129E-1
3.813368134E0,-1.276984811E-1,4.502070546E-1,-3.860249221E-1
3.815855842E0,-1.117195264E-1,4.289017618E-1,-4.243744016E-1
3.818343551E0,-1.000016257E-1,4.107922912E-1,-4.605933726E-1
3.820831259E0,-9.147951752E-2,3.958786130E-1,-4.946818054E-1
3.823318967E0,-8.615319431E-2,3.841606975E-1,-5.255744457E-1
3.825806676E0,-8.508793265E-2,3.756386042E-1,-5.522060394E-1
3.828294384E0,-8.828372508E-2,3.703122735E-1,-5.745765567E-1
3.830782092E0,-9.574057162E-2,3.681817353E-1,-5.926860571E-1
3.833269801E0,-1.063932031E-1,3.692470193E-1,-6.065344810E-1
3.835757509E0,-1.191763729E-1,3.713775277E-1,-6.161218882E-1
3.838245217E0,-1.362205893E-1,3.756386042E-1,-6.214481592E-1
3.840732926E0,-1.543300748E-1,3.820301592E-1,-6.225134134E-1
3.843220634E0,-1.724395454E-1,3.894870281E-1,-6.214481592E-1
3.845708342E0,-1.894837767E-1,3.980091214E-1,-6.150565743E-1
3.848196051E0,-2.043974549E-1,4.097270370E-1,-6.044039726E-1
3.850683759E0,-2.139848322E-1,4.246407151E-1,-5.905555487E-1
3.853171467E0,-2.182458937E-1,4.416849315E-1,-5.713807940E-1
3.855659176E0,-2.193111479E-1,4.608596861E-1,-5.479449630E-1
3.858146884E0,-2.139848322E-1,4.810996950E-1,-5.245091915E-1
3.860634592E0,-2.054627240E-1,5.002744198E-1,-5.000081062E-1
3.863122301E0,-1.905490309E-1,5.183839202E-1,-4.765723348E-1
3.865610009E0,-1.735048145E-1,5.322323442E-1,-4.563323259E-1
3.868097717E0,-1.543300748E-1,5.418196917E-1,-4.403533638E-1
3.870585426E0,-1.330247968E-1,5.471460223E-1,-4.275701940E-1
3.873073134E0,-1.085237339E-1,5.503418446E-1,-4.201133549E-1
3.875560842E0,-8.402267098E-2,5.503418446E-1,-4.169175625E-1
3.878048551E0,-5.845634267E-2,5.492765903E-1,-4.190480709E-1
3.880536259E0,-3.289001435E-2,5.482112765E-1,-4.243744016E-1
3.883023967E0,-6.258423906E-3,5.450155139E-1,-4.339617789E-1
3.885511676E0,1.930790395E-2,5.407544374E-1,-4.467449486E-1
3.887999384E0,4.380896688E-2,5.332975984E-1,-4.637891650E-1
3.890487092E0,6.617950648E-2,5.226449966E-1,-4.818986356E-1
3.892974801E0,8.641951531E-2,5.098618269E-1,-5.021386743E-1
3.895462509E0,1.045289934E-1,4.949481189E-1,-5.245091915E-1
3.897950217E0,1.205079481E-1,4.768386483E-1,-5.490102768E-1
3.900437926E0,1.354216337E-1,4.587291479E-1,-5.724460483E-1
3.902925634E0,1.482048035E-1,4.384891391E-1,-5.958818197E-1
3.905413342E0,1.599227041E-1,4.193144143E-1,-6.193176508E-1
3.907901051E0,1.705753356E-1,3.990744054E-1,-6.416881680E-1
3.910388759E0,1.790974438E-1,3.798996508E-1,-6.619281769E-1
3.912876467E0,1.865542978E-1,3.639206886E-1,-6.789724231E-1
3.915364176E0,1.950764060E-1,3.522028029E-1,-6.917555928E-1
3.917851884E0,2.025332451E-1,3.447459340E-1,-7.034734488E-1
3.920339592E0,2.099900991E-1,3.404848874E-1,-7.130608559E-1
3.922827301E0,2.174469382E-1,3.394196332E-1,-7.215829492E-1
3.925315009E0,2.249037921E-1,3.426154256E-1,-7.279745340E-1
3.927802717E0,2.312953621E-1,3.468764722E-1,-7.354313731E-1
3.930290426E0,2.366216928E-1,3.532680571E-1,-7.428882122E-1
3.932778134E0,2.419480085E-1,3.585943878E-1,-7.482145429E-1
3.935265842E0,2.472743243E-1,3.639206886E-1,-7.524756193E-1
3.937753551E0,2.536658943E-1,3.671164811E-1,-7.567366362E-1
3.940241259E0,2.621880174E-1,3.713775277E-1,-7.588672042E-1
3.942728967E0,2.696448565E-1,3.735080659E-1,-7.620629668E-1
3.945216676E0,2.781669796E-1,3.777691126E-1,-7.652587891E-1
3.947704384E0,2.866890728E-1,3.830954432E-1,-7.695198059E-1
3.950192092E0,2.962764502E-1,3.894870281E-1,-7.748461366E-1
3.952679801E0,3.069290817E-1,3.990744054E-1,-7.812377214E-1
3.955167509E0,3.186469972E-1,4.097270370E-1,-7.897598147E-1
3.957655217E0,3.314301372E-1,4.225101769E-1,-7.993472219E-1
3.960142926E0,3.452785909E-1,4.384891391E-1,-8.099998236E-1
3.962630634E0,3.569964767E-1,4.565986395E-1,-8.217177391E-1
3.965118342E0,3.676491082E-1,4.779039025E-1,-8.355661631E-1
3.967606051E0,3.772364855E-1,5.013396740E-1,-8.483493328E-1
3.970093759E0,3.846933246E-1,5.269060135E-1,-8.632630110E-1
3.972581467E0,3.910849094E-1,5.524723530E-1,-8.792420030E-1
3.975069176E0,3.953459561E-1,5.769734383E-1,-8.973514438E-1
3.977556884E0,3.932154477E-1,5.993439555E-1,-9.154609442E-1
3.980044592E0,3.846933246E-1,6.195839643E-1,-9.367662072E-1
3.982532301E0,3.687143922E-1,6.366282105E-1,-9.580714703E-1
3.985020009E0,3.452785909E-1,6.504766345E-1,-9.804420471E-1
3.987507717E0,3.143859208E-1,6.600639820E-1,-1.000681996E0
3.989995426E0,2.771016955E-1,6.632598042E-1,-1.021987319E0
3.992483134E0,2.366216928E-1,6.621944904E-1,-1.043292522E0
3.994970842E0,1.918806136E-1,6.589987278E-1,-1.061402082E0
3.997458551E0,1.439437568E-1,6.504766345E-1,-1.080576777E0
3.999946259E0,9.600688517E-2,6.387587190E-1,-1.096555710E0
4.002434019E0,4.913528636E-2,6.238450408E-1,-1.110404134E0
4.004921780E0,3.328948980E-3,6.089313030E-1,-1.119991541E0
4.007409540E0,-3.821633384E-2,5.950828791E-1,-1.127448440E0
4.009897301E0,-7.550056279E-2,5.844302773E-1,-1.132774711E0
4.012385061E0,-1.095889956E-1,5.769734383E-1,-1.132774711E0
4.014872821E0,-1.394163817E-1,5.737776160E-1,-1.130644202E0
4.017360582E0,-1.639174372E-1,5.737776160E-1,-1.125317931E0
4.019848342E0,-1.841574460E-1,5.780386925E-1,-1.118926287E0
4.022336103E0,-2.022669315E-1,5.854955316E-1,-1.110404134E0
4.024823863E0,-2.171806246E-1,5.961481929E-1,-1.100816846E0
4.027311624E0,-2.288985252E-1,6.110618711E-1,-1.092294693E0
4.029799384E0,-2.384859025E-1,6.302366257E-1,-1.081642032E0
4.032287144E0,-2.470080107E-1,6.526071429E-1,-1.073119998E0
4.034774905E0,-2.544648647E-1,6.771082282E-1,-1.062467337E0
4.037262665E0,-2.608564198E-1,7.037398219E-1,-1.052879930E0
4.039750426E0,-2.683132887E-1,7.314366698E-1,-1.043292522E0
4.042238186E0,-2.779006660E-1,7.570029497E-1,-1.034770489E0
4.044725946E0,-2.896185517E-1,7.804387808E-1,-1.028378844E0
4.047213707E0,-3.055975139E-1,7.974829674E-1,-1.024117827E0
4.049701467E0,-3.247722387E-1,8.113313913E-1,-1.023052573E0
4.052189228E0,-3.492733240E-1,8.209187984E-1,-1.025183082E0
4.054676988E0,-3.769701719E-1,8.251798749E-1,-1.028378844E0
4.057164749E0,-4.078628123E-1,8.251798749E-1,-1.032639980E0
4.059652509E0,-4.419512451E-1,8.177229762E-1,-1.037966251E0
4.062140269E0,-4.781702161E-1,8.028092980E-1,-1.041162014E0
4.064628030E0,-5.133239031E-1,7.772429585E-1,-1.043292522E0
4.067115790E0,-5.463470817E-1,7.431545258E-1,-1.042227268E0
4.069603551E0,-5.751091838E-1,7.005439997E-1,-1.039031506E0
4.072091311E0,-5.996102691E-1,6.504766345E-1,-1.032639980E0
4.074579071E0,-6.187850237E-1,5.940176249E-1,-1.025183082E0
4.077066832E0,-6.305029392E-1,5.343628526E-1,-1.016660929E0
4.079554592E0,-6.347639561E-1,4.736428559E-1,-1.007073641E0
4.082042353E0,-6.315681934E-1,4.150533378E-1,-9.953557253E-1
4.084530061E0,-6.187850237E-1,3.596596420E-1,-9.815073013E-1
4.087017769E0,-5.953491926E-1,3.095922470E-1,-9.655283093E-1
4.089505478E0,-5.633913279E-1,2.659164369E-1,-9.463536143E-1
4.091993186E0,-5.218459964E-1,2.296974659E-1,-9.250482917E-1
4.094480894E0,-4.749744236E-1,1.998700947E-1,-9.005472660E-1
4.096968603E0,-4.238417745E-1,1.764342934E-1,-8.749809265E-1
4.099456311E0,-3.695133328E-1,1.593900770E-1,-8.472840786E-1
4.101944019E0,-3.151848912E-1,1.466069072E-1,-8.195872307E-1
4.104431728E0,-2.619217038E-1,1.402153224E-1,-7.908250690E-1
4.106919436E0,-2.118543088E-1,1.402153224E-1,-7.609977126E-1
4.109407144E0,-1.660479754E-1,1.455416381E-1,-7.311703563E-1
4.111894853E0,-1.266332120E-1,1.551290154E-1,-7.013429403E-1
4.114382561E0,-9.467530251E-2,1.689774394E-1,-6.704503298E-1
4.116870269E0,-6.804371625E-2,1.849564016E-1,-6.384924054E-1
4.119357978E0,-4.886896908E-2,2.030658871E-1,-6.044039726E-1
4.121845686E0,-3.821633384E-2,2.233058959E-1,-5.692502856E-1
4.124333394E0,-3.502054140E-2,2.456764281E-1,-5.330312848E-1
4.126821103E0,-3.821633384E-2,2.712427676E-1,-4.957470596E-1
4.129308811E0,-4.886896908E-2,2.978743315E-1,-4.595280886E-1
4.131796519E0,-6.910897791E-2,3.266364634E-1,-4.233091474E-1
4.134284228E0,-9.680583328E-2,3.575291038E-1,-3.892207146E-1
4.136771936E0,-1.330247968E-1,3.894870281E-1,-3.572627902E-1
4.139259644E0,-1.767006069E-1,4.193144143E-1,-3.253048956E-1
4.141747353E0,-2.278332561E-1,4.448807240E-1,-2.944122255E-1
4.144235061E0,-2.821617126E-1,4.629902244E-1,-2.635195851E-1
4.146722769E0,-3.396859467E-1,4.736428559E-1,-2.336922139E-1
4.149210478E0,-3.972101808E-1,4.757733643E-1,-2.049300969E-1
4.151698186E0,-4.547344148E-1,4.704470634E-1,-1.772332340E-1
4.154185894E0,-5.090628862E-1,4.597944319E-1,-1.516669095E-1
4.156673603E0,-5.591302514E-1,4.448807240E-1,-1.271658540E-1
4.159161311E0,-6.060018539E-1,4.278365076E-1,-1.058605760E-1
4.161649019E0,-6.454166174E-1,4.107922912E-1,-8.455529809E-2
4.164136728E0,-6.763092279E-1,3.926828206E-1,-6.644582003E-2
4.166624436E0,-6.976145506E-1,3.745733202E-1,-4.727107286E-2
4.169112144E0,-7.093324065E-1,3.585943878E-1,-3.129211813E-2
4.171599853E0,-7.114629745E-1,3.426154256E-1,-1.531316526E-2
4.174087561E0,-7.018755674E-1,3.277017176E-1,-3.994738800E-4
4.176575269E0,-6.805703044E-1,3.127880394E-1,1.238369010E-2
4.179062978E0,-6.475471258E-1,2.989396155E-1,2.516685426E-2
4.181550686E0,-6.049365997E-1,2.850911915E-1,3.901528195E-2
4.184038394E0,-5.516734123E-1,2.733732760E-1,5.392897129E-2
4.186526103E0,-4.920186400E-1,2.616553903E-1,6.990792602E-2
4.189013811E0,-4.249070287E-1,2.520680130E-1,8.695214242E-2
4.191501519E0,-3.524691164E-1,2.446111590E-1,1.050616279E-1
4.193989228E0,-2.789659202E-1,2.392848432E-1,1.242363751E-1
4.196476936E0,-2.033322006E-1,2.360890508E-1,1.444763839E-1
4.198964644E0,-1.308942735E-1,2.360890508E-1,1.657816470E-1
4.201452353E0,-6.165213138E-2,2.403501123E-1,1.892174482E-1
4.203940061E0,1.331579551E-4,2.488722205E-1,2.105227262E-1
4.206427769E0,5.446160212E-2,2.595248520E-1,2.328932583E-1
4.208915478E0,9.920267761E-2,2.712427676E-1,2.541985512E-1
4.211403186E0,1.343563795E-1,2.840259075E-1,2.755038142E-1
4.213890894E0,1.588574350E-1,2.946785688E-1,2.957438231E-1
4.216378603E0,1.727058738E-1,3.021354079E-1,3.138532937E-1
4.218866311E0,1.759016514E-1,3.042659163E-1,3.298322558E-1
4.221354019E0,1.705753356E-1,3.021354079E-1,3.415501416E-1
4.223841728E0,1.556616426E-1,2.936132848E-1,3.500722647E-1
4.226329436E0,1.322258562E-1,2.797648609E-1,3.553985953E-1
4.228817144E0,1.023984700E-1,2.605901062E-1,3.564638495E-1
4.231304853E0,6.724476814E-2,2.392848432E-1,3.532680571E-1
4.233792561E0,2.996053919E-2,2.147837877E-1,3.468764722E-1
4.236280269E0,-9.454214945E-3,1.881521940E-1,3.362238407E-1
4.238767978E0,-4.780370742E-2,1.615206003E-1,3.223754168E-1
4.241255686E0,-8.402267098E-2,1.327584833E-1,3.042659163E-1
4.243743394E0,-1.159805804E-1,1.039963663E-1,2.829606533E-1
4.246231103E0,-1.415469050E-1,7.523424178E-2,2.595248520E-1
4.248718811E0,-1.607216448E-1,4.860265180E-2,2.328932583E-1
4.251206519E0,-1.745700836E-1,2.516685426E-2,2.030658871E-1
4.253694228E0,-1.820269227E-1,5.992108025E-3,1.721732318E-1
4.256181936E0,-1.841574460E-1,-5.725792143E-3,1.402153224E-1
4.258669644E0,-1.788311303E-1,-1.211737376E-2,1.093226820E-1
4.261157353E0,-1.692437679E-1,-1.318263728E-2,8.056056499E-2
4.263645061E0,-1.543300748E-1,-8.921583183E-3,5.605949834E-2
4.266132769E0,-1.372858584E-1,-1.464737463E-3,3.795001656E-2
4.268620478E0,-1.181111038E-1,1.025316212E-2,2.410159074E-2
4.271108186E0,-9.680583328E-2,2.090579830E-2,1.664474420E-2
4.273595894E0,-7.656582445E-2,3.262370080E-2,1.238369010E-2
4.276083603E0,-5.739107728E-2,4.221107066E-2,1.238369010E-2
4.278571311E0,-4.141212255E-2,4.860265180E-2,1.557948068E-2
4.281059019E0,-2.969422378E-2,5.392897129E-2,2.197106183E-2
4.283546728E0,-2.117211558E-2,5.605949834E-2,3.049317189E-2
4.286034436E0,-1.797632314E-2,5.605949834E-2,3.901528195E-2
4.288522144E0,-1.904158667E-2,5.499423668E-2,4.860265180E-2
4.291009853E0,-2.436790615E-2,5.073318258E-2,5.712476373E-2
4.293497561E0,-3.395527974E-2,4.540686309E-2,6.671213359E-2
4.295985269E0,-4.780370742E-2,3.795001656E-2,7.416898012E-2
4.298472978E0,-6.271740049E-2,2.623211779E-2,8.162582666E-2
4.300960686E0,-8.082687855E-2,1.344895363E-2,8.908267319E-2
4.303448394E0,-9.893636405E-2,-3.994738800E-4,9.653951973E-2
4.305936103E0,-1.191763729E-1,-1.318263728E-2,1.029310971E-1
4.308423811E0,-1.394163817E-1,-2.596580051E-2,1.082574204E-1
4.310911519E0,-1.596563905E-1,-3.874896467E-2,1.146489978E-1
4.313399228E0,-1.798963994E-1,-4.940159991E-2,1.199753210E-1
4.315886936E0,-2.001364082E-1,-5.898897350E-2,1.242363751E-1
4.318374644E0,-2.171806246E-1,-6.644582003E-2,1.295626909E-1
4.320862353E0,-2.331595868E-1,-7.283740491E-2,1.338237375E-1
4.323350061E0,-2.470080107E-1,-7.922898233E-2,1.380847991E-1
4.325837769E0,-2.576606572E-1,-8.455529809E-2,1.402153224E-1
4.328325530E0,-2.640522122E-1,-8.881635964E-2,1.412805915E-1
4.330813290E0,-2.693785429E-1,-9.094688296E-2,1.402153224E-1
4.333301051E0,-2.715090811E-1,-9.094688296E-2,1.370195299E-1
4.335788811E0,-2.725743353E-1,-9.094688296E-2,1.327584833E-1
4.338276571E0,-2.693785429E-1,-8.988162130E-2,1.284974217E-1
4.340764332E0,-2.640522122E-1,-9.094688296E-2,1.263668984E-1
4.343252092E0,-2.555301189E-1,-9.307741374E-2,1.221058443E-1
4.345739853E0,-2.448774725E-1,-9.627319872E-2,1.210405827E-1
4.348227613E0,-2.342248410E-1,-1.026647836E-1,1.221058443E-1
4.350715374E0,-2.225069404E-1,-1.111868918E-1,1.242363751E-1
4.353203134E0,-2.097237855E-1,-1.229047924E-1,1.274321675E-1
4.355690894E0,-1.958753467E-1,-1.367532164E-1,1.338237375E-1
4.358178655E0,-1.809616536E-1,-1.527321786E-1,1.434111148E-1
4.360666415E0,-1.660479754E-1,-1.719069183E-1,1.561942846E-1
4.363154176E0,-1.511342824E-1,-1.910816729E-1,1.711079776E-1
4.365641936E0,-1.372858584E-1,-2.113216817E-1,1.881521940E-1
4.368129696E0,-1.255679578E-1,-2.304964215E-1,2.105227262E-1
4.370617457E0,-1.149153188E-1,-2.475406379E-1,2.371543199E-1
4.373105217E0,-1.053279415E-1,-2.645848691E-1,2.680469751E-1
4.375592978E0,-9.574057162E-2,-2.816290855E-1,3.042659163E-1
4.378080738E0,-8.828372508E-2,-2.986733019E-1,3.447459340E-1
4.380568499E0,-8.082687855E-2,-3.167827725E-1,3.884217441E-1
4.383056259E0,-7.443529367E-2,-3.348922431E-1,4.331628382E-1
4.385544019E0,-6.804371625E-2,-3.540669978E-1,4.768386483E-1
4.388031780E0,-6.271740049E-2,-3.721764982E-1,5.183839202E-1
4.390519540E0,-5.739107728E-2,-3.902859688E-1,5.567334294E-1
4.393007301E0,-5.313002318E-2,-4.073301852E-1,5.897566080E-1
4.395495061E0,-4.673844203E-2,-4.211786091E-1,6.174534559E-1
4.397982821E0,-4.034686089E-2,-4.307659864E-1,6.398239732E-1
4.400470582E0,-3.395527974E-2,-4.371575713E-1,6.558029056E-1
4.402958342E0,-2.436790615E-2,-4.392880797E-1,6.664555669E-1
4.405446103E0,-1.584579609E-2,-4.392880797E-1,6.707166433E-1
4.407933863E0,-5.193160381E-3,-4.360923171E-1,6.696513295E-1
4.410421571E0,5.459476262E-3,-4.307659864E-1,6.643250585E-1
4.412909280E0,1.611211337E-2,-4.254396558E-1,6.558029056E-1
4.415396988E0,2.569948509E-2,-4.190480709E-1,6.440850496E-1
4.417884696E0,3.635212034E-2,-4.115912318E-1,6.302366257E-1
4.420372405E0,4.593949392E-2,-4.062649310E-1,6.174534559E-1
4.422860113E0,5.552686751E-2,-4.020038545E-1,6.014744639E-1
4.425347821E0,6.404897571E-2,-3.998733461E-1,5.876260400E-1
4.427835530E0,7.044056058E-2,-3.966775537E-1,5.727123618E-1
4.430323238E0,7.576687634E-2,-3.934817612E-1,5.577986836E-1
4.432810946E0,7.789740711E-2,-3.892207146E-1,5.439502597E-1
4.435298655E0,7.576687634E-2,-3.849596381E-1,5.311670899E-1
4.437786363E0,7.257108390E-2,-3.817638457E-1,5.183839202E-1
4.440274071E0,6.724476814E-2,-3.775027990E-1,5.077312589E-1
4.442761780E0,5.872265995E-2,-3.753722608E-1,5.002744198E-1
4.445249488E0,5.020054802E-2,-3.743070066E-1,4.960133731E-1
4.447737196E0,3.954791278E-2,-3.743070066E-1,4.949481189E-1
4.450224905E0,2.569948509E-2,-3.764375448E-1,4.992091656E-1
4.452712613E0,1.185105834E-2,-3.828291297E-1,5.077312589E-1
4.455200321E0,-4.127896391E-3,-3.924165070E-1,5.205144286E-1
4.457688030E0,-1.904158667E-2,-4.051996469E-1,5.364934206E-1
4.460175738E0,-3.289001435E-2,-4.211786091E-1,5.546028614E-1
4.462663446E0,-4.673844203E-2,-4.371575713E-1,5.748428702E-1
4.465151155E0,-5.739107728E-2,-4.520712495E-1,5.982787013E-1
4.467638863E0,-6.484792382E-2,-4.659196734E-1,6.206492186E-1
4.470126571E0,-6.804371625E-2,-4.765723348E-1,6.440850496E-1
4.472614280E0,-6.804371625E-2,-4.840291739E-1,6.653903127E-1
4.475101988E0,-6.271740049E-2,-4.882902205E-1,6.856303215E-1
4.477589696E0,-5.526055023E-2,-4.882902205E-1,7.026745081E-1
4.480077405E0,-4.354264960E-2,-4.829638898E-1,7.154576778E-1
4.482565113E0,-2.969422378E-2,-4.755070508E-1,7.250450850E-1
4.485052821E0,-1.478053257E-2,-4.637891650E-1,7.303713560E-1
4.487540530E0,1.331579551E-4,-4.478102028E-1,7.325019240E-1
4.490028238E0,1.504684892E-2,-4.297007322E-1,7.303713560E-1
4.492515946E0,2.783001214E-2,-4.094607234E-1,7.239798307E-1
4.495003655E0,3.741738573E-2,-3.892207146E-1,7.133271694E-1
4.497491363E0,4.380896688E-2,-3.689807057E-1,6.994787455E-1
4.499979071E0,4.593949392E-2,-3.519364893E-1,6.813692451E-1
4.502466780E0,4.487423226E-2,-3.380880356E-1,6.611292362E-1
4.504954488E0,4.061317816E-2,-3.274354041E-1,6.387587190E-1
4.507442196E0,3.315633163E-2,-3.199785650E-1,6.142576337E-1
4.509929905E0,2.356895804E-2,-3.178480268E-1,5.908218622E-1
4.512417613E0,1.291632187E-2,-3.178480268E-1,5.684512854E-1
4.514905321E0,-9.321057005E-4,-3.199785650E-1,5.460807681E-1
4.517393030E0,-1.371526904E-2,-3.242396116E-1,5.247755051E-1
4.519880738E0,-2.862896025E-2,-3.285006881E-1,5.045354962E-1
4.522368446E0,-4.141212255E-2,-3.359575272E-1,4.874912798E-1
4.524856155E0,-5.526055023E-2,-3.434143662E-1,4.715123177E-1
4.527343863E0,-6.910897791E-2,-3.530017436E-1,4.597944319E-1
4.529831571E0,-7.976161689E-2,-3.647196293E-1,4.523375630E-1
4.532319280E0,-9.041424841E-2,-3.764375448E-1,4.480765164E-1
4.534806988E0,-9.680583328E-2,-3.881554306E-1,4.480765164E-1
4.537294696E0,-1.021321490E-1,-4.009386003E-1,4.534028471E-1
4.539782405E0,-1.031974182E-1,-4.137217700E-1,4.619249403E-1
4.542270113E0,-1.010668874E-1,-4.243744016E-1,4.747081101E-1
4.544757821E0,-9.467530251E-2,-4.328965247E-1,4.938828647E-1
4.547245530E0,-8.295740932E-2,-4.403533638E-1,5.162534118E-1
4.549733238E0,-6.591318548E-2,-4.467449486E-1,5.439502597E-1
4.552220946E0,-4.460791498E-2,-4.531365335E-1,5.737776160E-1
4.554708655E0,-1.797632314E-2,-4.584628344E-1,6.068007946E-1
4.557196363E0,1.185105834E-2,-4.605933726E-1,6.419544816E-1
4.559684071E0,4.380896688E-2,-4.605933726E-1,6.760429144E-1
4.562171780E0,7.576687634E-2,-4.584628344E-1,7.080008388E-1
4.564659488E0,1.077247858E-1,-4.510059953E-1,7.378282547E-1
4.567147196E0,1.364869028E-1,-4.392880797E-1,7.612640262E-1
4.569634905E0,1.620532274E-1,-4.233091474E-1,7.793735266E-1
4.572122613E0,1.865542978E-1,-4.041343927E-1,7.921566963E-1
4.574610321E0,2.057290375E-1,-3.806985915E-1,7.996135354E-1
4.577098030E0,2.206427306E-1,-3.572627902E-1,8.006787896E-1
4.579585738E0,2.302301079E-1,-3.327617347E-1,7.964177132E-1
4.582073446E0,2.334259003E-1,-3.114564717E-1,7.868303657E-1
4.584561155E0,2.302301079E-1,-2.912164330E-1,7.719166875E-1
4.587048863E0,2.185122073E-1,-2.763027549E-1,7.538071871E-1
4.589536571E0,1.993374527E-1,-2.645848691E-1,7.335671782E-1
4.592024280E0,1.727058738E-1,-2.560627460E-1,7.111966610E-1
4.594511988E0,1.364869028E-1,-2.539322078E-1,6.877608299E-1
4.596999696E0,9.494162351E-2,-2.549974918E-1,6.653903127E-1
4.599487405E0,4.700475931E-2,-2.603237927E-1,6.440850496E-1
4.601975113E0,-4.127896391E-3,-2.688459158E-1,6.238450408E-1
4.604462821E0,-5.739107728E-2,-2.794985473E-1,6.068007946E-1
4.606950530E0,-1.117195264E-1,-2.944122255E-1,5.918871164E-1
4.609438238E0,-1.639174372E-1,-3.093259335E-1,5.791039467E-1
4.611925946E0,-2.139848322E-1,-3.253048956E-1,5.673860312E-1
4.614413655E0,-2.597911656E-1,-3.402185738E-1,5.588639379E-1
4.616901363E0,-2.992059290E-1,-3.540669978E-1,5.503418446E-1
4.619389071E0,-3.322291076E-1,-3.647196293E-1,5.439502597E-1
4.621876780E0,-3.577954173E-1,-3.743070066E-1,5.396891832E-1
4.624364488E0,-3.737743795E-1,-3.796333373E-1,5.354281664E-1
4.626852196E0,-3.812312186E-1,-3.849596381E-1,5.332975984E-1
4.629339905E0,-3.791007102E-1,-3.870901763E-1,5.290365815E-1
4.631827613E0,-3.705785871E-1,-3.902859688E-1,5.247755051E-1
4.634315321E0,-3.524691164E-1,-3.924165070E-1,5.183839202E-1
4.636803030E0,-3.269027770E-1,-3.966775537E-1,5.130575895E-1
4.639290738E0,-2.928143442E-1,-4.020038545E-1,5.077312589E-1
4.641778446E0,-2.512690723E-1,-4.062649310E-1,5.056007504E-1
4.644266155E0,-2.043974549E-1,-4.094607234E-1,5.077312589E-1
4.646753915E0,-1.532648057E-1,-4.105259776E-1,5.119923353E-1
4.649241676E0,-9.893636405E-2,-4.062649310E-1,5.205144286E-1
4.651729436E0,-4.247738793E-2,-3.977428079E-1,5.311670899E-1
4.654217196E0,1.185105834E-2,-3.860249221E-1,5.428850055E-1
4.656704957E0,6.298371404E-2,-3.711112142E-1,5.567334294E-1
4.659192717E0,1.119858399E-1,-3.540669978E-1,5.695165992E-1
4.661680478E0,1.545963883E-1,-3.359575272E-1,5.801692009E-1
4.664168238E0,1.908153445E-1,-3.157175183E-1,5.897566080E-1
4.666655999E0,2.185122073E-1,-2.944122255E-1,5.972134471E-1
4.669143759E0,2.366216928E-1,-2.741722167E-1,6.004092097E-1
4.671631519E0,2.451438010E-1,-2.539322078E-1,6.014744639E-1
4.674119280E0,2.451438010E-1,-2.358227372E-1,6.004092097E-1
4.676607040E0,2.355564237E-1,-2.187785208E-1,5.972134471E-1
4.679094801E0,2.153164148E-1,-2.027995586E-1,5.929523706E-1
4.681582561E0,1.854890287E-1,-1.889511347E-1,5.876260400E-1
4.684070321E0,1.450090110E-1,-1.782985032E-1,5.801692009E-1
4.686558082E0,9.494162351E-2,-1.708416492E-1,5.716471076E-1
4.689045842E0,3.741738573E-2,-1.665806025E-1,5.631250143E-1
4.691533603E0,-2.543316968E-2,-1.655153334E-1,5.524723530E-1
4.694021363E0,-9.574057162E-2,-1.665806025E-1,5.418196917E-1
4.696509124E0,-1.681784987E-1,-1.719069183E-1,5.279712677E-1
4.698996884E0,-2.427469492E-1,-1.782985032E-1,5.141228437E-1
4.701484644E0,-3.151848912E-1,-1.889511347E-1,4.992091656E-1
4.703972405E0,-3.844270110E-1,-2.027995586E-1,4.810996950E-1
4.706460165E0,-4.462123215E-1,-2.209090441E-1,4.619249403E-1
4.708947926E0,-5.005407333E-1,-2.432795912E-1,4.406196773E-1
4.711435686E0,-5.442165732E-1,-2.709764242E-1,4.171838760E-1
4.713923446E0,-5.751091838E-1,-3.029343486E-1,3.916175365E-1
4.716411207E0,-5.942839384E-1,-3.391533196E-1,3.649859428E-1
4.718898967E0,-6.017407775E-1,-3.764375448E-1,3.372890949E-1
4.721386728E0,-5.942839384E-1,-4.126565158E-1,3.095922470E-1
4.723874488E0,-5.740439296E-1,-4.467449486E-1,2.850911915E-1
4.726362249E0,-5.410207510E-1,-4.776375890E-1,2.648511827E-1
4.728849957E0,-4.962796867E-1,-5.021386743E-1,2.488722205E-1
4.731337665E0,-4.408859909E-1,-5.223786831E-1,2.382195890E-1
4.733825374E0,-3.759049177E-1,-5.362271070E-1,2.328932583E-1
4.736313082E0,-3.045322299E-1,-5.436839461E-1,2.318280041E-1
4.738800790E0,-2.278332561E-1,-5.468797088E-1,2.350237966E-1
4.741288499E0,-1.490037590E-1,-5.458144546E-1,2.435459048E-1
4.743776207E0,-7.017423958E-2,-5.436839461E-1,2.552638054E-1
4.746263915E0,7.590003312E-3,-5.404881239E-1,2.691122293E-1
4.748751624E0,8.215846121E-2,-5.362271070E-1,2.861564457E-1
4.751239332E0,1.503353268E-1,-5.309007764E-1,3.032006621E-1
4.753727040E0,2.110553533E-1,-5.255744457E-1,3.213101327E-1
4.756214749E0,2.643185556E-1,-5.191828609E-1,3.394196332E-1
4.758702457E0,3.079943359E-1,-5.127912760E-1,3.585943878E-1
4.761190165E0,3.410175145E-1,-5.063996911E-1,3.777691126E-1
4.763677874E0,3.644533157E-1,-5.010733604E-1,3.980091214E-1
4.766165582E0,3.783017397E-1,-4.957470596E-1,4.182491302E-1
4.768653290E0,3.804322779E-1,-4.893554747E-1,4.395544231E-1
4.771140999E0,3.729754388E-1,-4.840291739E-1,4.597944319E-1
4.773628707E0,3.580617309E-1,-4.797681272E-1,4.789691567E-1
4.776116415E0,3.324954212E-1,-4.755070508E-1,4.960133731E-1
4.778604124E0,3.005374968E-1,-4.733765423E-1,5.098618269E-1
4.781091832E0,2.621880174E-1,-4.712460041E-1,5.183839202E-1
4.783579540E0,2.174469382E-1,-4.712460041E-1,5.205144286E-1
4.786067249E0,1.705753356E-1,-4.733765423E-1,5.162534118E-1
4.788554957E0,1.215732098E-1,-4.787028432E-1,5.034702420E-1
4.791042665E0,7.257108390E-2,-4.861596823E-1,4.842954874E-1
4.793530374E0,2.676474862E-2,-4.968123436E-1,4.587291479E-1
4.796018082E0,-1.478053257E-2,-5.106607676E-1,4.267712533E-1
4.798505790E0,-5.313002318E-2,-5.234439373E-1,3.905522823E-1
4.800993499E0,-8.828372508E-2,-5.351617932E-1,3.490070105E-1
4.803481207E0,-1.159805804E-1,-5.436839461E-1,3.053312004E-1
4.805968915E0,-1.404816359E-1,-5.490102768E-1,2.573943138E-1
4.808456624E0,-1.596563905E-1,-5.522060394E-1,2.094574571E-1
4.810944332E0,-1.724395454E-1,-5.543365479E-1,1.604553312E-1
4.813432040E0,-1.820269227E-1,-5.543365479E-1,1.146489978E-1
4.815919749E0,-1.862879843E-1,-5.532712936E-1,7.097318769E-2
4.818407457E0,-1.852227151E-1,-5.522060394E-1,3.368896246E-2
4.820895165E0,-1.809616536E-1,-5.500755310E-1,-3.994738800E-4
4.823382874E0,-1.735048145E-1,-5.468797088E-1,-2.703106403E-2
4.825870582E0,-1.649827063E-1,-5.436839461E-1,-4.833633825E-2
4.828358290E0,-1.553953290E-1,-5.404881239E-1,-6.218476593E-2
4.830845999E0,-1.458079666E-1,-5.372923613E-1,-6.964161247E-2
4.833333707E0,-1.362205893E-1,-5.362271070E-1,-6.964161247E-2
4.835821415E0,-1.276984811E-1,-5.340965390E-1,-6.431528926E-2
4.838309124E0,-1.223721579E-1,-5.330312848E-1,-5.153212696E-2
4.840796832E0,-1.191763729E-1,-5.340965390E-1,-3.235738352E-2
4.843284540E0,-1.170458421E-1,-5.340965390E-1,-8.921583183E-3
4.845772249E0,-1.170458421E-1,-5.351617932E-1,2.090579830E-2
4.848259957E0,-1.191763729E-1,-5.351617932E-1,5.499423668E-2
4.850747665E0,-1.213068962E-1,-5.340965390E-1,9.334372729E-2
4.853235374E0,-1.245026886E-1,-5.340965390E-1,1.338237375E-1
4.855723082E0,-1.298290044E-1,-5.340965390E-1,1.774995476E-1
4.858210790E0,-1.340900660E-1,-5.319660306E-1,2.201101035E-1
4.860698499E0,-1.383511126E-1,-5.309007764E-1,2.605901062E-1
4.863186207E0,-1.415469050E-1,-5.298355222E-1,2.989396155E-1
4.865673915E0,-1.436774284E-1,-5.277049541E-1,3.330280483E-1
4.868161624E0,-1.447426975E-1,-5.266396999E-1,3.607248962E-1
4.870649332E0,-1.426121742E-1,-5.245091915E-1,3.809649050E-1
4.873137040E0,-1.404816359E-1,-5.223786831E-1,3.926828206E-1
4.875624749E0,-1.351553202E-1,-5.181176066E-1,3.969438672E-1
4.878112457E0,-1.287637353E-1,-5.127912760E-1,3.926828206E-1
4.880600165E0,-1.202416345E-1,-5.053344369E-1,3.809649050E-1
4.883087874E0,-1.095889956E-1,-4.968123436E-1,3.639206886E-1
4.885575582E0,-9.787109494E-2,-4.850944281E-1,3.404848874E-1
4.888063290E0,-8.402267098E-2,-4.712460041E-1,3.117227852E-1
4.890550999E0,-7.123950869E-2,-4.573975801E-1,2.776343226E-1
4.893038707E0,-5.845634267E-2,-4.435491562E-1,2.403501123E-1
4.895526415E0,-4.567318037E-2,-4.297007322E-1,2.009353489E-1
4.898014124E0,-3.289001435E-2,-4.201133549E-1,1.604553312E-1
4.900501832E0,-2.117211558E-2,-4.147870243E-1,1.199753210E-1
4.902989540E0,-1.051947847E-2,-4.126565158E-1,8.162582666E-2
4.905477249E0,-1.997369342E-3,-4.137217700E-1,4.647212476E-2
4.907964957E0,5.459476262E-3,-4.190480709E-1,1.557948068E-2
4.910452665E0,1.291632187E-2,-4.265049398E-1,-1.105211023E-2
4.912940374E0,1.824264042E-2,-4.360923171E-1,-3.235738352E-2
4.915428082E0,2.250369452E-2,-4.488754570E-1,-4.940159991E-2
4.917915790E0,2.569948509E-2,-4.616586268E-1,-6.218476593E-2
4.920403499E0,2.569948509E-2,-4.765723348E-1,-6.964161247E-2
4.922891207E0,2.356895804E-2,-4.925512671E-1,-7.283740491E-2
4.925378915E0,1.930790395E-2,-5.074649453E-1,-7.177213579E-2
4.927866624E0,1.291632187E-2,-5.223786831E-1,-6.644582003E-2
4.930354332E0,4.394212738E-3,-5.372923613E-1,-5.685844645E-2
4.932842040E0,-3.062632866E-3,-5.490102768E-1,-4.194475710E-2
4.935329749E0,-1.158474199E-2,-5.585976243E-1,-2.383527346E-2
4.937817457E0,-2.010685205E-2,-5.649892092E-1,-1.464737463E-3
4.940305165E0,-2.862896025E-2,-5.671197176E-1,2.303632535E-2
4.942792874E0,-3.502054140E-2,-5.671197176E-1,4.966791719E-2
4.945280582E0,-3.928159550E-2,-5.660544634E-1,7.843003422E-2
4.947768290E0,-4.034686089E-2,-5.639239550E-1,1.061268896E-1
4.950255999E0,-3.928159550E-2,-5.628587008E-1,1.327584833E-1
4.952743707E0,-3.395527974E-2,-5.617933869E-1,1.572595388E-1
4.955231415E0,-2.649843320E-2,-5.628587008E-1,1.785648167E-1
4.957719124E0,-1.691105962E-2,-5.628587008E-1,1.945437789E-1
4.960206832E0,-6.258423906E-3,-5.607281327E-1,2.051964104E-1
4.962694540E0,5.459476262E-3,-5.585976243E-1,2.105227262E-1
4.965182301E0,1.717737690E-2,-5.554018021E-1,2.105227262E-1
4.967670061E0,2.889527567E-2,-5.490102768E-1,2.062616795E-1
4.970157821E0,4.061317816E-2,-5.426186919E-1,1.966743022E-1
4.972645582E0,5.233107507E-2,-5.330312848E-1,1.817606091E-1
4.975133342E0,6.298371404E-2,-5.223786831E-1,1.625858694E-1
4.977621103E0,7.363634557E-2,-5.106607676E-1,1.402153224E-1
4.980108863E0,8.322372288E-2,-5.000081062E-1,1.157142594E-1
4.982596624E0,9.281109273E-2,-4.872249663E-1,8.801741153E-2
4.985084384E0,1.002679393E-1,-4.765723348E-1,5.819002539E-2
4.987572144E0,1.045289934E-1,-4.659196734E-1,2.836264484E-2
