"Time (s)","Linear Acceleration x (m/s^2)","Linear Acceleration y (m/s^2)","Linear Acceleration z (m/s^2)","Absolute acceleration (m/s^2)"
1.129008020E-1,-1.517902851E0,7.384206057E-1,-1.302337408E0,2.131988926E0
1.178060100E-1,-1.367816925E0,7.135843039E-1,-1.162837982E0,1.931920773E0
1.227112180E-1,-1.232909679E0,6.542415619E-1,-9.262075424E-1,1.675099612E0
1.276164270E-1,-1.002259254E0,4.994629622E-1,-6.349339485E-1,1.287294831E0
1.325216350E-1,-6.121077538E-1,2.404873371E-1,-2.706785798E-1,7.111799738E-1
1.374268430E-1,-1.085400581E-1,-1.545914412E-1,1.615339518E-1,2.485410941E-1
1.423320520E-1,2.773556709E-1,-5.735349655E-1,6.257952452E-1,8.930219559E-1
1.472396560E-1,5.466446877E-1,-9.148569107E-1,9.526320696E-1,1.429437456E0
1.521522600E-1,7.709398270E-1,-1.212454557E0,1.169778824E0,1.852775423E0
1.570722080E-1,8.541173935E-1,-1.443486452E0,1.297256470E0,2.120387702E0
1.620014270E-1,7.262458801E-1,-1.480845928E0,1.375931263E0,2.147911679E0
1.669413750E-1,4.193964005E-1,-1.347652435E0,1.362336516E0,1.961637380E0
1.718930410E-1,3.615140915E-2,-1.169620156E0,1.146053314E0,1.637912218E0
1.768568950E-1,-2.478218079E-1,-1.007000327E0,7.442105412E-1,1.276446096E0
1.818329370E-1,-4.148550034E-1,-8.075120449E-1,1.540106386E-1,9.208146683E-1
1.868206450E-1,-5.024480820E-1,-5.482295752E-1,-5.040750504E-1,8.983882226E-1
1.918190830E-1,-4.956197739E-1,-3.770004511E-1,-1.013190269E0,1.189253052E0
1.968268950E-1,-2.503361702E-1,-4.784615040E-1,-1.292623520E0,1.400881570E0
2.018424160E-1,1.471309662E-1,-8.477716446E-1,-1.411213875E0,1.652842667E0
2.068637180E-1,5.447320938E-1,-1.287522912E0,-1.259126186E0,1.881448127E0
2.118887700E-1,9.018573761E-1,-1.607155085E0,-9.467831254E-1,2.071881386E0
2.169154370E-1,1.188240051E0,-1.890563369E0,-5.250600576E-1,2.293868421E0
2.219299160E-1,1.346396923E0,-2.116711140E0,1.256483793E-2,2.508666697E0
2.269053850E-1,1.292290211E0,-2.241799355E0,5.844632387E-1,2.652786386E0
2.318808540E-1,1.018071651E0,-2.171721697E0,1.130031705E0,2.651380144E0
2.368563220E-1,5.759677887E-1,-1.911792278E0,1.613361478E0,2.567026269E0
2.418317910E-1,9.550905228E-2,-1.540860415E0,1.962285280E0,2.496785196E0
2.468072600E-1,-3.159513474E-1,-1.167738914E0,2.045731306E0,2.376648060E0
2.517827290E-1,-5.676665306E-1,-9.075930119E-1,1.866140604E0,2.151383536E0
2.567581970E-1,-6.034913063E-1,-8.496419787E-1,1.570040703E0,1.884441842E0
2.617336660E-1,-4.522414207E-1,-9.275752306E-1,1.230343580E0,1.605821732E0
2.667091350E-1,-1.743626595E-1,-1.058480859E0,7.688201666E-1,1.319798664E0
2.716846040E-1,3.209481239E-1,-1.362738132E0,1.790686995E-1,1.411427829E0
2.766600720E-1,9.310064316E-1,-1.804182053E0,-4.377970994E-1,2.076899650E0
2.816355410E-1,1.480796814E0,-2.179667473E0,-8.336772323E-1,2.763824746E0
2.866110100E-1,1.822485447E0,-2.313956261E0,-8.406764865E-1,3.063100347E0
2.915864790E-1,1.928198338E0,-2.255419254E0,-6.124543548E-1,3.029845735E0
2.965619470E-1,1.831188679E0,-2.111793756E0,-3.881115019E-1,2.821977212E0
3.015374160E-1,1.549640179E0,-1.885074258E0,-2.192733586E-1,2.450096008E0
3.065128850E-1,1.138614655E0,-1.548480392E0,-1.097187698E-1,1.925168321E0
3.114883540E-1,6.800770760E-1,-1.080080867E0,-5.406446755E-2,1.277498522E0
3.164638220E-1,2.167692184E-1,-5.751783848E-1,-6.125947833E-2,6.177149764E-1
3.214392910E-1,-3.561449051E-2,-1.598867476E-1,-1.165716201E-1,2.010500102E-1
3.264147600E-1,-4.371690750E-2,6.060498953E-2,-1.443171352E-1,1.625163631E-1
3.313902290E-1,9.390592575E-2,1.469067335E-1,-9.331521392E-2,1.977565179E-1
3.363656970E-1,2.806439400E-1,1.394467354E-1,3.073143587E-2,3.148822545E-1
3.413411660E-1,5.392441750E-1,1.179128885E-2,1.521916986E-1,5.604334285E-1
3.463166350E-1,9.768037796E-1,-2.811180353E-1,1.168080866E-1,1.023140803E0
3.512921040E-1,1.604638100E0,-6.380628347E-1,2.647340298E-2,1.727046164E0
3.562675720E-1,2.170456409E0,-9.082154632E-1,9.844635427E-2,2.354873253E0
3.612430410E-1,2.553241253E0,-1.089198351E0,4.708986878E-1,2.815517629E0
3.662185100E-1,2.727983475E0,-1.211583138E0,8.892327547E-1,3.114572592E0
3.711939790E-1,2.702869415E0,-1.211110353E0,1.235028863E0,3.208985456E0
3.761694470E-1,2.608293533E0,-1.090139866E0,1.467025995E0,3.184927841E0
3.811449160E-1,2.454730988E0,-8.415746689E-1,1.568108201E0,3.031982103E0
3.861203850E-1,2.162865639E0,-4.486606717E-1,1.549425244E0,2.698148024E0
3.910958540E-1,1.696929932E0,1.582264900E-3,1.506833315E0,2.269387656E0
3.960713220E-1,1.205530167E0,4.898159504E-1,1.341635704E0,1.869012844E0
4.010467910E-1,7.406911850E-1,1.020929098E0,1.013398647E0,1.617991494E0
4.060222600E-1,2.168493271E-1,1.566856861E0,6.757131815E-1,1.720073358E0
4.109977290E-1,-4.645586014E-1,2.071863413E0,4.376774132E-1,2.167947004E0
4.159731970E-1,-1.136481285E0,2.396383047E0,1.570342183E-1,2.656859267E0
4.209486660E-1,-1.459487915E0,2.478261471E0,-3.443697691E-1,2.896631739E0
4.259241350E-1,-1.334719658E0,2.378627539E0,-9.265675545E-1,2.880602882E0
4.308996040E-1,-8.910641670E-1,2.119215488E0,-1.333776951E0,2.657824409E0
4.358750720E-1,-4.680480957E-1,1.886146545E0,-1.587896943E0,2.509588515E0
4.408505410E-1,-8.885002136E-2,1.640947700E0,-1.672712684E0,2.344903282E0
4.458260100E-1,3.843507767E-1,1.269789100E0,-1.610037446E0,2.086219177E0
4.508014790E-1,8.513336182E-1,9.152424335E-1,-1.369502783E0,1.854177854E0
4.557769470E-1,1.208434105E0,7.131487131E-1,-9.635858536E-1,1.702172662E0
4.607524160E-1,1.353190422E0,5.946264267E-1,-4.656319022E-1,1.549683185E0
4.657278850E-1,1.382903099E0,4.682610035E-1,1.422655582E-1,1.466945411E0
4.707033540E-1,1.426719666E0,3.527185917E-1,8.168895245E-1,1.681442210E0
4.756788220E-1,1.479766846E0,3.137606382E-1,1.487640858E0,2.121610468E0
4.806542910E-1,1.480452538E0,2.744166851E-1,2.066048622E0,2.556482181E0
4.856297600E-1,1.330016136E0,1.302210093E-1,2.407925367E0,2.753907226E0
4.906052290E-1,1.186308861E0,-1.831930876E-2,2.370321274E0,2.650676753E0
4.955806970E-1,1.096500397E0,-1.095527411E-1,1.991121650E0,2.275715348E0
5.005561660E-1,1.116718292E0,-1.958560348E-1,1.439392805E0,1.832285725E0
5.055316350E-1,1.236242294E0,-3.905126750E-1,8.391695023E-1,1.544344720E0
5.105071040E-1,1.382976532E0,-6.304640770E-1,3.461392522E-1,1.558820523E0
5.154825720E-1,1.599295616E0,-8.724708557E-1,-4.653161764E-2,1.822393221E0
5.204580410E-1,1.756634712E0,-1.192300320E0,-3.122793436E-1,2.145894674E0
5.254335100E-1,1.727803230E0,-1.508838058E0,-3.725714982E-1,2.323941868E0
5.304089790E-1,1.505323410E0,-1.566594601E0,-2.630583644E-1,2.188473650E0
5.353844470E-1,1.176453590E0,-1.282947659E0,-1.940234154E-1,1.751468765E0
5.403599160E-1,8.559103012E-1,-9.074479342E-1,-2.360389233E-1,1.269550539E0
5.453353850E-1,5.766658783E-1,-6.490311027E-1,-4.779757261E-1,9.910830955E-1
5.503108540E-1,5.040855408E-1,-5.865937471E-1,-8.325607777E-1,1.136376656E0
5.552863220E-1,6.881828308E-1,-6.990125179E-1,-9.713698626E-1,1.380497562E0
5.602617910E-1,9.131193161E-1,-7.810817957E-1,-8.389624953E-1,1.465514833E0
5.652372600E-1,9.936332703E-1,-7.954784632E-1,-6.456412673E-1,1.427216069E0
5.702127290E-1,1.068637848E0,-1.017776251E0,-6.141619682E-1,1.598452461E0
5.751881970E-1,1.413232803E0,-1.526533127E0,-6.101756096E-1,2.167912502E0
5.801636660E-1,1.939594269E0,-2.082522392E0,-4.253514409E-1,2.877472726E0
5.851391350E-1,2.418540955E0,-2.311946630E0,-1.141976565E-1,3.347757261E0
5.901146040E-1,2.523399353E0,-2.233259916E0,2.647464275E-1,3.380101303E0
5.950900720E-1,2.257715225E0,-2.001834393E0,5.161947608E-1,3.061221326E0
6.000655410E-1,1.862050056E0,-1.623725653E0,5.654548407E-1,2.534453508E0
6.050410100E-1,1.498795509E0,-1.156624913E0,5.281715393E-1,1.965485778E0
6.100164790E-1,1.233985901E0,-6.624054313E-1,4.621776342E-1,1.474825523E0
6.149919470E-1,9.385280609E-1,-1.502139270E-1,4.012652040E-1,1.031703886E0
6.199674160E-1,4.702291489E-1,3.188263774E-1,3.174642324E-1,6.508066151E-1
6.249428850E-1,-1.289081573E-2,6.937060356E-1,5.956853926E-2,6.963782362E-1
6.299183540E-1,-3.447122574E-1,9.524601698E-1,-4.514711499E-1,1.108978410E0
6.348938220E-1,-4.269790649E-1,9.499623775E-1,-9.621711969E-1,1.417925616E0
6.398692910E-1,-1.954135895E-1,6.224294305E-1,-1.235795617E0,1.397424658E0
6.448447600E-1,2.429256439E-1,4.420921206E-1,-1.445602655E0,1.531086330E0
6.498202290E-1,2.454509735E-1,6.444380879E-1,-1.797163129E0,1.924926477E0
6.547957500E-1,3.424644470E-2,4.665005207E-1,-1.795778513E0,1.855698257E0
6.597712700E-1,-1.230306625E-1,4.429233074E-2,-1.586164474E0,1.591545191E0
6.647467910E-1,5.855560303E-3,-1.646144986E-1,-1.330778003E0,1.340933374E0
6.697223120E-1,2.286348343E-1,-1.529126763E-1,-1.019834280E0,1.056275595E0
6.746978330E-1,2.833766937E-1,-1.554901004E-1,-7.057382464E-1,7.762383618E-1
6.796733540E-1,2.806901932E-1,-3.669825792E-1,-4.928846657E-1,6.755727139E-1
6.846488750E-1,3.777923584E-1,-6.147962213E-1,-3.233499825E-1,7.907317313E-1
6.896243950E-1,5.074071884E-1,-7.847633362E-1,-2.203361988E-1,9.601372762E-1
6.945999160E-1,5.030355453E-1,-9.157583117E-1,-2.070542127E-1,1.065142945E0
6.995754370E-1,3.039665222E-1,-9.510979652E-1,-2.687155008E-1,1.034016928E0
7.045509580E-1,1.254653931E-1,-9.242455363E-1,-5.856948495E-1,1.101367256E0
7.095264790E-1,1.716337204E-1,-1.081983328E0,-1.156628132E0,1.593089668E0
7.145020000E-1,4.977693558E-1,-1.474729776E0,-1.738244534E0,2.333258730E0
7.194775200E-1,9.782466888E-1,-1.815654755E0,-2.207852602E0,3.021288117E0
7.244530410E-1,1.345852852E0,-1.953686714E0,-2.585933447E0,3.509310968E0
7.294285620E-1,1.411386490E0,-2.100009918E0,-2.963789225E0,3.896934699E0
7.344040830E-1,1.405233383E0,-2.383183718E0,-3.298703671E0,4.305309675E0
7.393796040E-1,1.465765953E0,-2.636163473E0,-3.448046923E0,4.581141263E0
7.443551250E-1,1.464173317E0,-2.664701223E0,-3.326896906E0,4.506958967E0
7.493306450E-1,1.315353394E0,-2.575316191E0,-2.993343830E0,4.162032594E0
7.543061660E-1,1.077404022E0,-2.516244650E0,-2.661965370E0,3.818160054E0
7.592816870E-1,8.460187912E-1,-2.601102352E0,-2.508030415E0,3.711023821E0
7.642572080E-1,7.209644318E-1,-2.738226652E0,-2.401762962E0,3.712969194E0
7.692327290E-1,7.632722855E-1,-2.831703424E0,-2.157753229E0,3.641020168E0
7.742082500E-1,9.574928284E-1,-2.886254549E0,-1.782249928E0,3.524723059E0
7.791837700E-1,1.164686203E0,-2.983130217E0,-1.357341766E0,3.478208808E0
7.841592910E-1,1.261144638E0,-3.193502665E0,-1.187736154E0,3.633133942E0
7.891348120E-1,1.437852859E0,-3.431240320E0,-1.362338781E0,3.961918467E0
7.941103330E-1,1.594394684E0,-3.558601141E0,-1.779565930E0,4.286326095E0
7.990858540E-1,1.711860657E0,-3.624217272E0,-2.181898832E0,4.563562233E0
8.040613220E-1,1.742925644E0,-3.671740055E0,-2.522732973E0,4.783685450E0
8.090367910E-1,1.573989868E0,-3.725614548E0,-2.755203724E0,4.893750650E0
8.140122600E-1,1.353816032E0,-3.714684963E0,-2.860614538E0,4.880042803E0
8.189877290E-1,1.177871704E0,-3.558705091E0,-2.781974316E0,4.668098625E0
8.239631970E-1,9.935474396E-1,-3.244572639E0,-2.562247753E0,4.251999727E0
8.289386660E-1,6.914863586E-1,-2.868561506E0,-2.320356369E0,3.753778387E0
8.339141350E-1,2.391347885E-1,-2.530917645E0,-2.065453768E0,3.275489099E0
8.388896040E-1,-2.721643448E-1,-2.273765326E0,-1.854311705E0,2.946617397E0
8.438650720E-1,-6.707754135E-1,-2.038905621E0,-1.595997810E0,2.674749483E0
8.488405410E-1,-9.383974075E-1,-1.754224181E0,-1.295508623E0,2.374075560E0
8.538160100E-1,-1.028278351E0,-1.438645124E0,-1.081480861E0,2.072837913E0
8.587914790E-1,-1.036704063E0,-1.158509374E0,-9.441419840E-1,1.818874204E0
8.637669470E-1,-1.049853325E0,-9.274556637E-1,-6.316561103E-1,1.536670249E0
8.687424160E-1,-1.096269608E0,-6.637985706E-1,-3.362968564E-3,1.281579847E0
8.737178850E-1,-1.180513382E0,-4.574216008E-1,7.476742864E-1,1.470327584E0
8.786933540E-1,-1.269034863E0,-4.165121913E-1,1.491647840E0,2.002235042E0
8.836688220E-1,-1.271358967E0,-6.249325871E-1,2.190350294E0,2.608549170E0
8.886442910E-1,-1.045183182E0,-1.042671204E0,2.763205290E0,3.132870025E0
8.936197600E-1,-5.584974289E-1,-1.497203112E0,3.235046148E0,3.608193470E0
8.985952290E-1,8.726119995E-2,-1.875019193E0,3.640048027E0,4.095517199E0
9.035706970E-1,6.437044144E-1,-2.097085476E0,3.907477856E0,4.481127766E0
9.085461660E-1,9.733657837E-1,-2.146726847E0,4.000309467E0,4.643097343E0
9.135216350E-1,1.058548927E0,-1.978617311E0,3.934458017E0,4.529394240E0
9.184971040E-1,9.577817917E-1,-1.666357398E0,3.659526110E0,4.133548631E0
9.234725720E-1,6.530313492E-1,-1.263755679E0,3.287469149E0,3.582035980E0
9.284480410E-1,1.929798126E-1,-7.621361017E-1,2.805837631E0,2.913900729E0
9.334235100E-1,-3.216047287E-1,-2.713275850E-1,2.192507029E0,2.232517711E0
9.383989790E-1,-8.857421875E-1,1.949108839E-1,1.491515636E0,1.745608309E0
9.433744470E-1,-1.546821117E0,6.804742217E-1,7.794988155E-1,1.860999500E0
9.483499160E-1,-2.194810390E0,1.096074224E0,1.131352484E-1,2.455884960E0
9.533253850E-1,-2.548844814E0,1.343747139E0,-4.324634671E-1,2.913638775E0
9.583008540E-1,-2.548614025E0,1.421363473E0,-9.450207949E-1,3.067372145E0
9.632763220E-1,-2.281712055E0,1.397778034E0,-1.164666891E0,2.918294417E0
9.682517910E-1,-1.849517822E0,1.188863397E0,-8.898431659E-1,2.371904975E0
9.732272600E-1,-1.329073429E0,7.481756210E-1,-1.334190965E-1,1.531013911E0
9.782027290E-1,-7.636966705E-1,8.583769202E-2,8.072623610E-1,1.114573117E0
9.831781970E-1,-1.726808548E-1,-6.649827957E-1,1.637035489E0,1.775360805E0
9.881536660E-1,4.152641296E-1,-1.300606728E0,2.285919905E0,2.662602480E0
9.931291350E-1,9.287271500E-1,-1.637606621E0,2.812416315E0,3.384372186E0
9.981046040E-1,1.215699196E0,-1.698341370E0,3.155244827E0,3.783894536E0
1.003080072E0,1.282130241E0,-1.585915208E0,3.215232849E0,3.807454173E0
1.008055541E0,1.119613647E0,-1.316882730E0,2.965303421E0,3.432308148E0
1.013031010E0,5.911388397E-1,-8.500962257E-1,2.431250334E0,2.642553104E0
1.018006479E0,-2.014322281E-1,-1.914249212E-1,1.772123575E0,1.793778250E0
1.022981947E0,-1.171058178E0,6.825798154E-1,1.103391409E0,1.747788620E0
1.027957416E0,-2.226380825E0,1.662665963E0,5.542705655E-1,2.833451172E0
1.032932885E0,-3.205020428E0,2.559602499E0,8.148789406E-2,4.102482318E0
1.037908354E0,-4.012089729E0,3.352107048E0,-1.869033575E-1,5.231483396E0
1.042883822E0,-4.591284752E0,4.014225006E0,-2.523781061E-1,6.103899801E0
1.047859291E0,-4.929470062E0,4.438913822E0,-1.973574162E-1,6.636458466E0
1.052834760E0,-5.018349648E0,4.614333630E0,-1.038008928E-1,6.818114303E0
1.057810229E0,-4.892538071E0,4.575918198E0,2.779066563E-2,6.699009512E0
1.062785697E0,-4.353005886E0,4.234817028E0,2.160840034E-1,6.076925851E0
1.067761166E0,-3.354123592E0,3.702406406E0,3.986292481E-1,5.011672730E0
1.072736635E0,-2.141086102E0,3.088506460E0,5.705214143E-1,3.801133585E0
1.077712104E0,-9.435324669E-1,2.401219845E0,6.600421667E-1,2.663036973E0
1.082687572E0,1.529464722E-1,1.724331379E0,5.865581632E-1,1.827775097E0
1.087663041E0,1.005986214E0,1.246035099E0,4.078645706E-1,1.652563233E0
1.092638510E0,1.440525055E0,1.001456976E0,3.148009777E-1,1.782450045E0
1.097613979E0,1.415716171E0,1.021393299E0,3.734828234E-1,1.785213144E0
1.102589447E0,9.527797699E-1,1.246678114E0,5.976594687E-1,1.679045101E0
1.107564916E0,1.823711395E-1,1.590610743E0,8.632761240E-1,1.818941295E0
1.112540385E0,-6.320686340E-1,1.938935041E0,1.042284727E0,2.290270138E0
1.117515854E0,-1.309341908E0,2.283126354E0,1.069053888E0,2.840760179E0
1.122491322E0,-1.835886002E0,2.614656448E0,9.733862877E-1,3.339818351E0
1.127466791E0,-2.183828831E0,2.910760164E0,7.843940258E-1,3.722486680E0
1.132442260E0,-2.415919304E0,3.143997669E0,5.400865078E-1,4.001634774E0
1.137417729E0,-2.518300056E0,3.262886524E0,3.255563974E-1,4.134519393E0
1.142393197E0,-2.462858200E0,3.320890665E0,1.348631382E-1,4.136686281E0
1.147368666E0,-2.274044514E0,3.456928015E0,1.471257210E-2,4.137855267E0
1.152344135E0,-1.942829609E0,3.575890303E0,-1.504136324E-1,4.072370637E0
1.157319604E0,-1.436420441E0,3.535390854E0,-3.225770593E-1,3.829666843E0
1.162295072E0,-8.604407310E-1,3.179035187E0,-4.874482751E-1,3.329298543E0
1.167270541E0,-2.581424713E-1,2.660242558E0,-5.823859572E-1,2.735452687E0
1.172246010E0,3.416852951E-1,2.207546234E0,-6.544021368E-1,2.327713765E0
1.177221479E0,9.723339081E-1,1.995913982E0,-7.073501348E-1,2.330118037E0
1.182196947E0,1.433392525E0,1.894641876E0,-6.739566326E-1,2.469514023E0
1.187172416E0,1.720808983E0,1.745384574E0,-4.445963502E-1,2.491027254E0
1.192147885E0,1.887731552E0,1.548009515E0,-6.009340286E-4,2.441283317E0
1.197123354E0,1.991822243E0,1.397655010E0,5.002810955E-1,2.484165161E0
1.202098822E0,1.966539383E0,1.298404694E0,9.104354382E-1,2.526266926E0
1.207074291E0,1.802868843E0,1.259252787E0,1.239940166E0,2.524580215E0
1.212049760E0,1.420382500E0,1.322721243E0,1.560351729E0,2.490336413E0
1.217025229E0,8.963193893E-1,1.440897584E0,1.747478724E0,2.435827618E0
1.222000697E0,3.934307098E-1,1.561623335E0,1.644144416E0,2.301448679E0
1.226976166E0,8.811855316E-2,1.614215851E0,1.336772561E0,2.097717467E0
1.231951635E0,-1.260757446E-3,1.647490859E0,9.302597046E-1,1.891985951E0
1.236927104E0,7.684516907E-2,1.724161148E0,4.955917597E-1,1.795619124E0
1.241902572E0,1.740283966E-1,1.725229383E0,8.469665051E-2,1.736051793E0
1.246878041E0,3.093347549E-1,1.603463531E0,-2.265107632E-1,1.648663219E0
1.251853510E0,5.684394836E-1,1.445361733E0,-4.669739008E-1,1.621807205E0
1.256828979E0,9.460268021E-1,1.317720294E0,-6.652866006E-1,1.753271155E0
1.261804447E0,1.222197533E0,1.200957894E0,-6.828865409E-1,1.844559758E0
1.266779916E0,1.354384422E0,9.898875952E-1,-5.486303568E-1,1.765001383E0
1.271755385E0,1.486146927E0,7.420246601E-1,-3.149591684E-1,1.690689966E0
1.276730854E0,1.688916206E0,4.478108585E-1,-1.342425346E-1,1.752425056E0
1.281706322E0,2.052917480E0,1.785194278E-1,-2.002334595E-2,2.060762068E0
1.286681791E0,2.486865997E0,-4.418328404E-3,9.005975723E-2,2.488500105E0
1.291657260E0,2.885606766E0,-1.305057555E-1,2.768282890E-1,2.901791181E0
1.296632729E0,3.158726692E0,-2.720705271E-1,5.396081209E-1,3.216015176E0
1.301608197E0,3.287714005E0,-4.439434409E-1,7.632671595E-1,3.404221778E0
1.306583666E0,3.244575500E0,-5.131734610E-1,8.904018402E-1,3.403444228E0
1.311559135E0,3.025203705E0,-4.281818867E-1,9.023530483E-1,3.185818295E0
1.316534604E0,2.620736122E0,-2.753374577E-1,8.902767897E-1,2.781485448E0
1.321510072E0,2.184476852E0,-1.498094201E-1,6.971486807E-1,2.297911718E0
1.326485541E0,1.826213837E0,-1.319475621E-1,3.715623617E-1,1.868294871E0
1.331461010E0,1.612405777E0,-1.348243058E-1,4.713177681E-3,1.618039615E0
1.336436479E0,1.552063942E0,2.815325558E-2,-3.175578117E-1,1.584467750E0
1.341411947E0,1.554042816E0,3.806462288E-1,-5.385442972E-1,1.688185590E0
1.346387416E0,1.475085258E0,6.933714747E-1,-6.208349466E-1,1.744154968E0
1.351362885E0,1.243989944E0,7.427575588E-1,-5.650963783E-1,1.555163557E0
1.356338354E0,1.009167671E0,6.256374121E-1,-4.193273783E-1,1.259236678E0
1.361313822E0,9.899301529E-1,5.766533017E-1,-2.119011879E-1,1.165072037E0
1.366289291E0,1.099502563E0,6.909661293E-1,9.074687958E-2,1.301758455E0
1.371264760E0,1.251483917E0,9.297590256E-1,4.741708040E-1,1.629571045E0
1.376240229E0,1.340752602E0,1.068404078E0,8.570604324E-1,1.916678742E0
1.381215697E0,1.462981224E0,1.035902858E0,1.229739785E0,2.173860329E0
1.386191166E0,1.651509285E0,8.997529745E-1,1.482212424E0,2.394575537E0
1.391166635E0,1.939574242E0,7.794817686E-1,1.676537991E0,2.679611856E0
1.396142104E0,2.264872551E0,7.558798194E-1,1.860277772E0,3.026819347E0
1.401117572E0,2.579603195E0,6.947342157E-1,1.933154345E0,3.297589119E0
1.406093041E0,2.912417412E0,5.146096945E-1,1.886127949E0,3.507773789E0
1.411068510E0,3.167787552E0,2.343735546E-1,1.738949776E0,3.621291932E0
1.416043979E0,3.288695335E0,-2.248994634E-2,1.535150051E0,3.629422611E0
1.421019447E0,3.218317986E0,-1.995500922E-1,1.346770287E0,3.494450043E0
1.425994916E0,3.014524460E0,-2.880122364E-1,1.174073219E0,3.247884957E0
1.430970385E0,2.725438118E0,-2.644744515E-1,9.552547932E-1,2.900081273E0
1.435945854E0,2.389496803E0,-2.487301826E-1,7.001616955E-1,2.502356505E0
1.440921322E0,2.130936623E0,-2.404715717E-1,4.708571434E-1,2.195546382E0
1.445896791E0,2.035396576E0,-1.727412641E-1,2.814214230E-1,2.062007949E0
1.450872260E0,1.973625183E0,7.372222841E-2,1.692802906E-1,1.982242959E0
1.455847729E0,1.764329910E0,4.890979528E-1,2.767853737E-1,1.851671403E0
1.460823197E0,1.422428131E0,8.683636785E-1,5.837900639E-1,1.765833544E0
1.465798666E0,1.048579216E0,1.078900933E0,8.701503277E-1,1.738018179E0
1.470774135E0,7.907505035E-1,1.136516571E0,1.078871489E0,1.755254957E0
1.475749604E0,7.820644379E-1,1.180909634E0,1.277220011E0,1.907213492E0
1.480725072E0,9.691410065E-1,1.336498499E0,1.522503614E0,2.245769308E0
1.485700541E0,1.222399712E0,1.493305922E0,1.743182898E0,2.600559602E0
1.490676010E0,1.527227402E0,1.522418261E0,1.786897182E0,2.800568235E0
1.495651479E0,1.845247269E0,1.376209021E0,1.659137726E0,2.837538853E0
1.500626947E0,2.138261795E0,1.131071568E0,1.460666895E0,2.825780277E0
1.505602416E0,2.344351768E0,8.822008371E-1,1.334836483E0,2.838318511E0
1.510577885E0,2.382674217E0,7.817958593E-1,1.281536341E0,2.816145696E0
1.515553354E0,2.349230766E0,6.857979298E-1,1.167006731E0,2.711292810E0
1.520528822E0,2.358840942E0,5.175282359E-1,9.961078167E-1,2.612316376E0
1.525504291E0,2.363730431E0,3.483997881E-1,7.401330471E-1,2.501279850E0
1.530479760E0,2.316308022E0,1.829820573E-1,5.374019146E-1,2.384861862E0
1.535455229E0,2.259726524E0,4.500213265E-2,3.924624920E-1,2.293995633E0
1.540430697E0,2.222626686E0,-2.756157517E-2,2.193586826E-1,2.233595142E0
1.545406166E0,2.161986351E0,-2.548915148E-2,-6.762480736E-2,2.163193887E0
1.550381635E0,2.087421417E0,1.775568724E-2,-3.917174339E-1,2.123931728E0
1.555357104E0,2.041959763E0,9.768968821E-2,-7.004561424E-1,2.160967782E0
1.560332572E0,2.097202301E0,2.813802958E-1,-9.513859749E-1,2.320036128E0
1.565308041E0,2.176581383E0,5.927359462E-1,-1.130881071E0,2.523437024E0
1.570283510E0,2.222864151E0,8.695776463E-1,-1.254006743E0,2.696260972E0
1.575258979E0,2.174122810E0,1.021896005E0,-1.254281521E0,2.710037559E0
1.580234447E0,2.083121300E0,1.074435711E0,-1.189341068E0,2.628371858E0
1.585209916E0,2.050095558E0,1.089983225E0,-1.068627715E0,2.555957829E0
1.590185385E0,2.127236366E0,1.106901407E0,-8.394402266E-1,2.540674158E0
1.595160854E0,2.194778442E0,1.149018764E0,-5.066125393E-1,2.528626662E0
1.600136322E0,2.219234467E0,1.111068726E0,-1.798377037E-1,2.488336177E0
1.605111791E0,2.210169792E0,1.012132406E0,1.079754829E-1,2.433294315E0
1.610087260E0,2.158040047E0,8.951697350E-1,3.096194267E-1,2.356762586E0
1.615062729E0,2.144076347E0,7.837942839E-1,4.972050190E-1,2.336366772E0
1.620038197E0,2.091800690E0,6.680546403E-1,7.567636967E-1,2.322631788E0
1.625013666E0,1.991840363E0,5.809899569E-1,9.877829552E-1,2.297975745E0
1.629989135E0,1.911249161E0,5.315314531E-1,1.066180229E0,2.252141053E0
1.634964604E0,1.840551376E0,4.954050779E-1,1.030308247E0,2.166700405E0
1.639940072E0,1.798971176E0,4.676837921E-1,9.325673580E-1,2.079593061E0
1.644915541E0,1.638610840E0,4.529466629E-1,9.206781387E-1,1.933353149E0
1.649891010E0,1.312186241E0,5.133152008E-1,1.017983198E0,1.738279327E0
1.654866479E0,1.015930176E0,6.726825237E-1,1.037909746E0,1.600585062E0
1.659841947E0,8.737459183E-1,8.214943409E-1,9.044928551E-1,1.502129224E0
1.664817416E0,8.469190598E-1,9.077382088E-1,6.181843281E-1,1.386871448E0
1.669792885E0,9.447126389E-1,9.176338911E-1,2.745532990E-1,1.345330235E0
1.674768354E0,1.152533531E0,9.279254675E-1,-1.123125553E-1,1.483911495E0
1.679743822E0,1.403344154E0,9.528348446E-1,-4.328339100E-1,1.750603967E0
1.684719291E0,1.630290985E0,9.683555365E-1,-6.636061668E-1,2.008963485E0
1.689694760E0,1.718910217E0,9.933727980E-1,-7.952985764E-1,2.138677553E0
1.694670229E0,1.745948792E0,1.070792913E0,-7.754766941E-1,2.190045376E0
1.699645697E0,1.697084427E0,1.171887159E0,-5.801525116E-1,2.142426662E0
1.704621166E0,1.481563568E0,1.292060852E0,-2.855017185E-1,1.986444835E0
1.709596635E0,1.271397591E0,1.369512796E0,7.086753845E-2,1.870037257E0
1.714572104E0,1.118770599E0,1.414191484E0,3.510668278E-1,1.837071889E0
1.719547572E0,1.004173279E0,1.464606762E0,5.462899208E-1,1.857920778E0
1.724523041E0,9.417448044E-1,1.501780868E0,7.332301140E-1,1.918294933E0
1.729498510E0,9.122152328E-1,1.559329629E0,9.022495747E-1,2.019331527E0
1.734473979E0,8.917417526E-1,1.665761828E0,1.014828920E0,2.144724588E0
1.739449447E0,7.945060730E-1,1.844767094E0,1.075472593E0,2.278386892E0
1.744424916E0,5.922241211E-1,2.029436827E0,1.145897865E0,2.404667370E0
1.749400385E0,4.953269958E-1,2.143739223E0,1.225689650E0,2.518587264E0
1.754375854E0,4.319057465E-1,2.145030022E0,1.247834444E0,2.518886097E0
1.759351322E0,3.970460892E-1,2.057557106E0,1.241192102E0,2.435517332E0
1.764326791E0,4.287385941E-1,1.919778824E0,1.239554405E0,2.325051104E0
1.769302260E0,5.123958588E-1,1.798646808E0,1.204878569E0,2.224727448E0
1.774277729E0,6.048727036E-1,1.708266735E0,1.213771820E0,2.181120872E0
1.779253197E0,6.536121368E-1,1.600664973E0,1.232769728E0,2.123454352E0
1.784228666E0,6.444721222E-1,1.413633108E0,1.271324873E0,2.007478471E0
1.789204135E0,6.588344574E-1,1.132880449E0,1.353217840E0,1.883793905E0
1.794179604E0,7.157812119E-1,8.252366781E-1,1.530860186E0,1.880662443E0
1.799155072E0,7.149972916E-1,4.997190237E-1,1.832761288E0,2.029767023E0
1.804130541E0,5.947160721E-1,2.080854177E-1,2.148836851E0,2.239304928E0
1.809106010E0,3.409662247E-1,3.077292442E-2,2.436390162E0,2.460325580E0
1.814081479E0,8.776092529E-2,-2.809476852E-2,2.676718473E0,2.678304143E0
1.819056947E0,-8.863067627E-2,-1.667129993E-2,2.865522385E0,2.866941204E0
1.824032416E0,-1.789684296E-1,4.576015472E-2,2.936305046E0,2.942109960E0
1.829007885E0,-2.313098907E-1,1.305903196E-1,2.922872305E0,2.934917479E0
1.833983354E0,-3.127193451E-1,1.711537838E-1,2.801710367E0,2.824299557E0
1.838958822E0,-4.423313141E-1,2.062207460E-1,2.597014427E0,2.642473826E0
1.843934291E0,-5.007905960E-1,2.507250309E-1,2.280400991E0,2.348165868E0
1.848909760E0,-3.976926804E-1,2.622913122E-1,1.938069820E0,1.995763220E0
1.853885229E0,-2.576589584E-1,1.984934807E-1,1.608069658E0,1.640632752E0
1.858860697E0,-1.475324631E-1,9.781682491E-2,1.347342491E0,1.358920802E0
1.863836166E0,-2.418422699E-2,-3.967833519E-2,1.145994902E0,1.146936599E0
1.868811635E0,7.890319824E-2,-1.661984921E-1,9.370939732E-1,9.549831245E-1
1.873787104E0,2.191400528E-1,-2.629400492E-1,7.445707321E-1,8.194787412E-1
1.878762572E0,5.062789917E-1,-1.916893721E-1,6.973810196E-1,8.828383313E-1
1.883738041E0,1.293086052E0,3.956053257E-1,9.150953293E-1,1.632781239E0
1.888713510E0,2.863973618E0,1.760629177E0,1.221969366E0,3.577061519E0
1.893688979E0,5.320734024E0,3.964028597E0,1.367255926E0,6.774446253E0
1.898664447E0,8.001076698E0,6.416707993E0,5.990626812E-1,1.027376493E1
1.903639916E0,9.071575165E0,7.279096127E0,-1.860321760E0,1.177877385E1
1.908615385E0,7.575991631E0,5.230575562E0,-5.103178024E0,1.052601519E1
1.913590854E0,4.734374046E0,1.757167816E0,-6.593964100E0,8.305558313E0
1.918566322E0,1.899010658E0,-5.492817163E-1,-5.655493736E0,5.991040084E0
1.923541791E0,-4.639310837E-1,-8.207186460E-1,-3.088631392E0,3.229311849E0
1.928517208E0,-2.067862988E0,6.146121025E-2,-4.470102787E-1,2.116519077E0
1.933492625E0,-2.616950035E0,9.927823544E-1,1.688825130E0,3.268971491E0
1.938468041E0,-2.526836395E0,1.347860813E0,2.962746143E0,4.120618358E0
1.943443458E0,-2.354699612E0,1.051496506E0,3.199611664E0,4.109473198E0
1.948418875E0,-1.920119286E0,4.299573898E-1,2.714783907E0,3.352875347E0
1.953394291E0,-1.070719242E0,-1.059796810E-1,1.949363232E0,2.226586714E0
1.958369708E0,-5.463886261E-2,-2.953897715E-1,1.226520777E0,1.262772243E0
1.963345125E0,7.043552399E-1,-2.223063707E-1,7.865426540E-1,1.078974408E0
1.968320541E0,1.041269302E0,-1.613101959E-1,4.826207161E-1,1.158958798E0
1.973295958E0,1.044110298E0,-1.706718206E-1,2.695291042E-1,1.091760561E0
1.978271375E0,8.334741592E-1,-1.597527266E-1,1.176350117E-1,8.567602370E-1
1.983246791E0,5.290822983E-1,-6.123375893E-2,-3.985261917E-2,5.341028766E-1
1.988222208E0,2.834997177E-1,1.206872463E-1,-2.498421669E-1,3.966845217E-1
1.993197625E0,1.773090363E-1,3.102924824E-1,-5.879681110E-1,6.880598946E-1
1.998173041E0,2.146339417E-1,4.462957382E-1,-1.091829300E0,1.198890669E0
2.003148458E0,2.852516174E-1,5.199968815E-1,-1.665910244E0,1.768338820E0
2.008123875E0,3.462572098E-1,5.607063770E-1,-2.172291040E0,2.270051555E0
2.013099291E0,3.692092896E-1,5.929477215E-1,-2.497414112E0,2.593256591E0
2.018074708E0,3.735332489E-1,6.075224876E-1,-2.580525875E0,2.677260625E0
2.023050125E0,3.211441040E-1,5.951161385E-1,-2.436944485E0,2.529030481E0
2.028025541E0,2.456054688E-1,5.606546402E-1,-2.095952511E0,2.183500080E0
2.033000958E0,1.515865326E-1,4.804666042E-1,-1.648446441E0,1.723717582E0
2.037976375E0,5.799388885E-2,3.881638050E-1,-1.132254601E0,1.198346741E0
2.042951791E0,8.881855011E-2,2.885074615E-1,-5.803933144E-1,6.542030950E-1
2.047927208E0,1.815462112E-1,1.524908543E-1,-8.312511444E-2,2.512414617E-1
2.052902625E0,2.786903381E-1,1.803600788E-2,3.408925533E-1,4.406828055E-1
2.057878041E0,3.659820557E-1,-8.197903633E-2,7.732179165E-1,8.593773175E-1
2.062853458E0,4.483108521E-1,-1.671769619E-1,1.185215235E0,1.278149408E0
2.067828875E0,4.970951080E-1,-2.524946928E-1,1.586662531E0,1.681771418E0
2.072804291E0,4.981584549E-1,-3.336062431E-1,1.896473408E0,1.988986264E0
2.077779760E0,5.137653351E-1,-4.013897181E-1,2.091096640E0,2.190377520E0
2.082755229E0,5.582170486E-1,-4.513642788E-1,2.170939684E0,2.286550917E0
2.087730697E0,5.932712555E-1,-4.789798260E-1,2.155369759E0,2.286265788E0
2.092706166E0,6.332540512E-1,-4.604753256E-1,2.039937496E0,2.185038491E0
2.097681635E0,6.924352646E-1,-4.054825306E-1,1.824985743E0,1.993603681E0
2.102657104E0,7.802782059E-1,-3.185760975E-1,1.568016529E0,1.780168712E0
2.107632572E0,8.440856934E-1,-1.899348497E-1,1.321698666E0,1.579697208E0
2.112608041E0,8.360557556E-1,-1.004384756E-1,1.114671230E0,1.396985707E0
2.117583510E0,8.040170670E-1,-5.904281139E-2,1.032837152E0,1.310222150E0
2.122558979E0,7.478961945E-1,-7.763862610E-3,1.023398161E0,1.267577529E0
2.127534447E0,6.723804474E-1,3.474700451E-2,1.100645304E0,1.290241413E0
2.132509916E0,6.585483551E-1,6.906330585E-2,1.254992485E0,1.418965050E0
2.137485385E0,6.392240524E-1,2.886033058E-2,1.457720518E0,1.591976575E0
2.142460854E0,6.524610519E-1,-8.513772488E-2,1.632479668E0,1.760097646E0
2.147436322E0,7.648010254E-1,-2.817778587E-1,1.808460474E0,1.983645295E0
2.152411791E0,1.004435539E0,-5.412421227E-1,2.057750225E0,2.352906666E0
2.157387260E0,1.342184067E0,-8.203797340E-1,2.409546375E0,2.877567499E0
2.162362729E0,1.796793938E0,-1.057273149E0,2.740037918E0,3.442978763E0
2.167338197E0,2.282071114E0,-1.257598639E0,2.978015184E0,3.957016217E0
2.172313666E0,2.726527214E0,-1.465445280E0,3.142839670E0,4.411226781E0
2.177289135E0,3.183185577E0,-1.658093095E0,3.205707550E0,4.812328337E0
2.182264604E0,3.561717033E0,-1.741136193E0,3.175757647E0,5.079647635E0
2.187240072E0,3.953535080E0,-1.696706533E0,3.090637207E0,5.297290915E0
2.192215541E0,4.402043343E0,-1.588194966E0,3.040459871E0,5.580747716E0
2.197191010E0,4.768913269E0,-1.502941728E0,3.005577326E0,5.833940578E0
2.202166479E0,4.930329323E0,-1.403762341E0,2.904618740E0,5.891986589E0
2.207141947E0,4.915588379E0,-1.219864488E0,2.656389475E0,5.719045683E0
2.212117416E0,4.725208282E0,-8.994284868E-1,2.265871286E0,5.317023378E0
2.217092885E0,4.436092377E0,-4.905070066E-1,1.771364689E0,4.801796076E0
2.222068354E0,4.029413223E0,-2.624440193E-2,1.272990942E0,4.225797633E0
2.227043822E0,3.562745094E0,4.318933487E-1,7.704546452E-1,3.670597340E0
2.232019291E0,3.055171967E0,9.758197069E-1,3.306005001E-1,3.224220299E0
2.236994760E0,2.544741631E0,1.535052061E0,-1.325464249E-1,2.974838374E0
2.241970229E0,2.088480949E0,2.115890980E0,-6.235277653E-1,3.037685663E0
2.246945697E0,1.728960037E0,2.624395370E0,-1.099215984E0,3.329418816E0
2.251921166E0,1.537421227E0,3.057448864E0,-1.607671261E0,3.781040130E0
2.256896635E0,1.484729767E0,3.445140839E0,-2.029943466E0,4.265452890E0
2.261872104E0,1.498847008E0,3.807578325E0,-2.304607391E0,4.696318801E0
2.266847572E0,1.531815529E0,4.069039822E0,-2.494581699E0,5.012632217E0
2.271823041E0,1.616989136E0,4.191913128E0,-2.547732353E0,5.165048856E0
2.276798510E0,1.763861656E0,4.200381756E0,-2.498145342E0,5.195685228E0
2.281773979E0,1.872043610E0,4.156425953E0,-2.346179485E0,5.126888155E0
2.286749447E0,1.965628624E0,4.083542347E0,-2.120894909E0,5.003719537E0
2.291724916E0,2.025619507E0,3.981154442E0,-1.812799692E0,4.820681259E0
2.296700385E0,2.080876350E0,3.815128326E0,-1.441115737E0,4.578434787E0
2.301675854E0,2.131473541E0,3.589616776E0,-1.053482533E0,4.305618829E0
2.306651322E0,2.210890770E0,3.351804733E0,-6.972781420E-1,4.075393205E0
2.311626791E0,2.280856133E0,3.148787022E0,-3.958483934E-1,3.908178649E0
2.316602260E0,2.346193314E0,2.922466516E0,-1.869060993E-1,3.752381576E0
2.321577729E0,2.378314018E0,2.705653667E0,-9.393429756E-2,3.603576417E0
2.326553197E0,2.386879921E0,2.521970510E0,-6.410717964E-2,3.472987294E0
2.331528666E0,2.391077995E0,2.366442680E0,-1.132202148E-2,3.364139285E0
2.336504135E0,2.395684242E0,2.196102619E0,1.359851360E-1,3.252792901E0
2.341479604E0,2.391067505E0,2.044427872E0,2.775633335E-1,3.158153027E0
2.346455072E0,2.353225708E0,1.949660301E0,3.709070683E-1,3.078379213E0
2.351430541E0,2.258195877E0,1.825741053E0,4.931128025E-1,2.945494737E0
2.356406010E0,2.172845840E0,1.730225682E0,6.828484535E-1,2.860283547E0
2.361381479E0,2.020522118E0,1.706222773E0,8.928382397E-1,2.791212263E0
2.366356947E0,1.801173210E0,1.701412320E0,9.898228645E-1,2.668103843E0
2.371332416E0,1.548251152E0,1.692305803E0,1.012594223E0,2.507254997E0
2.376307885E0,1.309496880E0,1.636548519E0,9.614074230E-1,2.305943921E0
2.381283354E0,1.189877510E0,1.520472646E0,8.748598099E-1,2.119675740E0
2.386258822E0,1.279873848E0,1.349334478E0,8.247947693E-1,2.034469713E0
2.391234291E0,1.421399117E0,1.123038530E0,7.777969837E-1,1.971435806E0
2.396209760E0,1.557061195E0,8.125638962E-1,6.910707951E-1,1.887399930E0
2.401185229E0,1.725203514E0,4.842672348E-1,5.505304337E-1,1.874546793E0
2.406160697E0,1.873308182E0,2.186497450E-1,3.373372555E-1,1.915956074E0
2.411136166E0,1.968138695E0,4.356825352E-2,1.756925583E-1,1.976445291E0
2.416111635E0,2.048263550E0,-4.155349731E-2,1.603729725E-1,2.054952494E0
2.421087104E0,2.142688751E0,1.509118080E-2,3.856067657E-1,2.177162237E0
2.426062572E0,2.194411278E0,1.361457109E-1,7.730324268E-1,2.330569811E0
2.431038041E0,2.127406120E0,2.301865816E-1,1.220462441E0,2.463406429E0
2.436013510E0,2.028153419E0,2.587761879E-1,1.664482474E0,2.636450894E0
2.440988979E0,1.925497055E0,2.456693649E-1,1.994559169E0,2.783192164E0
2.445964447E0,1.785970688E0,2.481818199E-1,2.191771507E0,2.838159237E0
2.450939916E0,1.576109886E0,3.284500837E-1,2.218414307E0,2.741051599E0
2.455915385E0,1.176490784E0,5.200964212E-1,2.036833048E0,2.409008036E0
2.460890854E0,7.211236954E-1,7.471137047E-1,1.657436490E0,1.955835880E0
2.465866322E0,2.720413208E-1,8.861372471E-1,1.114482403E0,1.449591917E0
2.470841791E0,-8.496665955E-2,8.952831030E-1,4.948105812E-1,1.026444679E0
2.475817260E0,-2.977247238E-1,9.000849724E-1,-1.245902777E-1,9.561985704E-1
2.480792729E0,-4.097051620E-1,9.156408310E-1,-6.812076569E-1,1.212559410E0
2.485768197E0,-4.499073029E-1,9.041365385E-1,-1.136552930E0,1.520405217E0
2.490743666E0,-4.568223953E-1,8.707532883E-1,-1.514319301E0,1.805563883E0
2.495719135E0,-3.923234940E-1,8.300524950E-1,-1.738118172E0,1.965695716E0
2.500694604E0,-2.469968796E-1,7.677534819E-1,-1.793930292E0,1.966885548E0
2.505670072E0,-9.261512756E-2,7.074611187E-1,-1.720496893E0,1.862575731E0
2.510645541E0,8.046913147E-2,6.773892641E-1,-1.437125683E0,1.590805370E0
2.515621010E0,2.293062210E-1,6.195051670E-1,-9.300286174E-1,1.140754673E0
2.520596479E0,2.297830582E-1,4.566187859E-1,-2.999458313E-1,5.926790625E-1
2.525571947E0,1.443786621E-1,3.362753391E-1,2.237184048E-1,4.289244997E-1
2.530547364E0,1.118965149E-1,3.581407070E-1,5.313856602E-1,6.505046625E-1
2.535522781E0,-1.485824585E-3,4.308396578E-1,6.756608486E-1,8.013380066E-1
2.540498197E0,-2.098321915E-1,4.777703285E-1,7.517080307E-1,9.150732205E-1
2.545473614E0,-4.173078537E-1,4.178029299E-1,7.925494909E-1,9.883520772E-1
2.550449031E0,-5.617675781E-1,2.942838669E-1,7.358256578E-1,9.714037291E-1
2.555424447E0,-6.338129044E-1,1.743768454E-1,5.435605049E-1,8.529854069E-1
2.560399864E0,-6.814012527E-1,6.291449070E-2,2.017868757E-1,7.134310363E-1
2.565375281E0,-6.759166718E-1,1.725018024E-2,-1.840655804E-1,7.007432153E-1
2.570350697E0,-6.222438812E-1,3.247594833E-2,-5.517991185E-1,8.323006681E-1
2.575326114E0,-6.208782196E-1,7.050347328E-2,-9.013571143E-1,1.096770327E0
2.580301531E0,-7.960224152E-1,3.113961220E-2,-1.122666478E0,1.376590492E0
2.585276947E0,-9.897108078E-1,-3.259253502E-2,-1.206070781E0,1.560511610E0
2.590252364E0,-1.159005165E0,-7.736241817E-2,-1.261230588E0,1.714637137E0
2.595227781E0,-1.275420189E0,-1.171271801E-1,-1.282790065E0,1.812723306E0
2.600203197E0,-1.348725319E0,-2.089238167E-1,-1.246458173E0,1.848341723E0
2.605178614E0,-1.412501335E0,-3.717321157E-1,-1.046929359E0,1.797054777E0
2.610154031E0,-1.428586006E0,-5.337320566E-1,-7.940858006E-1,1.719389468E0
2.615129447E0,-1.397060394E0,-6.616667509E-1,-4.592857361E-1,1.612614034E0
2.620104864E0,-1.384828568E0,-6.937925220E-1,-7.651805878E-2,1.550791165E0
2.625080281E0,-1.382176399E0,-6.594010592E-1,3.393145800E-1,1.568552116E0
2.630055697E0,-1.398524284E0,-6.594177485E-1,7.112176418E-1,1.701920232E0
2.635031114E0,-1.467183113E0,-6.703709364E-1,1.091544271E0,1.947688983E0
2.640006531E0,-1.549765587E0,-6.687388420E-1,1.432456017E0,2.213801087E0
2.644981947E0,-1.717928886E0,-6.260769367E-1,1.619526863E0,2.442564073E0
2.649957364E0,-1.923748016E0,-5.185203552E-1,1.610249400E0,2.561751924E0
2.654932781E0,-2.047719479E0,-4.270513058E-1,1.467164993E0,2.555014872E0
2.659908197E0,-2.152141094E0,-3.608380556E-1,1.314604759E0,2.547567676E0
2.664883614E0,-2.265723705E0,-2.957891226E-1,1.162024021E0,2.563453713E0
2.669859031E0,-2.378959179E0,-2.555136681E-1,8.376226425E-1,2.535023807E0
2.674834447E0,-2.544505119E0,-2.443717718E-1,3.850103617E-1,2.585044844E0
2.679809864E0,-2.657266617E0,-2.712391615E-1,-6.606209278E-2,2.671890858E0
2.684785281E0,-2.703115463E0,-1.968744993E-1,-4.867147207E-1,2.753631057E0
2.689760697E0,-2.663115501E0,-4.968690872E-2,-8.532088399E-1,2.796894400E0
2.694736114E0,-2.570865631E0,7.472121716E-2,-1.142031550E0,2.814101884E0
2.699711531E0,-2.507689476E0,8.088731766E-2,-1.363188982E0,2.855404256E0
2.704686947E0,-2.492643356E0,1.682698727E-2,-1.449969769E0,2.883741732E0
2.709662364E0,-2.473022461E0,-5.056393147E-2,-1.417144895E0,2.850736125E0
2.714637781E0,-2.439228058E0,-4.024720192E-2,-1.212521672E0,2.724272777E0
2.719613250E0,-2.343437672E0,2.825737000E-2,-8.413577080E-1,2.490056504E0
2.724588718E0,-2.200064182E0,7.335329056E-2,-3.470435739E-1,2.228475343E0
2.729564187E0,-2.157335758E0,1.819288731E-2,5.539524555E-2,2.158123534E0
2.734539656E0,-2.119479656E0,-1.468852758E-1,2.278784513E-1,2.136749374E0
2.739515125E0,-1.952670574E0,-3.597767353E-1,3.432395458E-1,2.014987607E0
2.744490593E0,-1.876940727E0,-3.768420219E-1,5.256118774E-1,1.985241610E0
2.749466062E0,-1.911185741E0,-2.653863430E-1,8.796628714E-1,2.120581905E0
2.754441531E0,-2.045631886E0,-1.690374613E-1,1.199481964E0,2.377381008E0
2.759417000E0,-2.232354641E0,-1.734675169E-1,1.375245452E0,2.627698285E0
2.764392468E0,-2.371015072E0,-2.635993958E-1,1.469674349E0,2.801988545E0
2.769367937E0,-2.404464722E0,-3.719762564E-1,1.478570104E0,2.847101418E0
2.774343406E0,-2.428541183E0,-4.314587116E-1,1.416598320E0,2.844419044E0
2.779318875E0,-2.476720810E0,-4.756323099E-1,1.312609911E0,2.843117451E0
2.784294343E0,-2.501192093E0,-5.140465498E-1,1.142958641E0,2.797599006E0
2.789269812E0,-2.478081703E0,-5.898762941E-1,7.214138508E-1,2.647504658E0
2.794245281E0,-2.416977882E0,-5.978361368E-1,1.387289762E-1,2.493679181E0
2.799220750E0,-2.250961781E0,-6.000027657E-1,-5.100055337E-1,2.384730153E0
2.804196218E0,-1.965806484E0,-6.104600430E-1,-1.034428239E0,2.303714040E0
2.809171687E0,-1.652455330E0,-7.010079622E-1,-1.354086876E0,2.248459928E0
2.814147156E0,-1.401713371E0,-8.431752920E-1,-1.565003276E0,2.263841912E0
2.819122625E0,-1.194343567E0,-9.701647758E-1,-1.681509256E0,2.279287088E0
2.824098093E0,-9.633836746E-1,-1.058224678E0,-1.693800926E0,2.217410461E0
2.829073562E0,-7.901525497E-1,-1.184070230E0,-1.549107194E0,2.103828999E0
2.834049031E0,-7.366952896E-1,-1.352650404E0,-1.352458000E0,2.049762354E0
2.839024500E0,-7.072477341E-1,-1.511444569E0,-1.089034438E0,1.992651512E0
2.843999968E0,-6.540288925E-1,-1.660581470E0,-8.156501055E-1,1.962286856E0
2.848975437E0,-5.675582886E-1,-1.766759038E0,-6.035170555E-1,1.951356642E0
2.853950906E0,-3.666009903E-1,-1.806328416E0,-3.904390931E-1,1.884054489E0
2.858926375E0,-2.280864716E-1,-1.779900551E0,-1.577265859E-1,1.801373666E0
2.863901843E0,-2.999467850E-1,-1.678497553E0,8.930873871E-2,1.707424423E0
2.868877312E0,-5.386724472E-1,-1.469100356E0,3.117969036E-1,1.595506556E0
2.873852781E0,-8.101472855E-1,-1.213736534E0,5.095186234E-1,1.545672742E0
2.878828250E0,-9.997024536E-1,-9.931128025E-1,6.108666658E-1,1.535850291E0
2.883803718E0,-1.150639534E0,-8.733181953E-1,6.066017151E-1,1.566723220E0
2.888779187E0,-1.229693413E0,-8.200683594E-1,5.066790581E-1,1.562492135E0
2.893754656E0,-1.117573738E0,-7.994675636E-1,2.446218729E-1,1.395693127E0
2.898730125E0,-9.245796204E-1,-7.348866463E-1,-1.313931346E-1,1.188347598E0
2.903705593E0,-6.890201569E-1,-6.696038246E-1,-4.590458274E-1,1.064819764E0
2.908681062E0,-4.873447418E-1,-6.517982483E-1,-7.149274349E-1,1.083266861E0
2.913656531E0,-4.771461487E-1,-6.100724936E-1,-9.137509465E-1,1.197830408E0
2.918632000E0,-6.341218948E-1,-5.112559795E-1,-1.051117301E0,1.329789771E0
2.923607468E0,-7.764148712E-1,-3.788027763E-1,-1.079455256E0,1.382582817E0
2.928582937E0,-7.751617432E-1,-3.218123913E-1,-1.132527947E0,1.409630624E0
2.933558406E0,-5.590410233E-1,-4.494349957E-1,-1.138389349E0,1.345529261E0
2.938533875E0,-2.145299911E-1,-7.134184837E-1,-1.044118404E0,1.282642699E0
2.943509343E0,1.147365570E-1,-9.895557165E-1,-8.731999993E-1,1.324712509E0
2.948484812E0,4.431438446E-1,-1.216162086E0,-7.447023392E-1,1.493321218E0
2.953460281E0,7.946777344E-1,-1.413114548E0,-5.244243145E-1,1.703944332E0
2.958435750E0,1.164653778E0,-1.547822952E0,-2.125183344E-1,1.948676052E0
2.963411218E0,1.338108063E0,-1.583175302E0,1.620081663E-1,2.079236367E0
2.968386687E0,1.253440857E0,-1.477422476E0,4.887744188E-1,1.998197084E0
2.973362156E0,9.972610474E-1,-1.221819162E0,7.053214908E-1,1.727671863E0
2.978337625E0,6.559619904E-1,-9.409552813E-1,7.396513224E-1,1.364832243E0
2.983313093E0,2.631578445E-1,-6.345260143E-1,6.918642521E-1,9.749622851E-1
2.988288562E0,-2.767114639E-1,-2.876271009E-1,7.145422101E-1,8.184553461E-1
2.993264031E0,-9.300670624E-1,1.149526834E-1,7.453052402E-1,1.197379957E0
2.998239500E0,-1.434031487E0,5.074639320E-1,7.031652331E-1,1.675830329E0
3.003214968E0,-1.746100426E0,7.478911877E-1,4.978671670E-1,1.963690312E0
3.008190385E0,-1.943326473E0,6.656630039E-1,2.304525971E-1,2.067059122E0
3.013165802E0,-1.782301903E0,4.153231382E-1,8.292227983E-2,1.831930535E0
3.018141218E0,-1.349734306E0,1.598687172E-1,8.879983425E-2,1.362066854E0
3.023116635E0,-9.089050293E-1,-1.061348915E-1,1.810888648E-1,9.328269638E-1
3.028092052E0,-5.026836395E-1,-3.215923309E-1,2.258697152E-1,6.380670788E-1
3.033067468E0,-9.256839752E-2,-4.876793623E-1,2.421587110E-1,5.523050877E-1
3.038042885E0,1.973571777E-1,-5.961235762E-1,3.779829144E-1,7.329285485E-1
3.043018302E0,2.001800537E-1,-5.813168287E-1,5.613451600E-1,8.325321002E-1
3.047993718E0,-2.613544464E-2,-4.443958998E-1,6.059021354E-1,7.518564855E-1
3.052969135E0,-3.425741196E-1,-2.526700497E-1,4.451527596E-1,6.159222035E-1
3.057944552E0,-6.439218521E-1,-7.262468338E-2,1.131033301E-1,6.578009270E-1
3.062919968E0,-8.347368240E-1,-3.783106804E-3,-1.890790462E-1,8.558917940E-1
3.067895385E0,-8.723468781E-1,2.193653584E-2,-3.895205259E-1,9.556131683E-1
3.072870802E0,-8.240594864E-1,-6.624805927E-2,-5.840092897E-1,1.012190542E0
3.077846218E0,-6.327476501E-1,-3.582025766E-1,-7.679461241E-1,1.057553745E0
3.082821635E0,-2.604122162E-1,-8.723148108E-1,-8.701221943E-1,1.259309447E0
3.087797052E0,2.736120224E-1,-1.364514709E0,-8.052749038E-1,1.607865541E0
3.092772468E0,8.353767395E-1,-1.754132032E0,-4.597985148E-1,1.996559080E0
3.097747885E0,1.281682014E0,-2.033124208E0,5.528044701E-2,2.404029692E0
3.102723302E0,1.574727058E0,-2.150475979E0,5.813695788E-1,2.728058436E0
3.107698718E0,1.667174339E0,-2.084034920E0,1.003645182E0,2.851311185E0
3.112674135E0,1.473444939E0,-1.777990580E0,1.356064558E0,2.677909926E0
3.117649552E0,8.840503693E-1,-1.113657236E0,1.534238100E0,2.091808797E0
3.122624968E0,-2.877235413E-2,-2.346065044E-1,1.543808460E0,1.561797881E0
3.127600385E0,-1.083079338E0,6.400518417E-1,1.419408083E0,1.896693575E0
3.132575802E0,-2.073441982E0,1.373607516E0,1.162199855E0,2.745299212E0
3.137551218E0,-2.775713921E0,1.896895289E0,6.921055913E-1,3.432464080E0
3.142526635E0,-3.013885975E0,2.140773058E0,8.660632372E-2,3.697826201E0
3.147502052E0,-2.808096886E0,2.088314056E0,-4.198749661E-1,3.524593410E0
3.152477468E0,-2.398144722E0,1.745452762E0,-7.946398258E-1,3.070693066E0
3.157452885E0,-1.865535259E0,1.169991016E0,-1.134333849E0,2.477057541E0
3.162428302E0,-1.095525742E0,4.430906773E-1,-1.483126402E0,1.896357014E0
3.167403718E0,-1.312170029E-1,-3.786456585E-1,-1.641553521E0,1.689759864E0
3.172379135E0,8.792734146E-1,-1.172440290E0,-1.615913153E0,2.181493362E0
3.177354552E0,1.788109779E0,-1.816330433E0,-1.488753915E0,2.951742035E0
3.182329968E0,2.457214355E0,-2.212397575E0,-1.170193791E0,3.507414850E0
3.187305385E0,2.791635513E0,-2.353488445E0,-5.746107101E-1,3.696256778E0
3.192280802E0,2.715558052E0,-2.246413231E0,2.886803150E-1,3.536094493E0
3.197256218E0,2.310892105E0,-1.849758506E0,1.320496082E0,3.241224885E0
3.202231635E0,1.644940376E0,-1.145446897E0,2.374479771E0,3.107415585E0
3.207207052E0,8.086938858E-1,-2.248941660E-1,3.199737787E0,3.308003188E0
3.212182468E0,-2.504806519E-1,7.162568569E-1,3.698246956E0,3.775287405E0
3.217157885E0,-1.326994896E0,1.636298299E0,3.953267097E0,4.479587963E0
3.222133302E0,-2.593308449E0,2.350764275E0,3.813255787E0,5.176124137E0
3.227108718E0,-3.820076466E0,2.705027103E0,3.317520142E0,5.737255069E0
3.232084135E0,-4.544040680E0,2.674105644E0,2.748494625E0,5.945869945E0
3.237059552E0,-4.704085350E0,2.806225777E0,1.665198088E0,5.725050809E0
3.242034968E0,-4.640480042E0,2.835422277E0,5.145469904E-1,5.462456692E0
3.247010437E0,-4.310428619E0,2.385365486E0,-1.038895845E-1,4.927530460E0
3.251985906E0,-3.790670872E0,1.729512453E0,-3.698328137E-1,4.182962502E0
3.256961375E0,-3.047796726E0,1.149596214E0,-5.290327072E-1,3.300077567E0
3.261936843E0,-2.048399448E0,5.822148323E-1,-3.914299607E-1,2.165209418E0
3.266912312E0,-9.742631912E-1,3.991651535E-2,-5.790245533E-2,9.767982332E-1
3.271887781E0,-8.813190460E-2,-3.170528412E-1,3.472639322E-1,4.784161111E-1
3.276863250E0,4.862041473E-1,-5.245785713E-1,8.488298059E-1,1.109995130E0
3.281838718E0,8.592290878E-1,-6.321927309E-1,1.491403341E0,1.833637423E0
3.286814187E0,1.179366112E0,-6.553064585E-1,2.209994555E0,2.589286950E0
3.291789656E0,1.331833839E0,-5.661888123E-1,2.915741444E0,3.255134300E0
3.296765125E0,1.206820488E0,-3.703677654E-1,3.481138468E0,3.702960033E0
3.301740593E0,8.094329834E-1,-1.445584297E-1,3.706449270E0,3.796557004E0
3.306716062E0,3.216915131E-1,2.566897869E-2,3.291045666E0,3.306830189E0
3.311691531E0,-7.463264465E-2,6.510972977E-2,2.306642532E0,2.308767871E0
3.316667000E0,-2.505912781E-1,-7.706367970E-2,1.220851421E0,1.248684505E0
3.321642468E0,-3.355798721E-1,-3.179504871E-1,3.141131401E-1,5.589037731E-1
3.326617937E0,-2.149658203E-1,-6.182149649E-1,-4.773026705E-1,8.100727658E-1
3.331593406E0,1.492195129E-1,-1.034723997E0,-1.407718897E0,1.753451655E0
3.336568875E0,6.515150070E-1,-1.543479443E0,-2.353439331E0,2.888853973E0
3.341544343E0,1.253565788E0,-2.154222965E0,-3.042566299E0,3.933104811E0
3.346519812E0,1.945795059E0,-2.729236603E0,-3.442200184E0,4.804538787E0
3.351495281E0,2.661265373E0,-3.078950167E0,-3.605051994E0,5.436788335E0
3.356470750E0,3.218377113E0,-3.205554008E0,-3.626485586E0,5.812480146E0
3.361446218E0,3.421394348E0,-3.244981766E0,-3.457940102E0,5.847494822E0
3.366421687E0,3.256484985E0,-3.236810446E0,-3.098453045E0,5.539137802E0
3.371397156E0,2.724115372E0,-3.038230419E0,-2.566115141E0,4.820435204E0
3.376372625E0,2.011178017E0,-2.582204342E0,-1.931968689E0,3.800673532E0
3.381348093E0,1.289947510E0,-2.169263840E0,-1.310712576E0,2.843877220E0
3.386323562E0,6.703472137E-1,-1.922537804E0,-7.937160134E-1,2.185292224E0
3.391299031E0,2.000226974E-1,-1.745063424E0,-3.197234571E-1,1.785351092E0
3.396274500E0,-1.212749481E-1,-1.630707979E0,1.649260521E-4,1.635211348E0
3.401249968E0,-2.172794342E-1,-1.674066544E0,7.425910234E-2,1.689740678E0
3.406225437E0,-6.439399719E-2,-1.788593054E0,-1.743776202E-1,1.798226697E0
3.411200906E0,1.983833313E-1,-1.821436763E0,-7.980883121E-1,1.998482620E0
3.416176375E0,3.557720184E-1,-1.754158020E0,-1.609804392E0,2.407304357E0
3.421151843E0,3.888082504E-1,-1.649356127E0,-2.374716282E0,2.917331813E0
3.426127312E0,3.837156296E-1,-1.531106114E0,-2.977635860E0,3.370139305E0
3.431102781E0,2.640085220E-1,-1.265567303E0,-3.298612595E0,3.542909277E0
3.436078250E0,3.937149048E-2,-9.294138551E-1,-3.346916199E0,3.473788749E0
3.441053718E0,-2.231702805E-1,-6.849784851E-1,-3.222721100E0,3.302261617E0
3.446029187E0,-4.280080795E-1,-5.889257193E-1,-3.074086189E0,3.159118598E0
3.451004656E0,-4.748592377E-1,-6.118708253E-1,-2.877165794E0,2.979590611E0
3.455980125E0,-3.878755569E-1,-6.767396927E-1,-2.598893642E0,2.713424446E0
3.460955593E0,-2.054843903E-1,-7.642794251E-1,-2.311548233E0,2.443276920E0
3.465931010E0,3.396320343E-2,-9.032424092E-1,-2.096991539E0,2.283500353E0
3.470906427E0,2.300434113E-1,-1.103457212E0,-2.013168335E0,2.307246093E0
3.475881843E0,3.685226440E-1,-1.298156500E0,-2.041174412E0,2.446918923E0
3.480857260E0,5.116987228E-1,-1.454256535E0,-2.138179064E0,2.636002155E0
3.485832677E0,5.065994263E-1,-1.524297714E0,-2.189585209E0,2.715586472E0
3.490808093E0,3.964977264E-1,-1.446277499E0,-2.128798246E0,2.603979844E0
3.495783510E0,2.484884262E-1,-1.320801735E0,-1.955956697E0,2.373189905E0
3.500758927E0,1.295461655E-1,-1.233884692E0,-1.819170237E0,2.201961397E0
3.505734343E0,2.049541473E-2,-1.175928831E0,-1.675037861E0,2.046699908E0
3.510709760E0,-1.121807098E-1,-1.103777766E0,-1.518270135E0,1.880439861E0
3.515685177E0,-2.493343353E-1,-1.003280282E0,-1.300547957E0,1.661374107E0
3.520660593E0,-4.101209641E-1,-8.839213252E-1,-1.083629489E0,1.457315677E0
3.525636010E0,-6.328010559E-1,-7.503461242E-1,-8.622847199E-1,1.306518818E0
3.530611427E0,-8.455915451E-1,-6.168855429E-1,-6.600973606E-1,1.237457619E0
3.535586843E0,-1.048536301E0,-4.833128154E-1,-5.486263037E-1,1.278284191E0
3.540562260E0,-1.294260979E0,-3.398485184E-1,-5.613198280E-1,1.451099048E0
3.545537677E0,-1.582705498E0,-2.865394354E-1,-6.506116390E-1,1.735038053E0
3.550513093E0,-1.732143402E0,-3.513083458E-1,-7.832052112E-1,1.933170640E0
3.555488510E0,-1.694968224E0,-4.666449428E-1,-8.875650764E-1,1.969377198E0
3.560463927E0,-1.619656563E0,-5.798122287E-1,-9.543893337E-1,1.967315074E0
3.565439343E0,-1.496667862E0,-7.195472717E-1,-9.982843995E-1,1.937610567E0
3.570414760E0,-1.397729874E0,-9.242551923E-1,-1.053167343E0,1.979155859E0
3.575390177E0,-1.308399200E0,-1.217931747E0,-1.028542280E0,2.062320400E0
3.580365593E0,-1.242934227E0,-1.485993266E0,-8.291872740E-1,2.107276208E0
3.585341010E0,-1.148645401E0,-1.709769487E0,-4.840185642E-1,2.115885613E0
3.590316427E0,-1.049447060E0,-1.813367367E0,-1.411783695E-1,2.099898014E0
3.595291843E0,-1.002686501E0,-1.864565611E0,2.140304446E-1,2.127861407E0
3.600267260E0,-1.027400970E0,-1.888058186E0,4.768826962E-1,2.201756928E0
3.605242677E0,-1.118739128E0,-1.903550863E0,7.008246183E-1,2.316514250E0
3.610218093E0,-1.386654854E0,-1.887515903E0,8.484607935E-1,2.491066776E0
3.615193510E0,-1.740138054E0,-1.782724619E0,8.871721029E-1,2.644477615E0
3.620168927E0,-2.059621334E0,-1.636704922E0,7.935863733E-1,2.747839583E0
3.625144343E0,-2.230488300E0,-1.482557178E0,6.591175795E-1,2.758167839E0
3.630119760E0,-2.324727535E0,-1.281732917E0,4.743709564E-1,2.696706359E0
3.635095177E0,-2.433358192E0,-1.000606656E0,2.826110125E-1,2.646188723E0
3.640070593E0,-2.546807289E0,-6.582313180E-1,5.979061127E-2,2.631172885E0
3.645046010E0,-2.746377945E0,-3.546887636E-1,-1.607617140E-1,2.773849359E0
3.650021427E0,-3.031943798E0,-1.323092580E-1,-3.412713408E-1,3.053957279E0
3.654996843E0,-3.350772858E0,-2.389907837E-2,-5.396260023E-1,3.394030956E0
3.659972260E0,-3.631085396E0,-3.354471922E-2,-8.087440133E-1,3.720211456E0
3.664947677E0,-3.734201431E0,-7.431870699E-2,-1.235394120E0,3.933952495E0
3.669923093E0,-3.655440331E0,-1.358752847E-1,-1.567237496E0,3.979565237E0
3.674898510E0,-3.509639740E0,-2.033633888E-1,-1.475761890E0,3.812715690E0
3.679873927E0,-3.287236214E0,-3.626682758E-1,-1.009845018E0,3.457923823E0
3.684849343E0,-2.954866886E0,-6.043277979E-1,-5.281929970E-1,3.061933743E0
3.689824760E0,-2.474469185E0,-9.094660282E-1,-2.452776432E-1,2.647694719E0
3.694800177E0,-1.913218021E0,-1.273734331E0,-2.627444267E-2,2.298584932E0
3.699775593E0,-1.419466972E0,-1.635746956E0,2.346597910E-1,2.178444355E0
3.704751010E0,-1.050511360E0,-1.900910020E0,5.953627825E-1,2.251996862E0
3.709726427E0,-8.157892227E-1,-2.051351786E0,9.176901579E-1,2.390755410E0
3.714701843E0,-7.151927948E-1,-2.126380205E0,1.082762122E0,2.491057471E0
3.719677260E0,-7.916355133E-1,-2.131657362E0,1.091195703E0,2.522173261E0
3.724652677E0,-9.492788315E-1,-2.043892622E0,9.959553480E-1,2.463849509E0
3.729628093E0,-1.130644798E0,-1.719832897E0,7.779450417E-1,2.200313919E0
3.734603510E0,-1.306983948E0,-1.192913294E0,4.991258383E-1,1.838579824E0
3.739578927E0,-1.454343796E0,-6.253203154E-1,2.499121428E-1,1.602684452E0
3.744554343E0,-1.654012680E0,-1.310242265E-1,1.015626192E-1,1.662299690E0
3.749529760E0,-1.915443897E0,3.292458653E-1,1.252948046E-1,1.947569498E0
3.754505177E0,-2.214629173E0,7.758548260E-1,3.684797287E-1,2.375354794E0
3.759480593E0,-2.475073814E0,1.119428754E0,8.167182207E-1,2.836571835E0
3.764456010E0,-2.457865715E0,1.270747066E0,1.379481673E0,3.091742496E0
3.769431427E0,-2.086997509E0,1.221645117E0,1.875616670E0,3.060377964E0
3.774406843E0,-1.434780121E0,8.674871325E-1,2.282018661E0,2.831737469E0
3.779382260E0,-4.203157425E-1,2.991132438E-1,2.537013054E0,2.588932076E0
3.784357677E0,9.129447937E-1,-3.265819252E-1,2.731625080E0,2.898603031E0
3.789333093E0,2.277802467E0,-9.686174393E-1,2.827234268E0,3.757639875E0
3.794308562E0,3.454360008E0,-1.534211993E0,2.809109449E0,4.709299885E0
3.799284031E0,4.337682724E0,-2.021608591E0,2.648424387E0,5.469601854E0
3.804259500E0,4.913696289E0,-2.347538948E0,2.307220221E0,5.914272185E0
3.809234968E0,5.163549423E0,-2.404249191E0,1.857541084E0,5.991086354E0
3.814210437E0,5.015789986E0,-2.169425726E0,1.486232042E0,5.663342021E0
3.819185906E0,4.399030685E0,-1.782317877E0,1.308475256E0,4.923437364E0
3.824161375E0,3.548008919E0,-1.414798856E0,1.114418507E0,3.978938514E0
3.829136843E0,2.649436951E0,-1.032394052E0,8.089594841E-1,2.956310045E0
3.834112312E0,1.650826454E0,-6.003980041E-1,4.304726124E-1,1.808594044E0
3.839087781E0,5.189514160E-1,-1.985963285E-1,6.489801407E-2,5.594308055E-1
3.844063250E0,-5.689229965E-1,1.699879467E-1,-2.786107063E-1,6.558911523E-1
3.849038718E0,-1.502698898E0,5.597875118E-1,-6.770957708E-1,1.740667895E0
3.854014187E0,-2.234548569E0,9.773915410E-1,-1.179105043E0,2.709020161E0
3.858989656E0,-2.692754269E0,1.371933818E0,-1.642135859E0,3.439438636E0
3.863965125E0,-2.858290195E0,1.539246678E0,-2.038790226E0,3.833506067E0
3.868940593E0,-2.659530163E0,1.552299380E0,-2.404067039E0,3.906695840E0
3.873916062E0,-2.192223549E0,1.655542374E0,-2.649020910E0,3.816277823E0
3.878891531E0,-1.614263535E0,1.834448338E0,-2.564774990E0,3.542473460E0
3.883867000E0,-1.140935898E0,1.892508626E0,-2.061196566E0,3.021895912E0
3.888842468E0,-8.344831467E-1,1.743209243E0,-1.257355928E0,2.305663574E0
3.893817937E0,-6.520452499E-1,1.467340946E0,-4.243119955E-1,1.660810986E0
3.898793406E0,-5.126514435E-1,1.255737185E0,2.871751785E-1,1.386418755E0
3.903768875E0,-3.306512833E-1,1.141324997E0,9.464216232E-1,1.519100691E0
3.908744343E0,-1.447486877E-1,1.032571077E0,1.569559574E0,1.884322814E0
3.913719812E0,-4.130840302E-2,8.905236125E-1,2.133907795E0,2.312639437E0
3.918695281E0,-1.303243637E-1,7.334368229E-1,2.539570570E0,2.646569986E0
3.923670750E0,-3.540802002E-1,6.417859197E-1,2.676391602E0,2.774947560E0
3.928646218E0,-6.260957718E-1,5.670866966E-1,2.572451591E0,2.707598646E0
3.933621687E0,-9.364271164E-1,4.946857691E-1,2.255405426E0,2.491678830E0
3.938597156E0,-1.303768158E0,4.772625566E-1,1.867352247E0,2.326928313E0
3.943572625E0,-1.785083294E0,5.150287151E-1,1.507316113E0,2.392442017E0
3.948548093E0,-2.241364479E0,5.891432762E-1,1.150587082E0,2.587403169E0
3.953523562E0,-2.567400932E0,6.426648498E-1,7.922458649E-1,2.762647130E0
3.958499031E0,-2.672579288E0,7.143456936E-1,4.230740070E-1,2.798564174E0
3.963474500E0,-2.710298061E0,1.010397196E0,5.297994614E-2,2.892995843E0
3.968449916E0,-2.785926342E0,1.488308668E0,-2.221677303E-1,3.166355440E0
3.973425333E0,-2.808660984E0,1.972099781E0,-3.543573618E-1,3.450119304E0
3.978400750E0,-2.620911121E0,2.271453142E0,-4.484782219E-1,3.497114124E0
3.983376166E0,-2.261323929E0,2.435191631E0,-5.233572721E-1,3.364171076E0
3.988351583E0,-1.859272480E0,2.588340282E0,-4.546725750E-1,3.219181064E0
3.993327000E0,-1.424459457E0,2.664294004E0,-1.897401810E-1,3.027135383E0
3.998302416E0,-9.379158020E-1,2.596151590E0,7.559347153E-2,2.761413317E0
4.003277833E0,-4.284725189E-1,2.421654224E0,2.365174294E-1,2.470614979E0
4.008253250E0,6.558036804E-2,2.154269218E0,2.407219410E-1,2.168668648E0
4.013228666E0,4.582748413E-1,1.802382588E0,1.695284843E-1,1.867441761E0
4.018204083E0,6.876688004E-1,1.412871361E0,5.623555183E-2,1.572341025E0
4.023179500E0,7.780199051E-1,1.061234474E0,-4.213285446E-2,1.316551845E0
4.028154916E0,8.012933731E-1,8.231170177E-1,-1.400763988E-1,1.157244180E0
4.033130333E0,7.193641663E-1,6.786881685E-1,-2.616434097E-1,1.023015009E0
4.038105750E0,4.893283844E-1,5.365637541E-1,-4.402737617E-1,8.492254796E-1
4.043081166E0,2.213411331E-1,3.584811389E-1,-7.284042835E-1,8.414709885E-1
4.048056583E0,2.066802979E-2,1.828767359E-1,-1.049430251E0,1.065445878E0
4.053032000E0,-1.940107346E-1,1.153850555E-1,-1.355787158E0,1.374449961E0
4.058007416E0,-4.608516693E-1,1.323951483E-1,-1.590504527E0,1.661209616E0
4.062982833E0,-6.697492599E-1,1.770549715E-1,-1.773058295E0,1.903588257E0
4.067958250E0,-6.724929810E-1,2.644406557E-1,-1.989809990E0,2.116959958E0
4.072933666E0,-5.744533539E-1,4.621783793E-1,-2.121672153E0,2.246129613E0
4.077909083E0,-4.665298462E-1,6.515744925E-1,-1.954064131E0,2.112005219E0
4.082884500E0,-3.057260513E-1,7.664266825E-1,-1.559067488E0,1.763964203E0
4.087859916E0,-8.268737793E-2,7.689976692E-1,-1.094258904E0,1.339998943E0
4.092835333E0,1.688766479E-1,7.407224774E-1,-6.643050909E-1,1.009202836E0
4.097810750E0,3.626832962E-1,7.197843790E-1,-2.971711159E-1,8.590339910E-1
4.102786166E0,5.034799576E-1,6.678607464E-1,5.071353912E-2,8.379152149E-1
4.107761583E0,7.107620239E-1,5.226901770E-1,4.038448334E-1,9.702980600E-1
4.112737000E0,1.013097763E0,2.648729384E-1,6.859259605E-1,1.251806365E0
4.117712416E0,1.362566948E0,-1.013966203E-1,8.540370464E-1,1.611288068E0
4.122687833E0,1.706655502E0,-4.957900345E-1,9.748225212E-1,2.027007575E0
4.127663250E0,1.973791122E0,-8.334679604E-1,1.043099403E0,2.382976416E0
4.132638666E0,2.149900436E0,-1.096604466E0,1.029676437E0,2.623899161E0
4.137614083E0,2.316579819E0,-1.233689427E0,9.866437912E-1,2.803925397E0
4.142589500E0,2.483572006E0,-1.173757672E0,9.947569370E-1,2.921536984E0
4.147564916E0,2.459716797E0,-1.032018661E0,1.101278067E0,2.885841752E0
4.152540333E0,2.259662628E0,-8.849608898E-1,1.363268137E0,2.783474624E0
4.157515750E0,1.998312950E0,-7.560533285E-1,1.642220259E0,2.694765047E0
4.162491166E0,1.847758293E0,-6.686818600E-1,1.871775389E0,2.713832944E0
4.167466583E0,1.802875519E0,-4.739814103E-1,2.134049177E0,2.833581551E0
4.172442000E0,1.858547211E0,-1.045040786E-1,2.420176506E0,3.053256157E0
4.177417416E0,1.923516273E0,2.922148407E-1,2.836216450E0,3.439393568E0
4.182392833E0,1.940113068E0,6.116111279E-1,3.325494051E0,3.898335231E0
4.187368250E0,1.936773300E0,8.113795519E-1,3.817211628E0,4.356665262E0
4.192343666E0,1.913189888E0,9.349862337E-1,4.283765316E0,4.783841562E0
4.197319083E0,1.878601074E0,1.040111184E0,4.702438354E0,5.169516394E0
4.202294500E0,1.789673805E0,1.131460905E0,5.021739960E0,5.449863148E0
4.207269916E0,1.780224800E0,1.127544880E0,5.012847900E0,5.437757062E0
4.212245333E0,1.979397774E0,1.004136562E0,4.570676327E0,5.081081368E0
4.217220750E0,2.205642700E0,8.515488505E-1,3.770944118E0,4.450844269E0
4.222196166E0,2.368676186E0,7.361811996E-1,2.856017828E0,3.782780388E0
4.227171583E0,2.478790283E0,6.337506771E-1,1.972110510E0,3.230365467E0
4.232147000E0,2.574908257E0,4.962146282E-1,1.035772324E0,2.819433594E0
4.237122416E0,2.647974014E0,3.423406482E-1,5.488419533E-2,2.670575926E0
4.242097833E0,2.641016006E0,1.574146748E-1,-9.192893505E-1,2.800863766E0
4.247073250E0,2.559159279E0,-1.567715406E-2,-1.806369781E0,3.132493220E0
4.252048666E0,2.479108810E0,-1.482405663E-1,-2.492054462E0,3.518279580E0
4.257024083E0,2.386478424E0,-1.255103350E-1,-2.962096691E0,3.805922874E0
4.261999500E0,2.218976974E0,1.195729971E-1,-3.287995577E0,3.968509976E0
4.266974916E0,1.928687096E0,4.819859266E-1,-3.430998325E0,3.965336537E0
4.271950333E0,1.630226135E0,8.717238903E-1,-3.361649275E0,3.836433974E0
4.276925750E0,1.289731026E0,1.275466442E0,-3.141164541E0,3.627276587E0
4.281901166E0,9.211616516E-1,1.622878313E0,-2.792469501E0,3.358594754E0
4.286876583E0,6.532955170E-1,1.900868893E0,-2.286066771E0,3.044043176E0
4.291852000E0,4.378051758E-1,2.067554951E0,-1.736058116E0,2.735023698E0
4.296827416E0,2.982940674E-1,2.085574150E0,-1.156387329E0,2.403295766E0
4.301802833E0,2.871332169E-1,1.988972902E0,-5.756000280E-1,2.090400460E0
4.306778250E0,4.137172699E-1,1.835196137E0,-6.551575661E-2,1.882391871E0
4.311753666E0,7.018852234E-1,1.585659504E0,4.071056843E-1,1.781205762E0
4.316729083E0,1.036890030E0,1.287446976E0,8.321540356E-1,1.850713643E0
4.321704500E0,1.380691528E0,9.633702040E-1,1.185198069E0,2.058904007E0
4.326679916E0,1.666584969E0,6.456563473E-1,1.518493891E0,2.345250791E0
4.331655333E0,1.856550217E0,3.714240789E-1,1.836724043E0,2.637857040E0
4.336630750E0,2.032164574E0,2.016568184E-1,2.106353998E0,2.933783477E0
4.341606166E0,2.155281067E0,1.067000628E-1,2.212708235E0,3.090744103E0
4.346581583E0,2.316908836E0,6.195199490E-2,2.203818083E0,3.198236819E0
4.351557000E0,2.483579636E0,1.242680550E-1,2.032049417E0,3.211360333E0
4.356532416E0,2.574008942E0,2.742488384E-1,1.745462894E0,3.122078662E0
4.361507833E0,2.550084114E0,4.594632387E-1,1.401323557E0,2.945800938E0
4.366483250E0,2.483667374E0,5.655862093E-1,1.037857533E0,2.750570785E0
4.371458666E0,2.379561424E0,6.268020868E-1,6.310610771E-1,2.540360508E0
4.376434083E0,2.290369034E0,6.583448648E-1,2.094993591E-1,2.392299783E0
4.381409500E0,2.153918266E0,6.895931959E-1,-9.327006340E-2,2.263537492E0
4.386384916E0,2.018058777E0,7.116532326E-1,-3.158719540E-1,2.163050310E0
4.391360333E0,1.925744057E0,6.963381767E-1,-4.726934433E-1,2.101622259E0
4.396335750E0,1.852883339E0,6.250272989E-1,-6.353584528E-1,2.056092448E0
4.401311166E0,1.789763451E0,4.884424210E-1,-7.891969681E-1,2.016100459E0
4.406286583E0,1.712347984E0,3.728569746E-1,-8.860765696E-1,1.963743779E0
4.411262000E0,1.663639069E0,2.973608971E-1,-9.545757771E-1,1.940961970E0
4.416237416E0,1.657898903E0,1.994953156E-1,-9.801020622E-1,1.936240482E0
4.421212833E0,1.628066063E0,8.386802673E-2,-1.053286314E0,1.940887686E0
4.426188250E0,1.574197769E0,-4.977083206E-2,-1.121430516E0,1.933437911E0
4.431163666E0,1.549035072E0,-1.300367117E-1,-1.146460414E0,1.931525481E0
4.436139083E0,1.519207001E0,-1.526068449E-1,-1.061759233E0,1.859734236E0
4.441114500E0,1.470500946E0,-1.657975912E-1,-9.059406519E-1,1.735105282E0
4.446089916E0,1.412642479E0,-2.035880089E-1,-6.936236620E-1,1.586858732E0
4.451065333E0,1.297905922E0,-2.282196283E-1,-5.300550461E-1,1.420423294E0
4.456040750E0,1.136003494E0,-1.587125063E-1,-4.104499817E-1,1.218262199E0
4.461016166E0,8.935737610E-1,1.910007000E-2,-2.679059505E-1,9.330661699E-1
4.465991583E0,5.658969879E-1,1.953831911E-1,-7.374715805E-2,6.032019858E-1
4.470967000E0,1.817378998E-1,3.369896412E-1,9.063315392E-2,3.934527304E-1
4.475942416E0,-1.680583954E-1,4.637008905E-1,2.157068253E-1,5.383229278E-1
4.480917833E0,-4.789113998E-1,5.904725790E-1,3.591151237E-1,8.408196403E-1
4.485893250E0,-7.222518921E-1,6.795053482E-1,5.351655483E-1,1.126844034E0
4.490868666E0,-9.699954987E-1,7.789814472E-1,6.674277782E-1,1.411794320E0
4.495844083E0,-1.174311638E0,8.603689671E-1,6.888861656E-1,1.610529954E0
4.500819500E0,-1.234888077E0,8.952077627E-1,6.619203091E-1,1.662673749E0
4.505794916E0,-1.185420990E0,8.883049488E-1,5.867278576E-1,1.593285343E0
4.510770333E0,-1.069111824E0,8.396279812E-1,5.399942398E-1,1.462726570E0
4.515745750E0,-9.337825775E-1,7.822710276E-1,5.025441647E-1,1.317743716E0
4.520721166E0,-7.841482162E-1,7.349095345E-1,4.552333355E-1,1.167140882E0
4.525696583E0,-7.110576630E-1,6.970262527E-1,3.982887268E-1,1.072418998E0
4.530672000E0,-6.809530258E-1,6.540163755E-1,4.227900505E-1,1.034497883E0
4.535647416E0,-6.890630722E-1,6.392172575E-1,4.906706810E-1,1.060266163E0
4.540622833E0,-7.211666107E-1,6.286046505E-1,5.594115257E-1,1.108226666E0
4.545598250E0,-7.247591019E-1,5.982174873E-1,6.007287502E-1,1.115354181E0
4.550573666E0,-7.382888794E-1,5.721404552E-1,5.576100349E-1,1.087816217E0
4.555549083E0,-7.905254364E-1,5.743652582E-1,4.829461575E-1,1.089982984E0
4.560524552E0,-8.097209930E-1,5.716844797E-1,4.340510368E-1,1.082068174E0
4.565500020E0,-7.958946228E-1,5.451829433E-1,3.724083900E-1,1.034098980E0
4.570475489E0,-7.394094467E-1,5.093806982E-1,3.262794018E-1,9.553288824E-1
4.575450958E0,-6.689033508E-1,4.261406660E-1,2.761054039E-1,8.397986390E-1
4.580426427E0,-6.464986801E-1,3.338303566E-1,3.077344894E-1,7.900023838E-1
4.585401895E0,-6.482791901E-1,2.852118015E-1,3.828632832E-1,8.051061878E-1
4.590377364E0,-5.834903717E-1,2.660441399E-1,3.917245865E-1,7.514576834E-1
4.595352833E0,-3.997287750E-1,2.381470203E-1,3.346493244E-1,5.731380874E-1
4.600328302E0,-1.688652039E-1,1.394152641E-1,2.355291843E-1,3.215992376E-1
4.605303770E0,6.613636017E-2,4.146170616E-2,2.567481995E-1,2.683518756E-1
4.610279239E0,2.240657806E-1,-2.254056931E-2,4.219849110E-1,4.783145580E-1
4.615254708E0,2.763166428E-1,-9.743928909E-3,6.163928509E-1,6.755634521E-1
4.620230177E0,4.429359436E-1,1.180484295E-1,8.783855438E-1,9.908021222E-1
4.625205645E0,8.575487137E-1,5.090157986E-1,1.217780828E0,1.574000326E0
4.630181114E0,1.629604340E0,1.234767914E0,1.577605486E0,2.582460295E0
4.635156583E0,2.844375610E0,2.467527628E0,1.877222538E0,4.207508724E0
4.640132052E0,4.553490639E0,4.241043091E0,2.026418924E0,6.544241526E0
4.645107520E0,6.287301064E0,6.096648216E0,1.848654747E0,8.950798764E0
4.650082989E0,7.166076660E0,6.987509727E0,1.094490767E0,1.006855784E1
4.655058458E0,6.374585152E0,5.828388214E0,-2.377367020E-2,8.637477075E0
4.660033927E0,4.323547363E0,3.036117077E0,-8.122553825E-1,5.345168614E0
4.665009395E0,2.211528778E0,6.101825237E-1,-1.020719528E0,2.510985982E0
4.669984864E0,4.593105316E-1,-2.351350784E-1,-4.007198811E-1,6.533231150E-1
4.674960333E0,-8.872232437E-1,1.313989162E-1,9.830694199E-1,1.330735227E0
4.679935802E0,-1.586564541E0,6.767706871E-1,2.349726439E0,2.914861908E0
4.684911270E0,-1.856158257E0,7.270014286E-1,3.076351404E0,3.665759473E0
4.689886739E0,-1.902960777E0,1.820404530E-1,3.122928381E0,3.661567986E0
4.694862208E0,-1.612834454E0,-4.652364254E-1,2.740197897E0,3.213466107E0
4.699837625E0,-1.014795303E0,-8.375841379E-1,2.120121241E0,2.495249641E0
4.704813041E0,-4.146566391E-1,-8.741438389E-1,1.534454107E0,1.814005785E0
4.709788458E0,9.758949280E-2,-8.058882952E-1,1.048378944E0,1.325925362E0
4.714763875E0,4.703617096E-1,-8.586857319E-1,5.020945072E-1,1.100309147E0
4.719739291E0,6.615085602E-1,-1.018903852E0,-2.443933487E-2,1.215053873E0
4.724714708E0,6.286849976E-1,-1.119379997E0,-4.653658867E-1,1.365584788E0
4.729690125E0,4.248924255E-1,-1.126714468E0,-7.494003773E-1,1.418315900E0
4.734665541E0,1.219215393E-1,-1.059706211E0,-8.431208134E-1,1.359667173E0
4.739640958E0,-2.039813995E-1,-9.801079035E-1,-8.464508057E-1,1.310991564E0
4.744616375E0,-4.815320969E-1,-9.638277292E-1,-9.020605087E-1,1.405186896E0
4.749591791E0,-6.872882843E-1,-1.005340219E0,-9.231035709E-1,1.528134269E0
4.754567208E0,-7.785997391E-1,-1.051530838E0,-8.994956017E-1,1.587774227E0
4.759542625E0,-7.605199814E-1,-1.121321917E0,-8.310661316E-1,1.589472994E0
4.764518041E0,-6.761236191E-1,-1.171691298E0,-7.898495197E-1,1.566482017E0
4.769493458E0,-5.348377228E-1,-1.231633544E0,-7.044975758E-1,1.516340796E0
4.774468875E0,-3.555736542E-1,-1.258420587E0,-5.708632469E-1,1.426863639E0
4.779444291E0,-1.763744354E-1,-1.262032866E0,-3.608160019E-1,1.324395366E0
4.784419708E0,2.691078186E-2,-1.252545714E0,-9.871697426E-2,1.256717947E0
4.789395125E0,2.208900452E-1,-1.149101973E0,1.148812771E-1,1.175765905E0
4.794370541E0,4.486074448E-1,-9.185127020E-1,2.466988564E-1,1.051558153E0
4.799345958E0,7.051792145E-1,-5.752267838E-1,3.447933197E-1,9.731628901E-1
4.804321375E0,1.028777122E0,-1.527237892E-1,4.044904709E-1,1.115938827E0
4.809296791E0,1.404887199E0,3.157837391E-1,4.115054607E-1,1.497586110E0
4.814272208E0,1.842929840E0,7.874999046E-1,3.372519016E-1,2.032310346E0
4.819247625E0,2.242330551E0,1.253259659E0,1.769797802E-1,2.574884059E0
4.824223041E0,2.517028809E0,1.632144690E0,-3.588676453E-2,3.000103027E0
4.829198458E0,2.528547287E0,1.795485258E0,-2.682011127E-1,3.112756099E0
4.834173875E0,2.267746925E0,1.724688292E0,-4.486603737E-1,2.884184798E0
4.839149291E0,1.802013397E0,1.458541155E0,-5.634081364E-1,2.385796159E0
4.844124708E0,1.184286118E0,1.126644611E0,-5.077092648E-1,1.711616308E0
4.849100125E0,5.437908173E-1,8.488078117E-1,-2.864272594E-1,1.047961702E0
4.854075541E0,9.305953979E-3,6.731719971E-1,5.798006058E-2,6.757283669E-1
4.859050958E0,-3.670721054E-1,6.190686226E-1,4.114248753E-1,8.290104451E-1
4.864026375E0,-5.572175980E-1,6.148428917E-1,7.317352295E-1,1.106327112E0
4.869001791E0,-5.806941986E-1,5.934541225E-1,9.477992058E-1,1.260046381E0
4.873977208E0,-5.046634674E-1,5.451591015E-1,1.069449425E0,1.302154266E0
4.878952625E0,-3.434848785E-1,4.887497425E-1,1.135002375E0,1.282610059E0
4.883928041E0,-7.795619965E-2,4.764392376E-1,1.158647060E0,1.255202982E0
4.888903458E0,2.298574448E-1,5.603802204E-1,1.206999779E0,1.350447667E0
4.893878875E0,4.796371460E-1,7.305085659E-1,1.327652931E0,1.589451749E0
4.898854291E0,6.189260483E-1,8.956468105E-1,1.501303673E0,1.854498687E0
4.903829708E0,6.429834366E-1,1.003179312E0,1.680357218E0,2.059950682E0
4.908805125E0,6.330766678E-1,1.057945013E0,1.764907598E0,2.152889349E0
4.913780541E0,6.656179428E-1,1.103164434E0,1.741095066E0,2.165971155E0
4.918755958E0,7.261381149E-1,1.158028126E0,1.614028692E0,2.115040028E0
4.923731375E0,7.906942368E-1,1.246613264E0,1.450678587E0,2.069712630E0
4.928706791E0,8.450241089E-1,1.311491966E0,1.269985437E0,2.011700756E0
4.933682208E0,8.461971283E-1,1.362341166E0,1.095564842E0,1.942237204E0
4.938657625E0,8.804063797E-1,1.351532459E0,8.984916210E-1,1.846359276E0
4.943633041E0,9.859151840E-1,1.327051640E0,6.499218941E-1,1.776370815E0
4.948608458E0,1.177083969E0,1.365471601E0,3.926553726E-1,1.845052196E0
4.953583875E0,1.348745346E0,1.476282358E0,1.692969799E-1,2.006784761E0
4.958559291E0,1.524880409E0,1.602260590E0,5.122375488E-2,2.212492516E0
4.963534708E0,1.729373932E0,1.767489195E0,-4.804372787E-3,2.472807177E0
4.968510125E0,2.009942055E0,1.953074455E0,-4.187774658E-2,2.802877207E0
4.973485541E0,2.309086800E0,2.140097618E0,-6.969714165E-2,3.149088337E0
4.978460958E0,2.593310356E0,2.247332573E0,-5.006790161E-2,3.431948294E0
4.983436375E0,2.833904266E0,2.241541624E0,-5.476737022E-2,3.613657663E0
4.988411791E0,3.064423561E0,2.180155754E0,-5.983281136E-2,3.761296431E0
4.993387208E0,3.232363701E0,2.129953861E0,-7.950067520E-3,3.871038846E0
4.998362625E0,3.323484421E0,2.100306273E0,7.215857506E-2,3.932180310E0
5.003338041E0,3.361806870E0,2.057431698E0,2.141246796E-1,3.947229408E0
5.008313458E0,3.366485596E0,1.991570354E0,3.464431763E-1,3.926779929E0
5.013288875E0,3.332739830E0,1.883379340E0,4.311981201E-1,3.852298578E0
5.018264291E0,3.289298058E0,1.785228014E0,5.309028625E-1,3.779997172E0
5.023239708E0,3.226597786E0,1.778147459E0,6.314358711E-1,3.737840676E0
5.028215125E0,3.149456978E0,1.804447174E0,7.759561539E-1,3.711767343E0
5.033190541E0,3.048301697E0,1.820905566E0,9.024496078E-1,3.663639667E0
5.038165958E0,2.947076797E0,1.860874653E0,1.015835285E0,3.630432130E0
5.043141375E0,2.855349541E0,1.933915377E0,1.101786613E0,3.620356809E0
5.048116791E0,2.744446754E0,2.049627304E0,1.174540520E0,3.621119372E0
5.053092208E0,2.614409447E0,2.164973736E0,1.243610620E0,3.615081660E0
5.058067625E0,2.517829895E0,2.308868408E0,1.280326843E0,3.648229369E0
5.063043041E0,2.406817436E0,2.428918362E0,1.265552282E0,3.646098896E0
5.068018458E0,2.267014503E0,2.515940666E0,1.199266672E0,3.592708275E0
5.072993875E0,2.084086418E0,2.546451569E0,1.095757961E0,3.468215290E0
5.077969291E0,1.939387321E0,2.516240597E0,9.595756531E-1,3.318655655E0
5.082944708E0,1.856745720E0,2.449820995E0,8.288717270E-1,3.183733016E0
5.087920125E0,1.883946419E0,2.395339727E0,6.555714607E-1,3.117159036E0
5.092895541E0,1.944428444E0,2.314610958E0,4.967668056E-1,3.063495246E0
5.097870958E0,2.004777908E0,2.202796936E0,3.904180527E-1,3.003976541E0
5.102846375E0,2.060283661E0,2.093198776E0,3.411779404E-1,2.956797637E0
5.107821791E0,2.096712112E0,1.966354966E0,3.009972572E-1,2.890216754E0
5.112797208E0,2.056758881E0,1.855458736E0,3.177006245E-1,2.788174654E0
5.117772625E0,2.017106056E0,1.769753337E0,3.911588192E-1,2.711779662E0
5.122748041E0,1.982600212E0,1.680037737E0,4.639649391E-1,2.639790496E0
5.127723458E0,1.919791222E0,1.571575046E0,4.740624428E-1,2.525902147E0
5.132698875E0,1.824020386E0,1.491801262E0,4.070174694E-1,2.391272589E0
5.137674291E0,1.738413811E0,1.450005054E0,3.249981403E-1,2.286967649E0
5.142649708E0,1.715631485E0,1.441221952E0,2.612106800E-1,2.255824268E0
5.147625125E0,1.698240280E0,1.470041037E0,1.819946766E-1,2.253477926E0
5.152600541E0,1.528436661E0,1.464710236E0,1.636577845E-1,2.123270725E0
5.157575958E0,1.292444229E0,1.401501536E0,2.348889112E-1,1.920882985E0
5.162551375E0,1.100215912E0,1.285551548E0,3.146584034E-1,1.721083306E0
5.167526791E0,9.803123474E-1,1.174333811E0,3.602572680E-1,1.571578028E0
5.172502208E0,9.660243988E-1,1.130223989E0,4.725104570E-1,1.560088311E0
5.177477625E0,1.014108658E0,1.090994120E0,6.612433195E-1,1.629701588E0
5.182453041E0,9.904842377E-1,9.657397270E-1,8.981950283E-1,1.649383689E0
5.187428458E0,9.095096588E-1,7.496559024E-1,1.006857872E0,1.550146627E0
5.192403875E0,8.238620758E-1,5.096293092E-1,9.014495611E-1,1.323284574E0
5.197379291E0,8.388233185E-1,2.935501337E-1,7.540750504E-1,1.165515089E0
5.202354708E0,8.969688416E-1,1.588447690E-1,5.595043898E-1,1.069032238E0
5.207330125E0,9.840316772E-1,6.234663725E-2,3.744205236E-1,1.054701936E0
5.212305541E0,1.037932396E0,-4.872184992E-2,2.267886400E-1,1.063536819E0
5.217280958E0,9.679708481E-1,-1.936791837E-1,1.588742733E-1,9.998601020E-1
5.222256375E0,8.030347824E-1,-4.157408178E-1,9.857571125E-2,9.096276492E-1
5.227231791E0,6.771211624E-1,-6.144682169E-1,2.683663368E-2,9.147592378E-1
5.232207208E0,6.570587158E-1,-6.943581104E-1,-8.463823795E-2,9.596994180E-1
5.237182625E0,7.617921829E-1,-6.268111467E-1,-2.260582447E-1,1.012087878E0
5.242158041E0,8.620042801E-1,-5.173708200E-1,-3.493835926E-1,1.064327412E0
5.247133458E0,8.668231964E-1,-5.096748471E-1,-4.929151535E-1,1.119873320E0
5.252108875E0,8.385238647E-1,-5.894941092E-1,-6.804599166E-1,1.230305358E0
5.257084291E0,8.775339127E-1,-6.898258924E-1,-8.639602661E-1,1.411507305E0
5.262059708E0,8.832931519E-1,-7.055976391E-1,-9.571018219E-1,1.481255791E0
5.267035125E0,8.270988464E-1,-7.422294021E-1,-8.832421899E-1,1.419547024E0
5.272010541E0,6.993989944E-1,-7.711746693E-1,-6.900537014E-1,1.249016987E0
5.276985958E0,4.954462051E-1,-8.020229340E-1,-4.300246239E-1,1.036160656E0
5.281961375E0,2.726631165E-1,-8.729885817E-1,-1.794304848E-1,9.320137004E-1
5.286936791E0,5.969333649E-2,-1.036571980E0,1.435053349E-2,1.038388512E0
5.291912208E0,-7.657146454E-2,-1.206552148E0,1.373147964E-1,1.216752493E0
5.296887625E0,-1.792612076E-1,-1.320956230E0,2.421207428E-1,1.354873572E0
5.301863041E0,-2.818336487E-1,-1.365525126E0,3.235573769E-1,1.431355460E0
5.306838458E0,-3.172655106E-1,-1.397911310E0,3.811477423E-1,1.483269037E0
5.311813875E0,-3.668651581E-1,-1.418397546E0,3.952306509E-1,1.517448157E0
5.316789291E0,-4.735584259E-1,-1.451262593E0,4.368758202E-1,1.587854269E0
5.321764708E0,-6.467828751E-1,-1.458514452E0,5.295492411E-1,1.681075517E0
5.326740125E0,-7.286052704E-1,-1.301755309E0,6.155409813E-1,1.613791568E0
5.331715541E0,-7.669410706E-1,-1.000248551E0,6.755255461E-1,1.430045640E0
5.336690958E0,-8.288240433E-1,-6.639767289E-1,6.905665398E-1,1.266766173E0
5.341666375E0,-9.907770157E-1,-4.505623579E-1,6.466350555E-1,1.266010438E0
5.346641791E0,-1.209695816E0,-3.977997899E-1,4.390614033E-1,1.346990555E0
5.351617208E0,-1.423405647E0,-3.328756988E-1,6.377613544E-2,1.463201033E0
5.356592625E0,-1.521978378E0,-2.360337377E-1,-3.255798221E-1,1.574208477E0
5.361568041E0,-1.548655510E0,-2.263230383E-1,-5.564374924E-1,1.661077569E0
5.366543458E0,-1.675749779E0,-2.891274691E-1,-6.955155730E-1,1.837246289E0
5.371518875E0,-1.864924431E0,-4.004094005E-1,-7.903741002E-1,2.064694176E0
5.376494291E0,-2.030086517E0,-4.786597192E-1,-9.361795187E-1,2.286219256E0
5.381469708E0,-2.137821198E0,-5.523658991E-1,-9.748268127E-1,2.413643485E0
5.386445125E0,-2.245591640E0,-6.022784710E-1,-8.585968018E-1,2.478428865E0
5.391420541E0,-2.372478962E0,-5.998963118E-1,-6.262000799E-1,2.525996546E0
5.396395958E0,-2.566229343E0,-5.788677335E-1,-3.642083406E-1,2.655799053E0
5.401371375E0,-2.764526367E0,-5.486585498E-1,-1.687887907E-1,2.823494625E0
5.406346791E0,-2.819086075E0,-5.041132569E-1,-4.490864277E-2,2.864156640E0
5.411322208E0,-2.773113251E0,-4.784289896E-1,-1.187324524E-2,2.814105963E0
5.416297625E0,-2.717542648E0,-4.762446880E-1,-9.879076481E-2,2.760725749E0
5.421273041E0,-2.594932079E0,-4.733554721E-1,-2.535982132E-1,2.649915084E0
5.426248458E0,-2.371843815E0,-4.456002712E-1,-3.667675257E-1,2.441049181E0
5.431223875E0,-2.010133743E0,-4.742895961E-1,-4.050800800E-1,2.104680061E0
5.436199291E0,-1.720413208E0,-5.599390864E-1,-4.113692641E-1,1.855418567E0
5.441175624E0,-1.569524765E0,-6.697874665E-1,-4.380877614E-1,1.761801386E0
5.446151041E0,-1.542946815E0,-7.183533311E-1,-5.183402896E-1,1.779155148E0
5.451126457E0,-1.554442406E0,-7.060304284E-1,-6.087790728E-1,1.812562307E0
5.456101874E0,-1.637454033E0,-6.137676239E-1,-6.709506512E-1,1.873003252E0
5.461077291E0,-1.815808296E0,-5.132673383E-1,-6.665953398E-1,2.001237736E0
5.466052707E0,-2.065502167E0,-4.664231241E-1,-6.195722222E-1,2.206290885E0
5.471028124E0,-2.271754742E0,-4.678288102E-1,-6.442785263E-1,2.407244944E0
5.476003541E0,-2.386895657E0,-4.353558123E-1,-6.780778170E-1,2.519244943E0
5.480978957E0,-2.382431507E0,-3.540368378E-1,-6.824312210E-1,2.503404550E0
5.485954374E0,-2.416387081E0,-2.616865039E-1,-6.812278032E-1,2.524178613E0
5.490929791E0,-2.383548260E0,-3.205536604E-1,-6.218355894E-1,2.484096708E0
5.495905207E0,-2.284019947E0,-4.346519113E-1,-5.043364167E-1,2.379080626E0
5.500880624E0,-2.098740101E0,-4.793979824E-1,-4.344112873E-1,2.196188881E0
5.505856041E0,-1.808619499E0,-4.692302942E-1,-2.070375085E-1,1.879932470E0
5.510831457E0,-1.523721695E0,-5.336354971E-1,1.962740421E-1,1.626351176E0
5.515806874E0,-1.320493698E0,-6.303145885E-1,6.605751514E-1,1.605415715E0
5.520782291E0,-1.256132126E0,-7.317525148E-1,1.056843281E0,1.797288897E0
5.525757707E0,-1.349523544E0,-7.960333824E-1,1.308996439E0,2.041654873E0
5.530733124E0,-1.523897171E0,-7.904762030E-1,1.393537402E0,2.211122273E0
5.535708541E0,-1.635690689E0,-7.201931477E-1,1.315864801E0,2.219383332E0
5.540683957E0,-1.751949310E0,-6.234027743E-1,1.028464794E0,2.125016997E0
5.545659374E0,-1.834424019E0,-4.949219227E-1,5.744967461E-1,1.984969950E0
5.550634791E0,-1.907102585E0,-4.393390417E-1,-7.789850235E-3,1.957069172E0
5.555610207E0,-1.883955956E0,-3.982636929E-1,-6.374052167E-1,2.028346475E0
5.560585624E0,-1.731690407E0,-3.802374601E-1,-1.214289427E0,2.148913912E0
5.565561041E0,-1.440942764E0,-3.510004282E-1,-1.614672184E0,2.192415018E0
5.570536457E0,-1.112306595E0,-3.054161072E-1,-1.748506308E0,2.094702668E0
5.575511874E0,-8.510284424E-1,-2.769979239E-1,-1.559005141E0,1.797630187E0
5.580487291E0,-7.048358917E-1,-3.329111338E-1,-1.175643682E0,1.410589070E0
5.585462707E0,-6.783561707E-1,-4.449204206E-1,-6.890793443E-1,1.064402000E0
5.590438124E0,-7.570886612E-1,-5.944750309E-1,-2.517771125E-1,9.949751342E-1
5.595413541E0,-8.548297882E-1,-6.911929250E-1,1.226738691E-1,1.106133131E0
5.600388957E0,-8.998203278E-1,-7.355172634E-1,3.487155437E-1,1.213369193E0
5.605364374E0,-1.002088547E0,-7.565799952E-1,4.697144032E-1,1.340606715E0
5.610339791E0,-1.041982651E0,-7.738852501E-1,5.290582180E-1,1.401616503E0
5.615315207E0,-1.153466225E0,-7.590451241E-1,4.935674667E-1,1.466370579E0
5.620290624E0,-1.341228485E0,-6.931360960E-1,2.726795673E-1,1.534172625E0
5.625266041E0,-1.509550095E0,-5.855351686E-1,-1.046651602E-1,1.622512779E0
5.630241457E0,-1.558075905E0,-4.451968670E-1,-5.476633310E-1,1.710478266E0
5.635216874E0,-1.525275230E0,-3.144142628E-1,-9.322899580E-1,1.815071740E0
5.640192291E0,-1.492558479E0,-2.119045258E-1,-1.120363474E0,1.878256813E0
5.645167707E0,-1.546015739E0,-1.423647404E-1,-1.131292582E0,1.921003720E0
5.650143124E0,-1.623385429E0,-2.444136143E-2,-1.166047573E0,1.998910847E0
5.655118541E0,-1.643365860E0,1.229749918E-1,-1.176898479E0,2.025059068E0
5.660093957E0,-1.730389595E0,2.236912251E-1,-1.082954764E0,2.053552273E0
5.665069374E0,-1.898715973E0,2.540205717E-1,-8.894528151E-1,2.112054712E0
5.670044791E0,-2.105209827E0,2.237613201E-1,-6.493146420E-1,2.214404446E0
5.675020207E0,-2.244633198E0,2.000733614E-1,-4.391312003E-1,2.295918934E0
5.679995624E0,-2.297953129E0,2.213277817E-1,-2.637454867E-1,2.323604151E0
5.684971041E0,-2.317894459E0,2.684839964E-1,-5.629283190E-2,2.334070963E0
5.689946457E0,-2.337966442E0,3.318715096E-1,2.023081779E-1,2.370053667E0
5.694921874E0,-2.362976551E0,3.254075050E-1,3.735058308E-1,2.414343561E0
5.699897291E0,-2.306850910E0,2.539479733E-1,3.954173326E-1,2.354231416E0
5.704872655E0,-2.193610668E0,1.845051050E-1,3.161718845E-1,2.223945718E0
5.709848020E0,-2.018552303E0,1.408926249E-1,2.174280882E-1,2.035111571E0
5.714823384E0,-1.848727226E0,1.565215588E-1,8.991169930E-2,1.857518632E0
5.719798749E0,-1.693703651E0,2.169549465E-1,-7.576435804E-2,1.709222556E0
5.724774113E0,-1.577360153E0,2.264354229E-1,-3.178353906E-1,1.624917656E0
5.729749478E0,-1.537931442E0,1.279052496E-1,-6.123898029E-1,1.660305437E0
5.734724843E0,-1.575348854E0,-1.119351387E-2,-9.451534152E-1,1.837162019E0
5.739700207E0,-1.627385139E0,-4.207634926E-2,-1.210979462E0,2.028946541E0
5.744675572E0,-1.603190422E0,4.516124725E-2,-1.300107837E0,2.064591837E0
5.749650936E0,-1.455071449E0,4.990279675E-2,-1.294012189E0,1.947868260E0
5.754626301E0,-1.159272194E0,-1.472061872E-1,-1.302653074E0,1.749996204E0
5.759601666E0,-7.206640244E-1,-4.698493481E-1,-1.335610867E0,1.588701178E0
5.764577030E0,-3.161964417E-1,-7.466671467E-1,-1.273464084E0,1.509702881E0
5.769552395E0,-5.084514618E-2,-8.975276947E-1,-1.035293221E0,1.371121164E0
5.774527759E0,2.335147858E-1,-1.071505785E0,-6.742311716E-1,1.287338912E0
5.779503124E0,6.469335556E-1,-1.360043764E0,-3.816959858E-1,1.553683974E0
5.784478488E0,1.213225365E0,-1.730281711E0,-1.334598064E-1,2.117451795E0
5.789453853E0,1.750491142E0,-2.106677771E0,2.433967590E-1,2.749827713E0
5.794429218E0,2.010074615E0,-2.299090385E0,7.591500282E-1,3.146827819E0
5.799404582E0,2.030569077E0,-2.280147791E0,1.337833166E0,3.333479009E0
5.804379947E0,1.941347122E0,-2.146255493E0,1.750263453E0,3.382109319E0
5.809355311E0,1.819015503E0,-1.993179917E0,2.020620346E0,3.371125949E0
5.814330676E0,1.606203079E0,-1.830241680E0,2.172708273E0,3.263484974E0
5.819306041E0,1.427359581E0,-1.690586329E0,2.230229378E0,3.141553849E0
5.824281405E0,1.272861481E0,-1.607330084E0,2.216982365E0,3.019718058E0
5.829256770E0,1.099621773E0,-1.556192875E0,2.118535042E0,2.849402574E0
5.834232134E0,9.602508545E-1,-1.469942331E0,1.925385594E0,2.605747848E0
5.839207499E0,8.594284058E-1,-1.338812947E0,1.652279735E0,2.293701291E0
5.844182916E0,7.348480225E-1,-1.119616389E0,1.328512788E0,1.886395691E0
5.849158332E0,5.721445084E-1,-8.076537251E-1,9.162776470E-1,1.348784121E0
5.854133749E0,3.282871246E-1,-4.841373563E-1,3.345580101E-1,6.738623584E-1
5.859109166E0,4.640197754E-2,-2.490674853E-1,-4.261049628E-1,4.957350049E-1
5.864084582E0,-2.304239273E-1,-1.303325891E-1,-1.217632890E0,1.246078498E0
5.869059999E0,-4.352445602E-1,-5.528306961E-2,-1.896997690E0,1.947073260E0
5.874035416E0,-5.968389511E-1,3.909611702E-2,-2.479269028E0,2.550396077E0
5.879010832E0,-7.152643204E-1,1.056583524E-1,-2.902919531E0,2.991606347E0
5.883986249E0,-8.383693695E-1,1.019857526E-1,-3.130630016E0,3.242546621E0
5.888961666E0,-9.326581955E-1,2.865839005E-2,-3.206250191E0,3.339268318E0
5.893937082E0,-8.834085464E-1,-6.604456902E-2,-3.068049431E0,3.193383763E0
5.898912499E0,-7.434015274E-1,-1.771471500E-1,-2.735678673E0,2.840416298E0
5.903887916E0,-5.414237976E-1,-3.046926260E-1,-2.219123363E0,2.304449138E0
5.908863332E0,-3.253202438E-1,-4.588468075E-1,-1.662056684E0,1.754652694E0
5.913838749E0,-1.285066605E-1,-6.116750240E-1,-1.179252863E0,1.334652618E0
5.918814166E0,-5.613231659E-2,-7.542521954E-1,-6.365033984E-1,9.885260681E-1
5.923789582E0,2.745094299E-1,-9.541133642E-1,6.260752678E-2,9.947901494E-1
5.928764999E0,5.380191803E-1,-6.334836483E-1,1.907728910E-1,8.527370445E-1
5.933740416E0,4.238710403E-1,-2.050768137E-1,3.261086941E-1,5.727739857E-1
5.938715832E0,1.477556229E-1,-9.960055351E-2,6.121814251E-1,6.375877129E-1
5.943691249E0,-2.424812317E-1,-1.824630499E-1,8.348355293E-1,8.882793892E-1
5.948666666E0,-5.412998199E-1,-1.516271830E-1,8.139426708E-1,9.891910680E-1
5.953642082E0,-6.533489227E-1,-7.361054420E-2,6.511480808E-1,9.253524465E-1
5.958617499E0,-5.933246613E-1,-1.009855270E-1,3.948599100E-1,7.198239916E-1
5.963592916E0,-4.141225815E-1,-2.522535324E-1,1.887509823E-1,5.203424742E-1
5.968568332E0,-2.258729935E-1,-4.505505562E-1,6.595683098E-2,5.082958945E-1
5.973543749E0,-1.098327637E-1,-5.620198250E-1,9.776902199E-2,5.809374332E-1
5.978519166E0,-4.193210602E-2,-5.916798711E-1,2.261703014E-1,6.348199561E-1
5.983494582E0,1.866340637E-3,-6.496222019E-1,2.736132145E-1,7.048948004E-1
5.988469999E0,8.866310120E-2,-7.453128695E-1,3.588231802E-1,8.319293802E-1
5.993445416E0,1.515827179E-1,-7.593405247E-1,6.578739882E-1,1.016057841E0
5.998420832E0,1.715717316E-1,-6.586275101E-1,1.055650830E0,1.256035721E0
6.003396249E0,1.821250916E-1,-5.104761124E-1,1.351611853E0,1.456231441E0
6.008371666E0,2.310323715E-1,-3.724993467E-1,1.450745106E0,1.515517430E0
6.013347082E0,2.895202637E-1,-2.639623880E-1,1.434948921E0,1.487473204E0
6.018322499E0,3.192863464E-1,-1.467823982E-1,1.390872836E0,1.434578715E0
6.023297916E0,2.773008347E-1,4.100966454E-2,1.347600937E0,1.376446814E0
6.028273332E0,1.014146805E-1,2.466008663E-1,1.243548512E0,1.271813598E0
6.033248749E0,-1.747932434E-1,4.271275997E-1,1.069548965E0,1.164871517E0
6.038224166E0,-4.747476578E-1,5.591493845E-1,8.545132875E-1,1.126155554E0
6.043199582E0,-6.693754196E-1,6.194493771E-1,6.272192001E-1,1.106880711E0
6.048174999E0,-8.018827438E-1,6.708211899E-1,4.591946602E-1,1.141874222E0
6.053150416E0,-9.201860428E-1,7.138222456E-1,4.025768042E-1,1.232214525E0
6.058125832E0,-1.029089928E0,7.153877020E-1,3.707846403E-1,1.307014496E0
6.063101249E0,-1.090338707E0,6.520309448E-1,2.868362665E-1,1.302404658E0
6.068076666E0,-1.017885208E0,4.859265089E-1,1.646312475E-1,1.139876448E0
6.073052082E0,-7.879447937E-1,2.460329533E-1,7.072877884E-2,8.284876415E-1
6.078027499E0,-5.393342972E-1,-7.936954498E-4,-4.837393761E-3,5.393565745E-1
6.083002916E0,-2.815542221E-1,-2.118940353E-1,1.416397095E-2,3.526648271E-1
6.087978332E0,-5.757999420E-2,-3.592245579E-1,1.515281200E-1,3.941046941E-1
6.092953749E0,9.441852570E-2,-4.817227125E-1,3.260030746E-1,5.892789106E-1
6.097929166E0,1.649847031E-1,-6.420518160E-1,4.661167860E-1,8.103797535E-1
6.102904582E0,2.116003036E-1,-7.878606319E-1,5.244431496E-1,9.698142508E-1
6.107879999E0,2.390623093E-1,-8.954942226E-1,6.783767939E-1,1.148588597E0
6.112855416E0,2.521409988E-1,-9.508116841E-1,9.042975903E-1,1.336178159E0
6.117830832E0,2.364587784E-1,-9.540637732E-1,1.154828787E0,1.516502543E0
6.122806249E0,1.776552200E-1,-9.533090591E-1,1.286983490E0,1.611423608E0
6.127781666E0,9.488868713E-2,-9.772145748E-1,1.286725283E0,1.618522209E0
6.132757082E0,7.903957367E-2,-9.969151020E-1,1.192483068E0,1.556310651E0
6.137732499E0,1.156902313E-1,-9.978324175E-1,1.080599785E0,1.475381191E0
6.142707916E0,1.139526367E-1,-1.003803015E0,1.017645240E0,1.433948231E0
6.147683332E0,7.869338989E-2,-9.478355646E-1,9.602282047E-1,1.351526216E0
6.152658749E0,-1.391220093E-2,-8.826751113E-1,8.219633102E-1,1.206205863E0
6.157634166E0,-1.446714401E-1,-8.224614859E-1,5.406631231E-1,9.948313093E-1
6.162609582E0,-2.992000580E-1,-8.434358835E-1,1.354707479E-1,9.051282163E-1
6.167584999E0,-4.535722733E-1,-9.449672699E-1,-3.173112869E-1,1.095160902E0
6.172560416E0,-5.217275620E-1,-1.064363480E0,-7.221852541E-1,1.388027668E0
6.177535832E0,-4.990386963E-1,-1.206038117E0,-1.069581866E0,1.687475312E0
6.182511249E0,-4.239253998E-1,-1.369772911E0,-1.373701811E0,1.985710764E0
6.187486666E0,-2.964553833E-1,-1.546121836E0,-1.648746014E0,2.279636362E0
6.192462082E0,-2.027606964E-1,-1.697022915E0,-1.870723486E0,2.533891283E0
6.197437499E0,-1.332082748E-1,-1.818016648E0,-2.058739185E0,2.749788358E0
6.202412916E0,-1.355524063E-1,-1.923708797E0,-2.189002037E0,2.917320673E0
6.207388332E0,-1.809558868E-1,-1.990515947E0,-2.233034849E0,2.996888955E0
6.212363749E0,-3.075876236E-1,-2.052047729E0,-2.215075731E0,3.035139293E0
6.217339166E0,-4.961652756E-1,-2.060631275E0,-2.116382122E0,2.995238641E0
6.222314582E0,-6.940011978E-1,-2.021139145E0,-1.956210852E0,2.897136863E0
6.227289999E0,-8.867645264E-1,-1.962256670E0,-1.796626568E0,2.804401824E0
6.232265416E0,-1.045794487E0,-1.898333669E0,-1.685221195E0,2.745419331E0
6.237240832E0,-1.228558540E0,-1.853158951E0,-1.607363939E0,2.743569394E0
6.242216249E0,-1.430251122E0,-1.798034906E0,-1.677671909E0,2.844842848E0
6.247191666E0,-1.559984207E0,-1.756670952E0,-1.795696020E0,2.957020080E0
6.252167082E0,-1.675215721E0,-1.690730095E0,-1.947243690E0,3.075170557E0
6.257142499E0,-1.857240677E0,-1.643095732E0,-2.147011995E0,3.280055948E0
6.262117916E0,-2.024656773E0,-1.641980529E0,-2.362021446E0,3.517737969E0
6.267093332E0,-2.067447186E0,-1.725267172E0,-2.592869520E0,3.738162253E0
6.272068749E0,-2.019210339E0,-1.849565506E0,-2.768284321E0,3.893777219E0
6.277044166E0,-2.004335880E0,-1.976610422E0,-2.817144156E0,3.982543443E0
6.282019582E0,-2.037075520E0,-2.034777641E0,-2.610803127E0,3.886681064E0
6.286994999E0,-2.107776165E0,-2.053134203E0,-2.273822308E0,3.718648720E0
6.291970416E0,-2.178131580E0,-2.055861235E0,-1.935158491E0,3.565902548E0
6.296945832E0,-2.233803272E0,-2.047975540E0,-1.632647514E0,3.442327523E0
6.301921249E0,-2.308286190E0,-2.005709648E0,-1.251234651E0,3.304034576E0
6.306896666E0,-2.401570797E0,-1.900595188E0,-7.905886173E-1,3.163042005E0
6.311872082E0,-2.494533539E0,-1.742482305E0,-3.172237873E-1,3.059341937E0
6.316847499E0,-2.620686531E0,-1.546067476E0,4.509484768E-2,3.043083318E0
6.321822916E0,-2.832646370E0,-1.373573184E0,2.396348715E-1,3.157216119E0
6.326798332E0,-3.058609486E0,-1.267592788E0,3.481067419E-1,3.329123273E0
6.331773749E0,-3.174244404E0,-1.208238840E0,5.045691729E-1,3.433694611E0
6.336749166E0,-3.194046497E0,-1.147073269E0,7.759132385E-1,3.481343342E0
6.341724582E0,-3.108575344E0,-1.088804483E0,9.804644585E-1,3.436574810E0
6.346699999E0,-2.951404095E0,-1.014674187E0,9.796048403E-1,3.271081699E0
6.351675416E0,-2.832562447E0,-9.776617289E-1,8.068400621E-1,3.103260117E0
6.356650832E0,-2.771037102E0,-1.001642466E0,5.764667988E-1,3.002373764E0
6.361626249E0,-2.661415100E0,-1.038474679E0,3.880388737E-1,2.883077204E0
6.366601666E0,-2.436679840E0,-1.059185266E0,2.789628506E-1,2.671535578E0
6.371577082E0,-2.144706249E0,-1.106909037E0,2.199972868E-1,2.423512186E0
6.376552499E0,-1.881169319E0,-1.268160105E0,1.631650925E-1,2.274566092E0
6.381527916E0,-1.646031380E0,-1.471718073E0,1.039503813E-1,2.210470328E0
6.386503332E0,-1.367571831E0,-1.646527767E0,4.771924019E-2,2.140930528E0
6.391478749E0,-1.045931816E0,-1.692970276E0,-5.626678467E-5,1.990005458E0
6.396454166E0,-8.008508682E-1,-1.674179792E0,-3.862988949E-2,1.856268396E0
6.401429582E0,-6.371650696E-1,-1.634091616E0,-1.055051088E-1,1.757090226E0
6.406404999E0,-5.549526215E-1,-1.573563337E0,-2.045977116E-1,1.681051520E0
6.411380416E0,-6.021509171E-1,-1.469334483E0,-3.444917202E-1,1.624870486E0
6.416355832E0,-7.405414581E-1,-1.355296612E0,-4.716807008E-1,1.614841553E0
6.421331249E0,-9.558401108E-1,-1.174329638E0,-6.572763920E-1,1.650664313E0
6.426306666E0,-1.243228912E0,-8.687492013E-1,-8.628607392E-1,1.744956148E0
6.431282082E0,-1.616947174E0,-4.763602316E-1,-1.074332118E0,1.998906384E0
6.436257499E0,-2.057694912E0,-1.495537758E-1,-1.239500284E0,2.406831036E0
6.441232916E0,-2.484035492E0,4.090052843E-2,-1.377783775E0,2.840843767E0
6.446208332E0,-2.871993542E0,9.608709812E-2,-1.561289907E0,3.270352551E0
6.451183749E0,-3.183211803E0,8.902820945E-2,-1.809728146E0,3.662769358E0
6.456159166E0,-3.326614380E0,1.887486279E-1,-1.995374680E0,3.883749398E0
6.461134582E0,-3.230314732E0,3.012761474E-1,-1.899993062E0,3.759743903E0
6.466109999E0,-2.985175610E0,2.416442037E-1,-1.515652180E0,3.356615389E0
6.471085416E0,-2.548159599E0,-1.773965359E-2,-9.963364005E-1,2.736077167E0
6.476060832E0,-1.924276829E0,-4.432554245E-1,-4.615075588E-1,2.027882125E0
6.481036249E0,-1.233428001E0,-9.588385224E-1,6.100165844E-2,1.563469587E0
6.486011666E0,-5.619964600E-1,-1.450863957E0,6.203054190E-1,1.675000017E0
6.490987082E0,7.064056396E-2,-1.901843548E0,1.227219582E0,2.264523542E0
6.495962499E0,6.929235458E-1,-2.251650810E0,1.815827608E0,2.974441849E0
6.500937916E0,1.232811928E0,-2.469115973E0,2.300876141E0,3.593103109E0
6.505913332E0,1.647050858E0,-2.604462862E0,2.630370617E0,4.051524764E0
6.510888749E0,1.925936699E0,-2.669450760E0,2.804765701E0,4.324570518E0
6.515864166E0,1.897228241E0,-2.641985178E0,2.862520695E0,4.332849571E0
6.520839582E0,1.637728691E0,-2.437393188E0,2.750623226E0,4.023551783E0
6.525814947E0,1.305602074E0,-1.965530396E0,2.530538321E0,3.459989986E0
6.530790311E0,7.911329269E-1,-1.283813477E0,2.301763296E0,2.751759914E0
6.535765676E0,5.176448822E-2,-6.210481524E-1,2.168651819E0,2.256419970E0
6.540741041E0,-7.732810974E-1,-8.088660240E-2,2.049343586E0,2.191874867E0
6.545716405E0,-1.492345810E0,4.151722491E-1,1.833572507E0,2.400302512E0
6.550691770E0,-2.028798580E0,9.599629641E-1,1.511716962E0,2.706074785E0
6.555667134E0,-2.363493919E0,1.565177560E0,1.141110659E0,3.055817049E0
6.560642499E0,-2.396037102E0,2.113284588E0,7.981463671E-1,3.293023408E0
6.565617863E0,-2.217524052E0,2.548846722E0,4.875321388E-1,3.413461603E0
6.570593228E0,-1.761192799E0,2.777838469E0,1.854103804E-1,3.294322941E0
6.575568593E0,-1.099108696E0,2.786916733E0,-8.906495571E-2,2.997144869E0
6.580543957E0,-2.842082977E-1,2.614485741E0,-2.831119299E-1,2.645082685E0
6.585519322E0,5.444812775E-1,2.331605196E0,-4.060333967E-1,2.428519255E0
6.590494686E0,1.248060226E0,2.008751869E0,-4.287332296E-1,2.403445565E0
6.595470051E0,1.745207787E0,1.730440974E0,-3.701322079E-1,2.485392129E0
6.600445416E0,2.026469231E0,1.519216061E0,-1.869710684E-1,2.539597047E0
6.605420780E0,2.058505058E0,1.326133847E0,1.257189512E-1,2.451913398E0
6.610396145E0,1.970631599E0,1.150470734E0,3.960262537E-1,2.315989768E0
6.615371509E0,1.815507889E0,9.867247343E-1,5.812625885E-1,2.146522954E0
6.620346874E0,1.621880531E0,8.391520977E-1,7.772308588E-1,1.984631076E0
6.625322238E0,1.385018349E0,7.696707249E-1,9.503830671E-1,1.847673355E0
6.630297603E0,1.100230217E0,7.876119018E-1,1.110157013E0,1.750225023E0
6.635272968E0,6.767692566E-1,8.117268085E-1,1.232505322E0,1.623572113E0
6.640248332E0,2.344598770E-1,8.136380911E-1,1.231133103E0,1.494211195E0
6.645223697E0,-1.404743195E-1,8.273026943E-1,1.115369558E0,1.395783663E0
6.650199061E0,-5.196714401E-1,9.345368147E-1,9.515892267E-1,1.431411723E0
6.655174426E0,-8.359794617E-1,1.183691740E0,8.155723810E-1,1.662872847E0
6.660149791E0,-1.141933441E0,1.508574486E0,7.641400099E-1,2.040519277E0
6.665125155E0,-1.408795357E0,1.742742777E0,8.019342422E-1,2.380116651E0
6.670100520E0,-1.521849632E0,1.873097539E0,8.191131353E-1,2.548620612E0
6.675075884E0,-1.404838562E0,1.981740236E0,7.396042347E-1,2.539267645E0
6.680051249E0,-1.125072479E0,2.097759247E0,6.260241270E-1,2.461359004E0
6.685026666E0,-8.549451828E-1,2.154277325E0,5.166988373E-1,2.374619916E0
6.690002082E0,-6.040792465E-1,2.065292358E0,4.836277962E-1,2.205502235E0
6.694977499E0,-2.577533722E-1,1.940814018E0,5.078959465E-1,2.022660166E0
6.699952916E0,1.695203781E-1,1.861933351E0,5.561077595E-1,1.950586784E0
6.704928332E0,5.867242813E-1,1.794864178E0,6.092557907E-1,1.984181296E0
6.709903749E0,9.507789612E-1,1.567113996E0,6.818802357E-1,1.955706410E0
6.714879166E0,1.290390015E0,1.202150702E0,7.837176323E-1,1.929892751E0
6.719854582E0,1.667664528E0,8.379639387E-1,8.577358723E-1,2.054020294E0
6.724829999E0,1.991619110E0,5.884681344E-1,8.755702972E-1,2.253766796E0
6.729805416E0,2.166640282E0,4.669255614E-1,8.756476641E-1,2.383088001E0
6.734780832E0,2.169017792E0,3.817558885E-1,8.913663626E-1,2.375901878E0
6.739756249E0,2.065938950E0,2.752770782E-1,7.983156443E-1,2.231857765E0
6.744731666E0,2.096711159E0,2.622052133E-1,6.202983856E-1,2.202207834E0
6.749707082E0,2.232581139E0,5.147580504E-1,4.095369577E-1,2.327469637E0
6.754682499E0,2.272733688E0,9.084647298E-1,3.517498970E-1,2.472722098E0
6.759657916E0,2.078690529E0,1.233303070E0,5.228703022E-1,2.472930272E0
6.764633332E0,1.746362686E0,1.427970529E0,8.415091038E-1,2.407700154E0
6.769608749E0,1.505330086E0,1.550744891E0,1.121758580E0,2.434988849E0
6.774584166E0,1.470078468E0,1.726596594E0,1.316731811E0,2.622222180E0
6.779559582E0,1.554171562E0,1.965412259E0,1.393498182E0,2.867077219E0
6.784534999E0,1.652233124E0,2.214663982E0,1.486152411E0,3.137396984E0
6.789510416E0,1.725996017E0,2.359759808E0,1.613697290E0,3.339393290E0
6.794485832E0,1.765941620E0,2.324200869E0,1.785547614E0,3.421788971E0
6.799461249E0,1.791251183E0,2.189234495E0,1.987247229E0,3.456946633E0
6.804436666E0,1.821004868E0,2.083602428E0,2.243071556E0,3.562138096E0
6.809412082E0,1.816825867E0,1.973353744E0,2.510567665E0,3.673953079E0
6.814387499E0,1.802562714E0,1.834046841E0,2.756909609E0,3.770080999E0
6.819362916E0,1.773396492E0,1.660436630E0,2.920384645E0,3.798767089E0
6.824338332E0,1.758087158E0,1.533426523E0,2.843224525E0,3.677797311E0
6.829313749E0,1.718482971E0,1.466941953E0,2.539631844E0,3.399239961E0
6.834289166E0,1.697875977E0,1.441652298E0,2.152369976E0,3.097392564E0
6.839264582E0,1.648626328E0,1.405103683E0,1.737895012E0,2.777150374E0
6.844239999E0,1.547052383E0,1.338438988E0,1.290419102E0,2.418671424E0
6.849215416E0,1.402915001E0,1.251677275E0,8.330986500E-1,2.056433772E0
6.854190832E0,1.254565239E0,1.188290238E0,2.986763716E-1,1.753617748E0
6.859166249E0,1.221585274E0,1.148784757E0,-3.560850620E-1,1.714285148E0
6.864141666E0,1.289509773E0,1.186216831E0,-1.074011803E0,2.055102717E0
6.869117082E0,1.386504173E0,1.234036684E0,-1.778960228E0,2.570980329E0
6.874092499E0,1.464770317E0,1.249498367E0,-2.390275478E0,3.069236894E0
6.879067916E0,1.538694382E0,1.223387718E0,-2.865433931E0,3.474905686E0
6.884043332E0,1.617820740E0,1.170199633E0,-3.238147497E0,3.804248985E0
6.889018749E0,1.735555649E0,1.185669661E0,-3.556150913E0,4.130880690E0
6.893994166E0,1.853550911E0,1.284022808E0,-3.752409220E0,4.377778033E0
6.898969582E0,1.876081467E0,1.402860165E0,-3.687949181E0,4.369057961E0
6.903944999E0,1.726618767E0,1.489681959E0,-3.266748905E0,3.983969517E0
6.908920416E0,1.462532043E0,1.535252810E0,-2.621816397E0,3.371931551E0
6.913895832E0,1.231945038E0,1.516023397E0,-1.947921276E0,2.758697667E0
6.918871249E0,1.125451088E0,1.451344490E0,-1.305866241E0,2.253514504E0
6.923846666E0,1.114058495E0,1.365152359E0,-7.377058864E-1,1.910229637E0
6.928822082E0,1.145021439E0,1.252549291E0,-2.766163349E-1,1.719438983E0
6.933797499E0,1.251857758E0,1.113170147E0,8.674407005E-2,1.677444531E0
6.938772916E0,1.429868698E0,9.560321569E-1,3.468811512E-1,1.754664786E0
6.943748332E0,1.578759193E0,7.804423571E-1,4.837062359E-1,1.826346787E0
6.948723749E0,1.612721443E0,6.383636594E-1,6.348022223E-1,1.846984698E0
6.953699166E0,1.584691048E0,5.722573400E-1,8.278262615E-1,1.877237465E0
6.958674582E0,1.533115387E0,5.433767438E-1,9.330127239E-1,1.875157012E0
6.963649999E0,1.501101494E0,4.749489427E-1,9.359253645E-1,1.831621817E0
6.968625416E0,1.469528198E0,3.906196356E-1,7.457566261E-1,1.693590792E0
6.973600832E0,1.433643341E0,2.950376272E-1,3.912888765E-1,1.515086603E0
6.978576249E0,1.393494606E0,2.358964086E-1,-2.707993984E-2,1.413579731E0
6.983551666E0,1.353917122E0,2.513017654E-1,-4.425765872E-1,1.446415634E0
6.988527082E0,1.353226662E0,3.459084034E-1,-8.460159302E-1,1.632978253E0
6.993502499E0,1.444009781E0,5.722547174E-1,-1.309334397E0,2.031500990E0
6.998477916E0,1.611836433E0,9.783327579E-1,-1.799353361E0,2.606304700E0
7.003453332E0,1.746637344E0,1.521416187E0,-2.220860481E0,3.208998365E0
7.008428749E0,1.795842171E0,2.034671783E0,-2.531250477E0,3.711087084E0
7.013404166E0,1.764273643E0,2.495222569E0,-2.668617249E0,4.057131397E0
7.018379582E0,1.694931984E0,2.894617558E0,-2.647155523E0,4.273059513E0
7.023354999E0,1.544623375E0,3.277071238E0,-2.485476017E0,4.393477927E0
7.028330416E0,1.327556610E0,3.571943283E0,-2.201948404E0,4.401109195E0
7.033305832E0,1.177457809E0,3.732566833E0,-1.795661330E0,4.306142319E0
7.038281249E0,1.113133430E0,3.707248688E0,-1.366152525E0,4.104769371E0
7.043256666E0,1.076907158E0,3.568391562E0,-1.027364373E0,3.866345163E0
7.048232082E0,1.164268494E0,3.378475904E0,-7.067712545E-1,3.642683924E0
7.053207499E0,1.336787224E0,3.146943808E0,-3.514750004E-1,3.437119446E0
7.058182916E0,1.551353455E0,2.878083229E0,5.304574966E-2,3.269996096E0
7.063158332E0,1.750598907E0,2.556940079E0,4.733568430E-1,3.134741744E0
7.068133749E0,1.929873466E0,2.220935345E0,8.090357780E-1,3.051475756E0
7.073109166E0,2.089281082E0,1.873989105E0,1.084281802E0,3.008753502E0
7.078084582E0,2.243288040E0,1.510475159E0,1.337476611E0,3.017071448E0
7.083059999E0,2.348953247E0,1.115099907E0,1.578244328E0,3.041691030E0
7.088035416E0,2.363405228E0,7.107831240E-1,1.787388325E0,3.047237100E0
7.093010832E0,2.286865234E0,3.301767707E-1,1.916870475E0,3.002192818E0
7.097986249E0,2.162610054E0,-8.305966854E-3,1.951969385E0,2.913268905E0
7.102961666E0,1.986047745E0,-3.339411318E-1,1.906504154E0,2.773203998E0
7.107937082E0,1.762184143E0,-6.663185358E-1,1.803611040E0,2.608119271E0
7.112912499E0,1.543848038E0,-9.436184168E-1,1.671105862E0,2.463021981E0
7.117887916E0,1.316788673E0,-1.156622410E0,1.489283442E0,2.299928908E0
7.122863332E0,1.071513176E0,-1.295966506E0,1.281684875E0,2.114328686E0
7.127838749E0,8.271522522E-1,-1.433508039E0,9.862170219E-1,1.926590294E0
7.132814166E0,6.075592041E-1,-1.602636814E0,6.127889156E-1,1.820187683E0
7.137789530E0,4.173822403E-1,-1.774567366E0,2.002865076E-1,1.833960729E0
7.142764895E0,2.947320938E-1,-1.867833614E0,-2.268073559E-1,1.904497570E0
7.147740259E0,1.724843979E-1,-1.892013073E0,-6.297906637E-1,2.001524573E0
7.152715624E0,2.184200287E-2,-1.899465084E0,-1.041749716E0,2.166491899E0
7.157690988E0,-1.381025314E-1,-1.894659519E0,-1.428920984E0,2.377103738E0
7.162666353E0,-2.978315353E-1,-1.905799389E0,-1.776851773E0,2.622589781E0
7.167641718E0,-4.430351257E-1,-1.932522655E0,-2.028112173E0,2.836223355E0
7.172617082E0,-6.072235107E-1,-1.955289841E0,-2.187651873E0,2.996280940E0
7.177592447E0,-7.377853394E-1,-1.992981911E0,-2.274702549E0,3.112968967E0
7.182567811E0,-8.443317413E-1,-2.050054073E0,-2.327689409E0,3.214615961E0
7.187543176E0,-9.221115112E-1,-2.135959148E0,-2.298852682E0,3.270678030E0
7.192518541E0,-9.424276352E-1,-2.212422371E0,-2.193283558E0,3.254761951E0
7.197493905E0,-8.957509995E-1,-2.250921011E0,-2.039919138E0,3.167062573E0
7.202469270E0,-8.873367310E-1,-2.246818304E0,-1.772051454E0,2.995951488E0
7.207444634E0,-9.027357101E-1,-2.252962589E0,-1.423526883E0,2.813752117E0
7.212419999E0,-9.371137619E-1,-2.264666557E0,-1.004080892E0,2.648598734E0
7.217395363E0,-9.617576599E-1,-2.262981892E0,-5.424081087E-1,2.517989554E0
7.222370728E0,-9.575748444E-1,-2.209826708E0,-1.387977600E-1,2.412374034E0
7.227346093E0,-9.054698944E-1,-2.114983559E0,1.972985268E-1,2.309103266E0
7.232321457E0,-8.054771423E-1,-1.997781038E0,5.328565836E-1,2.218976936E0
7.237296822E0,-7.389144897E-1,-1.867900968E0,8.868417740E-1,2.195799850E0
7.242272186E0,-6.483545303E-1,-1.735066652E0,1.201931596E0,2.208044258E0
7.247247551E0,-5.195217133E-1,-1.604028940E0,1.411453962E0,2.198866512E0
7.252222916E0,-3.859453201E-1,-1.441385865E0,1.544308782E0,2.147425579E0
7.257198280E0,-2.906837463E-1,-1.256607294E0,1.634127140E0,2.081809415E0
7.262173645E0,-2.671976089E-1,-1.035278797E0,1.733725309E0,2.036909472E0
7.267149009E0,-2.245759964E-1,-8.345192075E-1,1.781070709E0,1.979664001E0
7.272124374E0,-1.437549591E-1,-6.634792089E-1,1.805017710E0,1.928460288E0
7.277099738E0,-4.394435883E-2,-4.740702212E-1,1.810474396E0,1.872028637E0
7.282075103E0,5.090713501E-2,-3.091679513E-1,1.816586018E0,1.843410187E0
7.287050468E0,2.173023224E-1,-1.254883409E-1,1.809038639E0,1.826359335E0
7.292025832E0,5.794515610E-1,2.446318269E-1,1.869235754E0,1.972219852E0
7.297001197E0,1.199137688E0,9.210607409E-1,1.935359001E0,2.455992375E0
7.301976561E0,2.152392387E0,1.937634230E0,2.012619257E0,3.526734420E0
7.306951926E0,3.438590050E0,3.242383480E0,2.082348347E0,5.164603257E0
7.311927291E0,4.837100983E0,4.673445702E0,1.987235546E0,7.013397590E0
7.316902707E0,5.902998924E0,5.695921898E0,1.607581377E0,8.359021501E0
7.321878124E0,5.910114288E0,5.411312103E0,1.018617153E0,8.077705769E0
7.326853541E0,4.659660339E0,3.427432060E0,4.091467857E-1,5.798890075E0
7.331828957E0,2.909650803E0,9.583393335E-1,1.257772446E-1,3.065991192E0
7.336804374E0,1.359180450E0,-4.049563110E-1,3.209669590E-1,1.454091090E0
7.341779791E0,4.102325439E-2,-4.296303689E-1,9.197406769E-1,1.015966571E0
7.346755207E0,-8.306674957E-1,1.618146300E-1,1.565801859E0,1.779867390E0
7.351730624E0,-1.309659004E0,6.336385608E-1,2.098499060E0,2.553507947E0
7.356706041E0,-1.568939209E0,6.616602540E-1,2.356412888E0,2.907240312E0
7.361681457E0,-1.632910728E0,3.857396245E-1,2.263991117E0,2.817951079E0
7.366656874E0,-1.516243935E0,8.857536316E-2,1.922337055E0,2.449943064E0
7.371632291E0,-1.219049454E0,-1.054974794E-1,1.469963312E0,1.912590763E0
7.376607707E0,-8.273134232E-1,-2.306438088E-1,1.068461180E0,1.370858621E0
7.381583124E0,-5.081386566E-1,-3.881275058E-1,7.546236515E-1,9.890928725E-1
7.386558541E0,-4.380483627E-1,-5.596919060E-1,5.464036465E-1,8.964922435E-1
7.391533957E0,-5.639181137E-1,-6.933931112E-1,4.526038170E-1,1.001822270E0
7.396509374E0,-7.754955292E-1,-7.656865120E-1,4.014120102E-1,1.161378815E0
7.401484791E0,-1.034492493E0,-7.815016508E-1,3.740150928E-1,1.349372757E0
7.406460207E0,-1.250129700E0,-7.694621086E-1,3.566007614E-1,1.510648968E0
7.411435624E0,-1.389131546E0,-7.915438414E-1,2.827734947E-1,1.623634489E0
7.416411041E0,-1.461291313E0,-8.475353122E-1,1.722581387E-1,1.698046311E0
7.421386457E0,-1.447620392E0,-8.942568302E-1,3.489899635E-2,1.701915984E0
7.426361874E0,-1.333892822E0,-9.125459194E-1,-1.100575924E-1,1.619914439E0
7.431337291E0,-1.177564621E0,-9.025177956E-1,-2.436803579E-1,1.503521508E0
7.436312707E0,-9.929389954E-1,-8.595065475E-1,-3.902535439E-1,1.370028168E0
7.441288124E0,-7.416877747E-1,-7.885127664E-1,-4.975454807E-1,1.191387696E0
7.446263541E0,-5.051136017E-1,-7.231426239E-1,-5.993859768E-1,1.066460761E0
7.451238957E0,-2.496337891E-1,-6.156815290E-1,-6.626509428E-1,9.383427124E-1
7.456214374E0,-1.345252991E-2,-4.518618584E-1,-7.068607807E-1,8.390543921E-1
7.461189791E0,2.273740768E-1,-2.363014817E-1,-6.891438961E-1,7.631884896E-1
7.466165207E0,5.445795059E-1,3.597158194E-2,-6.144936085E-1,8.218656751E-1
7.471140624E0,9.045953751E-1,3.745860457E-1,-5.404437780E-1,1.118341171E0
7.476116041E0,1.288222313E0,7.463904023E-1,-4.814738035E-1,1.564746747E0
7.481091457E0,1.676303864E0,1.084638357E0,-4.520403147E-1,2.047138358E0
7.486066874E0,1.968419075E0,1.317786217E0,-4.522840977E-1,2.411595960E0
7.491042291E0,2.088190079E0,1.426966786E0,-4.154067039E-1,2.563071350E0
7.496017707E0,2.011949539E0,1.364542961E0,-3.846888542E-1,2.461280958E0
7.500993124E0,1.754338264E0,1.173601866E0,-3.507512808E-1,2.139642621E0
7.505968541E0,1.358638763E0,8.685522676E-1,-3.184319735E-1,1.643679182E0
7.510943957E0,9.063110352E-1,5.449951291E-1,-2.541069984E-1,1.087653322E0
7.515919374E0,4.643335342E-1,3.367812634E-1,-1.623575687E-1,5.961436324E-1
7.520894791E0,9.476184845E-2,2.582752109E-1,-3.320491314E-2,2.771073054E-1
7.525870207E0,-1.260757446E-1,2.664558291E-1,8.111047745E-2,3.057330728E-1
7.530845624E0,-2.032270432E-1,2.800767422E-1,1.522351503E-1,3.780472901E-1
7.535821041E0,-1.703748703E-1,2.418141961E-1,1.420791149E-1,3.281587676E-1
7.540796457E0,-4.678535461E-2,2.137441635E-1,7.949376106E-2,2.327975406E-1
7.545771874E0,1.052837372E-1,1.957224607E-1,7.526516914E-3,2.223704014E-1
7.550747291E0,2.427930832E-1,2.066131234E-1,-6.932139397E-3,3.188816686E-1
7.555722707E0,3.657474518E-1,2.270557880E-1,7.524013519E-3,4.305602631E-1
7.560698124E0,4.597988129E-1,2.616481781E-1,8.004665375E-3,5.290924230E-1
7.565673541E0,5.249691010E-1,2.959216833E-1,-2.925753593E-2,6.033392106E-1
7.570648957E0,5.756397247E-1,3.489843011E-1,-8.983147144E-2,6.791324086E-1
7.575624374E0,6.405172348E-1,3.826310635E-1,-1.737025976E-1,7.660557755E-1
7.580599791E0,7.100400925E-1,4.065794349E-1,-2.284007072E-1,8.494884654E-1
7.585575207E0,7.650938034E-1,4.304048419E-1,-2.684100866E-1,9.179655933E-1
7.590550624E0,8.104791641E-1,4.637907147E-1,-2.890268564E-1,9.775043868E-1
7.595526041E0,8.653411865E-1,4.780604243E-1,-2.998807430E-1,1.033095155E0
7.600501457E0,9.536018372E-1,5.019122362E-1,-2.867277861E-1,1.115116667E0
7.605476874E0,1.046528816E0,5.497028232E-1,-2.639812231E-1,1.211231540E0
7.610452291E0,1.153697014E0,5.975442529E-1,-2.556923628E-1,1.324180697E0
7.615427707E0,1.279858589E0,6.407682896E-1,-2.092169523E-1,1.446510886E0
7.620403124E0,1.429761887E0,6.985570788E-1,-1.676152945E-1,1.600092476E0
7.625378541E0,1.598583221E0,7.662400603E-1,-1.834992170E-1,1.782207650E0
7.630353957E0,1.800639153E0,8.008025289E-1,-2.280684710E-1,1.983834992E0
7.635329374E0,2.107670784E0,8.453173041E-1,-3.302518129E-1,2.294755703E0
7.640304791E0,2.419175148E0,9.331738353E-1,-4.854846001E-1,2.637975948E0
7.645280207E0,2.692213058E0,1.054681540E0,-6.464499235E-1,2.962813157E0
7.650255624E0,2.902967453E0,1.162140369E0,-7.465770841E-1,3.214835550E0
7.655231041E0,3.123257637E0,1.188644409E0,-7.620753050E-1,3.427589907E0
7.660206457E0,3.329145432E0,1.229981661E0,-7.790820599E-1,3.633597810E0
7.665181874E0,3.496714592E0,1.262202501E0,-7.974650860E-1,3.802120284E0
7.670157238E0,3.559035301E0,1.304488063E0,-7.405771613E-1,3.862237164E0
7.675132603E0,3.511416435E0,1.280500174E0,-5.796893835E-1,3.782296374E0
7.680107968E0,3.373050690E0,1.209694147E0,-3.146207333E-1,3.597195726E0
7.685083332E0,3.263519287E0,1.116139174E0,-7.183074951E-3,3.449112406E0
7.690058697E0,3.192258835E0,1.047741652E0,3.048267365E-1,3.373603174E0
7.695034061E0,3.140031815E0,1.009220123E0,6.265677214E-1,3.357217920E0
7.700009426E0,3.082840919E0,9.670087695E-1,9.536380768E-1,3.368744525E0
7.704984791E0,3.001519203E0,8.971027136E-1,1.276778936E0,3.382909289E0
7.709960155E0,2.924792290E0,8.136466146E-1,1.581773877E0,3.423220611E0
7.714935520E0,2.823962212E0,7.450869083E-1,1.825739622E0,3.444305771E0
7.719910884E0,2.780422211E0,7.389364243E-1,2.027668953E0,3.519689772E0
7.724886249E0,2.717638969E0,7.566946149E-1,2.177817822E0,3.563851676E0
7.729861613E0,2.635687828E0,7.791002393E-1,2.252099514E0,3.553280137E0
7.734836978E0,2.572888374E0,7.869952917E-1,2.240839005E0,3.501496197E0
7.739812343E0,2.567504883E0,7.470136285E-1,2.105698586E0,3.403538926E0
7.744787707E0,2.566889763E0,7.070841789E-1,1.918359876E0,3.281614801E0
7.749763072E0,2.580660820E0,7.054451108E-1,1.712036490E0,3.176244955E0
7.754738436E0,2.594451904E0,7.517654300E-1,1.472353935E0,3.076387176E0
7.759713801E0,2.584359169E0,8.509122133E-1,1.218364835E0,2.981170371E0
7.764689166E0,2.555197716E0,9.216614366E-1,9.787173271E-1,2.887279477E0
7.769664530E0,2.511773109E0,1.007310629E0,7.437566519E-1,2.806573144E0
7.774639895E0,2.487581253E0,1.093652248E0,5.421071053E-1,2.770923284E0
7.779615259E0,2.439589500E0,1.199903488E0,4.356912374E-1,2.753396478E0
7.784590624E0,2.324768066E0,1.292563677E0,4.627677202E-1,2.699892847E0
7.789565988E0,2.162297249E0,1.319017649E0,5.564510822E-1,2.593255629E0
7.794541353E0,1.976073265E0,1.269644737E0,7.076107264E-1,2.453074856E0
7.799516718E0,1.775632858E0,1.235231638E0,8.687801361E-1,2.330975798E0
7.804492082E0,1.537014961E0,1.230000973E0,1.045170307E0,2.228833407E0
7.809467447E0,1.288885117E0,1.186966658E0,1.222921133E0,2.136738353E0
7.814442811E0,1.155550003E0,1.125336051E0,1.311470628E0,2.078853589E0
7.819418176E0,1.103356361E0,1.107291341E0,1.311178446E0,2.040264270E0
7.824393541E0,1.137022972E0,1.113508463E0,1.212465644E0,2.000698696E0
7.829368905E0,1.189542770E0,1.129668713E0,1.106026173E0,1.978498748E0
7.834344270E0,1.246638298E0,1.069634080E0,1.024841547E0,1.936110613E0
7.839319634E0,1.322772026E0,9.859457016E-1,9.682230949E-1,1.912922037E0
7.844294999E0,1.441918373E0,9.166561365E-1,8.735074997E-1,1.918958681E0
7.849270363E0,1.570632935E0,8.759952784E-1,8.071727753E-1,1.971239060E0
7.854245728E0,1.689797401E0,8.303753138E-1,8.168408871E-1,2.052356561E0
7.859221093E0,1.799449921E0,7.940058708E-1,8.879064322E-1,2.157972004E0
7.864196509E0,1.861332893E0,7.761486769E-1,9.438683987E-1,2.226624006E0
7.869171926E0,1.779845238E0,6.808151007E-1,1.003975034E0,2.153909037E0
7.874147343E0,1.655530930E0,4.983079135E-1,1.044723153E0,2.020034629E0
7.879122759E0,1.598366737E0,3.481629491E-1,1.047474504E0,1.942471751E0
7.884098176E0,1.579531670E0,2.491445839E-1,9.695436954E-1,1.870028956E0
7.889073593E0,1.565463066E0,1.576218158E-1,8.639463186E-1,1.794971445E0
7.894049009E0,1.479633331E0,5.396737158E-2,7.164213657E-1,1.644836419E0
7.899024426E0,1.303028107E0,-2.873249352E-2,5.125206709E-1,1.400494642E0
7.903999843E0,1.083638191E0,-7.633089274E-2,1.945621967E-1,1.103608890E0
7.908975259E0,8.980884552E-1,-7.445303351E-2,-1.133887768E-1,9.082748165E-1
7.913950676E0,6.555089951E-1,-8.990334719E-2,-4.068813920E-1,7.767413479E-1
7.918926093E0,4.038219452E-1,-1.078737304E-1,-6.288143992E-1,7.550605630E-1
7.923901509E0,2.482328415E-1,-1.470989287E-1,-8.270071149E-1,8.758986280E-1
7.928876926E0,1.072883606E-1,-1.401955485E-1,-1.063464642E0,1.078017916E0
7.933852343E0,2.397918701E-2,-9.149935842E-2,-1.318814874E0,1.322202634E0
7.938827759E0,3.649616241E-2,9.127572179E-3,-1.530986905E0,1.531449048E0
7.943803176E0,1.256151199E-1,1.525002420E-1,-1.628578186E0,1.640518939E0
7.948778593E0,2.291297913E-1,2.959909439E-1,-1.593192101E0,1.636573301E0
7.953754009E0,3.326978683E-1,3.345592320E-1,-1.430049419E0,1.505874860E0
7.958729426E0,4.841098785E-1,3.064954877E-1,-1.177317142E0,1.309342397E0
7.963704843E0,6.210813522E-1,3.023295105E-1,-9.446402192E-1,1.170252247E0
7.968680259E0,6.288328171E-1,3.453430235E-1,-6.599457860E-1,9.747927760E-1
7.973655676E0,5.696868896E-1,3.490701914E-1,-3.374826312E-1,7.485236650E-1
7.978631093E0,4.150114059E-1,2.748323083E-1,3.738081455E-2,4.991638910E-1
7.983606509E0,8.836555481E-2,1.653308570E-1,3.981741667E-1,4.400970695E-1
7.988581926E0,-3.048667908E-1,1.549097896E-2,6.163433790E-1,6.877956756E-1
7.993557343E0,-6.785202026E-1,-9.824788570E-2,6.396548748E-1,9.376570115E-1
7.998532759E0,-9.943161011E-1,-1.663862467E-1,4.442236423E-1,1.101673062E0
8.003508176E0,-1.223531723E0,-1.840153188E-1,1.156095266E-1,1.242681406E0
8.008483593E0,-1.404408455E0,-1.510858536E-1,-2.370868325E-1,1.432270997E0
8.013459009E0,-1.608638763E0,-1.246919930E-1,-6.005049944E-1,1.721590257E0
8.018434426E0,-1.764391899E0,-7.093575597E-2,-8.940534592E-1,1.979252951E0
8.023409843E0,-1.838245392E0,4.407280684E-2,-1.180263042E0,2.184973543E0
8.028385259E0,-1.873380661E0,1.728714705E-1,-1.454191208E0,2.377837613E0
8.033360676E0,-1.922519684E0,3.253745437E-1,-1.653281927E0,2.556421651E0
8.038336093E0,-2.023980141E0,4.638172388E-1,-1.796323776E0,2.745614895E0
8.043311509E0,-2.005617142E0,5.982881784E-1,-1.796820998E0,2.758444229E0
8.048286926E0,-2.025480270E0,7.005180717E-1,-1.587560415E0,2.667141535E0
8.053262343E0,-2.083583832E0,7.705907822E-1,-1.230504990E0,2.539542137E0
8.058237759E0,-2.112998962E0,7.751600742E-1,-8.830998540E-1,2.417747528E0
8.063213176E0,-2.085116386E0,7.333402634E-1,-6.405533552E-1,2.301262021E0
8.068188593E0,-2.076539993E0,6.401846409E-1,-4.068470001E-1,2.210741776E0
8.073164009E0,-2.163745880E0,4.712847471E-1,-1.196388006E-1,2.217705794E0
8.078139426E0,-2.308316708E0,3.506554365E-1,9.180080891E-2,2.336602800E0
8.083114843E0,-2.457539082E0,2.922713161E-1,1.987959743E-1,2.482829172E0
8.088090259E0,-2.616172314E0,2.243257165E-1,2.539057732E-1,2.638019663E0
8.093065676E0,-2.769829750E0,9.908789396E-2,1.898959875E-1,2.778099304E0
8.098041093E0,-2.870664597E0,-8.299708366E-2,-2.240514755E-2,2.871951555E0
8.103016509E0,-2.832650185E0,-2.879256010E-1,-3.164047599E-1,2.864772276E0
8.107991926E0,-2.589012623E0,-4.816975594E-1,-5.729196072E-1,2.695042815E0
8.112967343E0,-2.302588940E0,-6.404535770E-1,-7.779606581E-1,2.513427818E0
8.117942759E0,-2.121656418E0,-7.262063026E-1,-8.791654110E-1,2.408678760E0
8.122918176E0,-1.940872192E0,-7.678860426E-1,-8.239622116E-1,2.244002577E0
8.127893593E0,-1.712445259E0,-8.326666355E-1,-7.411973476E-1,2.043324742E0
8.132869009E0,-1.446002007E0,-9.016203284E-1,-6.545891762E-1,1.825466518E0
8.137844426E0,-1.112884521E0,-8.889453411E-1,-5.352675915E-1,1.521593629E0
8.142819843E0,-8.183746338E-1,-8.476936817E-1,-3.496120572E-1,1.229044430E0
8.147795259E0,-7.680435181E-1,-7.926666737E-1,-6.880146265E-2,1.105868411E0
8.152770676E0,-8.850593567E-1,-8.153349161E-1,2.598083615E-1,1.231097671E0
8.157746093E0,-1.083164215E0,-9.112604260E-1,5.461998582E-1,1.517225944E0
8.162721509E0,-1.395775795E0,-9.802684784E-1,6.861315966E-1,1.838448511E0
8.167696926E0,-1.765395164E0,-9.697770476E-1,7.041593790E-1,2.133759134E0
8.172672343E0,-2.086741447E0,-8.650972247E-1,6.144589782E-1,2.341034582E0
8.177647759E0,-2.321609020E0,-7.518281341E-1,4.356095195E-1,2.478884757E0
8.182623176E0,-2.489209652E0,-6.436582208E-1,2.049756646E-1,2.579239349E0
8.187598593E0,-2.580064297E0,-5.732514858E-1,-1.022806764E-1,2.644959428E0
8.192573957E0,-2.460405827E0,-4.725910425E-1,-4.678408802E-1,2.548688724E0
8.197549322E0,-2.044487953E0,-4.076766968E-1,-7.296732664E-1,2.208744973E0
8.202524686E0,-1.533576965E0,-4.210474491E-1,-8.405246735E-1,1.798783197E0
8.207500051E0,-1.133378983E0,-5.129871368E-1,-8.343344331E-1,1.497937805E0
8.212475416E0,-8.150033951E-1,-6.410549879E-1,-7.540920973E-1,1.282122039E0
8.217450780E0,-4.922065735E-1,-7.199825048E-1,-5.754595995E-1,1.044890362E0
8.222426145E0,-1.936492920E-1,-8.033273220E-1,-3.503468037E-1,8.975398138E-1
8.227401509E0,3.294277191E-2,-9.112266302E-1,-2.555960417E-2,9.121800761E-1
8.232376874E0,1.542911530E-1,-1.025820851E0,3.229495287E-1,1.086467016E0
8.237352238E0,8.454322815E-2,-1.057465792E0,6.958349943E-1,1.268687431E0
8.242327603E0,-1.281442642E-1,-9.642663002E-1,1.007590771E0,1.400524763E0
8.247302968E0,-4.787559509E-1,-7.518025637E-1,1.316253901E0,1.589634765E0
8.252278332E0,-9.957904816E-1,-4.394328594E-1,1.545583248E0,1.890377607E0
8.257253697E0,-1.607356071E0,-6.485426426E-2,1.595227718E0,2.265513427E0
8.262229061E0,-2.169982433E0,2.920362949E-1,1.507998824E0,2.658602906E0
