"Time (s)","Gyroscope x (rad/s)","Gyroscope y (rad/s)","Gyroscope z (rad/s)","Absolute (rad/s)"
3.750511400E-2,1.950098276E0,1.291099548E0,-1.292963773E-1,2.342336202E0
3.999266600E-2,1.943706632E0,1.275120616E0,-1.367532164E-1,2.328654010E0
4.248021800E-2,1.927727699E0,1.248489022E0,-1.474058628E-1,2.301431600E0
4.496777100E-2,1.904291868E0,1.217596292E0,-1.580584943E-1,2.265800242E0
4.745532300E-2,1.874464512E0,1.184573174E0,-1.676458716E-1,2.223721194E0
4.994287500E-2,1.836115003E0,1.146223664E0,-1.761679798E-1,2.171677266E0
5.243042700E-2,1.793504477E0,1.106808901E0,-1.846900880E-1,2.115607402E0
5.491797900E-2,1.744502425E0,1.064198375E0,-1.921469271E-1,2.052492956E0
5.740553100E-2,1.690173984E0,1.020522594E0,-1.985385120E-1,1.984331626E0
5.989308300E-2,1.630519152E0,9.747162461E-1,-2.049300969E-1,1.910670251E0
6.238063500E-2,1.567668557E0,9.267793894E-1,-2.091911435E-1,1.833102746E0
6.486818700E-2,1.500556946E0,8.777772188E-1,-2.145174593E-1,1.751622600E0
6.735573900E-2,1.430249572E0,8.277098536E-1,-2.187785208E-1,1.666907760E0
6.984329100E-2,1.357811689E0,7.765771747E-1,-2.209090441E-1,1.579723235E0
7.233084300E-2,1.283243179E0,7.265098095E-1,-2.230395675E-1,1.491400754E0
7.481839600E-2,1.207609534E0,6.743118763E-1,-2.241048366E-1,1.401156762E0
7.730594800E-2,1.130910516E0,6.221139431E-1,-2.241048366E-1,1.310040965E0
7.979350000E-2,1.054211497E0,5.688507557E-1,-2.241048366E-1,1.218677989E0
8.228105200E-2,9.775125384E-1,5.177181363E-1,-2.241048366E-1,1.128621198E0
8.476860400E-2,9.018788338E-1,4.655202031E-1,-2.230395675E-1,1.039154050E0
8.725615600E-2,8.273103833E-1,4.143875539E-1,-2.219743133E-1,9.515419649E-1
8.974370800E-2,7.548724413E-1,3.643201590E-1,-2.209090441E-1,8.668116212E-1
9.223126000E-2,6.845650673E-1,3.131875098E-1,-2.198437899E-1,7.842493479E-1
9.471881200E-2,6.153228879E-1,2.631201148E-1,-2.187785208E-1,7.040727891E-1
9.720636400E-2,5.482112765E-1,2.141179889E-1,-2.177132517E-1,6.275198617E-1
9.969391600E-2,4.832302332E-1,1.661811322E-1,-2.187785208E-1,5.558701900E-1
1.021814680E-1,4.203796685E-1,1.182442605E-1,-2.187785208E-1,4.884309695E-1
1.046690210E-1,3.607248962E-1,7.350318879E-2,-2.187785208E-1,4.282396650E-1
1.071565730E-1,3.032006621E-1,2.876211889E-2,-2.198437899E-1,3.756184141E-1
1.096441250E-1,2.488722205E-1,-1.384842768E-2,-2.198437899E-1,3.323559132E-1
1.121316770E-1,1.966743022E-1,-5.539371073E-2,-2.219743133E-1,3.016982600E-1
1.146192290E-1,1.487374306E-1,-9.587372839E-2,-2.230395675E-1,2.847125633E-1
1.171067810E-1,1.018658355E-1,-1.331579536E-1,-2.241048366E-1,2.798761634E-1
1.195943330E-1,5.925529078E-2,-1.672463864E-1,-2.241048366E-1,2.858417762E-1
1.220818850E-1,2.090579830E-2,-2.013348341E-1,-2.241048366E-1,3.019863335E-1
1.245694370E-1,-1.637842879E-2,-2.322274745E-1,-2.251701057E-1,3.238818138E-1
1.270569890E-1,-4.940159991E-2,-2.609896064E-1,-2.262353599E-1,3.489104911E-1
1.295445410E-1,-8.029424399E-2,-2.876211703E-1,-2.262353599E-1,3.746405494E-1
1.320320930E-1,-1.069258377E-1,-3.121222556E-1,-2.262353599E-1,4.000448416E-1
1.345196460E-1,-1.314269006E-1,-3.344927728E-1,-2.251701057E-1,4.240990707E-1
1.370071980E-1,-1.527321786E-1,-3.526022732E-1,-2.251701057E-1,4.453729425E-1
1.394947500E-1,-1.708416492E-1,-3.696464896E-1,-2.241048366E-1,4.648100409E-1
1.419823020E-1,-1.868206114E-1,-3.824296594E-1,-2.241048366E-1,4.810170090E-1
1.444698540E-1,-1.996037811E-1,-3.930822909E-1,-2.241048366E-1,4.945486170E-1
1.469574060E-1,-2.102564126E-1,-4.016043842E-1,-2.241048366E-1,5.056845046E-1
1.494449580E-1,-2.187785208E-1,-4.058654606E-1,-2.251701057E-1,5.131202489E-1
1.519325100E-1,-2.251701057E-1,-4.090612531E-1,-2.262353599E-1,5.188594447E-1
1.544200620E-1,-2.304964215E-1,-4.090612531E-1,-2.262353599E-1,5.211930037E-1
1.569076140E-1,-2.347574681E-1,-4.069307148E-1,-2.273006290E-1,5.218900760E-1
1.593951660E-1,-2.368880063E-1,-4.026696682E-1,-2.294311523E-1,5.204780907E-1
1.618827180E-1,-2.390185297E-1,-3.962780833E-1,-2.304964215E-1,5.170055872E-1
1.643702710E-1,-2.379532605E-1,-3.877559602E-1,-2.326269448E-1,5.109713635E-1
1.668578230E-1,-2.358227372E-1,-3.760380745E-1,-2.336922139E-1,5.016264025E-1
1.693453750E-1,-2.315616906E-1,-3.632549047E-1,-2.347574681E-1,4.905976062E-1
1.718335000E-1,-2.283658981E-1,-3.483411968E-1,-2.358227372E-1,4.786490742E-1
1.743206350E-1,-2.219743133E-1,-3.323622644E-1,-2.368880063E-1,4.646000410E-1
1.768077710E-1,-2.166479975E-1,-3.163833022E-1,-2.368880063E-1,4.507223938E-1
1.792949060E-1,-2.091911435E-1,-2.982738316E-1,-2.358227372E-1,4.339822307E-1
1.817820410E-1,-2.017343044E-1,-2.812296152E-1,-2.347574681E-1,4.182079565E-1
1.842692290E-1,-1.921469271E-1,-2.641853690E-1,-2.326269448E-1,4.010357169E-1
1.867564680E-1,-1.814942956E-1,-2.471411675E-1,-2.294311523E-1,3.829589922E-1
1.892437600E-1,-1.697763950E-1,-2.290316820E-1,-2.262353599E-1,3.639532576E-1
1.917311040E-1,-1.569932252E-1,-2.119874656E-1,-2.209090441E-1,3.440731959E-1
1.942185520E-1,-1.442100704E-1,-1.949432492E-1,-2.145174593E-1,3.237547763E-1
1.967061040E-1,-1.292963773E-1,-1.789642870E-1,-2.081258893E-1,3.034174600E-1
1.991937080E-1,-1.143826842E-1,-1.640505940E-1,-2.006690353E-1,2.833091202E-1
2.016813640E-1,-9.946899116E-2,-1.480716467E-1,-1.932121962E-1,2.629643427E-1
2.041690730E-1,-8.455529809E-2,-1.331579536E-1,-1.857553422E-1,2.436917853E-1
2.066568330E-1,-6.857634336E-2,-1.203747913E-1,-1.782985032E-1,2.257945116E-1
2.091446460E-1,-5.472791940E-2,-1.075916290E-1,-1.687111259E-1,2.074476989E-1
2.116325100E-1,-4.087949172E-2,-9.587372839E-2,-1.623195410E-1,1.929003318E-1
2.141203750E-1,-2.809632942E-2,-8.522108942E-2,-1.548627019E-1,1.789818266E-1
2.166082390E-1,-1.637842879E-2,-7.669898123E-2,-1.474058628E-1,1.669714797E-1
2.190961040E-1,-6.791055668E-3,-6.817687303E-2,-1.410142779E-1,1.567776484E-1
2.215839680E-1,1.731053460E-3,-6.178529188E-2,-1.335574239E-1,1.471665870E-1
2.240717290E-1,1.025316212E-2,-5.752423778E-2,-1.261005849E-1,1.389802963E-1
2.265592810E-1,1.557948068E-2,-5.326318368E-2,-1.197090000E-1,1.319467000E-1
2.290468330E-1,1.984053478E-2,-5.113265663E-2,-1.122521535E-1,1.249349485E-1
2.315343850E-1,2.303632535E-2,-5.006739125E-2,-1.058605760E-1,1.193477168E-1
2.340219370E-1,2.516685426E-2,-5.006739125E-2,-9.946899116E-2,1.141673965E-1
2.365094890E-1,2.516685426E-2,-5.113265663E-2,-9.201214463E-2,1.082319449E-1
2.389970410E-1,2.410159074E-2,-5.219791830E-2,-8.562056720E-2,1.031328797E-1
2.414845930E-1,2.197106183E-2,-5.219791830E-2,-7.922898233E-2,9.738881801E-2
2.439721460E-1,1.984053478E-2,-5.326318368E-2,-7.177213579E-2,9.155246055E-2
2.464596980E-1,1.664474420E-2,-5.326318368E-2,-6.538055837E-2,8.595715013E-2
2.489472500E-1,1.238369010E-2,-5.219791830E-2,-5.792371184E-2,7.895020486E-2
2.514348020E-1,8.122635074E-3,-5.113265663E-2,-5.046686530E-2,7.230097004E-2
2.539223540E-1,2.796316985E-3,-5.006739125E-2,-4.407528415E-2,6.676221782E-2
2.564099060E-1,-2.530001104E-3,-4.900212586E-2,-3.768370301E-2,6.186817208E-2
2.588974580E-1,-7.856319658E-3,-4.687159881E-2,-3.022685647E-2,5.632345325E-2
2.613850100E-1,-1.318263728E-2,-4.367581010E-2,-2.170474641E-2,5.052182034E-2
2.638725620E-1,-1.744369231E-2,-4.261054471E-2,-1.424790081E-2,4.819692521E-2
2.663601140E-1,-2.277000993E-2,-4.048001766E-2,-6.791055668E-3,4.693850892E-2
2.688476660E-1,-2.809632942E-2,-3.941475600E-2,6.657897611E-4,4.840836698E-2
2.713352180E-1,-3.342264518E-2,-3.728422895E-2,8.122635074E-3,5.072636533E-2
2.738227710E-1,-3.768370301E-2,-3.621896356E-2,1.557948068E-2,5.453984793E-2
2.763103230E-1,-4.301001877E-2,-3.515370190E-2,2.197106183E-2,5.973585213E-2
2.787978750E-1,-4.727107286E-2,-3.515370190E-2,2.729738131E-2,6.492675961E-2
2.812854270E-1,-5.153212696E-2,-3.728422895E-2,3.262370080E-2,7.148412195E-2
2.837729790E-1,-5.579318479E-2,-3.941475600E-2,3.688475490E-2,7.763303165E-2
2.862605310E-1,-5.898897350E-2,-4.261054471E-2,4.221107066E-2,8.412569168E-2
2.887480830E-1,-6.325002760E-2,-4.687159881E-2,4.647212476E-2,9.141756475E-2
2.912356350E-1,-6.644582003E-2,-5.219791830E-2,5.073318258E-2,9.855721937E-2
2.937231870E-1,-6.964161247E-2,-5.752423778E-2,5.392897129E-2,1.052013596E-1
2.962107390E-1,-7.390266657E-2,-6.285055727E-2,5.712476373E-2,1.125834593E-1
2.986982910E-1,-7.603318989E-2,-6.817687303E-2,5.819002539E-2,1.175381259E-1
3.011858430E-1,-7.922898233E-2,-7.243792713E-2,5.925529078E-2,1.226200408E-1
3.036733960E-1,-8.135951310E-2,-7.669898123E-2,5.925529078E-2,1.265436430E-1
3.061609480E-1,-8.455529809E-2,-8.096003532E-2,5.925529078E-2,1.312071463E-1
3.086485000E-1,-8.775109053E-2,-8.415582776E-2,5.712476373E-2,1.343342691E-1
3.111360520E-1,-9.094688296E-2,-8.628635854E-2,5.605949834E-2,1.373293069E-1
3.136236040E-1,-9.307741374E-2,-8.628635854E-2,5.499423668E-2,1.383224735E-1
3.161111560E-1,-9.414267540E-2,-8.735162020E-2,5.286370963E-2,1.388802386E-1
3.185987080E-1,-9.520793706E-2,-8.841688186E-2,5.179844424E-2,1.398755701E-1
3.210862600E-1,-9.520793706E-2,-8.735162020E-2,4.966791719E-2,1.384260049E-1
3.235738120E-1,-9.414267540E-2,-8.628635854E-2,4.860265180E-2,1.366396603E-1
3.260613640E-1,-9.201214463E-2,-8.415582776E-2,4.753739014E-2,1.334475236E-1
3.285489160E-1,-8.775109053E-2,-8.096003532E-2,4.647212476E-2,1.281188495E-1
3.310364680E-1,-8.242477477E-2,-7.669898123E-2,4.540686309E-2,1.214016492E-1
3.335240210E-1,-7.709845901E-2,-7.243792713E-2,4.647212476E-2,1.155468911E-1
3.360115730E-1,-6.857634336E-2,-6.604634225E-2,4.647212476E-2,1.059457058E-1
3.384991250E-1,-5.898897350E-2,-5.965476483E-2,4.753739014E-2,9.642714049E-2
3.409866770E-1,-4.833633825E-2,-5.219791830E-2,4.860265180E-2,8.615823833E-2
3.434742290E-1,-3.555317223E-2,-4.474107176E-2,5.073318258E-2,7.641758549E-2
3.459617810E-1,-2.170474641E-2,-3.515370190E-2,5.286370963E-2,6.709285036E-2
3.484493330E-1,-6.791055668E-3,-2.556632832E-2,5.392897129E-2,6.006737488E-2
3.509368850E-1,9.187898599E-3,-1.491369121E-2,5.605949834E-2,5.873246990E-2
3.534244370E-1,2.623211779E-2,-4.261054564E-3,5.925529078E-2,6.494205167E-2
3.559119890E-1,4.540686309E-2,7.456845604E-3,6.245107949E-2,7.757270842E-2
3.583995410E-1,6.671213359E-2,2.024000883E-2,6.564687192E-2,9.575843837E-2
3.608870930E-1,8.801741153E-2,3.408843651E-2,7.097318769E-2,1.180943674E-1
3.633746460E-1,1.103879437E-1,4.900212586E-2,7.523424178E-2,1.422915935E-1
3.658621980E-1,1.348890066E-1,6.498108059E-2,8.056056499E-2,1.700223208E-1
3.683497500E-1,1.583248079E-1,8.202529699E-2,8.695214242E-2,1.983823813E-1
3.708373020E-1,1.838911325E-1,1.012000442E-1,9.334372729E-2,2.297181947E-1
3.733248540E-1,2.115879953E-1,1.214400530E-1,9.973530471E-2,2.635608037E-1
3.758124060E-1,2.403501123E-1,1.427453309E-1,1.061268896E-1,2.990105729E-1
3.782999580E-1,2.701774836E-1,1.651158631E-1,1.125184745E-1,3.360350100E-1
3.807875100E-1,3.010701239E-1,1.885516644E-1,1.178447902E-1,3.742757596E-1
3.832750620E-1,3.319627941E-1,2.119874656E-1,1.221058443E-1,4.123685481E-1
3.857626140E-1,3.639206886E-1,2.364885211E-1,1.253016293E-1,4.517361913E-1
3.882501660E-1,3.958786130E-1,2.609896064E-1,1.274321675E-1,4.909932873E-1
3.907377180E-1,4.257059693E-1,2.854906619E-1,1.274321675E-1,5.281755841E-1
3.932252710E-1,4.576638937E-1,3.078611791E-1,1.253016293E-1,5.656281849E-1
3.957128230E-1,4.885565341E-1,3.323622644E-1,1.221058443E-1,6.033755041E-1
3.982003750E-1,5.183839202E-1,3.536675274E-1,1.167795286E-1,6.383103218E-1
4.006879270E-1,5.471460223E-1,3.749727905E-1,1.103879437E-1,6.724275883E-1
4.031754790E-1,5.737776160E-1,3.952127993E-1,1.018658355E-1,7.041239648E-1
4.056630310E-1,5.982787013E-1,4.143875539E-1,9.014793485E-2,7.333355981E-1
4.081505830E-1,6.217144728E-1,4.324970245E-1,7.949529588E-2,7.615130097E-1
4.106381350E-1,6.430197358E-1,4.495412707E-1,6.671213359E-2,7.874085620E-1
4.131256870E-1,6.611292362E-1,4.644549489E-1,5.286370963E-2,8.096942870E-1
4.156132390E-1,6.771082282E-1,4.783033729E-1,4.008054361E-2,8.299735653E-1
4.181016770E-1,6.909566522E-1,4.889560044E-1,2.516685426E-2,8.468367257E-1
4.205885520E-1,7.037398219E-1,4.985433817E-1,1.131842658E-2,8.625099113E-1
4.230754270E-1,7.143924236E-1,5.081307292E-1,-1.464737463E-3,8.766729826E-1
4.255623540E-1,7.261103392E-1,5.177181363E-1,-1.424790081E-2,8.918919755E-1
4.280493330E-1,7.367629409E-1,5.273054838E-1,-2.596580051E-2,9.063911557E-1
4.305363640E-1,7.484808564E-1,5.368928909E-1,-3.555317223E-2,9.218142963E-1
4.330235000E-1,7.612640262E-1,5.496760607E-1,-4.407528415E-2,9.400049574E-1
4.355107390E-1,7.751124501E-1,5.624592304E-1,-5.153212696E-2,9.590699955E-1
4.379980830E-1,7.910913825E-1,5.773729086E-1,-5.898897350E-2,9.811548043E-1
4.404855310E-1,8.092008829E-1,5.922865868E-1,-6.644582003E-2,1.004999760E0
4.429730830E-1,8.283756375E-1,6.072002649E-1,-7.283740491E-2,1.029661909E0
4.454607390E-1,8.486156464E-1,6.231792569E-1,-7.816372067E-2,1.055751140E0
4.479485000E-1,8.709861636E-1,6.370276809E-1,-8.242477477E-2,1.082226874E0
4.504363640E-1,8.922914863E-1,6.498108506E-1,-8.562056720E-2,1.107144579E0
4.529242810E-1,9.146620035E-1,6.593981981E-1,-8.881635964E-2,1.131061851E0
4.554122500E-1,9.370325208E-1,6.668550372E-1,-8.988162130E-2,1.153604911E0
4.579002710E-1,9.604683518E-1,6.711161137E-1,-8.881635964E-2,1.175067929E0
4.603882910E-1,9.817736149E-1,6.711161137E-1,-8.881635964E-2,1.192545435E0
4.628763120E-1,1.003078818E0,6.689855456E-1,-8.881635964E-2,1.208965310E0
4.653643330E-1,1.022253633E0,6.636592746E-1,-8.775109053E-2,1.221943688E0
4.678520930E-1,1.040363073E0,6.572676897E-1,-8.775109053E-2,1.233716497E0
4.703396460E-1,1.057407379E0,6.487455368E-1,-8.881635964E-2,1.243732078E0
4.728271980E-1,1.072321057E0,6.380929351E-1,-8.988162130E-2,1.251045063E0
4.753147500E-1,1.084038854E0,6.285055280E-1,-9.307741374E-2,1.256512173E0
4.778023020E-1,1.092561007E0,6.167876720E-1,-9.733846784E-2,1.258408266E0
4.802898540E-1,1.097887397E0,6.050697565E-1,-1.026647836E-1,1.257778281E0
4.827774060E-1,1.101083159E0,5.933518410E-1,-1.090563685E-1,1.255525317E0
4.852649580E-1,1.098952651E0,5.805686712E-1,-1.165132076E-1,1.248331782E0
4.877525100E-1,1.093626261E0,5.677855015E-1,-1.250353158E-1,1.238560699E0
4.902400620E-1,1.082973599E0,5.539370775E-1,-1.335574239E-1,1.223730235E0
4.927276140E-1,1.070190430E0,5.379581451E-1,-1.399490088E-1,1.205940399E0
4.952151660E-1,1.052080989E0,5.209138989E-1,-1.463405937E-1,1.183064354E0
4.977027180E-1,1.030775785E0,5.017392039E-1,-1.516669095E-1,1.156392580E0
5.001902710E-1,1.006274700E0,4.814991653E-1,-1.559279710E-1,1.126385258E0
5.026778230E-1,9.764472842E-1,4.580633640E-1,-1.580584943E-1,1.090070563E0
5.051653750E-1,9.444893599E-1,4.346275628E-1,-1.601890177E-1,1.051960926E0
5.076529270E-1,9.072051644E-1,4.079959691E-1,-1.601890177E-1,1.007542775E0
5.101404790E-1,8.677904010E-1,3.792338669E-1,-1.591237634E-1,9.603118649E-1
5.126280310E-1,8.230493069E-1,3.494064808E-1,-1.559279710E-1,9.076390155E-1
5.151155830E-1,7.772429585E-1,3.174485564E-1,-1.516669095E-1,8.531606261E-1
5.176031350E-1,7.261103392E-1,2.844253778E-1,-1.463405937E-1,7.934416107E-1
5.200906870E-1,6.728471518E-1,2.492716908E-1,-1.388837546E-1,7.308545428E-1
5.225782390E-1,6.163882017E-1,2.151832581E-1,-1.324921697E-1,6.661774725E-1
5.250657910E-1,5.577986836E-1,1.810948253E-1,-1.239700541E-1,5.994191201E-1
5.275533430E-1,4.960133731E-1,1.448758543E-1,-1.143826842E-1,5.292463301E-1
5.300408960E-1,4.320975542E-1,1.086568907E-1,-1.047953144E-1,4.577080665E-1
5.325284480E-1,3.681817353E-1,7.137266546E-2,-9.414267540E-2,3.866712957E-1
5.350160000E-1,3.032006621E-1,3.408843651E-2,-8.242477477E-2,3.160482661E-1
5.375035520E-1,2.371543199E-1,-3.195791040E-3,-7.070687413E-2,2.474911040E-1
5.399911040E-1,1.721732318E-1,-4.154528305E-2,-5.792371184E-2,1.863458846E-1
5.424786560E-1,1.093226820E-1,-7.989477366E-2,-4.407528415E-2,1.423982245E-1
5.449662080E-1,4.753739014E-2,-1.171789989E-1,-3.129211813E-2,1.302686374E-1
5.474537600E-1,-1.211737376E-2,-1.533979625E-1,-1.850895584E-2,1.549849898E-1
5.499413120E-1,-6.644582003E-2,-1.874863952E-1,-4.660528619E-3,1.989671227E-1
5.524288640E-1,-1.165132076E-1,-2.194443047E-1,9.187898599E-3,2.486273273E-1
5.549164160E-1,-1.633848101E-1,-2.460758984E-1,2.410159074E-2,2.963592931E-1
5.574039680E-1,-2.038648278E-1,-2.684464455E-1,3.688475490E-2,3.390941569E-1
5.598915210E-1,-2.379532605E-1,-2.865559161E-1,5.073318258E-2,3.759120948E-1
5.623790730E-1,-2.656501234E-1,-2.993390858E-1,6.351634115E-2,4.052261121E-1
5.648666250E-1,-2.858901322E-1,-3.057306707E-1,7.736477256E-2,4.256638565E-1
5.673541770E-1,-2.976080179E-1,-3.046653867E-1,9.014793485E-2,4.353368585E-1
5.698417290E-1,-2.997385561E-1,-2.950780392E-1,1.018658355E-1,4.327711863E-1
5.723292810E-1,-2.912164330E-1,-2.727074921E-1,1.157142594E-1,4.154108532E-1
5.748168330E-1,-2.731069624E-1,-2.407495826E-1,1.284974217E-1,3.860820662E-1
5.773043850E-1,-2.411490530E-1,-1.960085034E-1,1.423458606E-1,3.418106833E-1
5.797919370E-1,-1.964079887E-1,-1.395495385E-1,1.551290154E-1,2.865574692E-1
5.822794890E-1,-1.388837546E-1,-7.137266546E-2,1.689774394E-1,2.300785294E-1
5.847670410E-1,-6.644582003E-2,1.065263618E-2,1.817606091E-1,1.938180711E-1
5.872545930E-1,1.984053478E-2,1.022653133E-1,1.913479865E-1,2.178666864E-1
5.897421460E-1,1.199753210E-1,2.045306265E-1,1.977395564E-1,3.087519830E-1
5.922296980E-1,2.328932583E-1,3.153180480E-1,2.030658871E-1,4.414753625E-1
5.947172500E-1,3.585943878E-1,4.346275628E-1,2.041311413E-1,5.993000718E-1
5.972048020E-1,4.949481189E-1,5.592634082E-1,2.020006180E-1,7.736623616E-1
5.996923540E-1,6.430197358E-1,6.870950460E-1,1.977395564E-1,9.616001847E-1
6.021799060E-1,7.985482812E-1,8.159919381E-1,1.902827173E-1,1.157466938E0
6.046674580E-1,9.594030380E-1,9.416930676E-1,1.806953400E-1,1.356425755E0
6.071550100E-1,1.124518991E0,1.063133121E0,1.689774394E-1,1.556710753E0
6.096425620E-1,1.289634824E0,1.177116275E0,1.540637612E-1,1.752853772E0
6.121301140E-1,1.453685403E0,1.282577395E0,1.380847991E-1,1.943520887E0
6.146176660E-1,1.615605474E0,1.380581737E0,1.199753210E-1,2.128516163E0
6.171052180E-1,1.771134019E0,1.466868043E0,1.018658355E-1,2.301954434E0
6.195927710E-1,1.920270920E0,1.543567061E0,8.269108832E-2,2.465132348E0
6.220803230E-1,2.059820414E0,1.607482791E0,6.351634115E-2,2.613598168E0
6.245678750E-1,2.190847874E0,1.659680724E0,4.221107066E-2,2.748842718E0
6.270554270E-1,2.309092045E0,1.699095488E0,2.197106183E-2,2.866934648E0
6.295429790E-1,2.415618420E0,1.728922844E0,6.657897611E-4,2.970586978E0
6.320305310E-1,2.509361744E0,1.747032404E0,-2.170474641E-2,3.057693523E0
6.345180830E-1,2.590321779E0,1.755554438E0,-4.301001877E-2,3.129470908E0
6.370056350E-1,2.657433271E0,1.757685065E0,-6.431528926E-2,3.186776559E0
6.394931870E-1,2.712826967E0,1.753423929E0,-8.349003643E-2,3.231237567E0
6.419807390E-1,2.757568121E0,1.747032404E0,-1.026647836E-1,3.266013506E0
6.444682910E-1,2.793787003E0,1.740640759E0,-1.186437383E-1,3.293805156E0
6.469558430E-1,2.824679613E0,1.737444997E0,-1.314269006E-1,3.318855686E0
6.494433960E-1,2.849180698E0,1.737444997E0,-1.420795321E-1,3.340169511E0
6.519309480E-1,2.873681784E0,1.743836522E0,-1.474058628E-1,3.364630930E0
6.544185000E-1,2.894987106E0,1.755554438E0,-1.516669095E-1,3.389089049E0
6.569060520E-1,2.917357683E0,1.771533489E0,-1.516669095E-1,3.416476197E0
6.593936040E-1,2.940793514E0,1.791773438E0,-1.484711170E-1,3.446848157E0
6.618811560E-1,2.967425108E0,1.815209270E0,-1.431448013E-1,3.481535135E0
6.643687080E-1,2.994056702E0,1.842906117E0,-1.356879622E-1,3.518393058E0
6.668562600E-1,3.020688295E0,1.872733474E0,-1.250353158E-1,3.556307393E0
6.693438120E-1,3.049450397E0,1.903626084E0,-1.111868918E-1,3.596568159E0
6.718318330E-1,3.079277754E0,1.936649323E0,-9.733846784E-2,3.638960959E0
6.743191250E-1,3.109105110E0,1.970737696E0,-8.029424399E-2,3.681954483E0
6.768064160E-1,3.138932467E0,2.004826069E0,-6.111950055E-2,3.725044992E0
6.792937080E-1,3.170890331E0,2.038914680E0,-3.981423005E-2,3.770053546E0
6.817810000E-1,3.203913450E0,2.073003054E0,-1.744369231E-2,3.816111547E0
6.842682910E-1,3.236936808E0,2.103895664E0,4.926844500E-3,3.860590776E0
6.867556350E-1,3.269959927E0,2.130527258E0,2.836264484E-2,3.902894920E0
6.892430310E-1,3.301917791E0,2.150767326E0,5.286370963E-2,3.940971424E0
6.917304790E-1,3.332810402E0,2.165680885E0,7.736477256E-2,3.975397361E0
6.942179790E-1,3.358376741E0,2.173137903E0,1.008005738E-1,4.001422677E0
6.967055310E-1,3.379682064E0,2.173137903E0,1.242363751E-1,4.019976850E0
6.991931350E-1,3.394595861E0,2.163550377E0,1.455416381E-1,4.028078160E0
7.016807910E-1,3.400987387E0,2.145441055E0,1.647163928E-1,4.024520346E0
7.041685000E-1,3.396726370E0,2.116678953E0,1.817606091E-1,4.006384497E0
7.066562080E-1,3.385008335E0,2.080459833E0,1.966743022E-1,3.978099462E0
7.091439160E-1,3.362637758E0,2.033588409E0,2.105227262E-1,3.935369656E0
7.116316250E-1,3.331745148E0,1.980325103E0,2.211753577E-1,3.882155559E0
7.141193330E-1,3.291265249E0,1.920670390E0,2.307627350E-1,3.817676404E0
7.166070410E-1,3.243328333E0,1.853558779E0,2.371543199E-1,3.743140525E0
7.190947500E-1,3.187934637E0,1.782186031E0,2.414153665E-1,3.660245303E0
7.215824580E-1,3.128279924E0,1.708682895E0,2.435459048E-1,3.572820612E0
7.240701660E-1,3.062233448E0,1.634114385E0,2.435459048E-1,3.479499694E0
7.265577710E-1,2.994056702E0,1.557415485E0,2.414153665E-1,3.383518864E0
7.290453230E-1,2.923749208E0,1.481781721E0,2.382195890E-1,3.286447181E0
7.315328750E-1,2.850245953E0,1.404017448E0,2.318280041E-1,3.185735584E0
7.340204270E-1,2.776742935E0,1.326253176E0,2.243711501E-1,3.085383481E0
7.365079790E-1,2.702174425E0,1.248489022E0,2.147837877E-1,2.984393328E0
7.389955310E-1,2.626540661E0,1.170724750E0,2.041311413E-1,2.882877348E0
7.414830830E-1,2.551972151E0,1.095090985E0,1.934785098E-1,2.783742096E0
7.439706350E-1,2.476338387E0,1.021587849E0,1.828258783E-1,2.685017475E0
7.464581870E-1,2.402835369E0,9.502151608E-1,1.732385010E-1,2.589698485E0
7.489457390E-1,2.328266859E0,8.820382953E-1,1.636511236E-1,2.495115190E0
7.514332910E-1,2.254763603E0,8.170571923E-1,1.551290154E-1,2.403249128E0
7.539208430E-1,2.183391094E0,7.552719116E-1,1.476721764E-1,2.315046307E0
7.564083960E-1,2.113083601E0,6.988129616E-1,1.412805915E-1,2.230117052E0
7.588959480E-1,2.044906616E0,6.466150284E-1,1.370195299E-1,2.149076177E0
7.613835000E-1,1.979925632E0,5.997434258E-1,1.338237375E-1,2.073091045E0
7.638710520E-1,1.919205666E0,5.592634082E-1,1.338237375E-1,2.003505612E0
7.663586040E-1,1.861681342E0,5.262402296E-1,1.338237375E-1,1.939251142E0
7.688461560E-1,1.808418155E0,4.996086359E-1,1.391500682E-1,1.881315432E0
7.713337080E-1,1.760481358E0,4.804339111E-1,1.466069072E-1,1.830738905E0
7.738212600E-1,1.717870831E0,4.687159956E-1,1.561942846E-1,1.787504275E0
7.763088120E-1,1.678456068E0,4.623244107E-1,1.679121852E-1,1.749043491E0
7.787963640E-1,1.644367576E0,4.623244107E-1,1.817606091E-1,1.717767593E0
7.812839160E-1,1.612409711E0,4.644549489E-1,1.956090331E-1,1.689333114E0
7.837714680E-1,1.582582355E0,4.687159956E-1,2.105227262E-1,1.663905470E0
7.862590210E-1,1.553820133E0,4.740423262E-1,2.254364192E-1,1.640089849E0
7.887465730E-1,1.525058031E0,4.783033729E-1,2.403501123E-1,1.616274819E0
7.912341250E-1,1.497361183E0,4.793686271E-1,2.552638054E-1,1.592810222E0
7.937216770E-1,1.470729589E0,4.793686271E-1,2.712427676E-1,1.570481596E0
7.962092290E-1,1.443032742E0,4.783033729E-1,2.850911915E-1,1.546736758E0
7.986967810E-1,1.416401148E0,4.740423262E-1,3.000048697E-1,1.523453728E0
8.011843330E-1,1.388704300E0,4.676507413E-1,3.149185777E-1,1.498789698E0
8.036718850E-1,1.361007452E0,4.601939023E-1,3.277017176E-1,1.473603789E0
8.061594370E-1,1.333310604E0,4.506065249E-1,3.394196332E-1,1.447746212E0
8.086469890E-1,1.304548502E0,4.378233552E-1,3.490070105E-1,1.419627408E0
8.111345410E-1,1.275786400E0,4.229096770E-1,3.553985953E-1,1.390248789E0
8.136220930E-1,1.244893670E0,4.058654606E-1,3.596596420E-1,1.357881468E0
8.161096460E-1,1.215066314E0,3.898864985E-1,3.607248962E-1,1.326092033E0
8.185971980E-1,1.184173703E0,3.728422821E-1,3.607248962E-1,1.292826816E0
8.210847500E-1,1.153281093E0,3.557980657E-1,3.585943878E-1,1.259062936E0
8.235723020E-1,1.122388363E0,3.398191035E-1,3.553985953E-1,1.225373748E0
8.260598540E-1,1.092561007E0,3.259706795E-1,3.511375189E-1,1.192997902E0
8.285474060E-1,1.063798904E0,3.131875098E-1,3.458112180E-1,1.161610918E0
8.310349580E-1,1.036102057E0,3.036001325E-1,3.394196332E-1,1.131762431E0
8.335225100E-1,1.009470463E0,2.961432934E-1,3.319627941E-1,1.103145848E0
8.360100620E-1,9.839041233E-1,2.908169627E-1,3.223754168E-1,1.075438394E0
8.384976140E-1,9.594030380E-1,2.876211703E-1,3.117227852E-1,1.048976273E0
8.409851660E-1,9.370325208E-1,2.865559161E-1,3.000048697E-1,1.024766881E0
8.434727180E-1,9.146620035E-1,2.865559161E-1,2.893522382E-1,1.001222049E0
8.459602710E-1,8.954872489E-1,2.886864543E-1,2.776343226E-1,9.809781338E-1
8.484478230E-1,8.773777485E-1,2.897517085E-1,2.659164369E-1,9.614880746E-1
8.509353750E-1,8.613988161E-1,2.918822467E-1,2.552638054E-1,9.446495523E-1
8.534229270E-1,8.475503922E-1,2.929475009E-1,2.456764281E-1,9.297939626E-1
8.559104790E-1,8.347672224E-1,2.950780392E-1,2.350237966E-1,9.160477879E-1
8.583980310E-1,8.241145611E-1,2.993390858E-1,2.254364192E-1,9.053122540E-1
8.608855830E-1,8.145272136E-1,3.046653867E-1,2.147837877E-1,8.957720999E-1
8.633731350E-1,8.038745522E-1,3.110569715E-1,2.041311413E-1,8.857992200E-1
8.658606870E-1,7.942872047E-1,3.185138404E-1,1.934785098E-1,8.773694569E-1
8.683482390E-1,7.846998572E-1,3.281011879E-1,1.817606091E-1,8.697362672E-1
8.708357910E-1,7.740471959E-1,3.376885653E-1,1.711079776E-1,8.616615163E-1
8.733233430E-1,7.633945346E-1,3.472759426E-1,1.583248079E-1,8.534861103E-1
8.758108960E-1,7.506113648E-1,3.579285741E-1,1.466069072E-1,8.444074078E-1
8.782984480E-1,7.356976867E-1,3.664506972E-1,1.338237375E-1,8.327340466E-1
8.807860000E-1,7.197187543E-1,3.760380745E-1,1.210405827E-1,8.210058108E-1
8.832735520E-1,7.016092539E-1,3.813643754E-1,1.082574204E-1,8.058622717E-1
8.857611040E-1,6.813692451E-1,3.866907060E-1,9.440898895E-2,7.891177399E-1
8.882486560E-1,6.589987278E-1,3.888212144E-1,8.056056499E-2,7.693836914E-1
8.907362080E-1,6.344976425E-1,3.888212144E-1,6.564687192E-2,7.470466565E-1
8.932237600E-1,6.099966168E-1,3.866907060E-1,5.073318258E-2,7.240161811E-1
8.957113120E-1,5.844302773E-1,3.824296594E-1,3.688475490E-2,6.994080916E-1
8.981988640E-1,5.588639379E-1,3.771033287E-1,2.303632535E-2,6.745861649E-1
9.006864160E-1,5.343628526E-1,3.685812056E-1,9.187898599E-3,6.492150497E-1
9.031739680E-1,5.109270811E-1,3.611243665E-1,-3.595264861E-3,6.256758076E-1
9.056615210E-1,4.896217883E-1,3.536675274E-1,-1.637842879E-2,6.042172361E-1
9.081490730E-1,4.693817794E-1,3.462106884E-1,-2.916159295E-2,5.839790185E-1
9.106366250E-1,4.523375630E-1,3.408843577E-1,-4.194475710E-2,5.679531485E-1
9.131241770E-1,4.363586307E-1,3.366233110E-1,-5.366265774E-2,5.537181494E-1
9.156117290E-1,4.246407151E-1,3.344927728E-1,-6.644582003E-2,5.446284963E-1
9.181001660E-1,4.139880836E-1,3.344927728E-1,-7.922898233E-2,5.380973704E-1
9.205870410E-1,4.054659605E-1,3.355580568E-1,-9.307741374E-2,5.344766221E-1
9.230739160E-1,3.990744054E-1,3.398191035E-1,-1.069258377E-1,5.349490994E-1
9.255608430E-1,3.937480748E-1,3.462106884E-1,-1.197090000E-1,5.378007361E-1
9.280478230E-1,3.894870281E-1,3.536675274E-1,-1.324921697E-1,5.425265340E-1
9.305348540E-1,3.862912357E-1,3.621896505E-1,-1.442100704E-1,5.488158217E-1
9.330219890E-1,3.841606975E-1,3.717769980E-1,-1.569932252E-1,5.571754217E-1
9.355092290E-1,3.830954432E-1,3.813643754E-1,-1.687111259E-1,5.662723280E-1
9.379965730E-1,3.841606975E-1,3.930822909E-1,-1.804290265E-1,5.784874782E-1
9.404840210E-1,3.852259517E-1,4.048001766E-1,-1.900164038E-1,5.902274566E-1
9.429715730E-1,3.894870281E-1,4.175833464E-1,-1.996037811E-1,6.049112874E-1
9.454592290E-1,3.937480748E-1,4.314317703E-1,-2.081258893E-1,6.200704030E-1
9.479469890E-1,3.990744054E-1,4.452801943E-1,-2.177132517E-1,6.363441620E-1
9.504348540E-1,4.044007063E-1,4.591286182E-1,-2.262353599E-1,6.523200575E-1
9.529227710E-1,4.097270370E-1,4.729770422E-1,-2.358227372E-1,6.687270674E-1
9.554107390E-1,4.139880836E-1,4.857602119E-1,-2.432795912E-1,6.830329980E-1
9.578987600E-1,4.182491302E-1,4.985433817E-1,-2.507364154E-1,6.973855378E-1
9.603867810E-1,4.203796685E-1,5.091960430E-1,-2.560627460E-1,7.082145196E-1
9.628748020E-1,4.214449227E-1,5.198486447E-1,-2.603237927E-1,7.180716631E-1
9.653628230E-1,4.225101769E-1,5.283707380E-1,-2.613890767E-1,7.252687335E-1
9.678506350E-1,4.214449227E-1,5.358276367E-1,-2.603237927E-1,7.297229311E-1
9.703381870E-1,4.203796685E-1,5.400886536E-1,-2.571280003E-1,7.311153315E-1
9.728257390E-1,4.182491302E-1,5.432844758E-1,-2.518016994E-1,7.304070457E-1
9.753132910E-1,4.161186218E-1,5.443497300E-1,-2.443448454E-1,7.274446642E-1
9.778008430E-1,4.107922912E-1,5.432844758E-1,-2.336922139E-1,7.200835916E-1
9.802883960E-1,4.065312445E-1,5.422192216E-1,-2.219743133E-1,7.131212609E-1
9.827759480E-1,4.001396596E-1,5.379581451E-1,-2.091911435E-1,7.023330034E-1
9.852635000E-1,3.926828206E-1,5.336970687E-1,-1.964079887E-1,6.910922201E-1
9.877510520E-1,3.852259517E-1,5.294360518E-1,-1.825595498E-1,6.797275602E-1
9.902386040E-1,3.767038584E-1,5.251749754E-1,-1.697763950E-1,6.682354196E-1
9.927261560E-1,3.671164811E-1,5.198486447E-1,-1.569932252E-1,6.554876024E-1
9.952137080E-1,3.585943878E-1,5.145223141E-1,-1.452753246E-1,6.437608768E-1
9.977012600E-1,3.490070105E-1,5.091960430E-1,-1.346226931E-1,6.318304939E-1
1.000188812E0,3.394196332E-1,5.028044581E-1,-1.239700541E-1,6.191821903E-1
1.002676364E0,3.298322558E-1,4.964128435E-1,-1.154479459E-1,6.070776362E-1
1.005163916E0,3.202448785E-1,4.878907502E-1,-1.058605760E-1,5.931278344E-1
1.007651468E0,3.117227852E-1,4.793686271E-1,-9.840372950E-2,5.802143306E-1
1.010139021E0,3.042659163E-1,4.697812796E-1,-9.094688296E-2,5.670480879E-1
1.012626573E0,2.968090773E-1,4.591286182E-1,-8.455529809E-2,5.532127212E-1
1.015114125E0,2.893522382E-1,4.484759867E-1,-7.709845901E-2,5.392583804E-1
1.017601677E0,2.829606533E-1,4.378233552E-1,-7.177213579E-2,5.262197841E-1
1.020089229E0,2.776343226E-1,4.271707237E-1,-6.751108170E-2,5.139196342E-1
1.022576781E0,2.723080218E-1,4.165180922E-1,-6.431528926E-2,5.017722952E-1
1.025064333E0,2.680469751E-1,4.058654606E-1,-6.325002760E-2,4.904860029E-1
1.027551885E0,2.627206445E-1,3.941475451E-1,-6.325002760E-2,4.778859595E-1
1.030039437E0,2.595248520E-1,3.824296594E-1,-6.431528926E-2,4.666283849E-1
1.032526989E0,2.541985512E-1,3.707117438E-1,-6.644582003E-2,4.543777585E-1
1.035014541E0,2.499374747E-1,3.579285741E-1,-6.751108170E-2,4.417457997E-1
1.037502093E0,2.456764281E-1,3.462106884E-1,-6.644582003E-2,4.296903479E-1
1.039989646E0,2.414153665E-1,3.334275186E-1,-6.644582003E-2,4.169776209E-1
1.042477198E0,2.371543199E-1,3.206443489E-1,-6.644582003E-2,4.043142551E-1
1.044964750E0,2.328932583E-1,3.078611791E-1,-6.431528926E-2,3.913492453E-1
1.047452302E0,2.286322117E-1,2.961432934E-1,-6.218476593E-2,3.792630796E-1
1.049939854E0,2.243711501E-1,2.844253778E-1,-6.005423889E-2,3.672148148E-1
1.052427406E0,2.201101035E-1,2.737727463E-1,-5.685844645E-2,3.558551071E-1
1.054914958E0,2.147837877E-1,2.631201148E-1,-5.259739235E-2,3.437015507E-1
1.057402510E0,2.094574571E-1,2.514022291E-1,-4.833633825E-2,3.307747099E-1
1.059890062E0,2.041311413E-1,2.386190593E-1,-4.407528415E-2,3.170981063E-1
1.062377614E0,1.977395564E-1,2.258358896E-1,-3.981423005E-2,3.028001884E-1
1.064865166E0,1.913479865E-1,2.109221965E-1,-3.448791057E-2,2.868651964E-1
1.067352718E0,1.860216707E-1,1.960085034E-1,-3.022685647E-2,2.719136963E-1
1.069840271E0,1.806953400E-1,1.810948253E-1,-2.596580051E-2,2.571388039E-1
1.072327823E0,1.753690243E-1,1.651158631E-1,-2.277000993E-2,2.419421755E-1
1.074815375E0,1.700427085E-1,1.502021700E-1,-1.957421936E-2,2.277243172E-1
1.077302927E0,1.657816470E-1,1.363537461E-1,-1.637842879E-2,2.152769181E-1
1.079790479E0,1.615206003E-1,1.246358454E-1,-1.211737376E-2,2.043766842E-1
1.082278031E0,1.572595388E-1,1.139832065E-1,-6.791055668E-3,1.943421013E-1
1.084765583E0,1.508679688E-1,1.001347825E-1,1.731053460E-3,1.810831721E-1
1.087253135E0,1.444763839E-1,8.628635854E-2,1.025316212E-2,1.685938567E-1
1.089740687E0,1.380847991E-1,6.817687303E-2,2.090579830E-2,1.554109074E-1
1.092228239E0,1.316932142E-1,4.900212586E-2,3.155843541E-2,1.440147418E-1
1.094715791E0,1.274321675E-1,2.769685537E-2,4.114580899E-2,1.367444723E-1
1.097203343E0,1.242363751E-1,6.391582079E-3,5.073318258E-2,1.343479997E-1
1.099690896E0,1.231711060E-1,-1.597895473E-2,5.925529078E-2,1.376140902E-1
1.102178448E0,1.231711060E-1,-3.621896356E-2,6.777740270E-2,1.451782042E-1
1.104666000E0,1.274321675E-1,-5.326318368E-2,7.416898012E-2,1.567704107E-1
1.107153552E0,1.327584833E-1,-6.817687303E-2,7.843003422E-2,1.685946950E-1
1.109641104E0,1.402153224E-1,-8.096003532E-2,8.375635743E-2,1.822909525E-1
1.112129021E0,1.487374306E-1,-9.054741263E-2,8.695214242E-2,1.946338415E-1
1.114616364E0,1.572595388E-1,-9.906952083E-2,9.014793485E-2,2.065719793E-1
1.117103708E0,1.657816470E-1,-1.065263674E-1,9.334372729E-2,2.180469510E-1
1.119591052E0,1.743037701E-1,-1.161137372E-1,9.440898895E-2,2.297330221E-1
1.122078396E0,1.817606091E-1,-1.235705838E-1,9.547425061E-2,2.396287561E-1
1.124565739E0,1.902827173E-1,-1.299621612E-1,9.547425061E-2,2.494253564E-1
1.127053083E0,1.998700947E-1,-1.342232227E-1,9.440898895E-2,2.586058496E-1
1.129540479E0,2.105227262E-1,-1.374190152E-1,9.121319652E-2,2.674390607E-1
1.132027927E0,2.222406268E-1,-1.395495385E-1,8.482161909E-2,2.757891894E-1
1.134515427E0,2.339585274E-1,-1.395495385E-1,7.736477256E-2,2.831889374E-1
1.137002979E0,2.456764281E-1,-1.374190152E-1,6.458161026E-2,2.888107987E-1
1.139490583E0,2.584595978E-1,-1.352884769E-1,5.073318258E-2,2.961050346E-1
1.141978239E0,2.701774836E-1,-1.320926845E-1,3.155843541E-2,3.023909469E-1
1.144465896E0,2.808301151E-1,-1.299621612E-1,1.025316212E-2,3.096140246E-1
1.146953552E0,2.925480306E-1,-1.257011145E-1,-1.318263728E-2,3.186830751E-1
1.149441208E0,3.042659163E-1,-1.225053221E-1,-3.874896467E-2,3.302828849E-1
1.151928864E0,3.181143403E-1,-1.182442605E-1,-6.644582003E-2,3.458229108E-1
1.154416521E0,3.330280483E-1,-1.118526831E-1,-9.414267540E-2,3.637053024E-1
1.156904177E0,3.500722647E-1,-1.043958366E-1,-1.207742617E-1,3.847538219E-1
1.159391833E0,3.692470193E-1,-9.374319762E-2,-1.474058628E-1,4.084845612E-1
1.161879489E0,3.894870281E-1,-8.202529699E-2,-1.740374416E-1,4.344160742E-1
1.164367146E0,4.097270370E-1,-6.924213469E-2,-2.006690353E-1,4.614529009E-1
1.166854802E0,4.310323000E-1,-5.539371073E-2,-2.262353599E-1,4.899385113E-1
1.169342458E0,4.523375630E-1,-4.154528305E-2,-2.507364154E-1,5.188487559E-1
1.171830635E0,4.704470634E-1,-2.556632832E-2,-2.741722167E-1,5.451096046E-1
1.174317718E0,4.874912798E-1,-1.171789970E-2,-2.965427637E-1,5.707211822E-1
1.176804802E0,5.024049878E-1,-0.000000000E0,-3.178480268E-1,5.945066357E-1
1.179291885E0,5.173186660E-1,1.065263618E-2,-3.359575272E-1,6.169275005E-1
1.181779021E0,5.311670899E-1,1.917474531E-2,-3.498059511E-1,6.362942336E-1
1.184266208E0,5.418196917E-1,2.450106293E-2,-3.615238369E-1,6.518192732E-1
1.186753448E0,5.514070988E-1,2.663159184E-2,-3.700459599E-1,6.645999118E-1
1.189240739E0,5.599291921E-1,2.663159184E-2,-3.732417524E-1,6.734533002E-1
1.191728135E0,5.663207769E-1,2.663159184E-2,-3.732417524E-1,6.787767452E-1
1.194215635E0,5.673860312E-1,2.450106293E-2,-3.689807057E-1,6.772547317E-1
1.196703239E0,5.673860312E-1,2.237053588E-2,-3.615238369E-1,6.731469630E-1
1.199190896E0,5.620597005E-1,2.024000883E-2,-3.519364893E-1,6.634606676E-1
1.201678604E0,5.546028614E-1,2.130527236E-2,-3.402185738E-1,6.509891907E-1
1.204166364E0,5.450155139E-1,2.343579940E-2,-3.274354041E-1,6.362429496E-1
1.206654177E0,5.322323442E-1,2.769685537E-2,-3.135869801E-1,6.183649230E-1
1.209142041E0,5.173186660E-1,3.302317113E-2,-2.976080179E-1,5.977287548E-1
1.211629906E0,4.981439114E-1,4.048001766E-2,-2.816290855E-1,5.736731910E-1
1.214117771E0,4.800344408E-1,4.793686420E-2,-2.656501234E-1,5.507276961E-1
1.216605635E0,4.587291479E-1,5.752423778E-2,-2.486059070E-1,5.249251052E-1
1.219093500E0,4.395544231E-1,6.924213469E-2,-2.326269448E-1,5.021133931E-1
1.221581312E0,4.182491302E-1,8.096003532E-2,-2.177132517E-1,4.784202360E-1
1.224068864E0,3.969438672E-1,9.480846673E-2,-2.017343044E-1,4.552469755E-1
1.226556416E0,3.756386042E-1,1.086568907E-1,-1.868206114E-1,4.333735359E-1
1.229043968E0,3.543333113E-1,1.214400530E-1,-1.719069183E-1,4.121307687E-1
1.231531521E0,3.340933025E-1,1.342232227E-1,-1.569932252E-1,3.927863046E-1
1.234019073E0,3.149185777E-1,1.438105851E-1,-1.420795321E-1,3.742215766E-1
1.236506625E0,2.989396155E-1,1.512674391E-1,-1.261005849E-1,3.579777777E-1
1.238994177E0,2.850911915E-1,1.576590240E-1,-1.090563685E-1,3.435500645E-1
1.241481729E0,2.733732760E-1,1.629853398E-1,-9.094688296E-2,3.310113359E-1
1.243969281E0,2.637858987E-1,1.672463864E-1,-7.390266657E-2,3.209609918E-1
1.246456833E0,2.552638054E-1,1.715074480E-1,-5.898897350E-2,3.131359354E-1
1.248944385E0,2.499374747E-1,1.768337637E-1,-4.514054582E-2,3.094779316E-1
1.251431937E0,2.446111590E-1,1.821600795E-1,-3.342264518E-2,3.068126250E-1
1.253919489E0,2.424806356E-1,1.874863952E-1,-2.490053698E-2,3.075191763E-1
1.256407041E0,2.414153665E-1,1.938779801E-1,-2.063948289E-2,3.103160302E-1
1.258894593E0,2.424806356E-1,2.002695650E-1,-1.957421936E-2,3.150998372E-1
1.261382146E0,2.446111590E-1,2.045306265E-1,-2.063948289E-2,3.195205542E-1
1.263869698E0,2.478069514E-1,2.066611499E-1,-2.383527346E-2,3.235509794E-1
1.266357250E0,2.541985512E-1,2.066611499E-1,-2.809632942E-2,3.288086647E-1
1.268844802E0,2.637858987E-1,2.045306265E-1,-3.342264518E-2,3.354591641E-1
1.271332354E0,2.765690684E-1,2.013348341E-1,-3.661843762E-2,3.440451642E-1
1.273819906E0,2.904174924E-1,1.992042959E-1,-3.874896467E-2,3.542967028E-1
1.276307458E0,3.053312004E-1,1.981390417E-1,-3.874896467E-2,3.660433089E-1
1.278795010E0,3.202448785E-1,1.981390417E-1,-3.661843762E-2,3.783606375E-1
1.281282562E0,3.351585865E-1,2.013348341E-1,-3.448791057E-2,3.925002032E-1
1.283770114E0,3.468764722E-1,2.077264041E-1,-3.022685647E-2,4.054469248E-1
1.286257666E0,3.564638495E-1,2.151832581E-1,-2.490053698E-2,4.171215019E-1
1.288745218E0,3.628554344E-1,2.247706354E-1,-1.957421936E-2,4.272810022E-1
1.291232771E0,3.649859428E-1,2.354232669E-1,-1.211737376E-2,4.344947454E-1
1.293720323E0,3.628554344E-1,2.460758984E-1,-3.595264861E-3,4.384408056E-1
1.296207875E0,3.553985953E-1,2.556632757E-1,7.057371549E-3,4.378603414E-1
1.298695427E0,3.426154256E-1,2.641853690E-1,1.877527125E-2,4.330493619E-1
1.301182979E0,3.234406710E-1,2.716422379E-1,3.262370080E-2,4.236362578E-1
1.303670531E0,2.989396155E-1,2.769685388E-1,4.647212476E-2,4.101659707E-1
1.306158083E0,2.680469751E-1,2.790990770E-1,6.032055244E-2,3.916427514E-1
1.308645635E0,2.318280041E-1,2.780338228E-1,7.097318769E-2,3.688959521E-1
1.311133187E0,1.913479865E-1,2.716422379E-1,8.056056499E-2,3.418970049E-1
1.313620739E0,1.476721764E-1,2.599243224E-1,8.801741153E-2,3.116324594E-1
1.316108291E0,1.008005738E-1,2.439453751E-1,9.227846563E-2,2.796165534E-1
1.318595843E0,5.392897129E-2,2.226400971E-1,9.440898895E-2,2.477700627E-1
1.321083396E0,7.057371549E-3,1.981390417E-1,9.440898895E-2,2.195949533E-1
1.323570948E0,-4.087949172E-2,1.715074480E-1,9.121319652E-2,1.985089035E-1
1.326058500E0,-8.562056720E-2,1.448758543E-1,8.801741153E-2,1.899130312E-1
1.328546052E0,-1.282311082E-1,1.182442605E-1,8.269108832E-2,1.930355883E-1
1.331033604E0,-1.687111259E-1,9.374319762E-2,7.629951090E-2,2.075399876E-1
1.333521156E0,-2.049300969E-1,7.243792713E-2,6.990792602E-2,2.283215189E-1
1.336008708E0,-2.358227372E-1,5.645897239E-2,6.564687192E-2,2.512160241E-1
1.338496260E0,-2.613890767E-1,4.367581010E-2,6.032055244E-2,2.717910868E-1
1.340983812E0,-2.816290855E-1,3.515370190E-2,5.392897129E-2,2.888928149E-1
1.343471364E0,-2.944122255E-1,2.769685537E-2,4.860265180E-2,2.996796491E-1
1.345958916E0,-3.029343486E-1,2.450106293E-2,4.221107066E-2,3.068408319E-1
1.348446468E0,-3.050648868E-1,2.130527236E-2,3.581948951E-2,3.078985801E-1
1.350934021E0,-3.018690944E-1,1.917474531E-2,3.475422785E-2,3.044675309E-1
1.353421573E0,-2.933469713E-1,1.917474531E-2,3.581948951E-2,2.961471800E-1
1.355909125E0,-2.794985473E-1,2.130527236E-2,4.327633604E-2,2.836303824E-1
1.358396677E0,-2.613890767E-1,2.769685537E-2,5.499423668E-2,2.685437232E-1
1.360884229E0,-2.400837988E-1,3.728422895E-2,7.097318769E-2,2.531156604E-1
1.363371781E0,-2.166479975E-1,5.006739125E-2,9.014793485E-2,2.399369681E-1
1.365859333E0,-1.932121962E-1,6.604634225E-2,1.103879437E-1,2.321175784E-1
1.368346885E0,-1.708416492E-1,8.415582776E-2,1.306279600E-1,2.309388152E-1
1.370834437E0,-1.506016403E-1,1.033305749E-1,1.498026997E-1,2.362179304E-1
1.373321989E0,-1.335574239E-1,1.235705838E-1,1.689774394E-1,2.483156251E-1
1.375809541E0,-1.207742617E-1,1.448758543E-1,1.860216707E-1,2.649141321E-1
1.378297093E0,-1.154479459E-1,1.651158631E-1,2.009353489E-1,2.845461138E-1
1.380784646E0,-1.165132076E-1,1.842906028E-1,2.137185186E-1,3.053096117E-1
1.383272198E0,-1.250353158E-1,2.013348341E-1,2.222406268E-1,3.249006645E-1
1.385759750E0,-1.399490088E-1,2.151832581E-1,2.275669426E-1,3.430397542E-1
1.388247302E0,-1.591237634E-1,2.226400971E-1,2.286322117E-1,3.565973544E-1
1.390734854E0,-1.825595498E-1,2.247706354E-1,2.254364192E-1,3.669760304E-1
1.393222406E0,-2.081258893E-1,2.205095738E-1,2.190448344E-1,3.740608205E-1
1.395709958E0,-2.368880063E-1,2.119874656E-1,2.073269337E-1,3.795247957E-1
1.398197510E0,-2.656501234E-1,1.992042959E-1,1.934785098E-1,3.842997180E-1
1.400685062E0,-2.944122255E-1,1.821600795E-1,1.774995476E-1,3.890590475E-1
1.403172614E0,-3.231743574E-1,1.619200706E-1,1.604553312E-1,3.954815898E-1
1.405660166E0,-3.508712053E-1,1.416800618E-1,1.423458606E-1,4.042847841E-1
1.408147718E0,-3.753722608E-1,1.225053221E-1,1.242363751E-1,4.139402916E-1
1.410635271E0,-3.966775537E-1,1.022653133E-1,1.061268896E-1,4.231715876E-1
1.413122823E0,-4.137217700E-1,8.309056610E-2,9.121319652E-2,4.317286097E-1
1.415610375E0,-4.275701940E-1,6.604634225E-2,7.949529588E-2,4.398839531E-1
1.418098708E0,-4.360923171E-1,5.006739125E-2,6.777740270E-2,4.441587881E-1
1.420585843E0,-4.403533638E-1,3.515370190E-2,5.819002539E-2,4.455703612E-1
1.423072979E0,-4.424838722E-1,2.237053588E-2,4.860265180E-2,4.457068945E-1
1.425560114E0,-4.424838722E-1,9.587372653E-3,4.008054361E-2,4.443988578E-1
1.428047250E0,-4.371575713E-1,-1.065263641E-3,3.262370080E-2,4.383744778E-1
1.430534437E0,-4.275701940E-1,-9.587372653E-3,2.729738131E-2,4.285479384E-1
1.433021677E0,-4.126565158E-1,-1.384842768E-2,2.729738131E-2,4.137901957E-1
1.435508968E0,-3.913512230E-1,-1.384842768E-2,3.262370080E-2,3.929527510E-1
1.437996312E0,-3.668501675E-1,-8.522109129E-3,4.540686309E-2,3.697478262E-1
1.440483760E0,-3.370227814E-1,3.195791040E-3,6.245107949E-2,3.427750072E-1
1.442971312E0,-3.050648868E-1,1.704421826E-2,8.482161909E-2,3.170958808E-1
1.445458916E0,-2.741722167E-1,3.515370190E-2,1.093226820E-1,2.972501235E-1
1.447946573E0,-2.432795912E-1,5.645897239E-2,1.348890066E-1,2.838443573E-1
1.450434281E0,-2.134522051E-1,7.882951200E-2,1.615206003E-1,2.790427210E-1
1.452922041E0,-1.889511347E-1,1.022653133E-1,1.838911325E-1,2.828014749E-1
1.455409854E0,-1.687111259E-1,1.257011145E-1,2.030658871E-1,2.924037768E-1
1.457897718E0,-1.537974328E-1,1.459411234E-1,2.169143111E-1,3.033220733E-1
1.460385583E0,-1.442100704E-1,1.597895473E-1,2.243711501E-1,3.109206600E-1
1.462873448E0,-1.378184855E-1,1.683116555E-1,2.254364192E-1,3.132799506E-1
1.465361312E0,-1.356879622E-1,1.704421788E-1,2.233058959E-1,3.119732081E-1
1.467849177E0,-1.378184855E-1,1.651158631E-1,2.169143111E-1,3.054652215E-1
1.470336989E0,-1.420795321E-1,1.555284858E-1,2.073269337E-1,2.955675232E-1
1.472824541E0,-1.495363861E-1,1.406148076E-1,1.977395564E-1,2.850168189E-1
1.475312093E0,-1.580584943E-1,1.225053221E-1,1.870869249E-1,2.738458673E-1
1.477799646E0,-1.687111259E-1,1.001347825E-1,1.743037701E-1,2.624351785E-1
1.480287198E0,-1.782985032E-1,7.563371956E-2,1.615206003E-1,2.521898493E-1
1.482774750E0,-1.878858805E-1,5.006739125E-2,1.476721764E-1,2.441616666E-1
1.485262302E0,-1.964079887E-1,2.450106293E-2,1.316932142E-1,2.377383073E-1
1.487749854E0,-2.038648278E-1,-0.000000000E0,1.167795286E-1,2.349432406E-1
1.490237406E0,-2.081258893E-1,-2.450106293E-2,1.008005738E-1,2.325455731E-1
1.492724958E0,-2.102564126E-1,-4.793686420E-2,8.482161909E-2,2.317334871E-1
1.495212510E0,-2.102564126E-1,-7.030740380E-2,6.777740270E-2,2.318289594E-1
1.497700062E0,-2.070606202E-1,-9.161267430E-2,5.179844424E-2,2.322715251E-1
1.500187614E0,-2.017343044E-1,-1.118526831E-1,3.901528195E-2,2.339443193E-1
1.502675166E0,-1.932121962E-1,-1.310274303E-1,2.729738131E-2,2.350410332E-1
1.505162718E0,-1.836248189E-1,-1.480716467E-1,1.984053478E-2,2.367212147E-1
1.507650271E0,-1.708416492E-1,-1.629853398E-1,1.664474420E-2,2.367026353E-1
1.510137823E0,-1.580584943E-1,-1.757684946E-1,1.451421715E-2,2.368284481E-1
1.512625375E0,-1.452753246E-1,-1.874863952E-1,1.771000773E-2,2.378438831E-1
1.515112927E0,-1.314269006E-1,-1.949432492E-1,2.410159074E-2,2.363404056E-1
1.517600479E0,-1.186437383E-1,-2.002695650E-1,3.475422785E-2,2.353552457E-1
1.520088031E0,-1.058605760E-1,-2.013348341E-1,4.966791719E-2,2.328284325E-1
1.522575583E0,-9.414267540E-2,-2.002695650E-1,6.777740270E-2,2.314400966E-1
1.525063135E0,-8.242477477E-2,-1.949432492E-1,8.908267319E-2,2.296354428E-1
1.527550687E0,-7.177213579E-2,-1.874863952E-1,1.125184745E-1,2.301364703E-1
1.530038239E0,-6.325002760E-2,-1.768337637E-1,1.348890066E-1,2.312267071E-1
1.532525791E0,-5.685844645E-2,-1.619200706E-1,1.593900770E-1,2.342139809E-1
1.535013343E0,-5.366265774E-2,-1.448758543E-1,1.828258783E-1,2.393616422E-1
1.537500896E0,-5.366265774E-2,-1.267663687E-1,2.041311413E-1,2.462090899E-1
1.539988448E0,-5.792371184E-2,-1.107874215E-1,2.222406268E-1,2.549900103E-1
1.542476000E0,-6.644582003E-2,-9.800425172E-2,2.382195890E-1,2.660234067E-1
1.544963552E0,-7.709845901E-2,-9.054741263E-2,2.510027587E-1,2.777505917E-1
1.547451104E0,-9.094688296E-2,-8.948214352E-2,2.605901062E-1,2.901475366E-1
1.549938656E0,-1.079910994E-1,-9.267793596E-2,2.648511827E-1,3.006616476E-1
1.552426208E0,-1.271658540E-1,-1.033305749E-1,2.669816911E-1,3.132532291E-1
1.554913760E0,-1.484711170E-1,-1.171789989E-1,2.637858987E-1,3.245883404E-1
1.557401312E0,-1.708416492E-1,-1.342232227E-1,2.563290596E-1,3.360168588E-1
1.559888864E0,-1.910816729E-1,-1.544632316E-1,2.446111590E-1,3.467069580E-1
1.562376416E0,-2.102564126E-1,-1.757684946E-1,2.296974659E-1,3.575797094E-1
1.564863968E0,-2.251701057E-1,-1.970737725E-1,2.115879953E-1,3.664820979E-1
1.567351521E0,-2.358227372E-1,-2.173137814E-1,1.913479865E-1,3.734323163E-1
1.569839073E0,-2.422143221E-1,-2.364885211E-1,1.689774394E-1,3.783490101E-1
1.572326625E0,-2.443448454E-1,-2.524674833E-1,1.444763839E-1,3.798916413E-1
1.574814177E0,-2.422143221E-1,-2.652506530E-1,1.189100519E-1,3.783718901E-1
1.577301729E0,-2.336922139E-1,-2.759032845E-1,9.227846563E-2,3.731621477E-1
1.579789281E0,-2.187785208E-1,-2.833601236E-1,6.671213359E-2,3.641531403E-1
1.582276833E0,-1.974732429E-1,-2.876211703E-1,4.434159771E-2,3.516927587E-1
1.584764385E0,-1.719069183E-1,-2.897517085E-1,2.623211779E-2,3.379292310E-1
1.587251937E0,-1.410142779E-1,-2.886864543E-1,1.344895363E-2,3.215676753E-1
1.589739489E0,-1.079910994E-1,-2.844253778E-1,3.861580743E-3,3.042610473E-1
1.592227041E0,-7.390266657E-2,-2.769685388E-1,-3.994738800E-4,2.866589178E-1
1.594714593E0,-4.087949172E-2,-2.705769539E-1,-1.464737463E-3,2.736515417E-1
1.597202146E0,-9.986846708E-3,-2.609896064E-1,6.657897611E-4,2.611814600E-1
1.599689698E0,1.451421715E-2,-2.524674833E-1,8.122635074E-3,2.530147620E-1
1.602177250E0,3.581948951E-2,-2.418148518E-1,1.771000773E-2,2.450940692E-1
1.604664802E0,5.179844424E-2,-2.311622053E-1,3.155843541E-2,2.389874031E-1
1.607152354E0,6.351634115E-2,-2.183790505E-1,4.753739014E-2,2.323435791E-1
1.609639906E0,6.884266436E-2,-2.045306265E-1,6.671213359E-2,2.258818240E-1
1.612127458E0,6.990792602E-2,-1.885516644E-1,8.695214242E-2,2.190879351E-1
1.614615010E0,6.458161026E-2,-1.725727171E-1,1.071921512E-1,2.131719596E-1
1.617102562E0,5.499423668E-2,-1.587242782E-1,1.253016293E-1,2.095668411E-1
1.619590114E0,3.901528195E-2,-1.491369158E-1,1.423458606E-1,2.098245837E-1
1.622077666E0,1.984053478E-2,-1.427453309E-1,1.540637612E-1,2.109633116E-1
1.624565218E0,-3.595264861E-3,-1.416800618E-1,1.625858694E-1,2.156857223E-1
1.627052771E0,-2.809632942E-2,-1.470063776E-1,1.657816470E-1,2.233468899E-1
1.629540323E0,-5.472791940E-2,-1.555284858E-1,1.668469161E-1,2.345680039E-1
1.632027875E0,-8.029424399E-2,-1.683116555E-1,1.636511236E-1,2.481081806E-1
1.634515427E0,-1.047953144E-1,-1.853558719E-1,1.593900770E-1,2.659775438E-1
1.637002979E0,-1.261005849E-1,-2.045306265E-1,1.519332230E-1,2.842847849E-1
1.639490531E0,-1.431448013E-1,-2.237053663E-1,1.444763839E-1,3.023374779E-1
1.641978083E0,-1.527321786E-1,-2.439453751E-1,1.370195299E-1,3.187645149E-1
1.644465635E0,-1.559279710E-1,-2.620548606E-1,1.306279600E-1,3.317377670E-1
1.646953187E0,-1.537974328E-1,-2.790990770E-1,1.242363751E-1,3.420301478E-1
1.649440739E0,-1.452753246E-1,-2.940127552E-1,1.189100519E-1,3.488381008E-1
1.651928291E0,-1.314269006E-1,-3.067959249E-1,1.125184745E-1,3.522175135E-1
1.654415843E0,-1.122521535E-1,-3.174485564E-1,1.061268896E-1,3.530397267E-1
1.656903396E0,-8.775109053E-2,-3.249054253E-1,9.867004305E-2,3.507129406E-1
1.659390948E0,-5.792371184E-2,-3.291664720E-1,8.908267319E-2,3.458922452E-1
1.661878500E0,-2.383527346E-2,-3.312969804E-1,8.162582666E-2,3.420359412E-1
1.664366052E0,1.451421715E-2,-3.323622644E-1,7.523424178E-2,3.410799443E-1
1.666853604E0,5.712476373E-2,-3.344927728E-1,7.097318769E-2,3.466783049E-1
1.669341156E0,1.029310971E-1,-3.355580568E-1,6.990792602E-2,3.578842528E-1
1.671829489E0,1.519332230E-1,-3.366233110E-1,7.203845680E-2,3.762824698E-1
1.674316729E0,2.009353489E-1,-3.376885653E-1,7.736477256E-2,4.004920593E-1
1.676803968E0,2.488722205E-1,-3.376885653E-1,8.482161909E-2,4.279785699E-1
1.679291208E0,2.936132848E-1,-3.387538493E-1,9.440898895E-2,4.581222420E-1
1.681778448E0,3.351585865E-1,-3.387538493E-1,1.029310971E-1,4.875246243E-1
1.684265687E0,3.724428117E-1,-3.376885653E-1,1.114532053E-1,5.149456594E-1
1.686752979E0,4.044007063E-1,-3.344927728E-1,1.199753210E-1,5.383487940E-1
1.689240323E0,4.342280924E-1,-3.291664720E-1,1.295626909E-1,5.600813275E-1
1.691727718E0,4.597944319E-1,-3.185138404E-1,1.380847991E-1,5.761331425E-1
1.694215166E0,4.810996950E-1,-3.046653867E-1,1.466069072E-1,5.880233835E-1
1.696702666E0,4.992091656E-1,-2.865559161E-1,1.551290154E-1,5.961451966E-1
1.699190218E0,5.119923353E-1,-2.673811615E-1,1.636511236E-1,6.003420085E-1
1.701677823E0,5.194491744E-1,-2.460758984E-1,1.700427085E-1,5.994124751E-1
1.704165479E0,5.215796828E-1,-2.279664129E-1,1.764342934E-1,5.959388482E-1
1.706653187E0,5.173186660E-1,-2.141179889E-1,1.817606091E-1,5.886442342E-1
1.709140948E0,5.066660047E-1,-2.045306265E-1,1.828258783E-1,5.761670932E-1
1.711628760E0,4.896217883E-1,-2.013348341E-1,1.817606091E-1,5.597339815E-1
1.714116573E0,4.683165252E-1,-2.045306265E-1,1.785648167E-1,5.413303416E-1
1.716604385E0,4.416849315E-1,-2.130527347E-1,1.743037701E-1,5.204410156E-1
1.719092198E0,4.118575454E-1,-2.237053663E-1,1.679121852E-1,4.978606537E-1
1.721580010E0,3.788343966E-1,-2.375537902E-1,1.615206003E-1,4.754326531E-1
1.724067823E0,3.447459340E-1,-2.524674833E-1,1.551290154E-1,4.545927854E-1
1.726555427E0,3.106575012E-1,-2.684464455E-1,1.476721764E-1,4.363240182E-1
1.729042979E0,2.755038142E-1,-2.833601236E-1,1.380847991E-1,4.186439096E-1
1.731530531E0,2.403501123E-1,-2.993390858E-1,1.274321675E-1,4.044885933E-1
1.734018083E0,2.073269337E-1,-3.163833022E-1,1.157142594E-1,3.955662286E-1
1.736505635E0,1.764342934E-1,-3.323622644E-1,1.008005738E-1,3.895567871E-1
1.738993187E0,1.487374306E-1,-3.494064808E-1,8.375635743E-2,3.888738092E-1
1.741480739E0,1.253016293E-1,-3.675159514E-1,6.564687192E-2,3.937994218E-1
1.743968291E0,1.061268896E-1,-3.834949136E-1,4.647212476E-2,4.006131848E-1
1.746455843E0,9.547425061E-2,-4.005391300E-1,2.836264484E-2,4.127364374E-1
1.748943396E0,9.121319652E-2,-4.143875539E-1,1.025316212E-2,4.244314072E-1
1.751430948E0,9.547425061E-2,-4.261054695E-1,-6.791055668E-3,4.367233931E-1
1.753918500E0,1.050616279E-1,-4.335623085E-1,-2.490053698E-2,4.468044962E-1
1.756406052E0,1.221058443E-1,-4.367581010E-1,-4.514054582E-2,4.557467991E-1
1.758893604E0,1.455416381E-1,-4.367581010E-1,-6.431528926E-2,4.648402560E-1
1.761381156E0,1.732385010E-1,-4.314317703E-1,-8.242477477E-2,4.721639484E-1
1.763868708E0,2.073269337E-1,-4.218443930E-1,-9.840372950E-2,4.802295736E-1
1.766356260E0,2.446111590E-1,-4.079959691E-1,-1.133174226E-1,4.890155091E-1
1.768843812E0,2.861564457E-1,-3.909517527E-1,-1.239700541E-1,5.000973492E-1
1.771331364E0,3.287670016E-1,-3.717769980E-1,-1.282311082E-1,5.125905722E-1
1.773818916E0,3.724428117E-1,-3.515369892E-1,-1.271658540E-1,5.276959894E-1
1.776306468E0,4.171838760E-1,-3.302317262E-1,-1.186437383E-1,5.451345853E-1
1.778794021E0,4.608596861E-1,-3.089264631E-1,-1.058605760E-1,5.648306574E-1
1.781281573E0,5.013396740E-1,-2.886864543E-1,-8.668582886E-2,5.849750170E-1
1.783769125E0,5.364934206E-1,-2.695116997E-1,-6.325002760E-2,6.037071414E-1
1.786256677E0,5.663207769E-1,-2.524674833E-1,-3.874896467E-2,6.212572211E-1
1.788744229E0,5.865607858E-1,-2.386190593E-1,-1.424790081E-2,6.334000423E-1
1.791231781E0,5.993439555E-1,-2.290316820E-1,8.122635074E-3,6.416655403E-1
1.793719333E0,6.046702862E-1,-2.237053663E-1,2.729738131E-2,6.453025592E-1
1.796206885E0,6.025397182E-1,-2.226400971E-1,4.221107066E-2,6.437425722E-1
1.798694437E0,5.929523706E-1,-2.226400971E-1,5.179844424E-2,6.354873764E-1
1.801181989E0,5.780386925E-1,-2.279664129E-1,5.605949834E-2,6.238910825E-1
1.803669541E0,5.577986836E-1,-2.364885211E-1,5.392897129E-2,6.082553132E-1
1.806157093E0,5.354281664E-1,-2.492716908E-1,4.434159771E-2,5.922717911E-1
1.808644646E0,5.109270811E-1,-2.641853690E-1,2.942790836E-2,5.759395743E-1
1.811132198E0,4.864259958E-1,-2.833601236E-1,9.187898599E-3,5.630165420E-1
1.813619750E0,4.640554786E-1,-3.036001325E-1,-1.531316526E-2,5.547567220E-1
1.816107302E0,4.438154697E-1,-3.238401413E-1,-4.301001877E-2,5.510848120E-1
1.818594854E0,4.299670458E-1,-3.430148959E-1,-7.390266657E-2,5.549707050E-1
1.821082406E0,4.193144143E-1,-3.600591123E-1,-1.069258377E-1,5.629389640E-1
1.823569958E0,4.161186218E-1,-3.717769980E-1,-1.388837546E-1,5.750317739E-1
1.826057510E0,4.203796685E-1,-3.802991211E-1,-1.687111259E-1,5.914473190E-1
1.828545062E0,4.310323000E-1,-3.845601678E-1,-1.942774504E-1,6.094416248E-1
1.831032614E0,4.470112622E-1,-3.866907060E-1,-2.166479975E-1,6.295118152E-1
1.833520166E0,4.683165252E-1,-3.845601678E-1,-2.336922139E-1,6.494758974E-1
1.836007718E0,4.938828647E-1,-3.802991211E-1,-2.464753687E-1,6.702968096E-1
1.838495271E0,5.237102509E-1,-3.717769980E-1,-2.549974918E-1,6.910240835E-1
1.840982823E0,5.535376072E-1,-3.611243665E-1,-2.592585385E-1,7.099504775E-1
1.843470375E0,5.854955316E-1,-3.472759426E-1,-2.603237927E-1,7.288169007E-1
1.845957927E0,6.174534559E-1,-3.312969804E-1,-2.581932843E-1,7.467732129E-1
1.848445479E0,6.472808123E-1,-3.131875098E-1,-2.507364154E-1,7.615297868E-1
1.850933031E0,6.749776602E-1,-2.940127552E-1,-2.400837988E-1,7.743891608E-1
1.853420583E0,6.973482370E-1,-2.737727463E-1,-2.273006290E-1,7.828867455E-1
1.855908135E0,7.143924236E-1,-2.524674833E-1,-2.102564126E-1,7.863231677E-1
1.858395687E0,7.261103392E-1,-2.322274745E-1,-1.900164038E-1,7.856666330E-1
1.860883239E0,7.314366698E-1,-2.119874656E-1,-1.676458716E-1,7.797713933E-1
1.863370791E0,7.303713560E-1,-1.906821877E-1,-1.431448013E-1,7.683049190E-1
1.865858343E0,7.229145169E-1,-1.715074480E-1,-1.186437383E-1,7.523938730E-1
1.868345896E0,7.090660930E-1,-1.544632316E-1,-9.414267540E-2,7.317762345E-1
1.870833448E0,6.898913383E-1,-1.395495385E-1,-7.070687413E-2,7.074062443E-1
1.873321000E0,6.653903127E-1,-1.278316379E-1,-4.833633825E-2,6.792802054E-1
1.875808552E0,6.366282105E-1,-1.193095297E-1,-2.916159295E-2,6.483676741E-1
1.878296104E0,6.046702862E-1,-1.139832065E-1,-1.211737376E-2,6.154389954E-1
1.880783656E0,5.705818534E-1,-1.139832065E-1,2.796316985E-3,5.818622192E-1
1.883271208E0,5.343628526E-1,-1.161137372E-1,1.451421715E-2,5.470253382E-1
1.885758760E0,4.992091656E-1,-1.203747913E-1,2.303632535E-2,5.140336114E-1
1.888246312E0,4.651207328E-1,-1.257011145E-1,2.942790836E-2,4.827049493E-1
1.890733864E0,4.331628382E-1,-1.310274303E-1,3.368896246E-2,4.537986096E-1
1.893221416E0,4.044007063E-1,-1.352884769E-1,3.581948951E-2,4.279321664E-1
1.895708968E0,3.788343966E-1,-1.363537461E-1,3.475422785E-2,4.041233728E-1
1.898196521E0,3.585943878E-1,-1.374190152E-1,3.049317189E-2,3.852320784E-1
1.900684073E0,3.436806798E-1,-1.352884769E-1,2.303632535E-2,3.700676343E-1
1.903171625E0,3.351585865E-1,-1.320926845E-1,1.131842658E-2,3.604273327E-1
1.905659177E0,3.319627941E-1,-1.267663687E-1,-1.464737463E-3,3.553465271E-1
1.908146729E0,3.340933025E-1,-1.225053221E-1,-1.957421936E-2,3.563832751E-1
1.910634281E0,3.404848874E-1,-1.161137372E-1,-3.874896467E-2,3.618201774E-1
1.913121833E0,3.511375189E-1,-1.107874215E-1,-5.898897350E-2,3.728955737E-1
1.915609385E0,3.639206886E-1,-1.043958366E-1,-8.135951310E-2,3.872416929E-1
1.918097823E0,3.809649050E-1,-9.906952083E-2,-1.026647836E-1,4.068034988E-1
1.920585010E0,4.001396596E-1,-9.374319762E-2,-1.239700541E-1,4.292646138E-1
1.923072198E0,4.193144143E-1,-8.735162020E-2,-1.431448013E-1,4.516030532E-1
1.925559385E0,4.374238849E-1,-7.989477366E-2,-1.601890177E-1,4.726344796E-1
1.928046573E0,4.544681013E-1,-7.137266546E-2,-1.729721874E-1,4.914821360E-1
1.930533812E0,4.693817794E-1,-6.285055727E-2,-1.814942956E-1,5.071583843E-1
1.933021104E0,4.800344408E-1,-5.219791830E-2,-1.878858805E-1,5.181300909E-1
1.935508448E0,4.853607416E-1,-3.941475600E-2,-1.910816729E-1,5.231068516E-1
1.937995843E0,4.853607416E-1,-2.556632832E-2,-1.910816729E-1,5.222460075E-1
1.940483291E0,4.810996950E-1,-1.065263618E-2,-1.878858805E-1,5.165960697E-1
1.942970791E0,4.693817794E-1,5.326318089E-3,-1.804290265E-1,5.028938836E-1
1.945458343E0,4.534028471E-1,2.130527236E-2,-1.708416492E-1,4.849896137E-1
1.947945948E0,4.331628382E-1,3.834949061E-2,-1.601890177E-1,4.634234017E-1
1.950433604E0,4.075964987E-1,5.645897239E-2,-1.495363861E-1,4.378169162E-1
1.952921312E0,3.788343966E-1,7.350318879E-2,-1.410142779E-1,4.108567212E-1
1.955409073E0,3.468764722E-1,9.054741263E-2,-1.335574239E-1,3.825698713E-1
1.957896885E0,3.117227852E-1,1.075916290E-1,-1.292963773E-1,3.542098342E-1
1.960384750E0,2.755038142E-1,1.235705838E-1,-1.303616315E-1,3.288862961E-1
1.962872614E0,2.392848432E-1,1.374190152E-1,-1.346226931E-1,3.070252293E-1
1.965360479E0,2.009353489E-1,1.491369158E-1,-1.463405937E-1,2.898834308E-1
1.967848343E0,1.647163928E-1,1.587242782E-1,-1.633848101E-1,2.811040425E-1
1.970336208E0,1.295626909E-1,1.640505940E-1,-1.878858805E-1,2.810697286E-1
1.972823760E0,9.760478139E-2,1.651158631E-1,-2.155827284E-1,2.885582339E-1
1.975311312E0,6.884266436E-2,1.619200706E-1,-2.486059070E-1,3.045690705E-1
1.977798864E0,4.540686309E-2,1.544632316E-1,-2.816290855E-1,3.244003929E-1
1.980286416E0,2.623211779E-2,1.416800618E-1,-3.167827725E-1,3.480124838E-1
1.982773968E0,1.131842658E-2,1.257011145E-1,-3.519364893E-1,3.738825611E-1
1.985261521E0,1.731053460E-3,1.065263674E-1,-3.849596381E-1,3.994305778E-1
1.987749073E0,-3.595264861E-3,8.522108942E-2,-4.169175625E-1,4.255535383E-1
1.990236625E0,-4.660528619E-3,6.498108059E-2,-4.467449486E-1,4.514701657E-1
1.992724177E0,-3.994738800E-4,4.687159881E-2,-4.712460041E-1,4.735714336E-1
1.995211729E0,8.122635074E-3,3.089264594E-2,-4.904207587E-1,4.914599204E-1
1.997699281E0,1.984053478E-2,1.917474531E-2,-5.010733604E-1,5.018324723E-1
2.000186833E0,3.688475490E-2,1.597895473E-2,-5.010733604E-1,5.026831255E-1
2.002674385E0,5.392897129E-2,1.917474531E-2,-4.904207587E-1,4.937494561E-1
2.005161937E0,6.884266436E-2,3.089264594E-2,-4.669849575E-1,4.730418782E-1
2.007649489E0,8.162582666E-2,5.219791830E-2,-4.328965247E-1,4.436065817E-1
2.010137041E0,9.014793485E-2,7.989477366E-2,-3.902859688E-1,4.084519096E-1
2.012624593E0,9.121319652E-2,1.129179448E-1,-3.423491120E-1,3.718510777E-1
2.015112146E0,8.482161909E-2,1.491369158E-1,-2.912164330E-1,3.379993160E-1
2.017599698E0,7.203845680E-2,1.864211410E-1,-2.432795912E-1,3.148449469E-1
2.020087250E0,5.286370963E-2,2.215748429E-1,-2.006690353E-1,3.035754347E-1
2.022574802E0,2.942790836E-2,2.545980215E-1,-1.655153334E-1,3.050925760E-1
2.025062354E0,2.796316985E-3,2.801643312E-1,-1.378184855E-1,3.122399827E-1
2.027549906E0,-2.703106403E-2,3.004043400E-1,-1.218395308E-1,3.252972751E-1
2.030037458E0,-5.792371184E-2,3.110569715E-1,-1.154479459E-1,3.368082899E-1
2.032525010E0,-8.775109053E-2,3.142527640E-1,-1.207742617E-1,3.479101548E-1
2.035012562E0,-1.154479459E-1,3.078611791E-1,-1.356879622E-1,3.556936279E-1
2.037500114E0,-1.388837546E-1,2.929475009E-1,-1.612542868E-1,3.620909839E-1
2.039987666E0,-1.580584943E-1,2.727074921E-1,-1.974732429E-1,3.719509988E-1
2.042475218E0,-1.687111259E-1,2.471411675E-1,-2.411490530E-1,3.843111583E-1
2.044962771E0,-1.719069183E-1,2.173137814E-1,-2.922817171E-1,4.027478991E-1
2.047450323E0,-1.655153334E-1,1.853558719E-1,-3.476754129E-1,4.273526852E-1
2.049937875E0,-1.506016403E-1,1.502021700E-1,-4.030691385E-1,4.557480405E-1
2.052425427E0,-1.261005849E-1,1.150484756E-1,-4.573975801E-1,4.882110768E-1
2.054912979E0,-9.414267540E-2,7.882951200E-2,-5.053344369E-1,5.200382951E-1
2.057400531E0,-5.792371184E-2,4.687159881E-2,-5.447492003E-1,5.498216024E-1
2.059888083E0,-1.957421936E-2,2.024000883E-2,-5.745765567E-1,5.752660493E-1
2.062375635E0,1.771000773E-2,-0.000000000E0,-5.916208029E-1,5.918858157E-1
2.064863187E0,5.286370963E-2,-1.384842768E-2,-5.969471335E-1,5.994432675E-1
2.067350739E0,8.269108832E-2,-1.917474531E-2,-5.916208029E-1,5.976793968E-1
2.069838291E0,1.071921512E-1,-1.704421826E-2,-5.767071247E-1,5.868319780E-1
2.072325843E0,1.242363751E-1,-9.587372653E-3,-5.543365479E-1,5.681686395E-1
2.074813396E0,1.327584833E-1,1.065263641E-3,-5.255744457E-1,5.420834324E-1
2.077300948E0,1.338237375E-1,1.278316416E-2,-4.904207587E-1,5.085122640E-1
2.079788500E0,1.242363751E-1,2.556632832E-2,-4.510059953E-1,4.685026380E-1
2.082276052E0,1.082574204E-1,3.621896356E-2,-4.094607234E-1,4.250759537E-1
2.084763604E0,8.375635743E-2,4.687159881E-2,-3.679154217E-1,3.802286572E-1
2.087251156E0,5.392897129E-2,5.752423778E-2,-3.285006881E-1,3.378314283E-1
2.089738708E0,1.984053478E-2,6.711161137E-2,-2.954775095E-1,3.036520605E-1
2.092226260E0,-1.637842879E-2,7.456845790E-2,-2.699111700E-1,2.805008869E-1
2.094713812E0,-5.259739235E-2,8.096003532E-2,-2.518016994E-1,2.696759330E-1
2.097201364E0,-8.349003643E-2,8.415582776E-2,-2.443448454E-1,2.715827554E-1
2.099688916E0,-1.090563685E-1,8.309056610E-2,-2.475406379E-1,2.829729688E-1
2.102176468E0,-1.250353158E-1,7.882951200E-2,-2.613890767E-1,3.002868155E-1
2.104664021E0,-1.282311082E-1,7.030740380E-2,-2.826943398E-1,3.182804390E-1
2.107151573E0,-1.207742617E-1,5.965476483E-2,-3.103911877E-1,3.383604626E-1
2.109639125E0,-9.946899116E-2,4.900212586E-2,-3.444796205E-1,3.618860283E-1
2.112126677E0,-6.431528926E-2,3.834949061E-2,-3.806985915E-1,3.879929863E-1
2.114614229E0,-1.637842879E-2,2.982738242E-2,-4.211786091E-1,4.225509987E-1
2.117101781E0,4.327633604E-2,2.343579940E-2,-4.637891650E-1,4.663930398E-1
2.119589333E0,1.146489978E-1,2.130527236E-2,-5.063996911E-1,5.196527249E-1
2.122076885E0,1.934785098E-1,2.130527236E-2,-5.490102768E-1,5.824947488E-1
2.124564437E0,2.776343226E-1,2.343579940E-2,-5.894902945E-1,6.520190650E-1
2.127051989E0,3.660512269E-1,2.450106293E-2,-6.257092357E-1,7.253315451E-1
2.129539541E0,4.565986395E-1,2.450106293E-2,-6.555365920E-1,7.992564314E-1
2.132027093E0,5.460807681E-1,2.237053588E-2,-6.789724231E-1,8.716124124E-1
2.134514646E0,6.313018799E-1,1.704421826E-2,-6.949513555E-1,9.390367167E-1
2.137002198E0,7.122619152E-1,8.522109129E-3,-7.034734488E-1,1.001131637E0
2.139489750E0,7.836345434E-1,-3.195791040E-3,-7.013429403E-1,1.051653570E0
2.141977302E0,8.432893157E-1,-1.491369121E-2,-6.906903386E-1,1.090143308E0
2.144464854E0,8.912261724E-1,-2.556632832E-2,-6.693850160E-1,1.114905389E0
2.146952406E0,9.242493510E-1,-3.302317113E-2,-6.395576596E-1,1.124438257E0
2.149439958E0,9.412935972E-1,-3.621896356E-2,-6.012081504E-1,1.117495722E0
2.151927510E0,9.434241056E-1,-3.515370190E-2,-5.585976243E-1,1.096957671E0
2.154415062E0,9.306409359E-1,-3.089264594E-2,-5.117260218E-1,1.062501966E0
2.156902614E0,9.040093422E-1,-2.237053588E-2,-4.616586268E-1,1.015313754E0
2.159390166E0,8.645945787E-1,-1.491369121E-2,-4.115912318E-1,9.576813384E-1
2.161877718E0,8.145272136E-1,-7.456845604E-3,-3.604585826E-1,8.907528142E-1
2.164365271E0,7.548724413E-1,-2.130527282E-3,-3.093259335E-1,8.157937698E-1
2.166852823E0,6.909566522E-1,1.065263641E-3,-2.624543309E-1,7.391241477E-1
2.169340375E0,6.238450408E-1,4.261054564E-3,-2.198437899E-1,6.614620802E-1
2.171828604E0,5.588639379E-1,6.391582079E-3,-1.836248189E-1,5.882922977E-1
2.174316052E0,4.970786572E-1,7.456845604E-3,-1.569932252E-1,5.213345075E-1
2.176803500E0,4.416849315E-1,9.587372653E-3,-1.410142779E-1,4.637483402E-1
2.179290948E0,3.969438672E-1,1.171789970E-2,-1.388837546E-1,4.207023178E-1
2.181778396E0,3.628554344E-1,1.384842768E-2,-1.506016403E-1,3.931115609E-1
2.184265843E0,3.426154256E-1,1.597895473E-2,-1.751027107E-1,3.850994886E-1
2.186753291E0,3.383543491E-1,1.917474531E-2,-2.123869359E-1,3.999494306E-1
2.189240739E0,3.511375189E-1,2.343579940E-2,-2.592585385E-1,4.371061469E-1
2.191728187E0,3.788343966E-1,2.769685537E-2,-3.135869801E-1,4.925641176E-1
2.194215635E0,4.203796685E-1,3.302317113E-2,-3.732417524E-1,5.631332002E-1
2.196703083E0,4.736428559E-1,3.941475600E-2,-4.360923171E-1,6.450330123E-1
2.199190531E0,5.364934206E-1,4.367581010E-2,-4.989428520E-1,7.339460037E-1
2.201677979E0,6.036050320E-1,4.474107176E-2,-5.596628785E-1,8.243563160E-1
2.204165479E0,6.728471518E-1,4.261054471E-2,-6.182523966E-1,9.147540511E-1
2.206653031E0,7.399587631E-1,3.621896356E-2,-6.704503298E-1,9.991768758E-1
2.209140635E0,8.006787896E-1,2.663159184E-2,-7.151913643E-1,1.073915478E0
2.211628239E0,8.539419770E-1,1.171789970E-2,-7.503450513E-1,1.136825363E0
2.214115843E0,8.976177573E-1,-6.391582079E-3,-7.716503739E-1,1.183724119E0
2.216603448E0,9.306409359E-1,-2.982738242E-2,-7.791072130E-1,1.214080011E0
2.219091052E0,9.508809447E-1,-5.752423778E-2,-7.705850601E-1,1.225269335E0
2.221578656E0,9.572725296E-1,-8.415582776E-2,-7.471492887E-1,1.217244823E0
2.224066260E0,9.487504363E-1,-1.118526831E-1,-7.066692710E-1,1.188284424E0
2.226553864E0,9.253146052E-1,-1.363537461E-1,-6.534060836E-1,1.140937760E0
2.229041468E0,8.858999014E-1,-1.533979625E-1,-5.873597264E-1,1.073937158E0
2.231529073E0,8.294408917E-1,-1.640505940E-1,-5.095955133E-1,9.872043241E-1
2.234016677E0,7.601987720E-1,-1.672463864E-1,-4.254396558E-1,8.870582999E-1
2.236504281E0,6.781734824E-1,-1.651158631E-1,-3.402185738E-1,7.764864445E-1
2.238991885E0,5.865607858E-1,-1.597895473E-1,-2.560627460E-1,6.596623263E-1
2.241479489E0,4.896217883E-1,-1.544632316E-1,-1.782985032E-1,5.434875727E-1
2.243967093E0,3.905522823E-1,-1.491369158E-1,-1.090563685E-1,4.320488357E-1
2.246454698E0,2.936132848E-1,-1.470063776E-1,-5.046686530E-2,3.322146002E-1
2.248942302E0,2.030658871E-1,-1.470063776E-1,-3.595264861E-3,2.507180797E-1
2.251429906E0,1.221058443E-1,-1.502021700E-1,3.262370080E-2,1.963029163E-1
2.253917510E0,5.286370963E-2,-1.523326933E-1,5.605949834E-2,1.707117120E-1
2.256405114E0,-3.595264861E-3,-1.555284858E-1,6.777740270E-2,1.696932884E-1
2.258892718E0,-4.514054582E-2,-1.555284858E-1,6.990792602E-2,1.763913175E-1
2.261380323E0,-6.964161247E-2,-1.523326933E-1,6.351634115E-2,1.791355052E-1
2.263867927E0,-7.709845901E-2,-1.470063776E-1,5.073318258E-2,1.735767935E-1
2.266355531E0,-6.857634336E-2,-1.384842694E-1,3.368896246E-2,1.581630612E-1
2.268843135E0,-4.407528415E-2,-1.299621612E-1,1.451421715E-2,1.379980308E-1
2.271330739E0,-6.791055668E-3,-1.182442605E-1,-5.725792143E-3,1.185774358E-1
2.273818343E0,3.901528195E-2,-1.065263674E-1,-2.277000993E-2,1.157088265E-1
2.276305948E0,9.014793485E-2,-9.374319762E-2,-3.448791057E-2,1.345505601E-1
2.278793552E0,1.434111148E-1,-7.882951200E-2,-4.087949172E-2,1.686771255E-1
2.281281104E0,1.956090331E-1,-6.178529188E-2,-3.874896467E-2,2.087625407E-1
2.283768656E0,2.414153665E-1,-4.048001766E-2,-2.596580051E-2,2.461589605E-1
2.286256208E0,2.786996067E-1,-1.597895473E-2,-3.595264861E-3,2.791804500E-1
2.288743760E0,3.042659163E-1,1.278316416E-2,2.836264484E-2,3.058522466E-1
2.291231312E0,3.191796243E-1,4.474107176E-2,6.777740270E-2,3.293496203E-1
2.293718864E0,3.191796243E-1,7.776424289E-2,1.093226820E-1,3.462287667E-1
2.296206416E0,3.063964546E-1,1.075916290E-1,1.498026997E-1,3.576249360E-1
2.298693968E0,2.829606533E-1,1.331579536E-1,1.902827173E-1,3.660673223E-1
2.301181521E0,2.488722205E-1,1.512674391E-1,2.265016884E-1,3.689474693E-1
2.303669073E0,2.073269337E-1,1.619200706E-1,2.584595978E-1,3.687871072E-1
2.306156625E0,1.572595388E-1,1.661811322E-1,2.850911915E-1,3.655457820E-1
2.308644177E0,1.018658355E-1,1.640505940E-1,3.063964546E-1,3.621712761E-1
2.311131729E0,4.434159771E-2,1.587242782E-1,3.213101327E-1,3.611090904E-1
2.313619281E0,-1.318263728E-2,1.491369158E-1,3.287670016E-1,3.612524643E-1
2.316106833E0,-6.644582003E-2,1.374190152E-1,3.266364634E-1,3.605418311E-1
2.318594385E0,-1.133174226E-1,1.246358454E-1,3.170490861E-1,3.590195750E-1
2.321081937E0,-1.537974328E-1,1.129179448E-1,2.989396155E-1,3.546392622E-1
2.323569489E0,-1.846900880E-1,1.001347825E-1,2.744385600E-1,3.456210736E-1
2.326057041E0,-2.059953511E-1,8.948214352E-2,2.446111590E-1,3.320779393E-1
2.328544593E0,-2.177132517E-1,7.882951200E-2,2.105227262E-1,3.129424391E-1
2.331032146E0,-2.219743133E-1,7.030740380E-2,1.732385010E-1,2.902194084E-1
2.333519698E0,-2.177132517E-1,6.391581893E-2,1.359542757E-1,2.645143795E-1
2.336007250E0,-2.070606202E-1,5.965476483E-2,9.973530471E-2,2.374445670E-1
2.338494802E0,-1.900164038E-1,5.858949944E-2,6.458161026E-2,2.090687627E-1
2.340982354E0,-1.697763950E-1,6.285055727E-2,3.262370080E-2,1.839525012E-1
2.343469906E0,-1.463405937E-1,7.137266546E-2,5.992108025E-3,1.629279967E-1
2.345957458E0,-1.229047924E-1,8.309056610E-2,-1.531316526E-2,1.491446385E-1
2.348445010E0,-1.015995219E-1,9.906952083E-2,-3.235738352E-2,1.455480439E-1
2.350932562E0,-8.349003643E-2,1.150484756E-1,-4.087949172E-2,1.479116992E-1
2.353420114E0,-7.070687413E-2,1.310274303E-1,-4.407528415E-2,1.552748538E-1
2.355907666E0,-6.431528926E-2,1.459411234E-1,-4.087949172E-2,1.646402161E-1
2.358395218E0,-6.538055837E-2,1.597895473E-1,-3.448791057E-2,1.760588902E-1
2.360882771E0,-7.390266657E-2,1.725727171E-1,-2.490053698E-2,1.893752453E-1
2.363370323E0,-9.201214463E-2,1.842906028E-1,-1.318263728E-2,2.064050459E-1
2.365857875E0,-1.175784767E-1,1.960085034E-1,-3.595264861E-3,2.285978073E-1
2.368345427E0,-1.506016403E-1,2.077264041E-1,5.992108025E-3,2.566457059E-1
2.370832979E0,-1.878858805E-1,2.194443047E-1,1.025316212E-2,2.890709848E-1
2.373320531E0,-2.283658981E-1,2.311622053E-1,1.131842658E-2,3.251385172E-1
2.375808083E0,-2.699111700E-1,2.396843135E-1,8.122635074E-3,3.610631344E-1
2.378295635E0,-3.093259335E-1,2.450106442E-1,6.657897611E-4,3.946051091E-1
2.380783187E0,-3.455449045E-1,2.450106442E-1,-9.986846708E-3,4.237112624E-1
2.383270739E0,-3.785680532E-1,2.407495826E-1,-2.383527346E-2,4.492685753E-1
2.385758291E0,-4.041343927E-1,2.311622053E-1,-4.087949172E-2,4.673667783E-1
2.388245843E0,-4.243744016E-1,2.194443047E-1,-5.792371184E-2,4.812531475E-1
2.390733396E0,-4.392880797E-1,2.077264041E-1,-7.496792823E-2,4.916751633E-1
2.393220948E0,-4.446144104E-1,1.981390417E-1,-9.201214463E-2,4.953859995E-1
2.395708500E0,-4.414186180E-1,1.896169335E-1,-1.090563685E-1,4.926441609E-1
2.398196052E0,-4.297007322E-1,1.821600795E-1,-1.282311082E-1,4.840126351E-1
2.400683604E0,-4.083954394E-1,1.747032404E-1,-1.474058628E-1,4.680134031E-1
2.403171156E0,-3.764375448E-1,1.640505940E-1,-1.676458716E-1,4.435346219E-1
2.405658708E0,-3.370227814E-1,1.533979625E-1,-1.857553422E-1,4.142708501E-1
2.408146260E0,-2.890859246E-1,1.416800618E-1,-2.038648278E-1,3.810574494E-1
2.410633812E0,-2.358227372E-1,1.299621612E-1,-2.187785208E-1,3.469388533E-1
2.413121364E0,-1.782985032E-1,1.225053221E-1,-2.315616906E-1,3.168891395E-1
2.415608916E0,-1.207742617E-1,1.214400530E-1,-2.422143221E-1,2.966511193E-1
2.418097354E0,-6.431528926E-2,1.288969070E-1,-2.507364154E-1,2.891705709E-1
2.420584437E0,-1.211737376E-2,1.438105851E-1,-2.592585385E-1,2.967209209E-1
2.423071521E0,3.581948951E-2,1.651158631E-1,-2.656501234E-1,3.148273687E-1
2.425558604E0,7.629951090E-2,1.896169335E-1,-2.699111700E-1,3.385679201E-1
2.428045739E0,1.082574204E-1,2.130527347E-1,-2.731069624E-1,3.629029481E-1
2.430532927E0,1.316932142E-1,2.364885211E-1,-2.741722167E-1,3.852795448E-1
2.433020166E0,1.444763839E-1,2.556632757E-1,-2.720417082E-1,4.003046678E-1
2.435507458E0,1.498026997E-1,2.695116997E-1,-2.699111700E-1,4.097919531E-1
2.437994854E0,1.466069072E-1,2.790990770E-1,-2.699111700E-1,4.150203847E-1
2.440482354E0,1.380847991E-1,2.844253778E-1,-2.741722167E-1,4.184920688E-1
2.442969958E0,1.253016293E-1,2.844253778E-1,-2.826943398E-1,4.201361489E-1
2.445457614E0,1.114532053E-1,2.812296152E-1,-2.986733019E-1,4.251089916E-1
2.447945323E0,1.008005738E-1,2.737727463E-1,-3.221091032E-1,4.345877894E-1
2.450433083E0,9.334372729E-2,2.631201148E-1,-3.540669978E-1,4.508976438E-1
2.452920896E0,9.227846563E-2,2.482064217E-1,-3.934817612E-1,4.742885613E-1
2.455408760E0,1.008005738E-1,2.290316820E-1,-4.392880797E-1,5.055593774E-1
2.457896625E0,1.146489978E-1,2.055958807E-1,-4.893554747E-1,5.430311589E-1
2.460384489E0,1.370195299E-1,1.778990328E-1,-5.394228697E-1,5.842939755E-1
2.462872354E0,1.647163928E-1,1.470063776E-1,-5.873597264E-1,6.274821219E-1
2.465360218E0,1.977395564E-1,1.161137372E-1,-6.310355663E-1,6.714083840E-1
2.467848031E0,2.350237966E-1,8.309056610E-2,-6.661892533E-1,7.113004628E-1
2.470335583E0,2.712427676E-1,5.219791830E-2,-6.917555928E-1,7.448644587E-1
2.472823135E0,3.085269928E-1,1.917474531E-2,-7.087997794E-1,7.732746624E-1
2.475310687E0,3.426154256E-1,-1.384842768E-2,-7.162566185E-1,7.941036786E-1
2.477798239E0,3.724428117E-1,-4.900212586E-2,-7.119956017E-1,8.050171384E-1
2.480285791E0,3.958786130E-1,-8.415582776E-2,-6.960166097E-1,8.051342748E-1
2.482773343E0,4.097270370E-1,-1.193095297E-1,-6.672545075E-1,7.920477173E-1
2.485260896E0,4.097270370E-1,-1.491369158E-1,-6.257092357E-1,7.626467807E-1
2.487748448E0,3.958786130E-1,-1.683116555E-1,-5.703155398E-1,7.143588066E-1
2.490236000E0,3.639206886E-1,-1.757684946E-1,-5.032039285E-1,6.454045436E-1
2.492723552E0,3.127880394E-1,-1.683116555E-1,-4.233091474E-1,5.525900879E-1
2.495211104E0,2.446111590E-1,-1.459411234E-1,-3.359575272E-1,4.404553220E-1
2.497698656E0,1.615206003E-1,-1.129179448E-1,-2.454101145E-1,3.147467091E-1
2.500186208E0,6.458161026E-2,-7.243792713E-2,-1.548627019E-1,1.827580206E-1
2.502673760E0,-4.087949172E-2,-2.982738242E-2,-7.070687413E-2,8.694979951E-2
2.505161312E0,-1.495363861E-1,1.171789970E-2,4.926844500E-3,1.500756934E-1
2.507648864E0,-2.581932843E-1,4.793686420E-2,7.097318769E-2,2.720274037E-1
2.510136416E0,-3.615238369E-1,8.096003532E-2,1.231711060E-1,3.904166150E-1
2.512623968E0,-4.584628344E-1,1.097221524E-1,1.636511236E-1,4.990078271E-1
2.515111521E0,-5.426186919E-1,1.331579536E-1,1.892174482E-1,5.898892508E-1
2.517599073E0,-6.118608117E-1,1.544632316E-1,1.977395564E-1,6.613119347E-1
2.520086625E0,-6.640587449E-1,1.725727171E-1,1.881521940E-1,7.114468409E-1
2.522574177E0,-6.960166097E-1,1.874863952E-1,1.615206003E-1,7.387010042E-1
2.525061729E0,-7.087997794E-1,1.981390417E-1,1.189100519E-1,7.455171410E-1
2.527549281E0,-7.013429403E-1,2.024000883E-1,6.351634115E-2,7.327223494E-1
2.530036833E0,-6.757766008E-1,1.992042959E-1,-2.530001104E-3,7.045301744E-1
2.532524385E0,-6.342313290E-1,1.874863952E-1,-7.496792823E-2,6.655980148E-1
2.535011937E0,-5.799028873E-1,1.672463864E-1,-1.506016403E-1,6.220446661E-1
2.537499489E0,-5.138565302E-1,1.384842694E-1,-2.241048366E-1,5.774507808E-1
2.539987041E0,-4.414186180E-1,1.033305749E-1,-2.922817171E-1,5.394035652E-1
2.542474593E0,-3.636543751E-1,6.178529188E-2,-3.508712053E-1,5.090899032E-1
2.544962146E0,-2.858901322E-1,1.384842768E-2,-3.977428079E-1,4.900247829E-1
2.547449698E0,-2.081258893E-1,-3.941475600E-2,-4.286354482E-1,4.781195000E-1
2.549937250E0,-1.346226931E-1,-9.800425172E-2,-4.446144104E-1,4.747737111E-1
2.552424802E0,-6.538055837E-2,-1.587242782E-1,-4.456796646E-1,4.775964587E-1
2.554912354E0,-4.660528619E-3,-2.205095738E-1,-4.318312407E-1,4.848962911E-1
2.557399906E0,4.860265180E-2,-2.812296152E-1,-4.030691385E-1,4.938795852E-1
2.559887458E0,9.227846563E-2,-3.376885653E-1,-3.615238369E-1,5.032378830E-1
2.562375010E0,1.253016293E-1,-3.834949136E-1,-3.082606792E-1,5.077336836E-1
2.564862562E0,1.476721764E-1,-4.133222997E-1,-2.432795912E-1,5.018240275E-1
2.567350114E0,1.572595388E-1,-4.250401855E-1,-1.687111259E-1,4.835836699E-1
2.569837666E0,1.561942846E-1,-4.165180922E-1,-9.201214463E-2,4.542578677E-1
2.572325218E0,1.444763839E-1,-3.898864985E-1,-1.424790081E-2,4.160383514E-1
2.574812771E0,1.242363751E-1,-3.472759426E-1,6.138581783E-2,3.739030300E-1
2.577300323E0,9.547425061E-2,-2.950780392E-1,1.316932142E-1,3.369413664E-1
2.579787875E0,6.138581783E-2,-2.364885211E-1,1.966743022E-1,3.136491996E-1
2.582275427E0,2.410159074E-2,-1.768337637E-1,2.541985512E-1,3.105929331E-1
2.584762979E0,-1.531316526E-2,-1.203747913E-1,3.042659163E-1,3.275703455E-1
2.587250531E0,-5.792371184E-2,-6.924213469E-2,3.479417264E-1,3.594622019E-1
2.589738083E0,-1.005342528E-1,-2.556632832E-2,3.852259517E-1,3.989483763E-1
2.592225635E0,-1.442100704E-1,1.065263618E-2,4.150533378E-1,4.395216676E-1
2.594713187E0,-1.889511347E-1,3.941475600E-2,4.363586307E-1,4.771424408E-1
2.597200739E0,-2.358227372E-1,5.965476483E-2,4.502070546E-1,5.117200860E-1
2.599688291E0,-2.837595940E-1,7.137266546E-2,4.544681013E-1,5.405134777E-1
2.602175843E0,-3.306311965E-1,7.456845790E-2,4.502070546E-1,5.635280251E-1
2.604663396E0,-3.775027990E-1,6.817687303E-2,4.384891391E-1,5.826055049E-1
2.607150948E0,-4.211786091E-1,5.219791830E-2,4.161186218E-1,5.943658393E-1
2.609638500E0,-4.595280886E-1,2.769685537E-2,3.862912357E-1,6.009609794E-1
2.612126104E0,-4.904207587E-1,-6.391582079E-3,3.511375189E-1,6.032005720E-1
2.614613708E0,-5.117260218E-1,-4.580633715E-2,3.127880394E-1,6.014965499E-1
2.617101312E0,-5.223786831E-1,-8.841688186E-2,2.733732760E-1,5.961794877E-1
2.619588916E0,-5.223786831E-1,-1.331579536E-1,2.339585274E-1,5.876624216E-1
2.622076521E0,-5.117260218E-1,-1.736379713E-1,1.988048255E-1,5.757925191E-1
2.624564125E0,-4.904207587E-1,-2.098569423E-1,1.657816470E-1,5.586018361E-1
2.627051729E0,-4.595280886E-1,-2.386190593E-1,1.391500682E-1,5.361602942E-1
2.629539333E0,-4.201133549E-1,-2.556632757E-1,1.178447902E-1,5.057136899E-1
2.632026937E0,-3.732417524E-1,-2.631201148E-1,1.050616279E-1,4.685931564E-1
2.634514541E0,-3.221091032E-1,-2.599243224E-1,9.867004305E-2,4.255005348E-1
2.637002093E0,-2.677806616E-1,-2.471411675E-1,1.018658355E-1,3.783673980E-1
2.639489646E0,-2.123869359E-1,-2.269011587E-1,1.114532053E-1,3.301729295E-1
2.641977198E0,-1.580584943E-1,-2.013348341E-1,1.253016293E-1,2.849889495E-1
2.644464750E0,-1.047953144E-1,-1.725727171E-1,1.423458606E-1,2.470338937E-1
2.646952302E0,-5.579318479E-2,-1.416800618E-1,1.593900770E-1,2.204343803E-1
2.649439854E0,-9.986846708E-3,-1.097221524E-1,1.743037701E-1,2.062049759E-1
2.651927406E0,3.049317189E-2,-7.989477366E-2,1.849564016E-1,2.037691804E-1
2.654414958E0,6.458161026E-2,-5.006739125E-2,1.892174482E-1,2.061086383E-1
2.656902510E0,9.334372729E-2,-2.450106293E-2,1.892174482E-1,2.124066765E-1
2.659390062E0,1.135837361E-1,-2.130527282E-3,1.828258783E-1,2.152466167E-1
2.661877614E0,1.274321675E-1,1.597895473E-2,1.711079776E-1,2.139444421E-1
2.664365166E0,1.338237375E-1,2.876211889E-2,1.540637612E-1,2.060866195E-1
2.666852718E0,1.306279600E-1,3.728422895E-2,1.338237375E-1,1.906897228E-1
2.669340271E0,1.199753210E-1,4.261054471E-2,1.114532053E-1,1.692086084E-1
2.671828239E0,1.018658355E-1,4.367581010E-2,8.482161909E-2,1.395669441E-1
2.674315479E0,7.736477256E-2,4.048001766E-2,5.819002539E-2,1.049286373E-1
2.676802718E0,4.647212476E-2,3.302317113E-2,2.942790836E-2,6.415754048E-2
2.679289958E0,1.344895363E-2,2.130527236E-2,1.731053460E-3,2.525441605E-2
2.681777198E0,-2.277000993E-2,6.391582079E-3,-2.490053698E-2,3.434184643E-2
2.684264489E0,-6.005423889E-2,-1.171789970E-2,-4.940159991E-2,7.864056749E-2
2.686751833E0,-9.840372950E-2,-3.302317113E-2,-7.283740491E-2,1.268034359E-1
2.689239229E0,-1.356879622E-1,-5.645897239E-2,-9.094688296E-2,1.728298995E-1
2.691726677E0,-1.708416492E-1,-7.989477366E-2,-1.058605760E-1,2.162787681E-1
2.694214177E0,-2.059953511E-1,-1.022653133E-1,-1.154479459E-1,2.573334552E-1
2.696701729E0,-2.400837988E-1,-1.214400530E-1,-1.197090000E-1,2.944794756E-1
2.699189333E0,-2.720417082E-1,-1.342232227E-1,-1.186437383E-1,3.257282628E-1
2.701676989E0,-3.018690944E-1,-1.416800618E-1,-1.111868918E-1,3.515120410E-1
2.704164698E0,-3.274354041E-1,-1.395495385E-1,-9.733846784E-2,3.690024320E-1
2.706652458E0,-3.508712053E-1,-1.267663687E-1,-7.603318989E-2,3.807379163E-1
2.709140218E0,-3.700459599E-1,-1.065263674E-1,-4.940159991E-2,3.882298256E-1
2.711627979E0,-3.860249221E-1,-7.776424289E-2,-1.744369231E-2,3.941659554E-1
2.714115739E0,-3.977428079E-1,-4.154528305E-2,1.984053478E-2,4.003985497E-1
2.716603500E0,-4.051996469E-1,-0.000000000E0,6.032055244E-2,4.096648910E-1
2.719091260E0,-4.105259776E-1,4.474107176E-2,1.039963663E-1,4.258504268E-1
2.721579021E0,-4.126565158E-1,9.161267430E-2,1.466069072E-1,4.474057078E-1
2.724066677E0,-4.126565158E-1,1.384842694E-1,1.892174482E-1,4.746225191E-1
2.726554229E0,-4.083954394E-1,1.821600795E-1,2.296974659E-1,5.027226425E-1
2.729041781E0,-4.020038545E-1,2.205095738E-1,2.616553903E-1,5.279158214E-1
2.731529333E0,-3.892207146E-1,2.514022291E-1,2.872217000E-1,5.451533274E-1
2.734016885E0,-3.700459599E-1,2.737727463E-1,3.032006621E-1,5.511952201E-1
2.736504437E0,-3.455449045E-1,2.876211703E-1,3.095922470E-1,5.458704773E-1
2.738991989E0,-3.135869801E-1,2.908169627E-1,3.042659163E-1,5.248705057E-1
2.741479541E0,-2.752375007E-1,2.844253778E-1,2.893522382E-1,4.902837903E-1
2.743967093E0,-2.294311523E-1,2.695116997E-1,2.648511827E-1,4.420648809E-1
2.746454646E0,-1.761679798E-1,2.492716908E-1,2.339585274E-1,3.845882546E-1
2.748942198E0,-1.197090000E-1,2.226400971E-1,1.977395564E-1,3.209358031E-1
2.751429750E0,-5.792371184E-2,1.938779801E-1,1.593900770E-1,2.575830433E-1
2.753917302E0,4.926844500E-3,1.651158631E-1,1.189100519E-1,2.035365384E-1
2.756404854E0,6.777740270E-2,1.352884769E-1,7.949529588E-2,1.709276174E-1
2.758892406E0,1.284974217E-1,1.065263674E-1,4.327633604E-2,1.724305530E-1
2.761379958E0,1.860216707E-1,7.669898123E-2,1.238369010E-2,2.015940264E-1
2.763867510E0,2.403501123E-1,4.687159881E-2,-1.211737376E-2,2.451773929E-1
2.766355062E0,2.882869840E-1,1.704421826E-2,-3.129211813E-2,2.904807862E-1
2.768842614E0,3.298322558E-1,-1.278316416E-2,-4.301001877E-2,3.328702270E-1
2.771330166E0,3.628554344E-1,-4.154528305E-2,-4.833633825E-2,3.684107469E-1
2.773817718E0,3.862912357E-1,-6.817687303E-2,-4.407528415E-2,3.947298259E-1
2.776305271E0,3.990744054E-1,-9.267793596E-2,-3.235738352E-2,4.109702923E-1
2.778792823E0,4.012049139E-1,-1.118526831E-1,-1.211737376E-2,4.166812167E-1
2.781280375E0,3.905522823E-1,-1.246358454E-1,1.771000773E-2,4.103398879E-1
2.783767927E0,3.692470193E-1,-1.288969070E-1,5.819002539E-2,3.954034053E-1
2.786255479E0,3.330280483E-1,-1.203747913E-1,1.071921512E-1,3.699836870E-1
2.788743031E0,2.840259075E-1,-1.012000442E-1,1.647163928E-1,3.435748174E-1
2.791230583E0,2.222406268E-1,-6.924213469E-2,2.286322117E-1,3.262791100E-1
2.793718135E0,1.498026997E-1,-2.450106293E-2,2.989396155E-1,3.352701070E-1
2.796205687E0,6.671213359E-2,2.876211889E-2,3.735080659E-1,3.805076130E-1
2.798693239E0,-2.277000993E-2,9.054741263E-2,4.491417706E-1,4.587435421E-1
2.801180791E0,-1.175784767E-1,1.565937549E-1,5.237102509E-1,5.591231788E-1
2.803668343E0,-2.134522051E-1,2.205095738E-1,5.961481929E-1,6.705065129E-1
2.806155896E0,-3.071953952E-1,2.833601236E-1,6.632598042E-1,7.839486836E-1
2.808643448E0,-3.988080621E-1,3.430148959E-1,7.207840085E-1,8.923209490E-1
2.811131000E0,-4.882902205E-1,3.973433375E-1,7.708513737E-1,9.952491686E-1
2.813618552E0,-5.724460483E-1,4.474107325E-1,8.123967052E-1,1.089889558E0
2.816106104E0,-6.534060836E-1,4.942823350E-1,8.432893157E-1,1.175751422E0
2.818593656E0,-7.269092798E-1,5.336970687E-1,8.688556552E-1,1.252253893E0
2.821081208E0,-7.918903828E-1,5.667202473E-1,8.880304098E-1,1.317899930E0
2.823568760E0,-8.451535702E-1,5.922865868E-1,9.040093422E-1,1.371976986E0
2.826056312E0,-8.856335878E-1,6.103960872E-1,9.167925119E-1,1.413307732E0
2.828543864E0,-9.111998677E-1,6.221139431E-1,9.263799191E-1,1.440656347E0
2.831031416E0,-9.207872748E-1,6.285055280E-1,9.349020123E-1,1.454960541E0
2.833518968E0,-9.165261984E-1,6.274402738E-1,9.391630292E-1,1.454554490E0
2.836006521E0,-8.973514438E-1,6.221139431E-1,9.402283430E-1,1.440935359E0
2.838494073E0,-8.643282652E-1,6.114613414E-1,9.380977750E-1,1.414558503E0
2.840981625E0,-8.195872307E-1,5.965476632E-1,9.327715039E-1,1.377554000E0
2.843469177E0,-7.652587891E-1,5.773729086E-1,9.231840968E-1,1.330882927E0
2.845956729E0,-7.034734488E-1,5.592634082E-1,9.114661813E-1,1.280008224E0
2.848444281E0,-6.384924054E-1,5.390233994E-1,8.976177573E-1,1.226350853E0
2.850931833E0,-5.713807940E-1,5.187833905E-1,8.816388249E-1,1.171707829E0
2.853419385E0,-5.032039285E-1,4.964128435E-1,8.635293245E-1,1.115940321E0
2.855906937E0,-4.371575713E-1,4.729770422E-1,8.432893157E-1,1.061108333E0
2.858394489E0,-3.743070066E-1,4.474107325E-1,8.198535442E-1,1.006201736E0
2.860882041E0,-3.167827725E-1,4.218443930E-1,7.932219505E-1,9.526306103E-1
2.863369593E0,-2.635195851E-1,3.973433375E-1,7.665903568E-1,9.027652379E-1
2.865857146E0,-2.187785208E-1,3.771033287E-1,7.388935089E-1,8.579245766E-1
2.868344698E0,-1.846900880E-1,3.653854430E-1,7.122619152E-1,8.215436607E-1
2.870832250E0,-1.601890177E-1,3.611243665E-1,6.888260841E-1,7.940734876E-1
2.873319802E0,-1.463405937E-1,3.643201590E-1,6.685860753E-1,7.753399820E-1
2.875807354E0,-1.420795321E-1,3.749727905E-1,6.558029056E-1,7.686798020E-1
2.878294906E0,-1.474058628E-1,3.898864985E-1,6.494113207E-1,7.716702881E-1
2.880782458E0,-1.601890177E-1,4.058654606E-1,6.515418887E-1,7.841518515E-1
2.883270010E0,-1.793637723E-1,4.229096770E-1,6.611292362E-1,8.050564109E-1
2.885757562E0,-2.049300969E-1,4.367581010E-1,6.760429144E-1,8.305347708E-1
2.888245114E0,-2.368880063E-1,4.474107325E-1,6.952176690E-1,8.600115688E-1
2.890732666E0,-2.731069624E-1,4.527370334E-1,7.165229321E-1,8.904848940E-1
2.893220218E0,-3.125217259E-1,4.516717792E-1,7.378282547E-1,9.198194163E-1
2.895707771E0,-3.540669978E-1,4.431496859E-1,7.538071871E-1,9.433824030E-1
2.898195323E0,-3.924165070E-1,4.282359779E-1,7.633945346E-1,9.592434431E-1
2.900682875E0,-4.254396558E-1,4.058654606E-1,7.633945346E-1,9.635854338E-1
2.903170427E0,-4.520712495E-1,3.781685829E-1,7.527419329E-1,9.560336339E-1
2.905657979E0,-4.680502117E-1,3.462106884E-1,7.325019240E-1,9.356772468E-1
2.908145531E0,-4.744417965E-1,3.142527640E-1,7.005439997E-1,9.025584266E-1
2.910633083E0,-4.701807499E-1,2.833601236E-1,6.579334736E-1,8.568776767E-1
2.913120635E0,-4.552670419E-1,2.556632757E-1,6.057355404E-1,7.997170343E-1
2.915608187E0,-4.318312407E-1,2.322274745E-1,5.471460223E-1,7.346948959E-1
2.918096677E0,-3.998733461E-1,2.141179889E-1,4.810996950E-1,6.612126153E-1
2.920583864E0,-3.625891209E-1,2.013348341E-1,4.139880836E-1,5.859972008E-1
2.923071052E0,-3.178480268E-1,1.938779801E-1,3.479417264E-1,5.095875629E-1
2.925558239E0,-2.699111700E-1,1.928127259E-1,2.861564457E-1,4.380802420E-1
2.928045427E0,-2.187785208E-1,1.949432492E-1,2.307627350E-1,3.729857255E-1
2.930532666E0,-1.665806025E-1,2.013348341E-1,1.838911325E-1,3.195320972E-1
2.933019958E0,-1.165132076E-1,2.066611499E-1,1.444763839E-1,2.777725399E-1
2.935507302E0,-6.857634336E-2,2.141179889E-1,1.135837361E-1,2.518938133E-1
2.937994698E0,-2.703106403E-2,2.173137814E-1,9.014793485E-2,2.368176686E-1
2.940482146E0,7.057371549E-3,2.194443047E-1,7.523424178E-2,2.320900698E-1
2.942969646E0,3.368896246E-2,2.205095738E-1,6.884266436E-2,2.334496322E-1
2.945457198E0,5.179844424E-2,2.194443047E-1,7.203845680E-2,2.367032339E-1
2.947944802E0,6.032055244E-2,2.173137814E-1,8.269108832E-2,2.402117081E-1
2.950432458E0,6.138581783E-2,2.141179889E-1,1.008005738E-1,2.444902605E-1
2.952920166E0,5.392897129E-2,2.109221965E-1,1.253016293E-1,2.511911727E-1
2.955407927E0,3.901528195E-2,2.077264041E-1,1.551290154E-1,2.621783031E-1
2.957895739E0,1.877527125E-2,2.087916732E-1,1.892174482E-1,2.823999227E-1
2.960383552E0,-6.791055668E-3,2.119874656E-1,2.254364192E-1,3.095260621E-1
2.962871364E0,-3.661843762E-2,2.205095738E-1,2.637858987E-1,3.457576933E-1
2.965359177E0,-7.177213579E-2,2.322274745E-1,3.032006621E-1,3.886019569E-1
2.967846989E0,-1.101216301E-1,2.492716908E-1,3.415501416E-1,4.369435301E-1
2.970334802E0,-1.516669095E-1,2.695116997E-1,3.798996508E-1,4.898603397E-1
2.972822614E0,-1.964079887E-1,2.940127552E-1,4.171838760E-1,5.468656002E-1
2.975310166E0,-2.432795912E-1,3.227748871E-1,4.523375630E-1,6.066117854E-1
2.977797718E0,-2.944122255E-1,3.547327816E-1,4.853607416E-1,6.693944685E-1
2.980285271E0,-3.434143662E-1,3.888212144E-1,5.130575895E-1,7.296187045E-1
2.982772823E0,-3.934817612E-1,4.197138846E-1,5.375586748E-1,7.873734630E-1
2.985260375E0,-4.403533638E-1,4.463454783E-1,5.567334294E-1,8.385031201E-1
2.987747927E0,-4.840291739E-1,4.655202031E-1,5.695165992E-1,8.805353243E-1
2.990235479E0,-5.213133693E-1,4.751075804E-1,5.791039467E-1,9.126095677E-1
2.992723031E0,-5.543365479E-1,4.772381186E-1,5.833650231E-1,9.356067445E-1
2.995210583E0,-5.799028873E-1,4.719117880E-1,5.844302773E-1,9.489714661E-1
2.997698135E0,-5.990776420E-1,4.591286182E-1,5.812344551E-1,9.526419060E-1
3.000185687E0,-6.097303033E-1,4.442149401E-1,5.727123618E-1,9.471522608E-1
3.002673239E0,-6.129260659E-1,4.239749312E-1,5.588639379E-1,9.315374419E-1
3.005160791E0,-6.075997353E-1,4.026696682E-1,5.354281664E-1,9.044355264E-1
3.007648343E0,-5.948165655E-1,3.781685829E-1,5.056007504E-1,8.674389561E-1
3.010135896E0,-5.745765567E-1,3.536675274E-1,4.693817794E-1,8.219113056E-1
3.012623448E0,-5.458144546E-1,3.281011879E-1,4.257059693E-1,7.660217886E-1
3.015111000E0,-5.117260218E-1,3.057306707E-1,3.767038584E-1,7.051528638E-1
3.017598552E0,-4.723112583E-1,2.844253778E-1,3.234406710E-1,6.392101282E-1
3.020086104E0,-4.286354482E-1,2.652506530E-1,2.680469751E-1,5.709075558E-1
3.022573656E0,-3.838943839E-1,2.492716908E-1,2.137185186E-1,5.051602509E-1
3.025061208E0,-3.380880356E-1,2.364885211E-1,1.604553312E-1,4.426920529E-1
3.027548760E0,-2.933469713E-1,2.258358896E-1,1.146489978E-1,3.875547539E-1
3.030036312E0,-2.486059070E-1,2.205095738E-1,7.416898012E-2,3.404855456E-1
3.032523864E0,-2.049300969E-1,2.162485123E-1,4.434159771E-2,3.012074716E-1
3.035011416E0,-1.633848101E-1,2.183790505E-1,2.303632535E-2,2.737054587E-1
3.037498968E0,-1.261005849E-1,2.226400971E-1,1.238369010E-2,2.561705021E-1
3.039986521E0,-9.094688296E-2,2.300969511E-1,1.131842658E-2,2.476773086E-1
3.042474073E0,-6.111950055E-2,2.407495826E-1,1.984053478E-2,2.491778516E-1
3.044961625E0,-3.768370301E-2,2.524674833E-1,3.688475490E-2,2.579154449E-1
3.047449177E0,-2.277000993E-2,2.641853690E-1,5.925529078E-2,2.717049356E-1
3.049936729E0,-1.531316526E-2,2.790990770E-1,8.588688076E-2,2.924163882E-1
3.052424281E0,-1.637842879E-2,2.940127552E-1,1.167795286E-1,3.167794365E-1
3.054911833E0,-2.596580051E-2,3.110569715E-1,1.487374306E-1,3.457650728E-1
3.057399385E0,-4.194475710E-2,3.323622644E-1,1.838911325E-1,3.821517840E-1
3.059886937E0,-6.538055837E-2,3.579285741E-1,2.201101035E-1,4.252480914E-1
3.062374489E0,-9.520793706E-2,3.866907060E-1,2.573943138E-1,4.741793819E-1
3.064862041E0,-1.282311082E-1,4.175833464E-1,2.978743315E-1,5.287231654E-1
3.067349593E0,-1.644500792E-1,4.474107325E-1,3.383543491E-1,5.845544095E-1
3.069837146E0,-2.038648278E-1,4.751075804E-1,3.788343966E-1,6.409396079E-1
3.072324698E0,-2.411490530E-1,4.974781275E-1,4.182491302E-1,6.932313380E-1
3.074812250E0,-2.773680091E-1,5.145223141E-1,4.523375630E-1,7.391045224E-1
3.077299802E0,-3.114564717E-1,5.262402296E-1,4.821649492E-1,7.787277774E-1
3.079787354E0,-3.423491120E-1,5.305013061E-1,5.056007504E-1,8.088675226E-1
3.082274906E0,-3.700459599E-1,5.294360518E-1,5.194491744E-1,8.288932321E-1
3.084762458E0,-3.945470154E-1,5.219792128E-1,5.258407593E-1,8.394272750E-1
3.087250010E0,-4.137217700E-1,5.102612972E-1,5.258407593E-1,8.414516020E-1
3.089737562E0,-4.297007322E-1,4.953475893E-1,5.162534118E-1,8.345834522E-1
3.092225114E0,-4.403533638E-1,4.793686271E-1,4.970786572E-1,8.190192653E-1
3.094712666E0,-4.456796646E-1,4.644549489E-1,4.715123177E-1,7.979176829E-1
3.097200218E0,-4.456796646E-1,4.495412707E-1,4.395544231E-1,7.706658215E-1
3.099687771E0,-4.392880797E-1,4.346275628E-1,4.012049139E-1,7.367771157E-1
3.102175323E0,-4.275701940E-1,4.218443930E-1,3.585943878E-1,6.995419199E-1
3.104662875E0,-4.094607234E-1,4.079959691E-1,3.149185777E-1,6.582495768E-1
3.107150427E0,-3.881554306E-1,3.952127993E-1,2.723080218E-1,6.172596324E-1
3.109637979E0,-3.636543751E-1,3.824296594E-1,2.296974659E-1,5.755500627E-1
3.112125531E0,-3.370227814E-1,3.717769980E-1,1.913479865E-1,5.370442657E-1
3.114613083E0,-3.114564717E-1,3.643201590E-1,1.551290154E-1,5.037849972E-1
3.117100635E0,-2.869553864E-1,3.611243665E-1,1.231711060E-1,4.774152524E-1
3.119588187E0,-2.645848691E-1,3.643201590E-1,9.440898895E-2,4.600515062E-1
3.122075739E0,-2.486059070E-1,3.760380745E-1,6.990792602E-2,4.561761157E-1
3.124563291E0,-2.379532605E-1,3.952127993E-1,5.073318258E-2,4.640999534E-1
3.127050843E0,-2.326269448E-1,4.218443930E-1,3.581948951E-2,4.830642019E-1
3.129538396E0,-2.326269448E-1,4.516717792E-1,2.836264484E-2,5.088488294E-1
3.132025948E0,-2.368880063E-1,4.783033729E-1,2.942790836E-2,5.345615454E-1
3.134513500E0,-2.432795912E-1,5.017392039E-1,3.901528195E-2,5.589717171E-1
3.137001052E0,-2.518016994E-1,5.187833905E-1,5.925529078E-2,5.796994839E-1
3.139488604E0,-2.613890767E-1,5.294360518E-1,8.695214242E-2,5.968144247E-1
3.141976156E0,-2.709764242E-1,5.336970687E-1,1.231711060E-1,6.110907502E-1
3.144463708E0,-2.816290855E-1,5.326318145E-1,1.647163928E-1,6.246143463E-1
3.146951260E0,-2.922817171E-1,5.273054838E-1,2.094574571E-1,6.382414133E-1
3.149438812E0,-2.997385561E-1,5.198486447E-1,2.541985512E-1,6.516921964E-1
3.151926364E0,-3.071953952E-1,5.091960430E-1,2.968090773E-1,6.646391874E-1
3.154413916E0,-3.114564717E-1,4.964128435E-1,3.362238407E-1,6.756310502E-1
3.156901468E0,-3.135869801E-1,4.846949577E-1,3.703122735E-1,6.858550693E-1
3.159389021E0,-3.114564717E-1,4.719117880E-1,4.001396596E-1,6.926886866E-1
3.161876573E0,-3.061301410E-1,4.601939023E-1,4.225101769E-1,6.957075107E-1
3.164364125E0,-2.965427637E-1,4.484759867E-1,4.374238849E-1,6.931146921E-1
3.166851677E0,-2.848248780E-1,4.378233552E-1,4.459459782E-1,6.867913198E-1
3.169339229E0,-2.688459158E-1,4.282359779E-1,4.459459782E-1,6.741898803E-1
3.171827302E0,-2.518016994E-1,4.229096770E-1,4.352933466E-1,6.570669588E-1
3.174314854E0,-2.336922139E-1,4.175833464E-1,4.150533378E-1,6.334486366E-1
3.176802406E0,-2.145174593E-1,4.143875539E-1,3.873564899E-1,6.064485431E-1
3.179289958E0,-1.932121962E-1,4.111917615E-1,3.490070105E-1,5.729009608E-1
3.181777510E0,-1.708416492E-1,4.079959691E-1,3.042659163E-1,5.368662103E-1
3.184265062E0,-1.484711170E-1,4.037349224E-1,2.531332672E-1,4.991212389E-1
3.186752614E0,-1.250353158E-1,3.994738758E-1,1.988048255E-1,4.633967698E-1
3.189240166E0,-1.037300453E-1,3.952127993E-1,1.402153224E-1,4.319877494E-1
3.191727718E0,-8.455529809E-2,3.898864985E-1,8.162582666E-2,4.072147538E-1
3.194215271E0,-6.751108170E-2,3.856254518E-1,2.410159074E-2,3.922315922E-1
3.196702823E0,-5.366265774E-2,3.813643754E-1,-3.235738352E-2,3.864782890E-1
3.199190375E0,-4.407528415E-2,3.781685829E-1,-8.562056720E-2,3.902370937E-1
3.201677927E0,-3.981423005E-2,3.781685829E-1,-1.367532164E-1,4.041015865E-1
3.204165479E0,-4.087949172E-2,3.824296594E-1,-1.868206114E-1,4.275810076E-1
3.206653031E0,-4.727107286E-2,3.920170069E-1,-2.326269448E-1,4.582872281E-1
3.209140583E0,-6.005423889E-2,4.058654606E-1,-2.741722167E-1,4.934609287E-1
3.211628135E0,-7.496792823E-2,4.207791388E-1,-3.071953952E-1,5.263499642E-1
3.214115687E0,-9.414267540E-2,4.346275628E-1,-3.306311965E-1,5.541488516E-1
3.216603239E0,-1.143826842E-1,4.463454783E-1,-3.434143662E-1,5.746660869E-1
3.219090791E0,-1.346226931E-1,4.538023174E-1,-3.434143662E-1,5.848018807E-1
3.221578343E0,-1.537974328E-1,4.569981098E-1,-3.316964805E-1,5.852550537E-1
3.224065896E0,-1.729721874E-1,4.601939023E-1,-3.093259335E-1,5.808445045E-1
3.226553448E0,-1.889511347E-1,4.633896947E-1,-2.794985473E-1,5.731945380E-1
3.229041000E0,-2.049300969E-1,4.719117880E-1,-2.454101145E-1,5.700203545E-1
3.231528552E0,-2.187785208E-1,4.846949577E-1,-2.091911435E-1,5.714491909E-1
3.234016104E0,-2.315616906E-1,5.006738901E-1,-1.719069183E-1,5.777950756E-1
3.236503656E0,-2.411490530E-1,5.187833905E-1,-1.335574239E-1,5.874748144E-1
3.238991208E0,-2.464753687E-1,5.390233994E-1,-9.520793706E-2,6.003006611E-1
3.241478760E0,-2.496711612E-1,5.581981540E-1,-5.685844645E-2,6.141284481E-1
3.243966312E0,-2.475406379E-1,5.763076544E-1,-1.957421936E-2,6.275269157E-1
3.246453864E0,-2.443448454E-1,5.922865868E-1,1.557948068E-2,6.408982170E-1
3.248941416E0,-2.368880063E-1,6.029392481E-1,4.860265180E-2,6.496259556E-1
3.251428968E0,-2.262353599E-1,6.103960872E-1,7.629951090E-2,6.554292003E-1
3.253916521E0,-2.123869359E-1,6.135918498E-1,9.653951973E-2,6.564472923E-1
3.256404073E0,-1.953427196E-1,6.114613414E-1,1.071921512E-1,6.507948274E-1
3.258891625E0,-1.761679798E-1,6.040045023E-1,1.103879437E-1,6.387817264E-1
3.261379177E0,-1.537974328E-1,5.922865868E-1,1.050616279E-1,6.208824340E-1
3.263866729E0,-1.292963773E-1,5.763076544E-1,9.121319652E-2,5.976352674E-1
3.266354281E0,-1.026647836E-1,5.571328998E-1,7.310371846E-2,5.712103636E-1
3.268841833E0,-7.283740491E-2,5.368928909E-1,5.179844424E-2,5.442814922E-1
3.271329385E0,-4.301001877E-2,5.155876279E-1,2.729738131E-2,5.180980706E-1
3.273816937E0,-1.211737376E-2,4.942823350E-1,2.796316985E-3,4.944387494E-1
3.276304489E0,1.771000773E-2,4.751075804E-1,-2.277000993E-2,4.759824899E-1
3.278792041E0,4.647212476E-2,4.559328258E-1,-4.833633825E-2,4.608370662E-1
3.281279593E0,7.416898012E-2,4.399538934E-1,-7.283740491E-2,4.520683062E-1
3.283767146E0,9.973530471E-2,4.250401855E-1,-9.627319872E-2,4.470736170E-1
3.286254698E0,1.231711060E-1,4.111917615E-1,-1.197090000E-1,4.456231937E-1
3.288742250E0,1.434111148E-1,3.984085917E-1,-1.442100704E-1,4.473172233E-1
3.291229802E0,1.615206003E-1,3.845601678E-1,-1.655153334E-1,4.487435265E-1
3.293717354E0,1.774995476E-1,3.707117438E-1,-1.846900880E-1,4.506037228E-1
3.296204906E0,1.902827173E-1,3.568633199E-1,-2.017343044E-1,4.519465357E-1
3.298692458E0,2.020006180E-1,3.419496417E-1,-2.145174593E-1,4.513884662E-1
3.301180010E0,2.115879953E-1,3.281011879E-1,-2.241048366E-1,4.501586910E-1
3.303667562E0,2.179795653E-1,3.153180480E-1,-2.294311523E-1,4.467428969E-1
3.306155114E0,2.233058959E-1,3.046653867E-1,-2.326269448E-1,4.436235075E-1
3.308642666E0,2.254364192E-1,2.950780392E-1,-2.315616906E-1,4.376224913E-1
3.311130218E0,2.265016884E-1,2.886864543E-1,-2.273006290E-1,4.316346368E-1
3.313617771E0,2.265016884E-1,2.822948694E-1,-2.209090441E-1,4.240214781E-1
3.316105323E0,2.265016884E-1,2.769685388E-1,-2.091911435E-1,4.144581050E-1
3.318592875E0,2.254364192E-1,2.748380303E-1,-1.932121962E-1,4.045843235E-1
3.321080427E0,2.233058959E-1,2.748380303E-1,-1.751027107E-1,3.950473711E-1
3.323567979E0,2.190448344E-1,2.790990770E-1,-1.537974328E-1,3.866918470E-1
3.326055531E0,2.137185186E-1,2.876211703E-1,-1.324921697E-1,3.820415132E-1
3.328543083E0,2.051964104E-1,3.014696240E-1,-1.143826842E-1,3.821948450E-1
3.331030635E0,1.934785098E-1,3.206443489E-1,-9.840372950E-2,3.872079883E-1
3.333518187E0,1.785648167E-1,3.440801501E-1,-8.775109053E-2,3.974629509E-1
3.336005739E0,1.593900770E-1,3.696464896E-1,-8.135951310E-2,4.106861263E-1
3.338493291E0,1.370195299E-1,3.962780833E-1,-7.922898233E-2,4.267175911E-1
3.340980843E0,1.114532053E-1,4.207791388E-1,-8.135951310E-2,4.428275861E-1
3.343468396E0,8.482161909E-2,4.431496859E-1,-8.455529809E-2,4.590489621E-1
3.345955948E0,5.819002539E-2,4.612591565E-1,-8.988162130E-2,4.735238054E-1
3.348443500E0,3.155843541E-2,4.740423262E-1,-9.520793706E-2,4.845375250E-1
3.350931052E0,4.926844500E-3,4.814991653E-1,-9.946899116E-2,4.916907567E-1
3.353418604E0,-1.957421936E-2,4.857602119E-1,-1.047953144E-1,4.973210145E-1
3.355906156E0,-4.301001877E-2,4.868254960E-1,-1.111868918E-1,5.012099861E-1
3.358393708E0,-6.538055837E-2,4.836297035E-1,-1.186437383E-1,5.022436104E-1
3.360881260E0,-8.562056720E-2,4.783033729E-1,-1.271658540E-1,5.022709950E-1
3.363368812E0,-1.015995219E-1,4.708465338E-1,-1.378184855E-1,5.010118324E-1
3.365856364E0,-1.143826842E-1,4.623244107E-1,-1.516669095E-1,4.998300817E-1
3.368343916E0,-1.229047924E-1,4.538023174E-1,-1.676458716E-1,4.991465411E-1
3.370831468E0,-1.271658540E-1,4.452801943E-1,-1.857553422E-1,4.989495496E-1
3.373319021E0,-1.292963773E-1,4.367581010E-1,-2.049300969E-1,4.994712570E-1
3.375806573E0,-1.271658540E-1,4.293012619E-1,-2.251701057E-1,5.011709333E-1
3.378294125E0,-1.239700541E-1,4.218443930E-1,-2.454101145E-1,5.035348951E-1
3.380781677E0,-1.175784767E-1,4.154528081E-1,-2.645848691E-1,5.063900542E-1
3.383269229E0,-1.079910994E-1,4.101265073E-1,-2.826943398E-1,5.096880607E-1
3.385756781E0,-9.733846784E-2,4.026696682E-1,-2.986733019E-1,5.107087040E-1
3.388244333E0,-8.349003643E-2,3.941475451E-1,-3.103911877E-1,5.085917448E-1
3.390731885E0,-6.857634336E-2,3.834949136E-1,-3.189133108E-1,5.034647588E-1
3.393219437E0,-5.046686530E-2,3.707117438E-1,-3.221091032E-1,4.936885414E-1
3.395706989E0,-3.235738352E-2,3.568633199E-1,-3.221091032E-1,4.818222740E-1
3.398194541E0,-1.318263728E-2,3.398191035E-1,-3.167827725E-1,4.647602930E-1
3.400682093E0,4.926844500E-3,3.217096329E-1,-3.071953952E-1,4.448487075E-1
3.403169646E0,2.410159074E-2,3.036001325E-1,-2.965427637E-1,4.250782726E-1
3.405657198E0,4.114580899E-2,2.865559161E-1,-2.858901322E-1,4.068666100E-1
3.408144750E0,5.712476373E-2,2.705769539E-1,-2.773680091E-1,3.916735108E-1
3.410632302E0,7.203845680E-2,2.556632757E-1,-2.699111700E-1,3.786889086E-1
3.413119854E0,8.375635743E-2,2.439453751E-1,-2.656501234E-1,3.702626925E-1
3.415607406E0,9.440898895E-2,2.332927436E-1,-2.624543309E-1,3.636218327E-1
3.418095896E0,1.029310971E-1,2.226400971E-1,-2.613890767E-1,3.584517723E-1
3.420583187E0,1.082574204E-1,2.130527347E-1,-2.613890767E-1,3.541685845E-1
3.423070479E0,1.135837361E-1,2.045306265E-1,-2.613890767E-1,3.507966530E-1
3.425557771E0,1.167795286E-1,1.960085034E-1,-2.613890767E-1,3.469597111E-1
3.428045062E0,1.178447902E-1,1.874863952E-1,-2.645848691E-1,3.450270945E-1
3.430532354E0,1.178447902E-1,1.789642870E-1,-2.667153776E-1,3.421296585E-1
3.433019698E0,1.146489978E-1,1.715074480E-1,-2.699111700E-1,3.397222941E-1
3.435507093E0,1.114532053E-1,1.619200706E-1,-2.752375007E-1,3.382241979E-1
3.437994541E0,1.039963663E-1,1.533979625E-1,-2.848248780E-1,3.398108153E-1
3.440482041E0,9.547425061E-2,1.438105851E-1,-2.965427637E-1,3.431245075E-1
3.442969593E0,8.375635743E-2,1.331579536E-1,-3.125217259E-1,3.498799754E-1
3.445457198E0,7.097318769E-2,1.214400530E-1,-3.316964805E-1,3.602879890E-1
3.447944854E0,5.605949834E-2,1.043958366E-1,-3.540669978E-1,3.733692502E-1
3.450432562E0,3.901528195E-2,8.628635854E-2,-3.775027990E-1,3.891990380E-1
3.452920271E0,2.197106183E-2,6.498108059E-2,-4.020038545E-1,4.078141334E-1
3.455407979E0,2.796316985E-3,4.154528305E-2,-4.254396558E-1,4.274724911E-1
3.457895687E0,-1.637842879E-2,1.597895473E-2,-4.488754570E-1,4.494582916E-1
3.460383396E0,-3.661843762E-2,-1.065263618E-2,-4.701807499E-1,4.717248416E-1
3.462871104E0,-5.685844645E-2,-3.728422895E-2,-4.904207587E-1,4.951116210E-1
3.465358812E0,-7.496792823E-2,-6.178529188E-2,-5.074649453E-1,5.166800589E-1
3.467846521E0,-9.094688296E-2,-8.522108942E-2,-5.234439373E-1,5.380776200E-1
3.470334229E0,-1.047953144E-1,-1.075916290E-1,-5.340965390E-1,5.548126977E-1
3.472821937E0,-1.154479459E-1,-1.267663687E-1,-5.426186919E-1,5.690632524E-1
3.475309489E0,-1.229047924E-1,-1.427453309E-1,-5.479449630E-1,5.794182427E-1
3.477797041E0,-1.271658540E-1,-1.565937549E-1,-5.490102768E-1,5.848974632E-1
3.480284593E0,-1.282311082E-1,-1.683116555E-1,-5.479449630E-1,5.873803818E-1
3.482772146E0,-1.271658540E-1,-1.778990328E-1,-5.415533781E-1,5.840370550E-1
3.485259698E0,-1.229047924E-1,-1.874863952E-1,-5.330312848E-1,5.782552092E-1
3.487747250E0,-1.186437383E-1,-1.949432492E-1,-5.202481151E-1,5.680997345E-1
3.490234802E0,-1.111868918E-1,-2.013348341E-1,-5.074649453E-1,5.571525025E-1
3.492722354E0,-1.005342528E-1,-2.066611499E-1,-4.914860129E-1,5.425628699E-1
3.495209906E0,-8.988162130E-2,-2.098569423E-1,-4.744417965E-1,5.265108360E-1
3.497697458E0,-7.603318989E-2,-2.109221965E-1,-4.563323259E-1,5.084372239E-1
3.500185010E0,-6.005423889E-2,-2.087916732E-1,-4.382228255E-1,4.891213747E-1
3.502672562E0,-4.301001877E-2,-2.055958807E-1,-4.201133549E-1,4.696964540E-1
3.505160114E0,-2.596580051E-2,-2.002695650E-1,-4.041343927E-1,4.517817270E-1
3.507647666E0,-8.921583183E-3,-1.938779801E-1,-3.870901763E-1,4.330208661E-1
3.510135218E0,7.057371549E-3,-1.874863952E-1,-3.721764982E-1,4.167928750E-1
3.512622771E0,2.090579830E-2,-1.821600795E-1,-3.604585826E-1,4.044128296E-1
3.515110323E0,3.155843541E-2,-1.757684946E-1,-3.498059511E-1,3.927527237E-1
3.517597875E0,4.008054361E-2,-1.693769246E-1,-3.423491120E-1,3.840545626E-1
3.520085427E0,4.540686309E-2,-1.629853398E-1,-3.370227814E-1,3.771078882E-1
3.522572979E0,4.753739014E-2,-1.565937549E-1,-3.348922431E-1,3.727388121E-1
3.525060531E0,4.753739014E-2,-1.502021700E-1,-3.359575272E-1,3.710632768E-1
3.527548083E0,4.434159771E-2,-1.448758543E-1,-3.402185738E-1,3.724296825E-1
3.530035635E0,4.114580899E-2,-1.406148076E-1,-3.476754129E-1,3.772846332E-1
3.532523187E0,3.475422785E-2,-1.384842694E-1,-3.583280444E-1,3.857262457E-1
3.535010739E0,2.836264484E-2,-1.374190152E-1,-3.732417524E-1,3.987453211E-1
3.537498291E0,1.984053478E-2,-1.384842694E-1,-3.892207146E-1,4.135992074E-1
3.539985843E0,1.131842658E-2,-1.416800618E-1,-4.062649310E-1,4.304097360E-1
3.542473396E0,1.731053460E-3,-1.470063776E-1,-4.233091474E-1,4.481121576E-1
3.544960948E0,-8.921583183E-3,-1.533979625E-1,-4.403533638E-1,4.663921253E-1
3.547448500E0,-2.063948289E-2,-1.619200706E-1,-4.573975801E-1,4.856507427E-1
3.549936052E0,-3.235738352E-2,-1.725727171E-1,-4.712460041E-1,5.028927712E-1
3.552423604E0,-4.407528415E-2,-1.832253486E-1,-4.850944281E-1,5.204140305E-1
3.554911156E0,-5.579318479E-2,-1.938779801E-1,-4.957470596E-1,5.352258381E-1
3.557398708E0,-6.857634336E-2,-2.066611499E-1,-5.063996911E-1,5.512278956E-1
3.559886260E0,-8.029424399E-2,-2.183790505E-1,-5.149217844E-1,5.650495725E-1
3.562373812E0,-9.094688296E-2,-2.300969511E-1,-5.213133693E-1,5.770472870E-1
3.564861364E0,-1.015995219E-1,-2.407495826E-1,-5.277049541E-1,5.888593576E-1
3.567348916E0,-1.122521535E-1,-2.503369451E-1,-5.319660306E-1,5.985457290E-1
3.569836468E0,-1.229047924E-1,-2.577938139E-1,-5.351617932E-1,6.065982059E-1
3.572324021E0,-1.324921697E-1,-2.631201148E-1,-5.362271070E-1,6.118217716E-1
3.574811573E0,-1.420795321E-1,-2.684464455E-1,-5.351617932E-1,6.153439952E-1
3.577299125E0,-1.506016403E-1,-2.705769539E-1,-5.319660306E-1,6.155327772E-1
3.579786677E0,-1.591237634E-1,-2.705769539E-1,-5.266396999E-1,6.130918639E-1
3.582274229E0,-1.665806025E-1,-2.673811615E-1,-5.202481151E-1,6.081939525E-1
3.584761781E0,-1.740374416E-1,-2.620548606E-1,-5.095955133E-1,5.988734159E-1
3.587249333E0,-1.804290265E-1,-2.535327375E-1,-4.989428520E-1,5.880284450E-1
3.589736885E0,-1.846900880E-1,-2.439453751E-1,-4.861596823E-1,5.744310327E-1
3.592224437E0,-1.878858805E-1,-2.311622053E-1,-4.723112583E-1,5.584039702E-1
3.594711989E0,-1.878858805E-1,-2.162485123E-1,-4.573975801E-1,5.397009074E-1
3.597199541E0,-1.868206114E-1,-2.002695650E-1,-4.424838722E-1,5.203862187E-1
3.599687093E0,-1.836248189E-1,-1.842906028E-1,-4.265049398E-1,4.995873938E-1
3.602174646E0,-1.793637723E-1,-1.683116555E-1,-4.115912318E-1,4.794867238E-1
3.604662198E0,-1.729721874E-1,-1.523326933E-1,-3.988080621E-1,4.606218595E-1
3.607149750E0,-1.676458716E-1,-1.374190152E-1,-3.860249221E-1,4.427238016E-1
3.609637302E0,-1.612542868E-1,-1.235705838E-1,-3.743070066E-1,4.258853946E-1
3.612124958E0,-1.537974328E-1,-1.097221524E-1,-3.647196293E-1,4.107468917E-1
3.614612614E0,-1.474058628E-1,-9.693899006E-2,-3.572627902E-1,3.984499435E-1
3.617100271E0,-1.410142779E-1,-8.522108942E-2,-3.519364893E-1,3.885961312E-1
3.619587927E0,-1.335574239E-1,-7.669898123E-2,-3.508712053E-1,3.831852319E-1
3.622075479E0,-1.250353158E-1,-7.030740380E-2,-3.530017436E-1,3.810343714E-1
3.624563031E0,-1.165132076E-1,-6.604634225E-2,-3.583280444E-1,3.825394545E-1
3.627050583E0,-1.069258377E-1,-6.285055727E-2,-3.657849133E-1,3.862407670E-1
3.629538135E0,-9.733846784E-2,-5.965476483E-2,-3.732417524E-1,3.903112527E-1
3.632025687E0,-8.562056720E-2,-5.858949944E-2,-3.817638457E-1,3.956099656E-1
3.634513239E0,-7.496792823E-2,-5.752423778E-2,-3.881554306E-1,3.994920105E-1
3.637000791E0,-6.538055837E-2,-5.752423778E-2,-3.956122994E-1,4.050836294E-1
3.639488343E0,-5.366265774E-2,-5.645897239E-2,-4.020038545E-1,4.094806411E-1
3.641975896E0,-4.407528415E-2,-5.539371073E-2,-4.073301852E-1,4.134355737E-1
3.644463448E0,-3.342264518E-2,-5.219791830E-2,-4.115912318E-1,4.162319522E-1
3.646951000E0,-2.383527346E-2,-4.687159881E-2,-4.169175625E-1,4.202205623E-1
3.649438552E0,-1.531316526E-2,-3.834949061E-2,-4.222438633E-1,4.242582428E-1
3.651926104E0,-6.791055668E-3,-2.663159184E-2,-4.265049398E-1,4.273895457E-1
3.654413656E0,1.731053460E-3,-1.384842768E-2,-4.297007322E-1,4.299273134E-1
3.656901208E0,9.187898599E-3,-0.000000000E0,-4.318312407E-1,4.319289732E-1
3.659388760E0,1.557948068E-2,1.491369121E-2,-4.328965247E-1,4.334334314E-1
3.661876312E0,2.197106183E-2,2.769685537E-2,-4.318312407E-1,4.332759672E-1
3.664363864E0,2.942790836E-2,3.941475600E-2,-4.275701940E-1,4.303902829E-1
3.666851416E0,3.688475490E-2,5.006739125E-2,-4.211786091E-1,4.257448175E-1
3.669338968E0,4.647212476E-2,5.858949944E-2,-4.105259776E-1,4.172816388E-1
3.671827041E0,5.712476373E-2,6.711161137E-2,-3.977428079E-1,4.073899216E-1
3.674314229E0,6.777740270E-2,7.669898123E-2,-3.828291297E-1,3.962759803E-1
3.676801416E0,7.843003422E-2,8.735162020E-2,-3.679154217E-1,3.861907992E-1
3.679288604E0,8.908267319E-2,1.012000442E-1,-3.519364893E-1,3.768772534E-1
3.681775791E0,9.973530471E-2,1.171789989E-1,-3.402185738E-1,3.733988842E-1
3.684263031E0,1.103879437E-1,1.352884769E-1,-3.295659423E-1,3.729640471E-1
3.686750323E0,1.221058443E-1,1.565937549E-1,-3.210438192E-1,3.774924835E-1
3.689237666E0,1.327584833E-1,1.789642870E-1,-3.157175183E-1,3.864331537E-1
3.691725062E0,1.444763839E-1,2.034653574E-1,-3.135869801E-1,4.007597426E-1
3.694212510E0,1.540637612E-1,2.290316820E-1,-3.135869801E-1,4.177654222E-1
3.696700010E0,1.636511236E-1,2.577938139E-1,-3.157175183E-1,4.392230551E-1
3.699187562E0,1.721732318E-1,2.854906619E-1,-3.221091032E-1,4.635761147E-1
3.701675166E0,1.785648167E-1,3.110569715E-1,-3.295659423E-1,4.870888457E-1
3.704162823E0,1.817606091E-1,3.355580568E-1,-3.402185738E-1,5.112580625E-1
3.706650531E0,1.849564016E-1,3.579285741E-1,-3.519364893E-1,5.349589023E-1
3.709138291E0,1.849564016E-1,3.760380745E-1,-3.636543751E-1,5.548495368E-1
3.711626104E0,1.838911325E-1,3.909517527E-1,-3.775027990E-1,5.737312827E-1
3.714113916E0,1.828258783E-1,4.005391300E-1,-3.913512230E-1,5.890778184E-1
3.716601729E0,1.796300858E-1,4.069307148E-1,-4.041343927E-1,6.009860080E-1
3.719089541E0,1.732385010E-1,4.079959691E-1,-4.137217700E-1,6.063315858E-1
3.721577354E0,1.657816470E-1,4.079959691E-1,-4.211786091E-1,6.093731911E-1
3.724065166E0,1.561942846E-1,4.058654606E-1,-4.254396558E-1,6.083767972E-1
3.726552927E0,1.444763839E-1,4.016043842E-1,-4.265049398E-1,6.033787953E-1
3.729040531E0,1.306279600E-1,3.973433375E-1,-4.243744016E-1,5.958515121E-1
3.731528083E0,1.157142594E-1,3.920170069E-1,-4.201133549E-1,5.861419235E-1
3.734015635E0,9.867004305E-2,3.877559602E-1,-4.137217700E-1,5.755485775E-1
3.736503187E0,8.056056499E-2,3.834949136E-1,-4.073301852E-1,5.652222865E-1
3.738990739E0,6.351634115E-2,3.813643754E-1,-3.988080621E-1,5.554466516E-1
3.741478291E0,4.647212476E-2,3.802991211E-1,-3.902859688E-1,5.469096976E-1
3.743965843E0,3.049317189E-2,3.781685829E-1,-3.785680532E-1,5.359618285E-1
3.746453396E0,1.557948068E-2,3.749727905E-1,-3.636543751E-1,5.225818772E-1
3.748940948E0,2.796316985E-3,3.675159514E-1,-3.455449045E-1,5.044572082E-1
3.751428500E0,-7.856319658E-3,3.589938581E-1,-3.210438192E-1,4.816715123E-1
3.753916052E0,-1.637842879E-2,3.472759426E-1,-2.901511788E-1,4.528316904E-1
3.756403604E0,-2.277000993E-2,3.344927728E-1,-2.528669536E-1,4.199352148E-1
3.758891156E0,-2.703106403E-2,3.227748871E-1,-2.091911435E-1,3.855842848E-1
3.761378708E0,-2.809632942E-2,3.131875098E-1,-1.612542868E-1,3.533818968E-1
3.763866260E0,-2.277000993E-2,3.099917173E-1,-1.133174226E-1,3.308385957E-1
3.766353812E0,-1.424790081E-2,3.185138404E-1,-6.644582003E-2,3.256825390E-1
3.768841364E0,-3.994738800E-4,3.430148959E-1,-2.490053698E-2,3.439177447E-1
3.771328916E0,1.771000773E-2,3.866907060E-1,1.131842658E-2,3.872614792E-1
3.773816468E0,3.688475490E-2,4.463454783E-1,4.221107066E-2,4.498516929E-1
3.776304021E0,5.605949834E-2,5.166528821E-1,7.310371846E-2,5.248018879E-1
3.778791573E0,7.203845680E-2,5.880255103E-1,1.050616279E-1,6.016655929E-1
3.781279125E0,8.375635743E-2,6.562023759E-1,1.434111148E-1,6.768924829E-1
3.783766677E0,9.227846563E-2,7.126613855E-1,1.870869249E-1,7.425652046E-1
3.786254229E0,9.760478139E-2,7.574024200E-1,2.392848432E-1,8.002764244E-1
3.788741781E0,1.008005738E-1,7.861645818E-1,2.957438231E-1,8.459786724E-1
3.791229333E0,1.039963663E-1,8.021435142E-1,3.532680571E-1,8.826368345E-1
3.793716885E0,1.071921512E-1,8.064045906E-1,4.065312445E-1,9.094207903E-1
3.796204437E0,1.125184745E-1,8.021435142E-1,4.534028471E-1,9.282611519E-1
3.798691989E0,1.189100519E-1,7.904255986E-1,4.928175807E-1,9.390321588E-1
3.801179541E0,1.263668984E-1,7.733814120E-1,5.237102509E-1,9.425284231E-1
3.803667093E0,1.327584833E-1,7.510108948E-1,5.439502597E-1,9.367625441E-1
3.806154646E0,1.380847991E-1,7.233139873E-1,5.556681752E-1,9.225061825E-1
3.808642198E0,1.412805915E-1,6.924213767E-1,5.588639379E-1,9.009641888E-1
3.811129750E0,1.434111148E-1,6.572676897E-1,5.535376072E-1,8.711896730E-1
3.813617302E0,1.412805915E-1,6.221139431E-1,5.407544374E-1,8.363021735E-1
3.816104854E0,1.412805915E-1,5.869602561E-1,5.215796828E-1,7.978269946E-1
3.818592406E0,1.412805915E-1,5.560676455E-1,4.960133731E-1,7.584198694E-1
3.821079958E0,1.412805915E-1,5.283707380E-1,4.651207328E-1,7.179645802E-1
3.823567510E0,1.391500682E-1,5.038697124E-1,4.320975542E-1,6.782003575E-1
3.826055062E0,1.370195299E-1,4.825644195E-1,3.980091214E-1,6.403546137E-1
3.828542614E0,1.348890066E-1,4.612591565E-1,3.649859428E-1,6.034648225E-1
3.831030166E0,1.306279600E-1,4.410191476E-1,3.340933025E-1,5.684891268E-1
3.833517718E0,1.274321675E-1,4.186486006E-1,3.053312004E-1,5.336035513E-1
3.836005271E0,1.231711060E-1,3.962780833E-1,2.808301151E-1,5.010718454E-1
3.838492823E0,1.178447902E-1,3.749727905E-1,2.595248520E-1,4.710043917E-1
3.840980375E0,1.135837361E-1,3.536675274E-1,2.435459048E-1,4.441808109E-1
3.843467927E0,1.082574204E-1,3.334275186E-1,2.307627350E-1,4.196963415E-1
3.845955479E0,1.018658355E-1,3.153180480E-1,2.211753577E-1,3.983976138E-1
3.848443031E0,9.440898895E-2,2.982738316E-1,2.169143111E-1,3.806995589E-1
3.850930583E0,8.588688076E-2,2.822948694E-1,2.137185186E-1,3.643385167E-1
3.853418135E0,7.843003422E-2,2.695116997E-1,2.126532495E-1,3.521494442E-1
3.855905687E0,6.884266436E-2,2.567285299E-1,2.115879953E-1,3.397327336E-1
3.858393239E0,5.925529078E-2,2.471411675E-1,2.115879953E-1,3.306953672E-1
3.860880791E0,4.647212476E-2,2.396843135E-1,2.105227262E-1,3.223787319E-1
3.863368343E0,3.368896246E-2,2.311622053E-1,2.083922029E-1,3.130466764E-1
3.865855896E0,1.984053478E-2,2.226400971E-1,2.041311413E-1,3.027074207E-1
3.868343448E0,4.926844500E-3,2.130527347E-1,1.988048255E-1,2.914431338E-1
3.870831000E0,-9.986846708E-3,2.024000883E-1,1.913479865E-1,2.787105753E-1
3.873318552E0,-2.703106403E-2,1.917474568E-1,1.817606091E-1,2.655836679E-1
3.875806104E0,-4.407528415E-2,1.789642870E-1,1.721732318E-1,2.522190882E-1
3.878293656E0,-6.218476593E-2,1.640505940E-1,1.604553312E-1,2.377508271E-1
3.880781208E0,-8.029424399E-2,1.491369158E-1,1.487374306E-1,2.254147478E-1
3.883268760E0,-9.733846784E-2,1.331579536E-1,1.370195299E-1,2.144298709E-1
3.885756312E0,-1.143826842E-1,1.161137372E-1,1.253016293E-1,2.055876862E-1
3.888243864E0,-1.303616315E-1,9.693899006E-2,1.135837361E-1,1.982235805E-1
3.890731416E0,-1.431448013E-1,7.669898123E-2,1.039963663E-1,1.928429725E-1
3.893218968E0,-1.527321786E-1,5.432844535E-2,9.547425061E-2,1.881330138E-1
3.895706521E0,-1.580584943E-1,3.195790946E-2,8.801741153E-2,1.837140722E-1
3.898194073E0,-1.591237634E-1,9.587372653E-3,8.162582666E-2,1.790951294E-1
3.900681625E0,-1.569932252E-1,-1.278316416E-2,7.629951090E-2,1.750197058E-1
3.903169177E0,-1.516669095E-1,-3.515370190E-2,6.990792602E-2,1.706626857E-1
3.905656729E0,-1.431448013E-1,-5.539371073E-2,6.458161026E-2,1.665223159E-1
3.908144281E0,-1.314269006E-1,-7.456845790E-2,5.819002539E-2,1.619245632E-1
3.910631833E0,-1.165132076E-1,-9.267793596E-2,5.073318258E-2,1.572844022E-1
3.913119385E0,-9.840372950E-2,-1.086568907E-1,4.434159771E-2,1.531528360E-1
3.915606937E0,-7.709845901E-2,-1.246358454E-1,3.688475490E-2,1.511249532E-1
3.918095479E0,-5.259739235E-2,-1.384842694E-1,3.262370080E-2,1.516861378E-1
3.920582562E0,-2.490053698E-2,-1.512674391E-1,2.729738131E-2,1.557145527E-1
3.923069646E0,4.926844500E-3,-1.640505940E-1,2.410159074E-2,1.658847728E-1
3.925556729E0,3.581948951E-2,-1.736379713E-1,2.410159074E-2,1.789247539E-1
3.928043864E0,6.777740270E-2,-1.832253486E-1,2.516685426E-2,1.969737933E-1
3.930531052E0,9.973530471E-2,-1.896169335E-1,2.729738131E-2,2.159788404E-1
3.933018291E0,1.295626909E-1,-1.938779801E-1,3.049317189E-2,2.351701417E-1
3.935505583E0,1.593900770E-1,-1.949432492E-1,3.368896246E-2,2.540531701E-1
3.937992979E0,1.849564016E-1,-1.938779801E-1,3.688475490E-2,2.704774053E-1
3.940480479E0,2.094574571E-1,-1.917474568E-1,4.008054361E-2,2.867855706E-1
3.942968083E0,2.318280041E-1,-1.885516644E-1,4.221107066E-2,3.017908682E-1
3.945455739E0,2.520680130E-1,-1.842906028E-1,4.540686309E-2,3.155361986E-1
3.947943448E0,2.669816911E-1,-1.800295562E-1,4.860265180E-2,3.256563868E-1
3.950431208E0,2.786996067E-1,-1.768337637E-1,5.286370963E-2,3.342726769E-1
3.952919021E0,2.861564457E-1,-1.757684946E-1,5.499423668E-2,3.403005160E-1
3.955406885E0,2.882869840E-1,-1.757684946E-1,5.819002539E-2,3.426222816E-1
3.957894750E0,2.861564457E-1,-1.757684946E-1,6.032055244E-2,3.412017646E-1
3.960382614E0,2.765690684E-1,-1.778990328E-1,6.245107949E-2,3.347217543E-1
3.962870479E0,2.637858987E-1,-1.800295562E-1,6.245107949E-2,3.254132431E-1
3.965358343E0,2.467416972E-1,-1.842906028E-1,5.925529078E-2,3.136170928E-1
3.967846208E0,2.265016884E-1,-1.896169335E-1,5.499423668E-2,3.004695698E-1
3.970333760E0,2.030658871E-1,-1.970737725E-1,4.753739014E-2,2.869383728E-1
3.972821312E0,1.774995476E-1,-2.066611499E-1,3.795001656E-2,2.750547655E-1
3.975308864E0,1.519332230E-1,-2.194443047E-1,2.516685426E-2,2.680911742E-1
3.977796416E0,1.263668984E-1,-2.343579978E-1,1.238369010E-2,2.665438424E-1
3.980283968E0,1.018658355E-1,-2.514022291E-1,-2.530001104E-3,2.712676356E-1
3.982771521E0,7.949529588E-2,-2.695116997E-1,-1.531316526E-2,2.814081579E-1
3.985259073E0,6.032055244E-2,-2.876211703E-1,-2.809632942E-2,2.952184113E-1
3.987746625E0,4.540686309E-2,-3.057306707E-1,-3.981423005E-2,3.116379295E-1
3.990234177E0,3.581948951E-2,-3.217096329E-1,-5.046686530E-2,3.276080405E-1
3.992721729E0,3.049317189E-2,-3.355580568E-1,-6.111950055E-2,3.424392448E-1
3.995209281E0,3.155843541E-2,-3.430148959E-1,-7.177213579E-2,3.518613266E-1
