"Time (s)","Acceleration x (m/s^2)","Acceleration y (m/s^2)","Acceleration z (m/s^2)"
2.924807900E-2,9.645041466E0,1.069609642E0,-3.904344320E0
3.172932900E-2,9.678560257E0,1.040879130E0,-3.957016945E0
3.421177700E-2,9.659406662E0,1.016937137E0,-4.057573318E0
3.669708900E-2,9.640253067E0,1.026513934E0,-4.129399300E0
3.918240200E-2,9.592369080E0,1.021725535E0,-4.186860085E0
4.163240200E-2,9.554061890E0,1.045667648E0,-4.229955673E0
4.408240200E-2,9.534908295E0,1.069609642E0,-4.273051262E0
4.653240200E-2,9.501389503E0,1.136647224E0,-4.306570530E0
4.898813100E-2,9.458293915E0,1.194108129E0,-4.344877720E0
5.144386000E-2,9.419986725E0,1.241992116E0,-4.373608112E0
5.391229800E-2,9.372102737E0,1.304241419E0,-4.407126904E0
5.639412100E-2,9.324218750E0,1.342548609E0,-4.474164486E0
5.888917300E-2,9.281123161E0,1.371279001E0,-4.541202068E0
6.139662100E-2,9.209297180E0,1.400009394E0,-4.598662853E0
6.391521400E-2,9.170989990E0,1.428739905E0,-4.651335239E0
6.644323500E-2,9.118317604E0,1.471835494E0,-4.651335239E0
6.897870400E-2,9.065644264E0,1.490989089E0,-4.632181644E0
7.151943300E-2,9.060855865E0,1.524507880E0,-4.613028049E0
7.406307900E-2,9.046490669E0,1.543661594E0,-4.589086056E0
7.660729800E-2,9.041702271E0,1.567603588E0,-4.584297657E0
7.910932900E-2,9.027337074E0,1.581968784E0,-4.536413670E0
8.159708900E-2,8.993818283E0,1.601122379E0,-4.498106480E0
8.408485000E-2,8.965087891E0,1.610699177E0,-4.455010891E0
8.657261000E-2,8.926780701E0,1.610699177E0,-4.407126904E0
8.906031800E-2,8.898050308E0,1.596333981E0,-4.349666119E0
9.154802700E-2,8.859743118E0,1.572391987E0,-4.292205334E0
9.403573500E-2,8.840589523E0,1.558026791E0,-4.196436882E0
9.652344300E-2,8.816647530E0,1.519719481E0,-4.119822502E0
9.901115200E-2,8.816647530E0,1.500565886E0,-4.043208122E0
1.014988600E-1,8.816647530E0,1.486200690E0,-3.976170540E0
1.039865680E-1,8.850166321E0,1.481412292E0,-3.918709517E0
1.064742770E-1,8.893261909E0,1.452681899E0,-3.856460333E0
1.089619850E-1,8.950722694E0,1.423951507E0,-3.784634352E0
1.114496930E-1,9.032125473E0,1.380855799E0,-3.688866377E0
1.139374020E-1,9.099164009E0,1.328183413E0,-3.617040157E0
1.164251100E-1,9.166201591E0,1.280299306E0,-3.530848980E0
1.189128180E-1,9.214085579E0,1.237203717E0,-3.459022999E0
1.214005270E-1,9.276334763E0,1.170166135E0,-3.406350374E0
1.238882350E-1,9.338583946E0,1.093551636E0,-3.353677988E0
1.263759430E-1,9.372102737E0,1.031302333E0,-3.281852007E0
1.288636520E-1,9.419986725E0,9.882067442E-1,-3.243544817E0
1.313513600E-1,9.472659111E0,9.690531492E-1,-3.186083794E0
1.338390680E-1,9.525331497E0,9.307458997E-1,-3.138199806E0
1.363267770E-1,9.539696693E0,9.163807034E-1,-3.085527420E0
1.388144850E-1,9.558850288E0,9.115923047E-1,-3.052008629E0
1.413021930E-1,9.563638687E0,8.972271085E-1,-3.032855034E0
1.437899020E-1,9.544485092E0,8.924387097E-1,-3.023278236E0
1.462776100E-1,9.544485092E0,8.924387097E-1,-3.028066635E0
1.487653180E-1,9.525331497E0,9.115923047E-1,-3.047220230E0
1.512530270E-1,9.477447510E0,9.307458997E-1,-3.075950623E0
1.537407350E-1,9.410409927E0,9.403226972E-1,-3.109469414E0
1.562284430E-1,9.343372345E0,9.690531492E-1,-3.109469414E0
1.587161520E-1,9.290699959E0,1.012148738E0,-3.099892616E0
1.612038600E-1,9.242815971E0,1.064821243E0,-3.109469414E0
1.636915680E-1,9.166201591E0,1.141435623E0,-3.109469414E0
1.661793290E-1,9.099164009E0,1.198896527E0,-3.119046211E0
1.686670890E-1,9.041702271E0,1.261145711E0,-3.114257812E0
1.711548500E-1,8.993818283E0,1.304241419E0,-3.114257812E0
1.736426100E-1,8.950722694E0,1.366490602E0,-3.123834610E0
1.761303710E-1,8.893261909E0,1.414374709E0,-3.114257812E0
1.786181310E-1,8.850166321E0,1.452681899E0,-3.114257812E0
1.811058910E-1,8.802282333E0,1.519719481E0,-3.104681015E0
1.835936520E-1,8.759186745E0,1.581968784E0,-3.114257812E0
1.860814120E-1,8.735244751E0,1.634641171E0,-3.119046211E0
1.885691730E-1,8.711302757E0,1.682525277E0,-3.114257812E0
1.910569330E-1,8.682572365E0,1.696890473E0,-3.128623009E0
1.935446930E-1,8.668207169E0,1.725620866E0,-3.104681015E0
1.960324540E-1,8.658630371E0,1.730409265E0,-3.104681015E0
1.985202140E-1,8.634688377E0,1.744774461E0,-3.085527420E0
2.010079750E-1,8.629899979E0,1.759139657E0,-3.061585426E0
2.034957350E-1,8.629899979E0,1.783081770E0,-3.032855034E0
2.059834960E-1,8.653841972E0,1.787870169E0,-2.994547844E0
2.084712560E-1,8.677783966E0,1.783081770E0,-2.951452255E0
2.109590160E-1,8.696937561E0,1.773504853E0,-2.913144827E0
2.134467770E-1,8.720879555E0,1.754351258E0,-2.874837637E0
2.159345370E-1,8.754398346E0,1.744774461E0,-2.822165251E0
2.184222980E-1,8.797493935E0,1.730409265E0,-2.779069662E0
2.209100580E-1,8.859743118E0,1.692102075E0,-2.735974073E0
2.233978180E-1,8.902838707E0,1.639429569E0,-2.692878246E0
2.258855790E-1,8.931569099E0,1.596333981E0,-2.625840664E0
2.283733390E-1,8.950722694E0,1.553238392E0,-2.592321873E0
2.308611000E-1,8.950722694E0,1.514931083E0,-2.554014683E0
2.333488600E-1,8.979453087E0,1.438316703E0,-2.530072689E0
2.358366210E-1,9.008183479E0,1.404797792E0,-2.477400303E0
2.383243810E-1,9.051279068E0,1.361702204E0,-2.424727678E0
2.408121410E-1,9.113529205E0,1.323395014E0,-2.343324900E0
2.432999020E-1,9.199720383E0,1.309029818E0,-2.252345324E0
2.457876620E-1,9.261969566E0,1.294664621E0,-2.151788712E0
2.482754230E-1,9.314641953E0,1.270722508E0,-2.065597534E0
2.507631830E-1,9.348160744E0,1.218050122E0,-2.027290344E0
2.532509430E-1,9.391256332E0,1.151012421E0,-2.003348351E0
2.557387040E-1,9.405621529E0,1.055244446E0,-1.979406238E0
2.582264640E-1,9.419986725E0,9.786299467E-1,-1.917157054E0
2.607142250E-1,9.424775124E0,9.211691022E-1,-1.826177359E0
2.632019850E-1,9.415198326E0,9.020155072E-1,-1.658583283E0
2.656897460E-1,9.429563522E0,9.211691022E-1,-1.486200690E0
2.681775060E-1,9.477447510E0,9.403226972E-1,-1.289876223E0
2.706652660E-1,9.506177902E0,9.594763517E-1,-1.112705231E0
2.731530270E-1,9.582792282E0,9.355342984E-1,-9.307458997E-1
2.756407870E-1,9.640253067E0,8.924387097E-1,-8.014590144E-1
2.781285480E-1,9.697713852E0,8.445546627E-1,-6.530185342E-1
2.806163080E-1,9.745597839E0,8.254010081E-1,-5.189431906E-1
2.831040680E-1,9.807847023E0,8.062474132E-1,-3.705027103E-1
2.855918290E-1,9.860519409E0,7.870938182E-1,-2.220622003E-1
2.880795890E-1,9.917980194E0,7.535749674E-1,-1.071405262E-1
2.905673500E-1,9.941922188E0,7.439981699E-1,-2.573766746E-2
2.930551100E-1,9.965864182E0,7.439981699E-1,1.256955881E-2
2.955428710E-1,9.970652580E0,7.487865686E-1,2.214636654E-2
2.980306310E-1,9.975440979E0,7.248445749E-1,7.781155407E-3
3.005183910E-1,9.941922188E0,7.248445749E-1,-3.531447425E-2
3.030061520E-1,9.884461403E0,7.296329737E-1,-9.756372124E-2
3.054939120E-1,9.764751434E0,7.487865686E-1,-1.885433793E-1
3.079816730E-1,9.621099472E0,8.014590144E-1,-2.938882709E-1
3.104694330E-1,9.439140320E0,8.637082577E-1,-4.231751561E-1
3.129571930E-1,9.276334763E0,9.546879530E-1,-5.476736426E-1
3.154449540E-1,9.132682800E0,1.050456047E0,-6.386532784E-1
3.179327140E-1,9.036913872E0,1.136647224E0,-7.344213724E-1
3.204204750E-1,8.969876289E0,1.189319730E0,-8.254010081E-1
3.229082350E-1,8.955511093E0,1.213261724E0,-8.780734539E-1
3.253959960E-1,8.979453087E0,1.222838521E0,-9.068039060E-1
3.278837560E-1,9.008183479E0,1.237203717E0,-9.115923047E-1
3.303715160E-1,9.060855865E0,1.256357312E0,-8.780734539E-1
3.328592770E-1,9.118317604E0,1.304241419E0,-7.918822169E-1
3.353470370E-1,9.199720383E0,1.347337008E0,-6.625953317E-1
3.378347980E-1,9.314641953E0,1.404797792E0,-5.380968451E-1
3.403225580E-1,9.453505516E0,1.414374709E0,-4.423287511E-1
3.428103180E-1,9.606734276E0,1.380855799E0,-3.226186931E-1
3.452980790E-1,9.731232643E0,1.299453020E0,-2.507926226E-1
3.477858390E-1,9.850942612E0,1.218050122E0,-2.699462473E-1
3.502736000E-1,9.994594574E0,1.136647224E0,-3.130418658E-1
3.527613600E-1,1.010472870E1,1.055244446E0,-3.609259129E-1
3.552491210E-1,1.022922707E1,1.007360339E0,-4.423287511E-1
3.577368810E-1,1.032499504E1,1.021725535E0,-5.380968451E-1
3.602246410E-1,1.041597462E1,1.055244446E0,-6.625953317E-1
3.627124020E-1,1.054047298E1,1.107916832E0,-8.014590144E-1
3.652001620E-1,1.061708736E1,1.174954534E0,-9.738415480E-1
3.676879230E-1,1.070327854E1,1.227626920E0,-1.165377736E0
3.701756830E-1,1.077510452E1,1.251568913E0,-1.404797792E0
3.726634430E-1,1.081820011E1,1.275510907E0,-1.653794765E0
3.751512040E-1,1.086608410E1,1.270722508E0,-1.883638144E0
3.776389640E-1,1.087087250E1,1.261145711E0,-2.099116325E0
3.801267250E-1,1.081820011E1,1.227626920E0,-2.305017710E0
3.826144850E-1,1.074637413E1,1.160589218E0,-2.486977100E0
3.851022460E-1,1.066975975E1,1.107916832E0,-2.621052265E0
3.875900060E-1,1.058835697E1,1.083974838E0,-2.707243681E0
3.900777660E-1,1.052610779E1,1.107916832E0,-2.716820478E0
3.925655270E-1,1.045428181E1,1.151012421E0,-2.697666883E0
3.950532870E-1,1.037766743E1,1.198896527E0,-2.654571056E0
3.975410480E-1,1.027711105E1,1.251568913E0,-2.558803082E0
4.000288080E-1,1.020049667E1,1.270722508E0,-2.439092875E0
4.025165680E-1,1.009994030E1,1.313818216E0,-2.300229311E0
4.050043290E-1,9.956287384E0,1.356913805E0,-2.123058319E0
4.074920890E-1,9.793481827E0,1.390432596E0,-1.917157054E0
4.099798500E-1,9.606734276E0,1.380855799E0,-1.672948480E0
4.124676100E-1,9.424775124E0,1.404797792E0,-1.400009394E0
4.149553710E-1,9.290699959E0,1.433528304E0,-1.093551636E0
4.174431310E-1,9.166201591E0,1.471835494E0,-7.200561762E-1
4.199308910E-1,9.099164009E0,1.500565886E0,-3.657143116E-1
4.224186520E-1,9.051279068E0,1.500565886E0,-3.531447425E-2
4.249064120E-1,9.008183479E0,1.490989089E0,2.376245260E-1
4.273941730E-1,9.041702271E0,1.443105102E0,4.674678743E-1
4.298819330E-1,9.118317604E0,1.337760210E0,6.206967831E-1
4.323696930E-1,9.209297180E0,1.218050122E0,7.691373229E-1
4.348574540E-1,9.300276756E0,1.112705231E0,9.223662019E-1
4.373452140E-1,9.362525940E0,1.021725535E0,1.056441545E0
4.398329750E-1,9.439140320E0,9.403226972E-1,1.180940032E0
4.423207350E-1,9.506177902E0,8.780734539E-1,1.300650120E0
4.448084960E-1,9.621099472E0,8.014590144E-1,1.439513803E0
4.472962560E-1,9.769539833E0,6.961141229E-1,1.578377485E0
4.497840160E-1,9.922768593E0,6.003460884E-1,1.693299174E0
4.522717770E-1,1.008557510E1,4.997895956E-1,1.769913554E0
4.547595370E-1,1.022443867E1,3.992331326E-1,1.822586060E0
4.572472980E-1,1.036809063E1,3.130418658E-1,1.865681648E0
4.597350580E-1,1.054047298E1,2.268506140E-1,1.899200439E0
4.622228180E-1,1.070327854E1,1.406593472E-1,1.937507749E0
4.647105790E-1,1.085171890E1,8.319851011E-2,1.951872945E0
4.671983390E-1,1.100015926E1,4.489128292E-2,1.971026540E0
4.696861000E-1,1.110071659E1,2.094926499E-2,1.985391736E0
4.721738600E-1,1.114860058E1,-1.256955881E-2,1.980603337E0
4.746616210E-1,1.120127296E1,-5.087678507E-2,1.985391736E0
4.771493810E-1,1.123479176E1,-8.439560980E-2,1.975814939E0
4.796371410E-1,1.124436855E1,-1.322796494E-1,1.980603337E0
4.821249020E-1,1.121563816E1,-1.801636815E-1,1.971026540E0
4.846126620E-1,1.120127296E1,-2.280477136E-1,1.951872945E0
4.871004230E-1,1.115338898E1,-2.902969420E-1,1.956661344E0
4.895881830E-1,1.113902378E1,-3.477577865E-1,1.947084546E0
4.920759430E-1,1.114381218E1,-4.339490533E-1,1.927930951E0
4.945637040E-1,1.117254257E1,-5.345055461E-1,1.903988957E0
4.970514640E-1,1.125394535E1,-6.206967831E-1,1.841739655E0
4.995392250E-1,1.135929012E1,-7.020996213E-1,1.793855667E0
5.020269850E-1,1.145026970E1,-7.930793166E-1,1.731606364E0
5.045146930E-1,1.152688408E1,-8.984242082E-1,1.635838270E0
5.070024020E-1,1.158434486E1,-1.008557439E0,1.487397790E0
5.094901100E-1,1.158434486E1,-1.133055925E0,1.362899303E0
5.119778180E-1,1.160349846E1,-1.228824019E0,1.267131209E0
5.144655270E-1,1.163701725E1,-1.334168911E0,1.200093627E0
5.169532350E-1,1.167532444E1,-1.415571809E0,1.133055925E0
5.194409430E-1,1.173278522E1,-1.468244195E0,1.061229944E0
5.219286520E-1,1.179982281E1,-1.501762986E0,9.894038439E-1
5.244163600E-1,1.189080238E1,-1.530493379E0,8.888474107E-1
5.269040680E-1,1.194347477E1,-1.530493379E0,7.930793166E-1
5.293917770E-1,1.201051235E1,-1.501762986E0,6.733692288E-1
5.318794850E-1,1.205360889E1,-1.425148606E0,5.823895931E-1
5.343671930E-1,1.212064648E1,-1.324592113E0,4.770447016E-1
5.368549020E-1,1.224514484E1,-1.243189216E0,3.333925903E-1
5.393426100E-1,1.241273880E1,-1.147421122E0,1.610100716E-1
5.418303180E-1,1.260906315E1,-1.051653147E0,-3.531447425E-2
5.443180270E-1,1.282454109E1,-9.558850527E-1,-2.076970041E-1
5.468057350E-1,1.306875038E1,-8.744821548E-1,-3.465606868E-1
5.492934430E-1,1.334168911E1,-7.643488646E-1,-4.758476019E-1
5.517811520E-1,1.360983944E1,-6.398503780E-1,-5.189431906E-1
5.542688600E-1,1.384447098E1,-4.961982965E-1,-4.950011969E-1
5.567565680E-1,1.401685429E1,-3.381809890E-1,-4.423287511E-1
5.592442770E-1,1.408389187E1,-1.610100716E-1,-3.800795078E-1
5.617319850E-1,1.408868027E1,4.010287672E-2,-2.699462473E-1
5.642196930E-1,1.404558468E1,2.460042238E-1,-1.310825497E-1
5.667074020E-1,1.396418095E1,4.854243994E-1,4.129998013E-2
5.691951100E-1,1.387798977E1,7.392097712E-1,2.328361124E-1
5.716828180E-1,1.374391460E1,1.021725535E0,3.956418335E-1
5.741705270E-1,1.358589745E1,1.337760210E0,6.015431881E-1
5.766582870E-1,1.339436150E1,1.644217968E0,7.978677154E-1
5.791460480E-1,1.317409515E1,1.931522250E0,1.022922635E0
5.816338080E-1,1.293946266E1,2.237980127E0,1.224035621E0
5.841215680E-1,1.268088913E1,2.549226284E0,1.391629696E0
5.866093290E-1,1.244146919E1,2.850895643E0,1.525704980E0
5.890970890E-1,1.224993324E1,3.123834610E0,1.597531080E0
5.915848500E-1,1.213980007E1,3.382408381E0,1.607107878E0
5.940726100E-1,1.209191608E1,3.636193752E0,1.578377485E0
5.965603710E-1,1.208712769E1,3.861248732E0,1.487397790E0
5.990481310E-1,1.218768406E1,4.062361717E0,1.343745708E0
6.015358910E-1,1.234091282E1,4.225167274E0,1.180940032E0
6.040236520E-1,1.249414158E1,4.349666119E0,9.654618502E-1
6.065114120E-1,1.263300514E1,4.450222492E0,7.643488646E-1
6.089991730E-1,1.274313831E1,4.526836872E0,5.776011348E-1
6.114869330E-1,1.283411789E1,4.589086056E0,3.525462151E-1
6.139746930E-1,1.291073227E1,4.656123638E0,1.801636815E-1
6.164624540E-1,1.300650120E1,4.747103214E0,5.566519126E-2
6.189502140E-1,1.313578796E1,4.862025261E0,-5.446808785E-2
6.214379750E-1,1.327943993E1,5.015254021E0,-1.310825497E-1
6.239257350E-1,1.342309189E1,5.163694382E0,-1.885433793E-1
6.264134960E-1,1.354759026E1,5.297770023E0,-2.220622003E-1
6.289012560E-1,1.365772343E1,5.383961201E0,-2.268506140E-1
6.313890160E-1,1.377264500E1,5.455787182E0,-2.076970041E-1
6.338767770E-1,1.385404778E1,5.503671169E0,-1.693897694E-1
6.363645370E-1,1.391150856E1,5.561131954E0,-1.215057373E-1
6.388522980E-1,1.394502735E1,5.594650745E0,-3.052607179E-2
6.413400580E-1,1.396418095E1,5.609015942E0,8.439560980E-2
6.438278180E-1,1.397854710E1,5.613804340E0,1.849520802E-1
6.463155790E-1,1.401206589E1,5.575497150E0,3.094505668E-1
6.488033390E-1,1.403121948E1,5.498882771E0,4.578910768E-1
6.512911000E-1,1.404558468E1,5.407903194E0,6.254851818E-1
6.537788600E-1,1.402164268E1,5.283404827E0,8.409633636E-1
6.562666210E-1,1.402164268E1,5.163694382E0,1.075595140E0
6.587543810E-1,1.400727749E1,5.048772812E0,1.305438519E0
6.612421410E-1,1.392587376E1,4.943428040E0,1.516128182E0
6.637299020E-1,1.379179859E1,4.862025261E0,1.683722377E0
6.662176620E-1,1.358589745E1,4.809352875E0,1.865681648E0
6.687054230E-1,1.327943993E1,4.775833607E0,2.033275843E0
6.711931830E-1,1.292509747E1,4.785410881E0,2.172139406E0
6.736809430E-1,1.255639076E1,4.818929672E0,2.320580006E0
6.761687040E-1,1.220204926E1,4.857236862E0,2.397194386E0
6.786564640E-1,1.193868637E1,4.871602058E0,2.435501575E0
6.811442250E-1,1.175672722E1,4.857236862E0,2.373252392E0
6.836319850E-1,1.160828686E1,4.818929672E0,2.272696018E0
6.861197460E-1,1.147421169E1,4.747103214E0,2.133832216E0
6.886075060E-1,1.137844372E1,4.622604847E0,1.961449742E0
6.910952660E-1,1.123000336E1,4.507683277E0,1.798644066E0
6.935830270E-1,1.104325581E1,4.450222492E0,1.669357181E0
6.960707870E-1,1.087566090E1,4.421492100E0,1.568800688E0
6.985585480E-1,1.075116253E1,4.416703701E0,1.444302201E0
7.010463080E-1,1.067933655E1,4.383184910E0,1.300650120E0
7.035340680E-1,1.066018295E1,4.287416458E0,1.123479128E0
7.060218290E-1,1.061708736E1,4.167706490E0,9.415197968E-1
7.085095890E-1,1.060272217E1,4.009689331E0,7.930793166E-1
7.109973500E-1,1.059793377E1,3.851671934E0,6.733692288E-1
7.134851100E-1,1.060751057E1,3.693654776E0,5.776011348E-1
7.159728710E-1,1.061229897E1,3.506906986E0,5.105634928E-1
7.184606310E-1,1.061708736E1,3.310582399E0,4.578910768E-1
7.209483910E-1,1.062666416E1,3.119046211E0,4.483142793E-1
7.234361520E-1,1.065539455E1,2.913144827E0,4.674678743E-1
7.259239120E-1,1.071285534E1,2.731185675E0,4.818331003E-1
7.284116730E-1,1.077031612E1,2.544437885E0,5.249287486E-1
7.308994330E-1,1.080383492E1,2.309806108E0,5.440823436E-1
7.333871930E-1,1.083256531E1,2.027290344E0,5.249287486E-1
7.358749540E-1,1.084693050E1,1.759139657E0,5.057750940E-1
7.383627140E-1,1.086608410E1,1.481412292E0,4.914098978E-1
7.408504750E-1,1.092833328E1,1.174954534E0,4.483142793E-1
7.433382350E-1,1.100494766E1,9.020155072E-1,4.100070298E-1
7.458259960E-1,1.108156300E1,6.051344872E-1,3.621230125E-1
7.483137560E-1,1.111987019E1,3.369838893E-1,3.477577865E-1
7.508015160E-1,1.108635139E1,9.277531505E-2,3.716998100E-1
7.532892770E-1,1.099058247E1,-6.524199992E-2,4.626794755E-1
7.557770370E-1,1.089481449E1,-2.280477136E-1,5.488707423E-1
7.582647980E-1,1.080383492E1,-4.100070298E-1,6.302735806E-1
7.607525580E-1,1.075595093E1,-5.919663906E-1,6.781576276E-1
7.632403180E-1,1.070327854E1,-8.074445128E-1,6.877344251E-1
7.657280790E-1,1.066975975E1,-1.013345838E0,6.877344251E-1
7.682158390E-1,1.064581776E1,-1.190516829E0,6.494272351E-1
7.707036000E-1,1.066497135E1,-1.372476101E0,5.728127360E-1
7.731913600E-1,1.067454815E1,-1.535281897E0,4.818331003E-1
7.756791210E-1,1.070806694E1,-1.712452769E0,3.573346138E-1
7.781668810E-1,1.071285534E1,-1.856104851E0,2.088941038E-1
7.806546410E-1,1.065539455E1,-1.961449742E0,8.918401599E-2
7.831424020E-1,1.057399178E1,-2.018910646E0,-6.584054790E-3
7.856301620E-1,1.046385860E1,-2.028487444E0,-6.883329898E-2
7.881179230E-1,1.041118622E1,-2.009333849E0,-1.406593472E-1
7.906056830E-1,1.043512821E1,-1.990180135E0,-2.316390127E-1
7.930934430E-1,1.051653099E1,-1.923142552E0,-2.795230448E-1
7.955812040E-1,1.063145256E1,-1.827374458E0,-2.986766696E-1
7.980689640E-1,1.070806694E1,-1.736394763E0,-2.507926226E-1
8.005567250E-1,1.076552773E1,-1.650203466E0,-1.598129570E-1
8.030444850E-1,1.083256531E1,-1.587954283E0,-8.319851011E-2
8.055322460E-1,1.089960289E1,-1.540070295E0,7.781155407E-3
8.080200060E-1,1.099537086E1,-1.540070295E0,5.566519126E-2
8.105077660E-1,1.110071659E1,-1.559223890E0,5.087678507E-2
8.129955270E-1,1.118211937E1,-1.578377485E0,3.172317147E-2
8.154832870E-1,1.128746414E1,-1.607107878E0,3.651157767E-2
8.179710480E-1,1.138802052E1,-1.616684675E0,6.045359373E-2
8.204588080E-1,1.146942329E1,-1.626261473E0,1.035492271E-1
8.229465680E-1,1.153646088E1,-1.635838270E0,1.466448605E-1
8.254343290E-1,1.157476807E1,-1.669357181E0,2.041056901E-1
8.279220890E-1,1.154124928E1,-1.717241168E0,2.184709013E-1
8.304098500E-1,1.150294209E1,-1.779490471E0,1.897404790E-1
8.328976100E-1,1.145984650E1,-1.836951256E0,1.466448605E-1
8.353853710E-1,1.141196251E1,-1.908777356E0,6.045359373E-2
8.378731310E-1,1.129225254E1,-1.961449742E0,-6.404489279E-2
8.403608910E-1,1.104804420E1,-1.956661344E0,-1.789665818E-1
8.428486520E-1,1.070327854E1,-1.889623642E0,-2.364274114E-1
8.453364120E-1,1.031541824E1,-1.779490471E0,-3.034650683E-1
8.478241730E-1,9.961075783E0,-1.659780383E0,-3.944447339E-1
8.503119330E-1,9.640253067E0,-1.554435492E0,-5.189431906E-1
8.527996930E-1,9.386467934E0,-1.487397790E0,-6.386532784E-1
8.552874540E-1,9.190143585E0,-1.473032594E0,-7.727286220E-1
8.577752140E-1,9.032125473E0,-1.477820992E0,-8.924387097E-1
8.602629750E-1,8.869319916E0,-1.468244195E0,-9.977835417E-1
8.627507350E-1,8.711302757E0,-1.415571809E0,-1.045667648E0
8.652384960E-1,8.558073997E0,-1.343745708E0,-1.079186440E0
8.677262560E-1,8.438364029E0,-1.286284804E0,-1.174954534E0
8.702140160E-1,8.352172852E0,-1.238400817E0,-1.270722508E0
8.727017770E-1,8.270770073E0,-1.195305228E0,-1.385644197E0
8.751895370E-1,8.165425301E0,-1.104325533E0,-1.534084797E0
8.776772980E-1,8.074444771E0,-9.702502489E-1,-1.639429569E0
8.801650580E-1,8.007407188E0,-8.122329116E-1,-1.696890473E0
8.826528180E-1,8.002618790E0,-6.733692288E-1,-1.725620866E0
8.851405790E-1,8.050502777E0,-5.632359385E-1,-1.711255670E0
8.876283390E-1,8.107964516E0,-4.722562730E-1,-1.620275974E0
8.901161000E-1,8.179790497E0,-4.578910768E-1,-1.495777488E0
8.926038600E-1,8.261193275E0,-4.914098978E-1,-1.294664621E0
8.950916210E-1,8.352172852E0,-5.632359385E-1,-1.098340034E0
8.975793810E-1,8.457517624E0,-6.446388364E-1,-9.020155072E-1
9.000671410E-1,8.577227592E0,-7.068880796E-1,-7.152677774E-1
9.025549020E-1,8.692149162E0,-7.787141204E-1,-5.811924338E-1
9.050426620E-1,8.768763542E0,-8.553285599E-1,-5.141547918E-1
9.075304230E-1,8.845377922E0,-9.319429994E-1,-4.662707746E-1
9.100181830E-1,8.917203903E0,-1.008557439E0,-4.471171796E-1
9.125059430E-1,8.984241486E0,-1.099537134E0,-4.662707746E-1
9.149937040E-1,9.051279068E0,-1.228824019E0,-4.854243994E-1
9.174814640E-1,9.056067467E0,-1.358110905E0,-5.093663931E-1
9.199692250E-1,8.993818283E0,-1.473032594E0,-5.141547918E-1
9.224569850E-1,8.883685112E0,-1.549647093E0,-4.758476019E-1
9.249447460E-1,8.658630371E0,-1.568800688E0,-3.848679364E-1
9.274325060E-1,8.356961250E0,-1.473032594E0,-2.890998423E-1
9.299202660E-1,8.012195587E0,-1.348534107E0,-2.172738016E-1
9.324080270E-1,7.667430878E0,-1.195305228E0,-2.220622003E-1
9.348957870E-1,7.370550156E0,-1.037287831E0,-3.513490856E-1
9.373835480E-1,7.150283337E0,-8.792705536E-1,-5.380968451E-1
9.398713080E-1,6.973112583E0,-7.308300734E-1,-7.439981699E-1
9.423590680E-1,6.839036942E0,-5.967547894E-1,-9.211691022E-1
9.448468290E-1,6.704961777E0,-4.626794755E-1,-1.021725535E0
9.473345890E-1,6.599617004E0,-3.429693878E-1,-1.127070427E0
9.498223500E-1,6.489483833E0,-2.424129248E-1,-1.179742932E0
9.523101100E-1,6.374562263E0,-1.514332592E-1,-1.208473325E0
9.547978710E-1,6.250063419E0,-7.960720360E-2,-1.218050122E0
9.572856310E-1,6.149507046E0,-3.651157767E-2,-1.203684926E0
9.597733910E-1,6.072892666E0,1.616086066E-2,-1.165377736E0
9.622611520E-1,6.048950672E0,1.023521200E-1,-1.131858826E0
9.647489120E-1,6.101623058E0,1.693897694E-1,-1.074398041E0
9.672366730E-1,6.206967831E0,2.172738016E-1,-1.036090732E0
9.697244330E-1,6.326677799E0,2.699462473E-1,-9.834183455E-1
9.722121930E-1,6.489483833E0,2.699462473E-1,-8.972271085E-1
9.746999540E-1,6.714538574E0,2.172738016E-1,-7.679402232E-1
9.771877140E-1,6.953958988E0,1.310825497E-1,-6.482301354E-1
9.796754750E-1,7.174225330E0,2.094926499E-2,-4.806360006E-1
9.821632350E-1,7.408857346E0,-1.322796494E-1,-3.274070919E-1
9.846509960E-1,7.609970093E0,-2.902969420E-1,-1.981201917E-1
9.871387560E-1,7.791929245E0,-4.722562730E-1,-1.119289324E-1
9.896265160E-1,7.969100475E0,-6.302735806E-1,-4.489128292E-2
9.921142770E-1,8.141483307E0,-7.260416746E-1,1.256955881E-2
9.946020370E-1,8.261193275E0,-7.787141204E-1,3.172317147E-2
9.970897980E-1,8.356961250E0,-8.265981078E-1,7.960720360E-2
9.995775580E-1,8.419210434E0,-8.409633636E-1,8.439560980E-2
1.002065318E0,8.462306023E0,-8.505401611E-1,1.179144308E-1
1.004553079E0,8.428787231E0,-8.840589523E-1,1.657984704E-1
1.007040839E0,8.337807655E0,-8.840589523E-1,2.184709013E-1
1.009528600E0,8.213309288E0,-8.649053574E-1,2.855085433E-1
1.012016360E0,8.040925980E0,-7.930793166E-1,2.950853705E-1
1.014504068E0,7.830236435E0,-6.398503780E-1,2.232593149E-1
1.016991777E0,7.638700485E0,-4.339490533E-1,1.466448605E-1
1.019479485E0,7.413645744E0,-1.801636815E-1,8.918401599E-2
1.021967193E0,7.174225330E0,5.446808785E-2,4.608838260E-2
1.024454902E0,6.997054577E0,2.699462473E-1,2.214636654E-2
1.026942610E0,6.882133007E0,4.040215313E-1,-5.446808785E-2
1.029430318E0,6.805518150E0,5.045779943E-1,-1.693897694E-1
1.031918027E0,6.810306549E0,5.428852439E-1,-3.417722881E-1
1.034405735E0,6.896498203E0,5.333084464E-1,-5.189431906E-1
1.036893443E0,7.078457355E0,4.614823759E-1,-7.535749674E-1
1.039381152E0,7.322665691E0,3.609259129E-1,-9.307458997E-1
1.041868860E0,7.595604897E0,2.172738016E-1,-1.083974838E0
1.044356568E0,7.897274494E0,7.362170517E-2,-1.155800819E0
1.046844277E0,8.179790497E0,-7.481880486E-2,-1.170166135E0
1.049331985E0,8.404845238E0,-2.280477136E-1,-1.117493629E0
1.051819693E0,8.629899979E0,-4.052186310E-1,-1.012148738E0
1.054307402E0,8.802282333E0,-5.967547894E-1,-8.445546627E-1
1.056795110E0,8.921992302E0,-8.074445128E-1,-6.434416771E-1
1.059282818E0,9.012971878E0,-1.042076349E0,-4.183867574E-1
1.061770527E0,9.142259598E0,-1.214458823E0,-1.885433793E-1
1.064258235E0,9.247604370E0,-1.362899303E0,7.960720360E-2
1.066745943E0,9.338583946E0,-1.468244195E0,3.764882088E-1
1.069233652E0,9.329007149E0,-1.520916581E0,6.877344251E-1
1.071721360E0,9.194931984E0,-1.487397790E0,9.750386477E-1
1.074209068E0,9.017760277E0,-1.372476101E0,1.209670424E0
1.076696777E0,8.797493935E0,-1.204882026E0,1.415571809E0
1.079184485E0,8.524555206E0,-9.894038439E-1,1.506551385E0
1.081672246E0,8.218097687E0,-7.308300734E-1,1.492186189E0
1.084160006E0,7.882909298E0,-4.818331003E-1,1.410783410E0
1.086647766E0,7.590816498E0,-2.855085433E-1,1.286284804E0
1.089135527E0,7.413645744E0,-1.035492271E-1,1.085171938E0
1.091623287E0,7.346607685E0,2.573766746E-2,8.553285599E-1
1.094111048E0,7.360973358E0,1.310825497E-1,6.111199856E-1
1.096598808E0,7.451952934E0,2.268506140E-1,3.716998100E-1
1.099086568E0,7.485471725E0,2.460042238E-1,2.088941038E-1
1.101574329E0,7.552509308E0,2.651578486E-1,8.918401599E-2
1.104062089E0,7.614758492E0,3.369838893E-1,2.693476900E-2
1.106549850E0,7.700949669E0,3.657143116E-1,-5.925649032E-2
1.109037610E0,7.734468460E0,3.465606868E-1,-1.167173311E-1
1.111525371E0,7.801506042E0,2.555810213E-1,-1.789665818E-1
1.114013131E0,7.873332500E0,1.262941360E-1,-2.172738016E-1
1.116500891E0,7.926004887E0,-4.129998013E-2,-1.933317930E-1
1.118988652E0,8.021772385E0,-2.041056901E-1,-1.071405262E-1
1.121476412E0,8.165425301E0,-3.860650361E-1,-1.137245819E-2
1.123964173E0,8.356961250E0,-5.823895931E-1,9.876082093E-2
1.126451933E0,8.582015991E0,-7.595604658E-1,1.849520802E-1
1.128939693E0,8.778340340E0,-9.415197968E-1,3.094505668E-1
1.131427454E0,8.941145897E0,-1.104325533E0,4.626794755E-1
1.133915214E0,9.036913872E0,-1.233612418E0,6.398503780E-1
1.136402975E0,9.075222015E0,-1.310226917E0,7.978677154E-1
1.138890735E0,9.056067467E0,-1.348534107E0,9.415197968E-1
1.141378496E0,8.998606682E0,-1.319803715E0,1.056441545E0
1.143866256E0,8.883685112E0,-1.257554412E0,1.113902330E0
1.146354016E0,8.792705536E0,-1.195305228E0,1.094748735E0
1.148841777E0,8.763975143E0,-1.104325533E0,1.013345838E0
1.151329537E0,8.797493935E0,-1.027711034E0,8.888474107E-1
1.153817298E0,8.878896713E0,-9.702502489E-1,7.643488646E-1
1.156305058E0,8.974664688E0,-9.127894044E-1,6.781576276E-1
1.158792818E0,9.060855865E0,-8.553285599E-1,6.446388364E-1
1.161280579E0,9.123106003E0,-8.218097091E-1,6.398503780E-1
1.163768339E0,9.170989990E0,-7.882909179E-1,6.542156339E-1
1.166256100E0,9.223662376E0,-7.643488646E-1,6.590040326E-1
1.168743860E0,9.223662376E0,-7.787141204E-1,6.590040326E-1
1.171231621E0,9.228450775E0,-8.409633636E-1,6.925228238E-1
1.173719381E0,9.209297180E0,-9.032126069E-1,7.451952696E-1
1.176207141E0,9.204508781E0,-9.319429994E-1,7.978677154E-1
1.178694902E0,9.204508781E0,-9.463081956E-1,9.032126069E-1
1.181182662E0,9.180566788E0,-9.319429994E-1,1.022922635E0
1.183670423E0,9.118317604E0,-8.840589523E-1,1.190516829E0
1.186158183E0,9.070432663E0,-7.978677154E-1,1.405994892E0
1.188645943E0,8.950722694E0,-7.068880796E-1,1.573589087E0
1.191133704E0,8.797493935E0,-6.111199856E-1,1.731606364E0
1.193621464E0,8.649053574E0,-5.392939448E-1,1.798644066E0
1.196109225E0,8.572439194E0,-5.057750940E-1,1.774701953E0
1.198596985E0,8.577227592E0,-5.009866953E-1,1.688510776E0
1.201084746E0,8.668207169E0,-4.961982965E-1,1.602319479E0
1.203572506E0,8.787917137E0,-5.057750940E-1,1.501762986E0
1.206060266E0,8.945934296E0,-4.770447016E-1,1.468244195E0
1.208548027E0,9.103952408E0,-4.770447016E-1,1.439513803E0
1.211035787E0,9.252392769E0,-4.722562730E-1,1.453878999E0
1.213523548E0,9.324218750E0,-4.914098978E-1,1.487397790E0
1.216011308E0,9.333795547E0,-5.105634928E-1,1.511339784E0
1.218499068E0,9.319430351E0,-5.871779919E-1,1.449090600E0
1.220986829E0,9.362525940E0,-6.925228238E-1,1.338957310E0
1.223474589E0,9.482235909E0,-8.313865662E-1,1.238400817E0
1.225962350E0,9.640253067E0,-9.941922426E-1,1.185728431E0
1.228450110E0,9.831789017E0,-1.133055925E0,1.252766013E0
1.230937871E0,9.961075783E0,-1.214458823E0,1.405994892E0
1.233425631E0,9.999382973E0,-1.252766013E0,1.616684675E0
1.235913391E0,1.000417137E1,-1.204882026E0,1.808220863E0
1.238401152E0,9.980229378E0,-1.156997919E0,1.961449742E0
1.240888912E0,9.961075783E0,-1.128267527E0,2.042852640E0
1.243376673E0,9.961075783E0,-1.142632723E0,2.081159830E0
1.245864433E0,9.961075783E0,-1.219247222E0,2.129043818E0
1.248352193E0,9.999382973E0,-1.324592113E0,2.162562609E0
1.250839954E0,1.007120991E1,-1.429937005E0,2.191293001E0
1.253327714E0,1.017655468E1,-1.516128182E0,2.186504602E0
1.255815475E0,1.032978344E1,-1.621473074E0,2.095525026E0
1.258303235E0,1.050216579E1,-1.722029567E0,1.971026540E0
1.260790996E0,1.072243214E1,-1.813009262E0,1.865681648E0
1.263278756E0,1.096664047E1,-1.880046844E0,1.765125155E0
1.265766516E0,1.119648457E1,-1.927930951E0,1.683722377E0
1.268254277E0,1.138802052E1,-2.004545450E0,1.597531080E0
1.270742037E0,1.151730728E1,-2.143409014E0,1.496974587E0
1.273229798E0,1.158434486E1,-2.258330822E0,1.324592113E0
1.275717558E0,1.158434486E1,-2.358887196E0,1.094748735E0
1.278205318E0,1.155082607E1,-2.387617588E0,9.175778031E-1
1.280693079E0,1.144069290E1,-2.320580006E0,7.787141204E-1
1.283180839E0,1.123000336E1,-2.167351007E0,7.020996213E-1
1.285668600E0,1.098100567E1,-1.975814939E0,6.829460263E-1
1.288156360E0,1.071764374E1,-1.769913554E0,6.925228238E-1
1.290644121E0,1.041597462E1,-1.520916581E0,6.542156339E-1
1.293131881E0,1.015261269E1,-1.247977614E0,5.584475398E-1
1.295619641E0,9.913191795E0,-9.510966539E-1,4.147954583E-1
1.298107402E0,9.697713852E0,-6.206967831E-1,2.280477136E-1
1.300595162E0,9.496601105E0,-2.472013235E-1,2.214636654E-2
1.303082923E0,9.285911560E0,1.119289324E-1,-1.502361596E-1
1.305570683E0,9.017760277E0,4.902127981E-1,-2.843114436E-1
1.308058443E0,8.735244751E0,9.068039060E-1,-4.183867574E-1
1.310546204E0,8.467094421E0,1.294664621E0,-5.668272376E-1
1.313033964E0,8.261193275E0,1.615487576E0,-7.727286220E-1
1.315521725E0,8.127118111E0,1.821388960E0,-9.546879530E-1
1.318009485E0,8.112752914E0,1.869272947E0,-1.064821243E0
1.320497246E0,8.218097687E0,1.754351258E0,-1.079186440E0
1.322985006E0,8.409633636E0,1.490989089E0,-1.002571940E0
1.325472766E0,8.711302757E0,1.146224022E0,-8.301894665E-1
1.327960527E0,9.070432663E0,7.679402232E-1,-6.338648796E-1
1.330448287E0,9.458293915E0,3.848679364E-1,-4.279635549E-1
1.332936048E0,9.831789017E0,4.010287672E-2,-2.268506140E-1
1.335423808E0,1.012867069E1,-2.711433470E-1,-6.584054790E-3
1.337911568E0,1.038245583E1,-5.584475398E-1,2.328361124E-1
1.340399329E0,1.066975975E1,-8.026561141E-1,5.584475398E-1
1.342887089E0,1.101452446E1,-1.018134236E0,1.061229944E0
1.345374850E0,1.128746414E1,-1.152209520E0,1.698087573E0
1.347862610E0,1.139280891E1,-1.113902330E0,2.464232206E0
1.350350371E0,1.119169617E1,-7.691373229E-1,3.254318714E0
1.352838131E0,1.069370174E1,-1.370680481E-1,4.077924252E0
1.355325891E0,9.889249802E0,7.392097712E-1,4.877587318E0
1.357813652E0,8.898050308E0,1.701678872E0,5.552752495E0
1.360301412E0,7.911639690E0,2.592321873E0,6.060323238E0
1.362789173E0,6.930016994E0,3.396773577E0,6.275801182E0
1.365276933E0,6.001066685E0,4.143764496E0,6.213551998E0
1.367764693E0,5.196614742E0,4.828506470E0,5.945401192E0
1.370252454E0,4.588487625E0,5.522824764E0,5.696404457E0
1.372740214E0,4.090493679E0,6.188412666E0,5.452195644E0
1.375227975E0,3.683479309E0,6.715137005E0,5.112219334E0
1.377715735E0,3.400963545E0,7.088632584E0,4.757877350E0
1.380203496E0,3.223792553E0,7.313687801E0,4.451419353E0
1.382691256E0,3.051409960E0,7.414244175E0,4.140173435E0
1.385179016E0,2.907757998E0,7.447762966E0,3.785831451E0
1.387666777E0,2.802412987E0,7.399878979E0,3.273472309E0
1.390154537E0,2.778470993E0,7.294534206E0,2.631826162E0
1.392642298E0,2.845508814E0,7.107786179E0,1.870470047E0
1.395130058E0,2.979583979E0,6.906673431E0,1.085171938E0
1.397617818E0,3.219004154E0,6.643311024E0,3.525462151E-1
1.400105579E0,3.558980942E0,6.293757915E0,-2.938882709E-1
1.402593339E0,3.884592295E0,5.843647957E0,-8.589198589E-1
1.405081100E0,4.258087635E0,5.249885559E0,-1.165377736E0
1.407568860E0,4.923676014E0,4.747103214E0,-1.447893500E0
1.410056621E0,5.479130745E0,4.531625271E0,-2.099116325E0
1.412544381E0,5.833472252E0,4.340089321E0,-2.850895643E0
1.415032141E0,6.029797077E0,4.057573318E0,-3.291428804E0
1.417519902E0,6.139930248E0,3.564367771E0,-3.487753391E0
1.420007662E0,6.245275021E0,2.889202833E0,-3.540425777E0
1.422495423E0,6.460753441E0,2.170942307E0,-3.473388195E0
1.424983183E0,6.819883347E0,1.524507880E0,-3.286640406E0
1.427470943E0,7.279570103E0,1.083974838E0,-2.946663857E0
1.429958704E0,7.806294441E0,7.535749674E-1,-2.501342297E0
1.432446464E0,8.333019257E0,4.519055784E-1,-1.965041041E0
1.434934225E0,8.768763542E0,1.550245583E-1,-1.404797792E0
1.437421985E0,9.094375610E0,-1.274912357E-1,-8.254010081E-1
1.439909746E0,9.261969566E0,-3.333925903E-1,-2.938882709E-1
1.442397506E0,9.314641953E0,-4.866214991E-1,1.849520802E-1
1.444885266E0,9.362525940E0,-5.776011348E-1,6.542156339E-1
1.447373027E0,9.405621529E0,-6.302735806E-1,1.046864748E0
1.449860787E0,9.439140320E0,-6.829460263E-1,1.358110905E0
1.452348548E0,9.496601105E0,-7.499836683E-1,1.640626669E0
1.454836308E0,9.549273491E0,-8.265981078E-1,1.899200439E0
1.457324068E0,9.611522675E0,-8.840589523E-1,2.076371431E0
1.459811829E0,9.668983459E0,-9.319429994E-1,2.176927805E0
1.462299589E0,9.697713852E0,-9.032126069E-1,2.200869799E0
1.464787350E0,9.697713852E0,-8.265981078E-1,2.162562609E0
1.467275110E0,9.621099472E0,-7.308300734E-1,2.004545450E0
1.469762871E0,9.510966301E0,-6.446388364E-1,1.722029567E0
1.472250631E0,9.333795547E0,-6.302735806E-1,1.281496406E0
1.474738391E0,9.147047997E0,-7.451952696E-1,6.542156339E-1
1.477226152E0,9.056067467E0,-9.798270464E-1,-9.756372124E-2
1.479713912E0,9.070432663E0,-1.329380512E0,-8.924387097E-1
1.482201673E0,9.194931984E0,-1.722029567E0,-1.610699177E0
1.484689433E0,9.352949142E0,-2.124255419E0,-2.218826532E0
1.487177193E0,9.573215485E0,-2.473809004E0,-2.716820478E0
1.489664954E0,9.827000618E0,-2.799420357E0,-3.075950623E0
1.492152714E0,1.006163311E1,-3.096301317E0,-3.315370798E0
1.494640475E0,1.029626465E1,-3.369240284E0,-3.420715570E0
1.497128235E0,1.048301220E1,-3.627814054E0,-3.425503969E0
1.499615996E0,1.063145256E1,-3.867234230E0,-3.344101191E0
1.502103756E0,1.077031612E1,-4.130596638E0,-3.248333216E0
1.504591516E0,1.089960289E1,-4.393958569E0,-3.142988205E0
1.507079277E0,1.103846741E1,-4.686051369E0,-2.984971046E0
1.509567037E0,1.121563816E1,-4.978143692E0,-2.755127668E0
1.512054798E0,1.141675091E1,-5.217564106E0,-2.381632090E0
1.514542558E0,1.155082607E1,-5.389946461E0,-1.936310649E0
1.517030318E0,1.163222885E1,-5.452195644E0,-1.395220995E0
1.519518079E0,1.164659405E1,-5.361216068E0,-8.301894665E-1
1.522005839E0,1.157476807E1,-5.188833714E0,-2.843114436E-1
1.524493600E0,1.141196251E1,-4.935048103E0,2.998737693E-1
1.526981360E0,1.120127296E1,-4.647744179E0,8.361749649E-1
1.529469121E0,1.095227528E1,-4.389170170E0,1.291073322E0
1.531956881E0,1.071764374E1,-4.164115429E0,1.688510776E0
1.534444641E0,1.048780060E1,-3.915118217E0,2.004545450E0
1.536932402E0,1.031062984E1,-3.632602453E0,2.258330822E0
1.539420162E0,1.010951710E1,-3.306991100E0,2.454655409E0
1.541907923E0,9.898826599E0,-2.952649355E0,2.540846586E0
1.544395683E0,9.664195061E0,-2.603095770E0,2.598307371E0
1.546883443E0,9.381679535E0,-2.248754025E0,2.655768156E0
1.549371204E0,9.051279068E0,-1.841739655E0,2.674921751E0
1.551858964E0,8.754398346E0,-1.434725404E0,2.670133352E0
1.554346725E0,8.500613213E0,-1.066018343E0,2.540846586E0
1.556834485E0,8.294712067E0,-7.595604658E-1,2.296638012E0
1.559322246E0,8.179790497E0,-5.345055461E-1,1.961449742E0
1.561810006E0,8.136694908E0,-3.621230125E-1,1.540070295E0
1.564297766E0,8.165425301E0,-2.328361124E-1,1.099537134E0
1.566785527E0,8.218097687E0,-1.227028370E-1,6.254851818E-1
1.569273287E0,8.309077263E0,-7.781155407E-3,1.897404790E-1
1.571761048E0,8.371326447E0,1.119289324E-1,-1.933317930E-1
1.574248808E0,8.385691643E0,2.076970041E-1,-5.716156363E-1
1.576736568E0,8.404845238E0,3.274070919E-1,-9.068039060E-1
1.579224329E0,8.371326447E0,4.279635549E-1,-1.237203717E0
1.581712089E0,8.313865662E0,5.476736426E-1,-1.577180386E0
1.584199850E0,8.213309288E0,6.865373254E-1,-1.893214941E0
1.586687610E0,8.074444771E0,8.158242106E-1,-2.166153908E0
1.589175371E0,7.902062893E0,8.924387097E-1,-2.405574083E0
1.591663131E0,7.700949669E0,8.924387097E-1,-2.611475468E0
1.594150891E0,7.485471725E0,7.775170207E-1,-2.774281263E0
1.596638652E0,7.327454090E0,5.428852439E-1,-2.879626036E0
1.599126412E0,7.250839710E0,1.693897694E-1,-2.908356428E0
1.601614173E0,7.293935299E0,-2.998737693E-1,-2.850895643E0
1.604101933E0,7.485471725E0,-8.505401611E-1,-2.692878246E0
1.606589693E0,7.863755703E0,-1.415571809E0,-2.443881273E0
1.609077454E0,8.409633636E0,-1.951872945E0,-2.060809135E0
1.611565214E0,9.051279068E0,-2.378040791E0,-1.567603588E0
1.614052975E0,9.707290649E0,-2.741959572E0,-1.016937137E0
1.616540735E0,1.032978344E1,-3.067570925E0,-4.806360006E-1
1.619028496E0,1.087087250E1,-3.378817081E0,7.781155407E-3
1.621516256E0,1.131619453E1,-3.627814054E0,4.722562730E-1
1.624004016E0,1.168011284E1,-3.814561844E0,8.696937561E-1
1.626491777E0,1.192910957E1,-3.915118217E0,1.185728431E0
1.628979537E0,1.212064648E1,-3.934272051E0,1.453878999E0
1.631467298E0,1.219726086E1,-3.833715439E0,1.702875972E0
1.633955058E0,1.214937687E1,-3.642179251E0,1.908777356E0
1.636442818E0,1.193389797E1,-3.359663486E0,2.062006235E0
1.638930579E0,1.163222885E1,-3.000533342E0,2.205658197E0
1.641418339E0,1.123479176E1,-2.612672567E0,2.272696018E0
1.643906100E0,1.078468132E1,-2.191293001E0,2.282272816E0
1.646393860E0,1.033457184E1,-1.741183162E0,2.220023632E0
1.648881621E0,9.865307808E0,-1.267131209E0,2.191293001E0
1.651369381E0,9.415198326E0,-8.026561141E-1,2.224812031E0
1.653857141E0,8.984241486E0,-3.238157928E-1,2.378040791E0
1.656344902E0,8.567650795E0,1.454477459E-1,2.631826162E0
1.658832662E0,8.170213699E0,5.955576897E-1,2.957437754E0
1.661320423E0,7.835024834E0,9.786299467E-1,3.292625904E0
1.663808183E0,7.581239700E0,1.294664621E0,3.613448858E0
1.666295943E0,7.399280548E0,1.548449993E0,3.876811028E0
1.668783704E0,7.274781704E0,1.768716455E0,4.087501049E0
1.671271464E0,7.207744122E0,1.950675845E0,4.231153011E0
1.673759225E0,7.145494938E0,2.079962730E0,4.307767391E0
1.676246985E0,7.078457355E0,2.175730705E0,4.288613796E0
1.678734746E0,7.078457355E0,2.247556925E0,4.183269024E0
1.681222506E0,7.073668957E0,2.276287317E0,4.034828186E0
1.683710266E0,7.073668957E0,2.290652514E0,3.862445831E0
1.686198027E0,7.035361767E0,2.295440912E0,3.690063477E0
1.688685787E0,6.977900982E0,2.276287317E0,3.512892485E0
1.691173548E0,6.886921406E0,2.228403330E0,3.321356297E0
1.693661308E0,6.800729752E0,2.170942307E0,3.120243311E0
1.696149068E0,6.676231384E0,2.060809135E0,2.914341927E0
1.698636829E0,6.537367821E0,1.926733851E0,2.646191359E0
1.701124589E0,6.455965042E0,1.716044068E0,2.349310398E0
1.703612350E0,6.451176643E0,1.481412292E0,2.042852640E0
1.706100110E0,6.494272232E0,1.203684926E0,1.765125155E0
1.708587871E0,6.623558998E0,8.924387097E-1,1.482609391E0
1.711075631E0,6.800729752E0,5.811924338E-1,1.228824019E0
1.713563391E0,7.064092159E0,2.316390127E-1,1.003769040E0
1.716051152E0,7.360973358E0,-1.610100716E-1,8.218097091E-1
1.718538912E0,7.648277283E0,-5.249287486E-1,7.164648771E-1
1.721026673E0,7.954735279E0,-8.888474107E-1,7.356184721E-1
1.723514433E0,8.213309288E0,-1.228824019E0,8.074445128E-1
1.726002193E0,8.414422035E0,-1.501762986E0,9.032126069E-1
1.728489954E0,8.610746384E0,-1.707664371E0,9.894038439E-1
1.730977714E0,8.744821548E0,-1.808220863E0,1.080383539E0
1.733465475E0,8.831012726E0,-1.832162857E0,1.176151633E0
1.735953235E0,8.859743118E0,-1.779490471E0,1.271919608E0
1.738440996E0,8.778340340E0,-1.626261473E0,1.372476101E0
1.740928756E0,8.567650795E0,-1.405994892E0,1.482609391E0
1.743416516E0,8.218097687E0,-1.118690729E0,1.640626669E0
1.745904277E0,7.767987251E0,-8.122329116E-1,1.836951256E0
1.748392037E0,7.236474514E0,-4.722562730E-1,2.023699045E0
1.750879798E0,6.776787758E0,-1.274912357E-1,2.205658197E0
1.753367558E0,6.384139061E0,1.981201917E-1,2.368463993E0
1.755855318E0,6.082469463E0,4.806360006E-1,2.473809004E0
1.758343079E0,5.910087109E0,7.104793787E-1,2.531269789E0
1.760830839E0,5.814318657E0,8.349778652E-1,2.507327795E0
1.763318600E0,5.823895454E0,8.972271085E-1,2.411559582E0
1.765806360E0,5.981913090E0,9.020155072E-1,2.258330822E0
1.768294121E0,6.274005413E0,8.972271085E-1,2.143409014E0
1.770781881E0,6.594828606E0,8.684966564E-1,2.143409014E0
1.773269641E0,6.934805393E0,8.397662640E-1,2.301426411E0
1.775757402E0,7.217320919E0,7.344213724E-1,2.636614561E0
1.778245162E0,7.461529732E0,5.859808922E-1,3.024475336E0
1.780732923E0,7.691372871E0,4.040215313E-1,3.450643301E0
1.783220683E0,7.897274494E0,2.172738016E-1,3.857657433E0
1.785708443E0,8.064867973E0,4.967968538E-2,4.240729809E0
1.788196204E0,8.246828079E0,-6.045359373E-2,4.542399406E0
1.790683964E0,8.395268440E0,-1.562216580E-1,4.748300552E0
1.793171725E0,8.534132004E0,-2.855085433E-1,4.858433723E0
1.795659485E0,8.658630371E0,-4.243722558E-1,4.844068527E0
1.798147246E0,8.783128738E0,-5.392939448E-1,4.781819344E0
1.800635006E0,8.907627106E0,-6.542156339E-1,4.681262970E0
1.803122766E0,9.003395081E0,-7.643488646E-1,4.537611008E0
1.805610527E0,9.123106003E0,-8.696937561E-1,4.408323765E0
1.808098287E0,9.281123161E0,-9.798270464E-1,4.317344189E0
1.810586048E0,9.439140320E0,-1.104325533E0,4.245518208E0
1.813073808E0,9.554061890E0,-1.247977614E0,4.173692226E0
1.815561568E0,9.621099472E0,-1.425148606E0,4.063559055E0
1.818049329E0,9.688137054E0,-1.578377485E0,3.891176224E0
1.820537089E0,9.726444244E0,-1.678933978E0,3.623025656E0
1.823024850E0,9.726444244E0,-1.707664371E0,3.297414303E0
1.825512610E0,9.640253067E0,-1.693299174E0,2.947860956E0
1.828000371E0,9.510966301E0,-1.616684675E0,2.550423384E0
1.830488131E0,9.233239174E0,-1.496974587E0,2.157774210E0
1.832975891E0,8.864531517E0,-1.334168911E0,1.712452769E0
1.835463652E0,8.481459618E0,-1.161786318E0,1.267131209E0
1.837951412E0,8.208520889E0,-1.003769040E0,8.936358094E-1
1.840439173E0,8.060079575E0,-8.840589523E-1,5.871779919E-1
1.842926933E0,7.973888874E0,-8.218097091E-1,3.429693878E-1
1.845414693E0,7.978677273E0,-8.074445128E-1,1.466448605E-1
1.847902454E0,8.084021568E0,-8.170213103E-1,-1.137245819E-2
1.850390214E0,8.242039680E0,-8.122329116E-1,-1.454477459E-1
1.852877975E0,8.409633636E0,-8.218097091E-1,-2.076970041E-1
1.855365735E0,8.534132004E0,-7.930793166E-1,-1.502361596E-1
1.857853496E0,8.596381187E0,-8.122329116E-1,1.735796221E-2
1.860341256E0,8.634688377E0,-8.601169586E-1,2.519897223E-1
1.862829016E0,8.687360764E0,-9.463081956E-1,5.057750940E-1
1.865316777E0,8.759186745E0,-1.037287831E0,7.835025191E-1
1.867804537E0,8.874108315E0,-1.123479128E0,1.042076349E0
1.870292298E0,8.998606682E0,-1.195305228E0,1.281496406E0
1.872780058E0,9.156624794E0,-1.252766013E0,1.559223890E0
1.875267818E0,9.343372345E0,-1.343745708E0,1.813009262E0
1.877755579E0,9.506177902E0,-1.429937005E0,2.090736628E0
1.880243339E0,9.678560257E0,-1.477820992E0,2.368463993E0
1.882731100E0,9.827000618E0,-1.516128182E0,2.612672567E0
1.885218860E0,9.913191795E0,-1.496974587E0,2.804208755E0
1.887706621E0,9.932345390E0,-1.405994892E0,2.914341927E0
1.890194381E0,9.894038200E0,-1.310226917E0,2.938283920E0
1.892682141E0,9.836577415E0,-1.214458823E0,2.842515945E0
1.895169902E0,9.759963036E0,-1.123479128E0,2.650979757E0
1.897657662E0,9.645041466E0,-1.003769040E0,2.358887196E0
1.900145423E0,9.515754700E0,-8.792705536E-1,2.018910646E0
1.902633183E0,9.372102737E0,-7.451952696E-1,1.678933978E0
1.905120943E0,9.190143585E0,-6.015431881E-1,1.338957310E0
1.907608704E0,8.984241486E0,-4.770447016E-1,1.008557439E0
1.910096464E0,8.763975143E0,-3.525462151E-1,6.829460263E-1
1.912584225E0,8.548497200E0,-2.136825025E-1,3.525462151E-1
1.915071985E0,8.333019257E0,-1.035492271E-1,5.087678507E-2
1.917559746E0,8.151060104E0,-2.214636654E-2,-2.460042238E-1
1.920047506E0,7.988254070E0,2.094926499E-2,-5.524620414E-1
1.922535266E0,7.863755703E0,4.489128292E-2,-8.541314602E-1
1.925023027E0,7.796717644E0,3.531447425E-2,-1.122282028E0
1.927510787E0,7.777564049E0,3.052607179E-2,-1.352125406E0
1.929998548E0,7.777564049E0,8.798690885E-2,-1.524507880E0
1.932486308E0,7.758410454E0,1.406593472E-1,-1.639429569E0
1.934974068E0,7.681796074E0,1.837549806E-1,-1.701678872E0
1.937461829E0,7.547720909E0,2.268506140E-1,-1.701678872E0
1.939949589E0,7.375338554E0,2.555810213E-1,-1.682525277E0
1.942437350E0,7.236474514E0,2.316390127E-1,-1.601122379E0
1.944925110E0,7.193378925E0,1.837549806E-1,-1.519719481E0
1.947412871E0,7.231686115E0,1.215057373E-1,-1.409586191E0
1.949900631E0,7.346607685E0,3.531447425E-2,-1.261145711E0
1.952388391E0,7.518990517E0,-9.397241473E-2,-1.045667648E0
1.954876152E0,7.758410454E0,-2.663549483E-1,-7.727286220E-1
1.957363912E0,8.040925980E0,-4.961982965E-1,-4.279635549E-1
1.959851673E0,8.313865662E0,-7.739257216E-1,-7.841010392E-2
1.962339433E0,8.572439194E0,-1.104325533E0,2.902969420E-1
1.964827193E0,8.807070732E0,-1.415571809E0,6.159083843E-1
1.967314954E0,9.027337074E0,-1.726817966E0,8.457517624E-1
1.969802714E0,9.238027573E0,-1.966238141E0,1.008557439E0
1.972290475E0,9.419986725E0,-2.167351007E0,1.109113932E0
1.974778235E0,9.597157478E0,-2.330156803E0,1.152209520E0
1.977265996E0,9.769539833E0,-2.469020605E0,1.161786318E0
1.979753756E0,9.927556992E0,-2.593518972E0,1.147421122E0
1.982241516E0,1.003769016E1,-2.670133352E0,1.142632723E0
1.984729277E0,1.002811337E1,-2.665344954E0,1.152209520E0
1.987217037E0,9.922768593E0,-2.607884169E0,1.185728431E0
1.989704798E0,9.740809441E0,-2.516904593E0,1.190516829E0
1.992192558E0,9.568427086E0,-2.401982784E0,1.176151633E0
1.994680318E0,9.367314339E0,-2.239177227E0,1.089960337E0
1.997168079E0,9.142259598E0,-2.009333849E0,9.606734514E-1
1.999655839E0,8.878896713E0,-1.789067268E0,8.122329116E-1
2.002143600E0,8.582015991E0,-1.496974587E0,6.446388364E-1
2.004631360E0,8.242039680E0,-1.156997919E0,4.387374520E-1
2.007119121E0,7.930793285E0,-8.026561141E-1,2.184709013E-1
2.009606881E0,7.633912086E0,-4.578910768E-1,-6.584054790E-3
2.012094641E0,7.365761757E0,-1.227028370E-1,-2.460042238E-1
2.014582402E0,7.159860134E0,1.550245583E-1,-5.093663931E-1
2.017070162E0,7.020996571E0,3.274070919E-1,-7.344213724E-1
2.019557923E0,6.987477779E0,4.279635549E-1,-9.259575009E-1
2.022045683E0,7.097610950E0,5.189431906E-1,-1.098340034E0
2.024533443E0,7.284358501E0,6.386532784E-1,-1.174954534E0
2.027021204E0,7.480683327E0,8.541314602E-1,-1.064821243E0
2.029508964E0,7.571662903E0,1.069609642E0,-8.062474132E-1
2.031996725E0,7.590816498E0,1.285087705E0,-4.231751561E-1
2.034484485E0,7.576451302E0,1.423951507E0,3.172317147E-2
2.036972246E0,7.624335289E0,1.471835494E0,4.818331003E-1
2.039460006E0,7.763198853E0,1.447893500E0,8.936358094E-1
2.041947766E0,7.997830868E0,1.385644197E0,1.262342811E0
2.044435527E0,8.342596054E0,1.289876223E0,1.564012289E0
2.046923287E0,8.744821548E0,1.131858826E0,1.822586060E0
2.049411048E0,9.199720383E0,9.451110959E-1,2.028487444E0
2.051898808E0,9.736021042E0,7.487865686E-1,2.220023632E0
2.054386568E0,1.024359226E1,5.285200477E-1,2.425924778E0
2.056874329E0,1.074158573E1,2.986766696E-1,2.679710150E0
2.059362089E0,1.117254257E1,7.362170517E-2,2.933495522E0
2.061849850E0,1.153167248E1,-1.418564469E-1,3.220799923E0
2.064337610E0,1.183334160E1,-3.286041915E-1,3.517680883E0
2.066825371E0,1.206797409E1,-4.674678743E-1,3.728370667E0
2.069313131E0,1.222120285E1,-5.584475398E-1,3.915118217E0
2.071800891E0,1.228824043E1,-6.159083843E-1,4.044404984E0
2.074288652E0,1.231218243E1,-6.542156339E-1,4.082712650E0
2.076776412E0,1.230260563E1,-6.733692288E-1,4.030039787E0
2.079264173E0,1.224993324E1,-6.781576276E-1,3.934272051E0
2.081751933E0,1.219247246E1,-6.829460263E-1,3.771466255E0
2.084239693E0,1.205360889E1,-6.590040326E-1,3.579930067E0
2.086727454E0,1.185249519E1,-5.967547894E-1,3.402759075E0
2.089215214E0,1.159871006E1,-4.818331003E-1,3.206434727E0
2.091702975E0,1.125873375E1,-3.094505668E-1,2.990956545E0
2.094190735E0,1.090917969E1,-1.179144308E-1,2.741959572E0
2.096678496E0,1.055483818E1,1.167173311E-1,2.421136379E0
2.099166256E0,1.020049667E1,3.321954906E-1,2.014122248E0
2.101654016E0,9.831789017E0,5.093663931E-1,1.650203466E0
2.104141777E0,9.467870712E0,7.248445749E-1,1.310226917E0
2.106629537E0,9.166201591E0,9.115923047E-1,8.984242082E-1
2.109117298E0,8.965087891E0,1.074398041E0,4.722562730E-1
2.111605058E0,8.807070732E0,1.227626920E0,5.087678507E-2
2.114092818E0,8.759186745E0,1.400009394E0,-3.130418658E-1
2.116580579E0,8.740033150E0,1.567603588E0,-5.716156363E-1
2.119068339E0,8.692149162E0,1.730409265E0,-7.344213724E-1
2.121556100E0,8.615534782E0,1.883638144E0,-7.104793787E-1
2.124043860E0,8.548497200E0,2.022501945E0,-5.524620414E-1
2.126531621E0,8.500613213E0,2.132635117E0,-2.364274114E-1
2.129019381E0,8.510190010E0,2.175730705E0,1.657984704E-1
2.131507141E0,8.586804390E0,2.170942307E0,5.967547894E-1
2.133994902E0,8.740033150E0,2.118269920E0,9.798270464E-1
2.136482662E0,8.989029884E0,2.017713547E0,1.358110905E0
2.138970423E0,9.266757965E0,1.898003340E0,1.712452769E0
2.141458183E0,9.573215485E0,1.730409265E0,2.028487444E0
2.143945943E0,9.917980194E0,1.519719481E0,2.358887196E0
2.146433704E0,1.029147625E1,1.280299306E0,2.670133352E0
2.148921464E0,1.066975975E1,1.026513934E0,2.995744944E0
2.151409225E0,1.103367901E1,7.679402232E-1,3.321356297E0
2.153896985E0,1.138323212E1,4.806360006E-1,3.675698042E0
2.156384746E0,1.170405483E1,1.885433793E-1,4.001309395E0
2.158872506E0,1.199614716E1,-1.083376259E-1,4.264671803E0
2.161360266E0,1.222599125E1,-3.573346138E-1,4.489726543E0
2.163848027E0,1.236964321E1,-6.015431881E-1,4.628590584E0
2.166335787E0,1.249414158E1,-7.787141204E-1,4.695628166E0
2.168823548E0,1.254202557E1,-9.271546006E-1,4.695628166E0
2.171311308E0,1.253244877E1,-1.008557439E0,4.628590584E0
2.173799068E0,1.243189240E1,-1.027711034E0,4.523245335E0
2.176286829E0,1.223556805E1,-9.846154451E-1,4.336497784E0
2.178774589E0,1.197220516E1,-8.984242082E-1,4.097077847E0
2.181262350E0,1.169447803E1,-7.691373229E-1,3.800196648E0
2.183750110E0,1.139759731E1,-6.302735806E-1,3.474585295E0
2.186237871E0,1.109113979E1,-4.818331003E-1,3.096301317E0
2.188725631E0,1.085171890E1,-2.998737693E-1,2.722805977E0
2.191213391E0,1.067933655E1,-7.481880486E-2,2.339733601E0
2.193701152E0,1.055483818E1,1.981201917E-1,1.975814939E0
2.196188912E0,1.045907021E1,5.189431906E-1,1.645415068E0
2.198676673E0,1.037287903E1,8.254010081E-1,1.468244195E0
2.201164433E0,1.026753426E1,1.117493629E0,1.420360208E0
2.203652193E0,1.015740108E1,1.385644197E0,1.496974587E0
2.206139954E0,1.000895977E1,1.596333981E0,1.678933978E0
2.208627714E0,9.807847023E0,1.787870169E0,1.942296147E0
2.211115475E0,9.654618263E0,1.969829440E0,2.267907619E0
2.213603235E0,9.558850288E0,2.142211914E0,2.560000181E0
2.216090996E0,9.587580681E0,2.271498919E0,2.842515945E0
2.218578756E0,9.750386238E0,2.348113298E0,3.086724520E0
2.221066516E0,9.961075783E0,2.357690096E0,3.278260708E0
2.223554277E0,1.019091988E1,2.343324900E0,3.436278105E0
2.226042037E0,1.045907021E1,2.305017710E0,3.579930067E0
2.228529798E0,1.069370174E1,2.237980127E0,3.714005470E0
2.231017558E0,1.090917969E1,2.161365509E0,3.867234230E0
2.233505318E0,1.109113979E1,2.075174332E0,4.049193859E0
2.235993079E0,1.125394535E1,2.012925148E0,4.264671803E0
2.238480839E0,1.138323212E1,1.945887446E0,4.475361347E0
2.240968600E0,1.145505810E1,1.869272947E0,4.686051369E0
2.243456360E0,1.149815369E1,1.826177359E0,4.844068527E0
2.245944121E0,1.151730728E1,1.811812162E0,4.954201698E0
2.248431881E0,1.152688408E1,1.807023764E0,5.045181751E0
2.250919641E0,1.156519127E1,1.787870169E0,5.054758549E0
2.253407402E0,1.155561447E1,1.749562860E0,4.992508888E0
2.255895162E0,1.156040287E1,1.716044068E0,4.901529312E0
2.258382923E0,1.154124928E1,1.644217968E0,4.757877350E0
2.260870683E0,1.152209568E1,1.586757183E0,4.590283394E0
2.263358443E0,1.151251888E1,1.538873196E0,4.389170170E0
2.265846204E0,1.146463490E1,1.481412292E0,4.197634220E0
2.268333964E0,1.142632771E1,1.447893500E0,3.991732836E0
2.270821725E0,1.134971333E1,1.423951507E0,3.757101059E0
2.273309485E0,1.121084976E1,1.419163108E0,3.555988073E0
2.275797246E0,1.104325581E1,1.438316703E0,3.383605480E0
2.278285006E0,1.083735371E1,1.505354285E0,3.230376720E0
2.280772766E0,1.065539455E1,1.567603588E0,3.125031710E0
2.283260527E0,1.048301220E1,1.625064373E0,2.947860956E0
2.285748287E0,1.032020664E1,1.696890473E0,2.775478363E0
2.288236048E0,1.015740108E1,1.749562860E0,2.627037764E0
2.290723808E0,1.002811337E1,1.807023764E0,2.492962599E0
2.293211568E0,9.908403397E0,1.854907751E0,2.334945202E0
2.295699329E0,9.798270226E0,1.874061346E0,2.191293001E0
2.298187089E0,9.702502251E0,1.874061346E0,2.014122248E0
2.300674850E0,9.635464668E0,1.869272947E0,1.856104851E0
2.303162610E0,9.568427086E0,1.859696150E0,1.693299174E0
2.305650371E0,9.544485092E0,1.835754156E0,1.511339784E0
2.308138131E0,9.530119896E0,1.807023764E0,1.358110905E0
2.310625891E0,9.534908295E0,1.749562860E0,1.219247222E0
2.313113652E0,9.558850288E0,1.696890473E0,1.104325533E0
2.315601412E0,9.601945877E0,1.605910778E0,9.510966539E-1
2.318089173E0,9.664195061E0,1.538873196E0,7.882909179E-1
2.320576933E0,9.721655846E0,1.467047095E0,6.542156339E-1
2.323064693E0,9.798270226E0,1.457470298E0,5.392939448E-1
2.325552454E0,9.860519409E0,1.510142684E0,5.009866953E-1
2.328040214E0,9.903614998E0,1.620275974E0,4.961982965E-1
2.330527975E0,9.941922188E0,1.783081770E0,5.345055461E-1
2.333015735E0,9.941922188E0,1.931522250E0,6.398503780E-1
2.335503496E0,9.889249802E0,2.079962730E0,8.026561141E-1
2.337991256E0,9.788693428E0,2.170942307E0,1.008557439E0
2.340479016E0,9.702502251E0,2.209249735E0,1.219247222E0
2.342966777E0,9.654618263E0,2.204461098E0,1.429937005E0
2.345454537E0,9.649829865E0,2.175730705E0,1.631049871E0
2.347942298E0,9.702502251E0,2.137423515E0,1.822586060E0
2.350430058E0,9.827000618E0,2.094327927E0,2.014122248E0
2.352917818E0,9.985017776E0,2.046443939E0,2.186504602E0
2.355405579E0,1.016697788E1,1.974617839E0,2.339733601E0
2.357893339E0,1.036330223E1,1.926733851E0,2.521692991E0
2.360381100E0,1.055004978E1,1.859696150E0,2.708440781E0
2.362868860E0,1.068412495E1,1.792658567E0,2.885611534E0
2.365356621E0,1.077031612E1,1.739986062E0,3.029263735E0
2.367844381E0,1.084214211E1,1.692102075E0,3.163338900E0
2.370332141E0,1.089002609E1,1.634641171E0,3.287837505E0
2.372819902E0,1.093791008E1,1.577180386E0,3.378817081E0
2.375307662E0,1.095227528E1,1.529296279E0,3.493738890E0
2.377795423E0,1.093791008E1,1.476623893E0,3.651756048E0
2.380283183E0,1.088523769E1,1.505354285E0,3.781043053E0
2.382770943E0,1.080383492E1,1.524507880E0,3.895964622E0
2.385258704E0,1.071764374E1,1.572391987E0,3.910329819E0
2.387746464E0,1.061229897E1,1.629852772E0,3.886387825E0
2.390234225E0,1.047822380E1,1.672948480E0,3.795408249E0
2.392721985E0,1.036809063E1,1.730409265E0,3.675698042E0
2.395209746E0,1.029147625E1,1.797446966E0,3.527257681E0
2.397697506E0,1.020528507E1,1.835754156E0,3.369240284E0
2.400185266E0,1.008557510E1,1.902791858E0,3.192069530E0
2.402673027E0,9.922768593E0,1.993771434E0,2.981379747E0
2.405160787E0,9.726444244E0,2.099116325E0,2.785055161E0
2.407648548E0,9.525331497E0,2.214038134E0,2.569576979E0
2.410136308E0,9.381679535E0,2.314594507E0,2.344521999E0
2.412624068E0,9.261969566E0,2.372055292E0,2.124255419E0
2.415111829E0,9.161413193E0,2.391208887E0,1.908777356E0
2.417599589E0,9.118317604E0,2.376843691E0,1.664568782E0
2.420087350E0,9.127894402E0,2.324171305E0,1.453878999E0
2.422575110E0,9.142259598E0,2.252345324E0,1.271919608E0
2.425062871E0,9.209297180E0,2.161365509E0,1.118690729E0
2.427550631E0,9.295488358E0,2.060809135E0,9.606734514E-1
2.430038391E0,9.381679535E0,1.974617839E0,8.313865662E-1
2.432526152E0,9.472659111E0,1.902791858E0,7.691373229E-1
2.435013912E0,9.558850288E0,1.840542555E0,7.547720671E-1
2.437501673E0,9.664195061E0,1.773504853E0,7.930793166E-1
2.439989433E0,9.750386238E0,1.716044068E0,8.936358094E-1
2.442477193E0,9.827000618E0,1.653794765E0,1.061229944E0
2.444964954E0,9.903614998E0,1.601122379E0,1.276708007E0
2.447452714E0,9.951498985E0,1.538873196E0,1.568800688E0
2.449940475E0,9.961075783E0,1.452681899E0,1.899200439E0
2.452428235E0,9.980229378E0,1.361702204E0,2.248754025E0
2.454915996E0,9.985017776E0,1.289876223E0,2.540846586E0
2.457403756E0,1.002811337E1,1.241992116E0,2.794631958E0
2.459891516E0,1.007120991E1,1.184531331E0,3.029263735E0
2.462379277E0,1.009036350E1,1.122282028E0,3.263895512E0
2.464867037E0,1.013824749E1,1.069609642E0,3.479373693E0
2.467354798E0,1.016697788E1,1.050456047E0,3.723582268E0
2.469842558E0,1.019570827E1,1.031302333E0,3.929483652E0
2.472330318E0,1.021007347E1,9.834183455E-1,4.121019840E0
2.474818079E0,1.020528507E1,9.786299467E-1,4.279036999E0
2.477305839E0,1.016697788E1,9.738415480E-1,4.355651379E0
2.479793600E0,1.015261269E1,9.355342984E-1,4.408323765E0
2.482281360E0,1.018613148E1,9.211691022E-1,4.460996151E0
2.484769121E0,1.017655468E1,9.211691022E-1,4.480149746E0
2.487256881E0,1.015740108E1,9.068039060E-1,4.508880138E0
2.489744641E0,1.013824749E1,9.259575009E-1,4.489726543E0
2.492232402E0,1.010472870E1,9.498994946E-1,4.456207752E0
2.494720162E0,1.001374817E1,9.882067442E-1,4.398746967E0
2.497207923E0,9.879673004E0,1.069609642E0,4.355651379E0
2.499695683E0,9.731232643E0,1.170166135E0,4.269460201E0
2.502183443E0,9.558850288E0,1.241992116E0,4.173692226E0
2.504671204E0,9.415198326E0,1.328183413E0,4.087501049E0
2.507158964E0,9.300276756E0,1.376067400E0,4.001309395E0
2.509646725E0,9.194931984E0,1.423951507E0,3.905541420E0
2.512134485E0,9.132682800E0,1.457470298E0,3.809773445E0
2.514622246E0,9.108740807E0,1.476623893E0,3.752312660E0
2.517110006E0,9.065644264E0,1.481412292E0,3.723582268E0
2.519597766E0,9.022548676E0,1.467047095E0,3.714005470E0
2.522085527E0,8.989029884E0,1.443105102E0,3.728370667E0
2.524573287E0,8.950722694E0,1.419163108E0,3.776254654E0
2.527061048E0,8.893261909E0,1.409586191E0,3.862445831E0
2.529548808E0,8.811859131E0,1.390432596E0,3.967790842E0
2.532036568E0,8.711302757E0,1.428739905E0,4.082712650E0
2.534524329E0,8.620323181E0,1.452681899E0,4.216787815E0
2.537012089E0,8.538920403E0,1.471835494E0,4.336497784E0
2.539499850E0,8.462306023E0,1.471835494E0,4.451419353E0
2.541987610E0,8.414422035E0,1.486200690E0,4.580706596E0
2.544475371E0,8.380903244E0,1.486200690E0,4.743512154E0
2.546963131E0,8.328230858E0,1.452681899E0,4.853645325E0
2.549450891E0,8.289923668E0,1.447893500E0,4.939836502E0
2.551938652E0,8.242039680E0,1.476623893E0,4.992508888E0
2.554426412E0,8.237251282E0,1.505354285E0,5.006874084E0
2.556914173E0,8.203732491E0,1.514931083E0,5.002085686E0
2.559401933E0,8.175002098E0,1.543661594E0,4.958990097E0
2.561889693E0,8.160636902E0,1.543661594E0,4.877587318E0
2.564377454E0,8.198944092E0,1.543661594E0,4.810549736E0
2.566865214E0,8.261193275E0,1.529296279E0,4.686051369E0
2.569352975E0,8.323442459E0,1.529296279E0,4.551976204E0
2.571840735E0,8.366538048E0,1.529296279E0,4.437054157E0
2.574328496E0,8.404845238E0,1.558026791E0,4.336497784E0
2.576816256E0,8.385691643E0,1.591545582E0,4.298190594E0
2.579304016E0,8.323442459E0,1.658583283E0,4.288613796E0
2.581791777E0,8.194155693E0,1.720832467E0,4.312555790E0
2.584279537E0,8.074444771E0,1.768716455E0,4.331709385E0
2.586767298E0,8.002618790E0,1.840542555E0,4.365228176E0
2.589255058E0,7.940370083E0,1.878849745E0,4.336497784E0
2.591742818E0,7.897274494E0,1.902791858E0,4.279036999E0
2.594230579E0,7.887697697E0,1.921945453E0,4.207211018E0
2.596718339E0,7.911639690E0,1.926733851E0,4.101866245E0
2.599206100E0,7.959523678E0,1.893214941E0,4.025251389E0
2.601693860E0,8.060079575E0,1.888426542E0,3.919906616E0
2.604181621E0,8.198944092E0,1.850119352E0,3.795408249E0
2.606669381E0,8.419210434E0,1.783081770E0,3.699640274E0
2.609157141E0,8.620323181E0,1.749562860E0,3.613448858E0
2.611644902E0,8.763975143E0,1.759139657E0,3.555988073E0
2.614132662E0,8.874108315E0,1.797446966E0,3.551199675E0
2.616620423E0,8.917203903E0,1.835754156E0,3.575141668E0
2.619108183E0,8.950722694E0,1.835754156E0,3.584718466E0
2.621595943E0,9.003395081E0,1.821388960E0,3.498527288E0
2.624083704E0,9.132682800E0,1.807023764E0,3.292625904E0
2.626571464E0,9.276334763E0,1.768716455E0,3.043628931E0
2.629059225E0,9.415198326E0,1.744774461E0,2.856881142E0
2.631546985E0,9.515754700E0,1.735197663E0,2.737171173E0
2.634034746E0,9.587580681E0,1.749562860E0,2.741959572E0
2.636522506E0,9.640253067E0,1.763928056E0,2.832939148E0
2.639010266E0,9.616311073E0,1.802235365E0,2.990956545E0
2.641498027E0,9.558850288E0,1.821388960E0,3.182492495E0
2.643985787E0,9.496601105E0,1.835754156E0,3.383605480E0
2.646473548E0,9.448717117E0,1.845330954E0,3.551199675E0
2.648961308E0,9.410409927E0,1.850119352E0,3.709217072E0
2.651449068E0,9.376891136E0,1.850119352E0,3.891176224E0
2.653936829E0,9.372102737E0,1.835754156E0,4.039616585E0
2.656424589E0,9.429563522E0,1.783081770E0,4.149750233E0
2.658912350E0,9.515754700E0,1.706467271E0,4.188057423E0
2.661400110E0,9.640253067E0,1.639429569E0,4.202422619E0
2.663887871E0,9.774328232E0,1.567603588E0,4.250306606E0
2.666375631E0,9.908403397E0,1.495777488E0,4.279036999E0
2.668863391E0,9.999382973E0,1.457470298E0,4.322132587E0
2.671351152E0,1.004726696E1,1.428739905E0,4.384381771E0
2.673838912E0,1.009515190E1,1.423951507E0,4.513668537E0
2.676326673E0,1.014303589E1,1.414374709E0,4.619013786E0
2.678814433E0,1.017655468E1,1.447893500E0,4.724358559E0
2.681302193E0,1.019091988E1,1.471835494E0,4.772242546E0
2.683789954E0,1.021965027E1,1.495777488E0,4.781819344E0
2.686277714E0,1.024838066E1,1.514931083E0,4.733935356E0
2.688765475E0,1.030105305E1,1.514931083E0,4.690839767E0
2.691253235E0,1.033457184E1,1.553238392E0,4.666897774E0
2.693740996E0,1.039682102E1,1.610699177E0,4.642955780E0
2.696228756E0,1.041118622E1,1.644217968E0,4.638167381E0
2.698716516E0,1.046385860E1,1.701678872E0,4.599860191E0
2.701204277E0,1.064102936E1,1.792658567E0,4.585494995E0
2.703692037E0,1.099058247E1,2.032078743E0,4.619013786E0
2.706179798E0,1.155561447E1,2.506130695E0,4.647744179E0
2.708667558E0,1.243189240E1,3.219602823E0,4.700416565E0
2.711155318E0,1.365293503E1,4.186860085E0,4.762665749E0
2.713643079E0,1.516607094E1,5.403114796E0,4.762665749E0
2.716130839E0,1.695214462E1,6.791751862E0,4.590283394E0
2.718618600E0,1.881962204E1,8.237849236E0,4.250306606E0
2.721106360E0,2.027050781E1,9.401431084E0,3.546411276E0
2.723594121E0,2.082596397E1,9.846753120E0,2.435501575E0
2.726081881E0,2.017473984E1,9.205106735E0,1.008557439E0
2.728569641E0,1.841739655E1,7.409455776E0,-3.657143116E-1
2.731057402E0,1.609023285E1,4.953004837E0,-1.036090732E0
2.733545162E0,1.379179859E1,2.597110271E0,-1.026513934E0
2.736032923E0,1.179024601E1,9.115923047E-1,-5.285200477E-1
2.738520683E0,1.002332497E1,1.215057373E-1,3.190273643E-1
2.741008443E0,8.586804390E0,1.885433793E-1,1.401206493E0
2.743496204E0,7.542932510E0,8.349778652E-1,2.579153776E0
2.745983964E0,6.939593792E0,1.711255670E0,3.781043053E0
2.748471725E0,6.690596581E0,2.491765499E0,4.820126534E0
2.750959485E0,6.628347397E0,2.951452255E0,5.638943672E0
2.753447246E0,6.575675011E0,3.080739021E0,6.151302814E0
2.755935006E0,6.503849030E0,2.932298422E0,6.414664745E0
2.758422766E0,6.489483833E0,2.640205860E0,6.419453144E0
2.760910527E0,6.590040207E0,2.314594507E0,6.213551998E0
2.763398287E0,6.843825340E0,2.041655540E0,5.873575211E0
2.765886048E0,7.274781704E0,1.845330954E0,5.456984043E0
2.768373808E0,7.767987251E0,1.735197663E0,5.021239281E0
2.770861568E0,8.299500465E0,1.653794765E0,4.662109375E0
2.773349329E0,8.807070732E0,1.538873196E0,4.326920986E0
2.775837089E0,9.252392769E0,1.376067400E0,4.030039787E0
2.778324850E0,9.606734276E0,1.146224022E0,3.800196648E0
2.780812610E0,9.879673004E0,8.637082577E-1,3.603872061E0
2.783300371E0,1.004726696E1,6.338648796E-1,3.469796896E0
2.785788131E0,1.011430550E1,4.423287511E-1,3.369240284E0
2.788275891E0,1.008557510E1,3.609259129E-1,3.297414303E0
2.790763652E0,9.970652580E0,3.369838893E-1,3.239953518E0
2.793251412E0,9.812635422E0,3.369838893E-1,3.216011524E0
2.795739173E0,9.630676270E0,3.705027103E-1,3.196857929E0
2.798226933E0,9.415198326E0,4.423287511E-1,3.201646328E0
2.800714693E0,9.147047997E0,5.189431906E-1,3.201646328E0
2.803202454E0,8.864531517E0,5.668272376E-1,3.220799923E0
2.805690214E0,8.582015991E0,5.859808922E-1,3.196857929E0
2.808177975E0,8.323442459E0,6.003460884E-1,3.153762102E0
2.810665735E0,8.112752914E0,5.955576897E-1,3.110666513E0
2.813153496E0,7.954735279E0,6.003460884E-1,3.043628931E0
2.815641256E0,7.854178905E0,5.955576897E-1,2.952649355E0
2.818129016E0,7.801506042E0,5.859808922E-1,2.804208755E0
2.820616777E0,7.772775650E0,5.620388389E-1,2.655768156E0
2.823104537E0,7.772775650E0,5.237316489E-1,2.492962599E0
2.825592298E0,7.791929245E0,5.141547918E-1,2.349310398E0
2.828080058E0,7.830236435E0,4.854243994E-1,2.191293001E0
2.830567818E0,7.868544102E0,4.758476019E-1,2.076371431E0
2.833055579E0,7.916428089E0,4.566939771E-1,1.994968534E0
2.835543339E0,7.993042469E0,4.375403523E-1,1.937507749E0
2.838031100E0,8.064867973E0,4.471171796E-1,1.942296147E0
2.840518860E0,8.136694908E0,4.710591733E-1,1.985391736E0
2.843006621E0,8.242039680E0,5.141547918E-1,2.042852640E0
2.845494381E0,8.376114845E0,5.524620414E-1,2.105101824E0
2.847982141E0,8.562862396E0,6.386532784E-1,2.129043818E0
2.850469902E0,8.835801125E0,7.583633661E-1,2.143409014E0
2.852957662E0,9.175778389E0,9.163807034E-1,2.114678621E0
2.855445423E0,9.587580681E0,1.083974838E0,2.071583033E0
2.857933183E0,1.008557510E1,1.294664621E0,1.971026540E0
2.860420943E0,1.063145256E1,1.562815189E0,1.832162857E0
2.862908704E0,1.123479176E1,1.850119352E0,1.688510776E0
2.865396464E0,1.185728359E1,2.147000313E0,1.482609391E0
2.867884225E0,1.245104599E1,2.448669672E0,1.262342811E0
2.870371985E0,1.292030907E1,2.707243681E0,1.003769040E0
2.872859746E0,1.328422832E1,2.884414434E0,7.260416746E-1
2.875347506E0,1.348534107E1,2.975394249E0,4.243722558E-1
2.877835266E0,1.345182228E1,2.932298422E0,1.466448605E-1
2.880323027E0,1.320282555E1,2.740762472E0,-8.798690885E-2
2.882810787E0,1.270961952E1,2.429516077E0,-2.220622003E-1
2.885298548E0,1.202966690E1,2.056020737E0,-2.460042238E-1
2.887786308E0,1.127788734E1,1.730409265E0,-1.454477459E-1
2.890274068E0,1.055483818E1,1.495777488E0,9.397241473E-2
2.892761829E0,9.894038200E0,1.390432596E0,4.339490533E-1
2.895249589E0,9.348160744E0,1.390432596E0,7.978677154E-1
2.897737350E0,8.941145897E0,1.500565886E0,1.195305228E0
2.900225110E0,8.620323181E0,1.663371682E0,1.540070295E0
2.902712871E0,8.404845238E0,1.792658567E0,1.875258446E0
2.905200631E0,8.294712067E0,1.883638144E0,2.167351007E0
2.907688391E0,8.261193275E0,1.917157054E0,2.382829189E0
2.910176204E0,8.289923668E0,1.912368655E0,2.516904593E0
2.912664016E0,8.400056839E0,1.883638144E0,2.569576979E0
2.915151829E0,8.605957985E0,1.821388960E0,2.569576979E0
2.917639641E0,8.826224327E0,1.739986062E0,2.531269789E0
2.920127454E0,9.103952408E0,1.677736878E0,2.512116194E0
2.922615266E0,9.381679535E0,1.644217968E0,2.516904593E0
2.925103079E0,9.635464668E0,1.610699177E0,2.492962599E0
2.927590891E0,9.822212219E0,1.558026791E0,2.464232206E0
2.930078704E0,1.000895977E1,1.505354285E0,2.469020605E0
2.932566516E0,1.012867069E1,1.457470298E0,2.478597403E0
2.935054329E0,1.023401546E1,1.414374709E0,2.469020605E0
2.937542141E0,1.029626465E1,1.404797792E0,2.483385801E0
2.940029954E0,1.035851383E1,1.409586191E0,2.488174200E0
2.942517766E0,1.035851383E1,1.433528304E0,2.526481390E0
2.945005579E0,1.033457184E1,1.481412292E0,2.579153776E0
2.947493391E0,1.029626465E1,1.538873196E0,2.612672567E0
2.949981204E0,1.021486187E1,1.620275974E0,2.655768156E0
2.952469016E0,1.011909389E1,1.730409265E0,2.718017578E0
2.954956829E0,1.002811337E1,1.859696150E0,2.780266762E0
2.957444641E0,9.965864182E0,1.965041041E0,2.832939148E0
2.959932454E0,9.898826599E0,2.060809135E0,2.890399933E0
2.962420266E0,9.870096207E0,2.147000313E0,2.919130325E0
2.964908079E0,9.870096207E0,2.233191729E0,2.957437754E0
2.967395891E0,9.894038200E0,2.309806108E0,2.952649355E0
2.969883704E0,9.941922188E0,2.357690096E0,2.967014551E0
2.972371516E0,9.989806175E0,2.443881273E0,3.005321741E0
2.974859329E0,1.006163311E1,2.501342297E0,3.034052134E0
2.977347089E0,1.012388229E1,2.577956676E0,3.067570925E0
2.979834850E0,1.020528507E1,2.640205860E0,3.110666513E0
2.982322610E0,1.028668785E1,2.702455282E0,3.172915697E0
2.984810371E0,1.035372543E1,2.755127668E0,3.230376720E0
2.987298131E0,1.042555141E1,2.812588453E0,3.278260708E0
2.989785891E0,1.048780060E1,2.860472441E0,3.287837505E0
2.992273652E0,1.057878017E1,2.884414434E0,3.283049107E0
2.994761412E0,1.067454815E1,2.898779631E0,3.283049107E0
2.997249173E0,1.082777691E1,2.889202833E0,3.230376720E0
2.999736933E0,1.098579407E1,2.846107244E0,3.172915697E0
3.002224693E0,1.119169617E1,2.817376852E0,3.134608507E0
3.004712454E0,1.142153931E1,2.783858061E0,3.086724520E0
3.007200214E0,1.165138245E1,2.764704466E0,3.067570925E0
3.009687975E0,1.188122559E1,2.745550871E0,3.034052134E0
3.012175735E0,1.207755089E1,2.745550871E0,2.990956545E0
3.014663496E0,1.224514484E1,2.740762472E0,2.957437754E0
3.017151256E0,1.238400841E1,2.716820478E0,2.933495522E0
3.019639016E0,1.251329517E1,2.721608877E0,2.938283920E0
3.022126777E0,1.263779354E1,2.735974073E0,2.914341927E0
3.024614537E0,1.275271511E1,2.750339270E0,2.895188332E0
3.027102298E0,1.289636707E1,2.788646460E0,2.899976730E0
3.029590058E0,1.303523159E1,2.860472441E0,2.890399933E0
3.032077818E0,1.316930676E1,2.913144827E0,2.890399933E0
3.034565579E0,1.329380512E1,2.999336243E0,2.919130325E0
3.037053339E0,1.340393829E1,3.080739021E0,2.952649355E0
3.039541100E0,1.348055267E1,3.138199806E0,3.014898539E0
3.042028860E0,1.352364826E1,3.200449228E0,3.091512918E0
3.044516621E0,1.353801346E1,3.253121614E0,3.206434727E0
3.047004381E0,1.349012947E1,3.329735994E0,3.335721493E0
3.049492141E0,1.347097588E1,3.425503969E0,3.498527288E0
3.051979902E0,1.340872669E1,3.502118587E0,3.661332846E0
3.054467662E0,1.335126591E1,3.569156170E0,3.857657433E0
3.056955423E0,1.329380512E1,3.621828556E0,4.063559055E0
3.059443183E0,1.320761395E1,3.664924145E0,4.221576214E0
3.061930943E0,1.309269238E1,3.731961966E0,4.379593372E0
3.064418704E0,1.294425106E1,3.803787947E0,4.523245335E0
3.066906464E0,1.277186871E1,3.861248732E0,4.638167381E0
3.069394225E0,1.262821674E1,3.918709517E0,4.748300552E0
3.071881985E0,1.248456478E1,3.961805344E0,4.844068527E0
3.074369746E0,1.234091282E1,3.961805344E0,4.935048103E0
3.076857506E0,1.219247246E1,3.952228546E0,4.963778496E0
3.079345266E0,1.210628128E1,3.933074951E0,4.978143692E0
3.081833027E0,1.203924370E1,3.899555922E0,4.968566895E0
3.084320787E0,1.199135876E1,3.842095137E0,4.939836502E0
3.086808548E0,1.196262836E1,3.784634352E0,4.882375717E0
3.089296308E0,1.197220516E1,3.703231573E0,4.781819344E0
3.091784068E0,1.199614716E1,3.621828556E0,4.690839767E0
3.094271829E0,1.204403210E1,3.564367771E0,4.604648590E0
3.096759589E0,1.208233929E1,3.506906986E0,4.523245335E0
3.099247350E0,1.212064648E1,3.468599796E0,4.456207752E0
3.101735110E0,1.212543488E1,3.401561975E0,4.403535366E0
3.104222871E0,1.214937687E1,3.324947596E0,4.370016575E0
3.106710631E0,1.215416527E1,3.272275209E0,4.322132587E0
3.109198391E0,1.213501167E1,3.214814425E0,4.298190594E0
3.111686152E0,1.212064648E1,3.171718597E0,4.245518208E0
3.114173912E0,1.210149288E1,3.157353401E0,4.202422619E0
3.116661673E0,1.206797409E1,3.162141800E0,4.192845821E0
3.119149433E0,1.204882050E1,3.162141800E0,4.168903828E0
3.121637193E0,1.202966690E1,3.157353401E0,4.144961834E0
3.124124954E0,1.198178196E1,3.138199806E0,4.125808239E0
3.126612714E0,1.189080238E1,3.119046211E0,4.106654644E0
3.129100475E0,1.181418800E1,3.085527420E0,4.068347454E0
3.131588235E0,1.172799683E1,3.037643433E0,4.010886192E0
3.134075996E0,1.164659405E1,2.999336243E0,3.958214045E0
3.136563756E0,1.154124928E1,2.975394249E0,3.900753021E0
3.139051516E0,1.143111610E1,2.917933226E0,3.819350243E0
3.141539277E0,1.133055973E1,2.855684042E0,3.733159065E0
3.144027037E0,1.123958015E1,2.764704466E0,3.666121244E0
3.146514798E0,1.117254257E1,2.673724651E0,3.603872061E0
3.149002558E0,1.111508179E1,2.558803082E0,3.546411276E0
3.151490318E0,1.108635139E1,2.467823505E0,3.532046080E0
3.153978079E0,1.108635139E1,2.391208887E0,3.503315687E0
3.156465839E0,1.108156300E1,2.333748102E0,3.498527288E0
3.158953600E0,1.105283260E1,2.276287317E0,3.474585295E0
3.161441360E0,1.104325581E1,2.194884300E0,3.455431700E0
3.163929121E0,1.106719780E1,2.103904724E0,3.445854902E0
3.166416881E0,1.108635139E1,1.998559833E0,3.407547474E0
3.168904641E0,1.116775417E1,1.902791858E0,3.359663486E0
3.171392402E0,1.126831055E1,1.816600561E0,3.306991100E0
3.173880162E0,1.139280891E1,1.763928056E0,3.259107113E0
3.176367923E0,1.151730728E1,1.725620866E0,3.225588322E0
3.178855683E0,1.158913326E1,1.711255670E0,3.211223125E0
3.181343443E0,1.165138245E1,1.730409265E0,3.187281132E0
3.183831204E0,1.166574764E1,1.787870169E0,3.211223125E0
3.186318964E0,1.163701725E1,1.821388960E0,3.225588322E0
3.188806725E0,1.158913326E1,1.854907751E0,3.201646328E0
3.191294485E0,1.156040287E1,1.883638144E0,3.172915697E0
3.193782246E0,1.156519127E1,1.902791858E0,3.091512918E0
3.196270006E0,1.160828686E1,1.917157054E0,3.024475336E0
3.198757766E0,1.165138245E1,1.926733851E0,2.919130325E0
3.201245527E0,1.169926643E1,1.921945453E0,2.813785553E0
3.203733287E0,1.174236202E1,1.902791858E0,2.727594376E0
3.206221048E0,1.176630402E1,1.888426542E0,2.627037764E0
3.208708808E0,1.179982281E1,1.859696150E0,2.560000181E0
3.211196568E0,1.179982281E1,1.787870169E0,2.497750998E0
3.213684329E0,1.179503441E1,1.716044068E0,2.411559582E0
3.216172089E0,1.177588081E1,1.634641171E0,2.291849613E0
3.218659850E0,1.172799683E1,1.534084797E0,2.152985811E0
3.221147610E0,1.167532444E1,1.462258697E0,1.985391736E0
3.223635371E0,1.162265205E1,1.419163108E0,1.865681648E0
3.226123131E0,1.155082607E1,1.356913805E0,1.750759959E0
3.228610891E0,1.145026970E1,1.328183413E0,1.650203466E0
3.231098652E0,1.136407852E1,1.289876223E0,1.597531080E0
3.233586412E0,1.126352215E1,1.218050122E0,1.559223890E0
3.236074173E0,1.112944698E1,1.127070427E0,1.544858694E0
3.238561933E0,1.099058247E1,1.055244446E0,1.530493379E0
3.241049693E0,1.086129570E1,9.498994946E-1,1.516128182E0
3.243537454E0,1.073679733E1,8.206126094E-1,1.511339784E0
3.246025214E0,1.066975975E1,7.200561762E-1,1.511339784E0
3.248512975E0,1.064581776E1,6.099228859E-1,1.506551385E0
3.251000735E0,1.064102936E1,5.141547918E-1,1.564012289E0
3.253488496E0,1.068412495E1,4.279635549E-1,1.654991984E0
3.255976256E0,1.071285534E1,3.609259129E-1,1.813009262E0
3.258464016E0,1.075595093E1,3.034650683E-1,1.971026540E0
3.260951777E0,1.074637413E1,2.603694201E-1,2.133832216E0
3.263439537E0,1.067454815E1,2.029085904E-1,2.301426411E0
3.265927298E0,1.055962658E1,1.550245583E-1,2.449866772E0
3.268415058E0,1.042555141E1,1.167173311E-1,2.540846586E0
3.270902818E0,1.027232265E1,8.319851011E-2,2.593518972E0
3.273390579E0,1.009515190E1,5.925649032E-2,2.574365377E0
3.275878339E0,9.975440979E0,4.967968538E-2,2.550423384E0
3.278366100E0,9.812635422E0,4.010287672E-2,2.497750998E0
3.280853860E0,9.659406662E0,2.573766746E-2,2.406771183E0
3.283341621E0,9.525331497E0,4.010287672E-2,2.315791607E0
3.285829381E0,9.367314339E0,8.319851011E-2,2.229600430E0
3.288317141E0,9.214085579E0,1.358709484E-1,2.181716204E0
3.290804902E0,9.056067467E0,1.837549806E-1,2.129043818E0
3.293292662E0,8.874108315E0,2.172738016E-1,2.042852640E0
3.295780423E0,8.682572365E0,2.460042238E-1,1.913565755E0
3.298268183E0,8.500613213E0,2.460042238E-1,1.769913554E0
3.300755943E0,8.352172852E0,2.124854028E-1,1.607107878E0
3.303243704E0,8.232462883E0,1.502361596E-1,1.391629696E0
3.305731464E0,8.127118111E0,9.277531505E-2,1.171363235E0
3.308219225E0,8.040925980E0,3.052607179E-2,9.463081956E-1
3.310706985E0,7.997830868E0,-4.129998013E-2,7.547720671E-1
3.313194746E0,7.969100475E0,-1.179144308E-1,6.015431881E-1
3.315682506E0,7.978677273E0,-2.088941038E-1,5.105634928E-1
3.318170266E0,8.021772385E0,-3.046621680E-1,4.339490533E-1
3.320658027E0,8.093599319E0,-4.291606545E-1,4.147954583E-1
3.323145787E0,8.155848503E0,-5.680243373E-1,4.818331003E-1
3.325633548E0,8.246828079E0,-7.068880796E-1,5.871779919E-1
3.328121308E0,8.342596054E0,-8.505401611E-1,7.116764784E-1
3.330609068E0,8.457517624E0,-9.894038439E-1,8.744821548E-1
3.333096829E0,8.629899979E0,-1.104325533E0,1.056441545E0
3.335584589E0,8.850166321E0,-1.219247222E0,1.276708007E0
3.338072350E0,9.099164009E0,-1.348534107E0,1.540070295E0
3.340560110E0,9.405621529E0,-1.501762986E0,1.851316452E0
3.343047871E0,9.716867447E0,-1.688510776E0,2.196081400E0
3.345535631E0,1.000417137E1,-1.889623642E0,2.512116194E0
3.348023391E0,1.026274586E1,-2.076371431E0,2.794631958E0
3.350511152E0,1.052610779E1,-2.296638012E0,3.110666513E0
3.352998912E0,1.074637413E1,-2.536058187E0,3.369240284E0
3.355486673E0,1.093312168E1,-2.765901566E0,3.589506865E0
3.357974433E0,1.108156300E1,-2.981379747E0,3.766677856E0
3.360462193E0,1.117733097E1,-3.148973703E0,3.900753021E0
3.362949954E0,1.123000336E1,-3.263895512E0,3.986944437E0
3.365437714E0,1.120606136E1,-3.321356297E0,4.010886192E0
3.367925475E0,1.109592819E1,-3.330933094E0,4.006097794E0
3.370413235E0,1.088523769E1,-3.259107113E0,3.991732836E0
3.372900996E0,1.058835697E1,-3.148973703E0,3.895964622E0
3.375388756E0,1.023880386E1,-2.981379747E0,3.733159065E0
3.377876516E0,9.807847023E0,-2.785055161E0,3.532046080E0
3.380364277E0,9.352949142E0,-2.560000181E0,3.259107113E0
3.382852037E0,8.898050308E0,-2.354098797E0,2.957437754E0
3.385339798E0,8.433575630E0,-2.133832216E0,2.631826162E0
3.387827558E0,7.988254070E0,-1.908777356E0,2.267907619E0
3.390315318E0,7.614758492E0,-1.659780383E0,1.899200439E0
3.392803079E0,7.317877293E0,-1.372476101E0,1.535281897E0
3.395290839E0,7.121552944E0,-1.066018343E0,1.200093627E0
3.397778600E0,6.958747387E0,-7.739257216E-1,9.271546006E-1
3.400266360E0,6.776787758E0,-5.201402903E-1,7.068880796E-1
3.402754121E0,6.561309814E0,-3.190273643E-1,4.961982965E-1
3.405241881E0,6.379350662E0,-1.801636815E-1,2.855085433E-1
3.407729641E0,6.240486622E0,-8.439560980E-2,1.131260321E-1
3.410217402E0,6.187814236E0,-3.651157767E-2,-4.489128292E-2
3.412705162E0,6.202179432E0,-7.781155407E-3,-1.071405262E-1
3.415192923E0,6.278793812E0,6.584054790E-3,-5.925649032E-2
3.417680683E0,6.393715858E0,1.137245819E-2,7.481880486E-2
3.420168443E0,6.532579422E0,-1.735796221E-2,2.807201445E-1
3.422656204E0,6.647500992E0,-8.439560980E-2,5.009866953E-1
3.425143964E0,6.743268967E0,-1.801636815E-1,7.595604658E-1
3.427631725E0,6.843825340E0,-2.855085433E-1,1.042076349E0
3.430119485E0,6.949170589E0,-3.956418335E-1,1.291073322E0
3.432607246E0,7.025784969E0,-4.770447016E-1,1.496974587E0
3.435095006E0,7.088034153E0,-5.536591411E-1,1.717241168E0
3.437582766E0,7.145494938E0,-6.159083843E-1,1.994968534E0
3.440070527E0,7.183802128E0,-6.494272351E-1,2.272696018E0
3.442558287E0,7.179013729E0,-6.446388364E-1,2.569576979E0
3.445046048E0,7.155071735E0,-6.302735806E-1,2.856881142E0
3.447533808E0,7.102399349E0,-5.823895931E-1,3.096301317E0
3.450021568E0,7.059303761E0,-5.345055461E-1,3.244741917E0
3.452509329E0,7.025784969E0,-4.339490533E-1,3.297414303E0
3.454997089E0,6.958747387E0,-3.764882088E-1,3.249530315E0
3.457484850E0,6.862978935E0,-3.142389655E-1,3.110666513E0
3.459972610E0,6.762422562E0,-2.615665495E-1,2.880823135E0
3.462460371E0,6.623558998E0,-1.849520802E-1,2.569576979E0
3.464948131E0,6.470330238E0,-9.397241473E-2,2.239177227E0
3.467435891E0,6.317101002E0,5.446808785E-2,1.870470047E0
3.469923652E0,6.178237438E0,2.124854028E-1,1.487397790E0
3.472411412E0,6.068104267E0,3.705027103E-1,1.080383539E0
3.474899173E0,5.972336292E0,5.189431906E-1,6.494272351E-1
3.477386933E0,5.881356239E0,6.530185342E-1,1.945288926E-1
3.479874693E0,5.804741859E0,7.823054194E-1,-2.555810213E-1
3.482362506E0,5.804741859E0,9.020155072E-1,-6.434416771E-1
3.484850318E0,5.828683853E0,1.016937137E0,-1.016937137E0
3.487338131E0,5.852625847E0,1.127070427E0,-1.309029818E0
3.489825943E0,5.905298710E0,1.241992116E0,-1.486200690E0
3.492313756E0,5.996278286E0,1.347337008E0,-1.505354285E0
3.494801568E0,6.072892666E0,1.443105102E0,-1.400009394E0
3.497289381E0,6.139930248E0,1.490989089E0,-1.184531331E0
3.499777193E0,6.230909824E0,1.447893500E0,-8.589198589E-1
3.502265006E0,6.360196590E0,1.366490602E0,-4.806360006E-1
3.504752818E0,6.508637428E0,1.246780515E0,-7.841010392E-2
3.507240631E0,6.704961777E0,1.064821243E0,3.190273643E-1
3.509728443E0,6.910863400E0,8.349778652E-1,6.925228238E-1
3.512216256E0,7.150283337E0,5.620388389E-1,1.051653147E0
3.514704068E0,7.423222542E0,2.555810213E-1,1.439513803E0
3.517191881E0,7.720103264E0,-8.918401599E-2,1.722029567E0
3.519679693E0,8.016983986E0,-4.626794755E-1,1.947084546E0
3.522167506E0,8.323442459E0,-8.122329116E-1,2.119467020E0
3.524655318E0,8.615534782E0,-1.094748735E0,2.239177227E0
3.527143131E0,8.854954720E0,-1.329380512E0,2.311003208E0
3.529630943E0,9.017760277E0,-1.477820992E0,2.320580006E0
3.532118756E0,9.118317604E0,-1.583165884E0,2.239177227E0
3.534606568E0,9.127894402E0,-1.626261473E0,2.071583033E0
3.537094381E0,9.103952408E0,-1.683722377E0,1.822586060E0
3.539582193E0,9.046490669E0,-1.745971560E0,1.496974587E0
3.542070006E0,8.950722694E0,-1.765125155E0,1.104325533E0
3.544557818E0,8.845377922E0,-1.736394763E0,6.590040326E-1
3.547045631E0,8.716091156E0,-1.669357181E0,1.753752679E-1
3.549533443E0,8.586804390E0,-1.568800688E0,-3.752911091E-1
3.552021256E0,8.467094421E0,-1.405994892E0,-9.451110959E-1
3.554509016E0,8.347384453E0,-1.190516829E0,-1.481412292E0
3.556996777E0,8.218097687E0,-9.702502489E-1,-1.950675845E0
3.559484537E0,8.117541313E0,-7.595604658E-1,-2.328959703E0
3.561972298E0,7.978677273E0,-5.919663906E-1,-2.649782658E0
3.564460058E0,7.825448036E0,-4.866214991E-1,-2.913144827E0
3.566947818E0,7.643488884E0,-4.195838571E-1,-3.157353401E0
3.569435579E0,7.490260124E0,-3.477577865E-1,-3.344101191E0
3.571923339E0,7.418434143E0,-2.519897223E-1,-3.502118587E0
3.574411100E0,7.442376137E0,-1.131260321E-1,-3.597886562E0
3.576898860E0,7.528567314E0,4.967968538E-2,-3.621828556E0
3.579386621E0,7.653065681E0,1.789665818E-1,-3.511695385E0
3.581874381E0,7.825448036E0,2.555810213E-1,-3.315370798E0
3.584362141E0,7.988254070E0,2.795230448E-1,-3.023278236E0
3.586849902E0,8.131906509E0,2.364274114E-1,-2.654571056E0
3.589337662E0,8.261193275E0,1.598129570E-1,-2.290652514E0
3.591825423E0,8.409633636E0,3.052607179E-2,-1.941099048E0
3.594313183E0,8.577227592E0,-6.524199992E-2,-1.610699177E0
3.596800943E0,8.763975143E0,-1.657984704E-1,-1.285087705E0
3.599288704E0,9.008183479E0,-2.567781210E-1,-9.403226972E-1
3.601776464E0,9.247604370E0,-3.142389655E-1,-5.668272376E-1
3.604264225E0,9.482235909E0,-3.190273643E-1,-1.741781682E-1
3.606751985E0,9.664195061E0,-3.238157928E-1,2.663549483E-1
3.609239746E0,9.779116631E0,-2.902969420E-1,7.068880796E-1
3.611727506E0,9.803058624E0,-2.950853705E-1,1.171363235E0
3.614215266E0,9.764751434E0,-3.094505668E-1,1.559223890E0
3.616703027E0,9.692925453E0,-3.525462151E-1,1.860893250E0
3.619190787E0,9.616311073E0,-4.052186310E-1,2.081159830E0
3.621678548E0,9.554061890E0,-4.387374520E-1,2.234388828E0
3.624166308E0,9.472659111E0,-4.866214991E-1,2.339733601E0
3.626654068E0,9.434351921E0,-5.153518915E-1,2.368463993E0
3.629141829E0,9.405621529E0,-5.105634928E-1,2.334945202E0
3.631629589E0,9.400833130E0,-4.722562730E-1,2.272696018E0
3.634117350E0,9.405621529E0,-4.195838571E-1,2.162562609E0
3.636605110E0,9.415198326E0,-3.669114113E-1,2.047641039E0
3.639092871E0,9.386467934E0,-3.333925903E-1,1.894412041E0
3.641580631E0,9.324218750E0,-3.525462151E-1,1.688510776E0
3.644068391E0,9.233239174E0,-4.243722558E-1,1.410783410E0
3.646556152E0,9.185355186E0,-5.632359385E-1,1.089960337E0
3.649043912E0,9.147047997E0,-7.116764784E-1,7.020996213E-1
3.651531673E0,9.204508781E0,-8.265981078E-1,2.615665495E-1
3.654019433E0,9.338583946E0,-8.744821548E-1,-2.124854028E-1
3.656507193E0,9.487024307E0,-8.361749649E-1,-6.578069329E-1
3.658994954E0,9.640253067E0,-7.451952696E-1,-1.060032845E0
3.661482714E0,9.807847023E0,-6.063315868E-1,-1.342548609E0
3.663970475E0,9.903614998E0,-4.961982965E-1,-1.495777488E0
3.666458235E0,9.946710587E0,-4.483142793E-1,-1.538873196E0
3.668945996E0,9.951498985E0,-4.435258508E-1,-1.452681899E0
3.671433756E0,9.927556992E0,-4.435258508E-1,-1.299453020E0
3.673921516E0,9.913191795E0,-4.578910768E-1,-1.131858826E0
3.676409277E0,9.898826599E0,-4.195838571E-1,-9.020155072E-1
3.678897037E0,9.898826599E0,-2.998737693E-1,-5.907692909E-1
3.681384798E0,9.850942612E0,-1.370680481E-1,-2.076970041E-1
3.683872558E0,9.736021042E0,5.925649032E-2,2.376245260E-1
3.686360318E0,9.558850288E0,2.795230448E-1,7.116764784E-1
3.688848079E0,9.319430351E0,4.710591733E-1,1.161786318E0
3.691335839E0,9.070432663E0,6.290764809E-1,1.525704980E0
3.693823600E0,8.859743118E0,7.775170207E-1,1.836951256E0
3.696311360E0,8.711302757E0,9.163807034E-1,2.076371431E0
3.698799121E0,8.620323181E0,1.040879130E0,2.320580006E0
3.701286881E0,8.548497200E0,1.117493629E0,2.531269789E0
3.703774641E0,8.476671219E0,1.208473325E0,2.770689964E0
3.706262402E0,8.352172852E0,1.313818216E0,3.024475336E0
3.708750162E0,8.208520889E0,1.409586191E0,3.278260708E0
3.711237923E0,8.040925980E0,1.495777488E0,3.479373693E0
3.713725683E0,7.830236435E0,1.581968784E0,3.579930067E0
3.716213443E0,7.581239700E0,1.644217968E0,3.570353270E0
3.718701204E0,7.308300495E0,1.649006367E0,3.426701069E0
3.721188964E0,7.116764545E0,1.629852772E0,3.182492495E0
3.723676725E0,7.001842976E0,1.567603588E0,2.899976730E0
3.726164485E0,6.958747387E0,1.529296279E0,2.545634985E0
3.728652246E0,6.968324184E0,1.519719481E0,2.200869799E0
3.731140006E0,7.016208172E0,1.519719481E0,1.918354154E0
3.733627766E0,7.078457355E0,1.524507880E0,1.669357181E0
3.736115527E0,7.116764545E0,1.519719481E0,1.463455796E0
3.738603287E0,7.131129742E0,1.481412292E0,1.243189216E0
3.741091048E0,7.183802128E0,1.361702204E0,9.989806414E-1
3.743578808E0,7.293935299E0,1.174954534E0,7.643488646E-1
3.746066568E0,7.475894928E0,9.546879530E-1,5.057750940E-1
3.748554329E0,7.710526466E0,6.865373254E-1,3.142389655E-1
3.751042089E0,7.988254070E0,4.040215313E-1,1.705868691E-1
3.753529850E0,8.309077263E0,1.167173311E-1,7.003039867E-2
3.756017610E0,8.653841972E0,-1.466448605E-1,1.256955881E-2
3.758505371E0,8.969876289E0,-3.716998100E-1,-2.094926499E-2
3.760993131E0,9.228450775E0,-5.392939448E-1,-3.052607179E-2
3.763480891E0,9.415198326E0,-6.590040326E-1,-1.795651275E-3
3.765968652E0,9.582792282E0,-7.787141204E-1,3.172317147E-2
3.768456412E0,9.697713852E0,-8.984242082E-1,1.035492271E-1
3.770944173E0,9.831789017E0,-1.003769040E0,2.136825025E-1
3.773431933E0,9.961075783E0,-1.089960337E0,3.764882088E-1
3.775919693E0,1.007120991E1,-1.176151633E0,5.297171474E-1
3.778407454E0,1.013824749E1,-1.276708007E0,7.260416746E-1
3.780895214E0,1.013345909E1,-1.348534107E0,8.984242082E-1
3.783382975E0,1.005205631E1,-1.396418095E0,1.022922635E0
3.785870735E0,9.965864182E0,-1.429937005E0,1.089960337E0
3.788358496E0,9.850942612E0,-1.439513803E0,1.089960337E0
3.790846256E0,9.769539833E0,-1.386841297E0,1.042076349E0
3.793334016E0,9.731232643E0,-1.319803715E0,9.510966539E-1
3.795821777E0,9.731232643E0,-1.214458823E0,8.457517624E-1
3.798309537E0,9.712079048E0,-1.152209520E0,7.451952696E-1
3.800797298E0,9.645041466E0,-1.123479128E0,6.590040326E-1
3.803285058E0,9.573215485E0,-1.147421122E0,6.063315868E-1
3.805772818E0,9.458293915E0,-1.185728431E0,5.584475398E-1
3.808260579E0,9.309853554E0,-1.209670424E0,4.961982965E-1
3.810748339E0,9.108740807E0,-1.166574836E0,4.100070298E-1
3.813236100E0,8.912415504E0,-1.018134236E0,3.190273643E-1
3.815723860E0,8.749609947E0,-8.553285599E-1,1.945288926E-1
3.818211621E0,8.639476776E0,-7.356184721E-1,4.608838260E-2
3.820699381E0,8.582015991E0,-6.637924314E-1,-1.071405262E-1
3.823187141E0,8.582015991E0,-6.590040326E-1,-2.364274114E-1
3.825674902E0,8.634688377E0,-7.164648771E-1,-3.465606868E-1
3.828162662E0,8.701725960E0,-7.978677154E-1,-4.614823759E-1
3.830650423E0,8.816647530E0,-8.744821548E-1,-5.428852439E-1
3.833138183E0,8.950722694E0,-9.319429994E-1,-5.668272376E-1
3.835625943E0,9.060855865E0,-9.319429994E-1,-5.716156363E-1
3.838113704E0,9.113529205E0,-8.888474107E-1,-5.716156363E-1
3.840601464E0,9.099164009E0,-8.265981078E-1,-5.811924338E-1
3.843089225E0,9.056067467E0,-8.313865662E-1,-6.051344872E-1
3.845576985E0,9.041702271E0,-9.032126069E-1,-6.625953317E-1
3.848064746E0,9.156624794E0,-1.056441545E0,-6.721721292E-1
3.850552506E0,9.367314339E0,-1.262342811E0,-5.955576897E-1
3.853040266E0,9.635464668E0,-1.520916581E0,-4.088099301E-1
3.855528027E0,9.889249802E0,-1.779490471E0,-1.358709484E-1
3.858015787E0,1.008078671E1,-2.009333849E0,2.088941038E-1
3.860503548E0,1.026274586E1,-2.234388828E0,5.488707423E-1
3.862991308E0,1.042555141E1,-2.421136379E0,8.313865662E-1
3.865479068E0,1.055004978E1,-2.569576979E0,9.798270464E-1
3.867966829E0,1.067933655E1,-2.646191359E0,9.941922426E-1
3.870454589E0,1.078468132E1,-2.655768156E0,8.984242082E-1
3.872942350E0,1.083735371E1,-2.631826162E0,7.835025191E-1
3.875430110E0,1.079904652E1,-2.574365377E0,7.020996213E-1
3.877917871E0,1.067454815E1,-2.512116194E0,6.925228238E-1
3.880405631E0,1.049258900E1,-2.459443808E0,7.164648771E-1
3.882893391E0,1.027232265E1,-2.397194386E0,7.499836683E-1
3.885381152E0,1.002332497E1,-2.296638012E0,7.356184721E-1
3.887868912E0,9.779116631E0,-2.129043818E0,6.398503780E-1
3.890356673E0,9.544485092E0,-1.913565755E0,4.722562730E-1
3.892844433E0,9.352949142E0,-1.650203466E0,2.184709013E-1
3.895332193E0,9.166201591E0,-1.353322506E0,-6.883329898E-2
3.897819954E0,9.017760277E0,-1.075595140E0,-3.752911091E-1
3.900307714E0,8.869319916E0,-8.218097091E-1,-6.961141229E-1
3.902795475E0,8.696937561E0,-6.111199856E-1,-9.786299467E-1
3.905283235E0,8.491036415E0,-4.387374520E-1,-1.198896527E0
3.907770996E0,8.280346870E0,-2.663549483E-1,-1.404797792E0
3.910258756E0,8.079233170E0,-1.131260321E-1,-1.581968784E0
3.912746516E0,7.906851292E0,4.489128292E-2,-1.720832467E0
3.915234277E0,7.796717644E0,2.124854028E-1,-1.783081770E0
3.917722037E0,7.758410454E0,3.896563351E-1,-1.807023764E0
3.920209798E0,7.767987251E0,5.428852439E-1,-1.763928056E0
3.922697558E0,7.758410454E0,7.056909800E-1,-1.658583283E0
3.925185318E0,7.739256859E0,8.158242106E-1,-1.510142684E0
3.927673079E0,7.705738068E0,8.349778652E-1,-1.304241419E0
3.930160839E0,7.686584473E0,7.631517649E-1,-1.088763237E0
3.932648600E0,7.686584473E0,6.338648796E-1,-8.780734539E-1
3.935136360E0,7.729680061E0,4.471171796E-1,-6.721721292E-1
3.937624121E0,7.849390507E0,2.699462473E-1,-4.854243994E-1
3.940111933E0,8.079233170E0,1.167173311E-1,-2.843114436E-1
3.942599746E0,8.347384453E0,-3.651157767E-2,-9.756372124E-2
3.945087558E0,8.653841972E0,-2.136825025E-1,6.524199992E-2
3.947575371E0,8.936357498E0,-4.339490533E-1,2.041056901E-1
3.950063183E0,9.252392769E0,-6.877344251E-1,3.381809890E-1
3.952550996E0,9.491812706E0,-9.846154451E-1,4.531026781E-1
3.955038808E0,9.740809441E0,-1.305438519E0,6.063315868E-1
3.957526621E0,9.941922188E0,-1.592742682E0,6.829460263E-1
3.960014433E0,1.010472870E1,-1.851316452E0,7.068880796E-1
3.962502246E0,1.021965027E1,-2.004545450E0,6.446388364E-1
3.964990058E0,1.030584145E1,-2.076371431E0,5.536591411E-1
3.967477871E0,1.034414864E1,-2.042852640E0,3.716998100E-1
3.969965683E0,1.030105305E1,-1.918354154E0,1.274912357E-1
3.972453496E0,1.018134308E1,-1.774701953E0,-9.756372124E-2
3.974941308E0,1.006163311E1,-1.592742682E0,-2.699462473E-1
3.977429121E0,9.884461403E0,-1.449090600E0,-4.088099301E-1
3.979916933E0,9.678560257E0,-1.276708007E0,-4.854243994E-1
3.982404746E0,9.520543098E0,-1.080383539E0,-5.093663931E-1
3.984892558E0,9.376891136E0,-9.032126069E-1,-5.237316489E-1
3.987380371E0,9.242815971E0,-7.068880796E-1,-5.285200477E-1
3.989868183E0,9.118317604E0,-5.249287486E-1,-5.428852439E-1
3.992355996E0,8.969876289E0,-3.477577865E-1,-5.476736426E-1
3.994843808E0,8.807070732E0,-1.514332592E-1,-4.902127981E-1
3.997331621E0,8.658630371E0,4.010287672E-2,-4.088099301E-1
3.999819433E0,8.486248016E0,1.837549806E-1,-2.986766696E-1
4.002307246E0,8.342596054E0,2.986766696E-1,-1.933317930E-1
4.004795058E0,8.265981674E0,3.896563351E-1,-8.798690885E-2
4.007282871E0,8.246828079E0,4.279635549E-1,-3.052607179E-2
4.009770683E0,8.285135269E0,4.088099301E-1,5.087678507E-2
4.012258496E0,8.380903244E0,3.417722881E-1,9.397241473E-2
4.014746256E0,8.572439194E0,1.885433793E-1,1.131260321E-1
4.017234016E0,8.787917137E0,-2.693476900E-2,1.083376259E-1
4.019721777E0,9.022548676E0,-2.615665495E-1,6.524199992E-2
4.022209537E0,9.266757965E0,-4.866214991E-1,2.214636654E-2
4.024697298E0,9.515754700E0,-6.973112226E-1,2.214636654E-2
4.027185058E0,9.692925453E0,-8.457517624E-1,1.735796221E-2
4.029672818E0,9.793481827E0,-9.319429994E-1,4.608838260E-2
4.032160579E0,9.841365814E0,-9.750386477E-1,3.651157767E-2
4.034648339E0,9.855731010E0,-9.750386477E-1,2.992752008E-3
4.037136100E0,9.812635422E0,-9.750386477E-1,-7.362170517E-2
4.039623860E0,9.692925453E0,-9.798270464E-1,-1.789665818E-1
4.042111621E0,9.558850288E0,-9.654618502E-1,-2.986766696E-1
4.044599381E0,9.372102737E0,-9.319429994E-1,-4.327519536E-1
4.047087141E0,9.161413193E0,-8.936358094E-1,-5.524620414E-1
4.049574902E0,9.003395081E0,-8.553285599E-1,-6.721721292E-1
4.052062662E0,8.845377922E0,-8.218097091E-1,-7.727286220E-1
4.054550423E0,8.773551941E0,-8.170213103E-1,-8.924387097E-1
4.057038183E0,8.749609947E0,-8.265981078E-1,-1.021725535E0
4.059525943E0,8.787917137E0,-8.409633636E-1,-1.127070427E0
4.062013704E0,8.878896713E0,-8.457517624E-1,-1.146224022E0
4.064501464E0,9.075222015E0,-8.888474107E-1,-1.117493629E0
4.066989225E0,9.300276756E0,-9.702502489E-1,-1.007360339E0
4.069476985E0,9.525331497E0,-1.075595140E0,-7.679402232E-1
4.071964746E0,9.726444244E0,-1.238400817E0,-4.662707746E-1
4.074452506E0,9.913191795E0,-1.444302201E0,-7.841010392E-2
4.076940266E0,1.006642151E1,-1.645415068E0,3.716998100E-1
4.079428027E0,1.019091988E1,-1.817797661E0,8.074445128E-1
4.081915787E0,1.025316906E1,-1.932719350E0,1.190516829E0
4.084403548E0,1.026753426E1,-1.975814939E0,1.520916581E0
4.086891308E0,1.022922707E1,-1.918354154E0,1.765125155E0
4.089379068E0,1.016697788E1,-1.793855667E0,1.851316452E0
4.091866829E0,1.003290176E1,-1.592742682E0,1.822586060E0
4.094354589E0,9.812635422E0,-1.310226917E0,1.693299174E0
4.096842350E0,9.539696693E0,-9.941922426E-1,1.506551385E0
4.099330110E0,9.223662376E0,-6.159083843E-1,1.262342811E0
4.101817871E0,8.907627106E0,-2.663549483E-1,9.894038439E-1
4.104305631E0,8.562862396E0,9.277531505E-2,6.877344251E-1
4.106793391E0,8.184578896E0,4.519055784E-1,3.286041915E-1
4.109281152E0,7.787140846E0,7.870938182E-1,-4.010287672E-2
4.111768912E0,7.365761757E0,1.079186440E0,-4.183867574E-1
4.114256673E0,6.930016994E0,1.366490602E0,-7.870938182E-1
4.116744433E0,6.460753441E0,1.605910778E0,-1.174954534E0
4.119232193E0,6.020220280E0,1.830965757E0,-1.581968784E0
4.121719954E0,5.622782707E0,2.012925148E0,-1.969829440E0
4.124207714E0,5.297171116E0,2.180519104E0,-2.348113298E0
4.126695475E0,5.062539577E0,2.328959703E0,-2.716820478E0
4.129183235E0,4.942829609E0,2.463035107E0,-3.023278236E0
4.131670996E0,4.909310818E0,2.563591480E0,-3.291428804E0
4.134158756E0,4.976348400E0,2.635417461E0,-3.511695385E0
4.136646516E0,5.182249546E0,2.659359455E0,-3.631405354E0
4.139134277E0,5.421669960E0,2.587533474E0,-3.626616955E0
4.141622037E0,5.718550682E0,2.376843691E0,-3.463811398E0
4.144109798E0,6.010643482E0,2.036867142E0,-3.128623009E0
4.146597558E0,6.297947407E0,1.581968784E0,-2.616263866E0
4.149085318E0,6.590040207E0,1.069609642E0,-1.988983035E0
4.151573079E0,6.886921406E0,5.285200477E-1,-1.285087705E0
4.154060839E0,7.188590527E0,2.573766746E-2,-5.668272376E-1
4.156548600E0,7.509413719E0,-3.956418335E-1,1.227028370E-1
4.159036360E0,7.873332500E0,-7.260416746E-1,7.691373229E-1
4.161524121E0,8.232462883E0,-1.003769040E0,1.410783410E0
4.164011881E0,8.543708801E0,-1.233612418E0,1.966238141E0
4.166499641E0,8.816647530E0,-1.415571809E0,2.464232206E0
4.168987402E0,9.022548676E0,-1.549647093E0,2.871246338E0
4.171475162E0,9.190143585E0,-1.650203466E0,3.187281132E0
4.173962923E0,9.329007149E0,-1.712452769E0,3.397970676E0
4.176450683E0,9.381679535E0,-1.731606364E0,3.503315687E0
4.178938443E0,9.419986725E0,-1.722029567E0,3.546411276E0
4.181426204E0,9.453505516E0,-1.688510776E0,3.493738890E0
4.183913964E0,9.453505516E0,-1.621473074E0,3.388393879E0
4.186401725E0,9.415198326E0,-1.525704980E0,3.220799923E0
4.188889485E0,9.338583946E0,-1.425148606E0,2.990956545E0
4.191377246E0,9.209297180E0,-1.257554412E0,2.694075346E0
4.193865006E0,9.036913872E0,-1.080383539E0,2.382829189E0
4.196352766E0,8.783128738E0,-8.696937561E-1,2.033275843E0
4.198840527E0,8.514978409E0,-6.685808301E-1,1.664568782E0
4.201328287E0,8.218097687E0,-4.866214991E-1,1.286284804E0
4.203816048E0,7.988254070E0,-3.046621680E-1,9.223662019E-1
4.206303808E0,7.820659637E0,-1.322796494E-1,5.823895931E-1
4.208791568E0,7.700949669E0,3.052607179E-2,3.094505668E-1
4.211279329E0,7.595604897E0,1.933317930E-1,5.566519126E-2
4.213767089E0,7.504625320E0,3.226186931E-1,-1.358709484E-1
4.216254850E0,7.432799339E0,4.375403523E-1,-2.699462473E-1
4.218742610E0,7.360973358E0,4.950011969E-1,-3.848679364E-1
4.221230371E0,7.298723698E0,5.476736426E-1,-5.333084464E-1
4.223718131E0,7.260416508E0,6.147112846E-1,-7.152677774E-1
4.226205891E0,7.250839710E0,6.817489266E-1,-8.924387097E-1
4.228693652E0,7.246051311E0,7.918822169E-1,-1.036090732E0
4.231181412E0,7.269993305E0,9.690531492E-1,-1.021725535E0
4.233669173E0,7.269993305E0,1.136647224E0,-8.397662640E-1
4.236156933E0,7.222109318E0,1.265934110E0,-4.614823759E-1
4.238644693E0,7.116764545E0,1.299453020E0,4.608838260E-2
4.241132454E0,7.049726963E0,1.213261724E0,6.542156339E-1
4.243620214E0,7.011419773E0,1.026513934E0,1.310226917E0
4.246107975E0,7.025784969E0,7.631517649E-1,1.951872945E0
4.248595735E0,7.121552944E0,4.519055784E-1,2.545634985E0
4.251083496E0,7.313088894E0,1.262941360E-1,3.105878115E0
4.253571256E0,7.581239700E0,-2.088941038E-1,3.565564871E0
4.256059016E0,7.935581684E0,-5.201402903E-1,3.929483652E0
4.258546777E0,8.390480042E0,-8.553285599E-1,4.188057423E0
4.261034537E0,8.874108315E0,-1.171363235E0,4.384381771E0
4.263522298E0,9.357737541E0,-1.482609391E0,4.561553001E0
4.266010058E0,9.846154213E0,-1.789067268E0,4.695628166E0
4.268497818E0,1.026753426E1,-2.057217836E0,4.791396141E0
4.270985579E0,1.059793377E1,-2.267907619E0,4.820126534E0
4.273473339E0,1.084214211E1,-2.445078373E0,4.800972939E0
4.275961100E0,1.102410126E1,-2.569576979E0,4.743512154E0
4.278448860E0,1.106719780E1,-2.631826162E0,4.609436989E0
4.280936621E0,1.104325581E1,-2.617460966E0,4.470572948E0
4.283424381E0,1.095227528E1,-2.593518972E0,4.269460201E0
4.285912141E0,1.079425812E1,-2.497750998E0,3.977367640E0
4.288399902E0,1.055483818E1,-2.354098797E0,3.690063477E0
4.290887662E0,1.026753426E1,-2.191293001E0,3.393182278E0
4.293375423E0,9.927556992E0,-2.014122248E0,3.086724520E0
4.295863183E0,9.549273491E0,-1.832162857E0,2.775478363E0
4.298350943E0,9.118317604E0,-1.659780383E0,2.469020605E0
4.300838704E0,8.639476776E0,-1.477820992E0,2.157774210E0
4.303326464E0,8.189367294E0,-1.310226917E0,1.846528053E0
4.305814225E0,7.763198853E0,-1.161786318E0,1.492186189E0
4.308301985E0,7.413645744E0,-1.008557439E0,1.142632723E0
4.310789746E0,7.135918140E0,-8.074445128E-1,7.978677154E-1
4.313277506E0,6.930016994E0,-5.728127360E-1,4.770447016E-1
4.315765266E0,6.805518150E0,-3.190273643E-1,2.328361124E-1
4.318253027E0,6.728903770E0,-4.129998013E-2,5.566519126E-2
4.320740787E0,6.652289391E0,2.460042238E-1,-4.967968538E-2
4.323228548E0,6.575675011E0,5.189431906E-1,-2.573766746E-2
4.325716308E0,6.513425827E0,8.014590144E-1,8.439560980E-2
4.328204068E0,6.446388245E0,1.045667648E0,2.376245260E-1
4.330691829E0,6.393715858E0,1.189319730E0,4.387374520E-1
4.333179589E0,6.393715858E0,1.208473325E0,7.116764784E-1
4.335667350E0,6.494272232E0,1.117493629E0,9.894038439E-1
4.338155110E0,6.704961777E0,9.259575009E-1,1.267131209E0
4.340642871E0,7.064092159E0,6.865373254E-1,1.535281897E0
4.343130631E0,7.518990517E0,4.040215313E-1,1.750759959E0
4.345618391E0,8.021772385E0,1.167173311E-1,2.004545450E0
4.348106152E0,8.567650795E0,-1.610100716E-1,2.277484417E0
4.350593912E0,9.084798813E0,-4.531026781E-1,2.545634985E0
4.353081673E0,9.568427086E0,-7.595604658E-1,2.832939148E0
4.355569433E0,9.975440979E0,-1.051653147E0,3.144185305E0
4.358057193E0,1.033936024E1,-1.343745708E0,3.431489468E0
4.360544954E0,1.065539455E1,-1.592742682E0,3.656544447E0
4.363032766E0,1.091875648E1,-1.803432465E0,3.824138641E0
4.365520579E0,1.114860058E1,-1.980603337E0,3.891176224E0
4.368008391E0,1.133534813E1,-2.133832216E0,3.900753021E0
4.370496204E0,1.147421169E1,-2.229600430E0,3.848080635E0
4.372984016E0,1.152209568E1,-2.282272816E0,3.747524261E0
4.375471829E0,1.149336529E1,-2.315791607E0,3.642179251E0
4.377959641E0,1.136886692E1,-2.306214809E0,3.479373693E0
4.380447454E0,1.117733097E1,-2.234388828E0,3.283049107E0
4.382935266E0,1.091875648E1,-2.109890223E0,3.029263735E0
4.385423079E0,1.059793377E1,-1.951872945E0,2.737171173E0
4.387910891E0,1.021486187E1,-1.769913554E0,2.435501575E0
4.390398704E0,9.803058624E0,-1.559223890E0,2.100313425E0
4.392886516E0,9.386467934E0,-1.334168911E0,1.769913554E0
4.395374329E0,8.979453087E0,-1.104325533E0,1.420360208E0
4.397862141E0,8.586804390E0,-8.744821548E-1,1.094748735E0
4.400349954E0,8.256404877E0,-6.637924314E-1,7.595604658E-1
4.402837766E0,7.935581684E0,-4.339490533E-1,4.483142793E-1
4.405325579E0,7.629123688E0,-2.376245260E-1,1.514332592E-1
4.407813391E0,7.322665691E0,-1.256955881E-2,-1.310825497E-1
4.410301204E0,6.997054577E0,2.220622003E-1,-3.752911091E-1
4.412789016E0,6.681019783E0,4.902127981E-1,-5.572504401E-1
4.415276829E0,6.360196590E0,8.110358119E-1,-6.865373254E-1
4.417764641E0,6.029797077E0,1.141435623E0,-7.104793787E-1
4.420252454E0,5.689820290E0,1.457470298E0,-6.865373254E-1
4.422740266E0,5.373785496E0,1.716044068E0,-5.716156363E-1
4.425228079E0,5.124788761E0,1.912368655E0,-4.088099301E-1
4.427715891E0,4.928464413E0,2.051232338E0,-1.837549806E-1
4.430203704E0,4.890156746E0,2.123058319E0,7.003039867E-2
4.432691516E0,5.000290394E0,2.132635117E0,3.525462151E-1
4.435179277E0,5.249287128E0,2.151788712E0,6.781576276E-1
4.437667037E0,5.603629112E0,2.123058319E0,1.046864748E0
4.440154798E0,6.010643482E0,2.032078743E0,1.425148606E0
4.442642558E0,6.441599846E0,1.854907751E0,1.813009262E0
4.445130318E0,6.891709805E0,1.577180386E0,2.205658197E0
4.447618079E0,7.337030888E0,1.232415318E0,2.588730574E0
4.450105839E0,7.811082840E0,8.349778652E-1,2.914341927E0
4.452593600E0,8.275558472E0,4.519055784E-1,3.196857929E0
4.455081360E0,8.706514359E0,9.277531505E-2,3.460220098E0
4.457569121E0,9.137471199E0,-2.184709013E-1,3.685275078E0
4.460056881E0,9.539696693E0,-4.818331003E-1,3.895964622E0
4.462544641E0,9.874884605E0,-7.164648771E-1,4.073135853E0
4.465032402E0,1.014782429E1,-9.367313981E-1,4.197634220E0
4.467520162E0,1.032499504E1,-1.152209520E0,4.269460201E0
4.470007923E0,1.038245583E1,-1.338957310E0,4.279036999E0
4.472495683E0,1.038245583E1,-1.473032594E0,4.197634220E0
4.474983443E0,1.029626465E1,-1.540070295E0,4.073135853E0
4.477471204E0,1.014303589E1,-1.554435492E0,3.881599426E0
4.479958964E0,9.946710587E0,-1.511339784E0,3.632602453E0
4.482446725E0,9.716867447E0,-1.415571809E0,3.345298290E0
4.484934485E0,9.482235909E0,-1.315015316E0,3.029263735E0
4.487422246E0,9.233239174E0,-1.219247222E0,2.703652382E0
4.489910006E0,8.993818283E0,-1.128267527E0,2.378040791E0
4.492397766E0,8.735244751E0,-1.051653147E0,2.071583033E0
4.494885527E0,8.447940826E0,-9.510966539E-1,1.784278870E0
4.497373287E0,8.155848503E0,-8.457517624E-1,1.540070295E0
4.499861048E0,7.835024834E0,-7.116764784E-1,1.310226917E0
4.502348808E0,7.533355713E0,-5.919663906E-1,1.104325533E0
4.504836568E0,7.250839710E0,-4.339490533E-1,9.271546006E-1
4.507324329E0,6.997054577E0,-2.615665495E-1,7.739257216E-1
4.509812089E0,6.767210960E0,-5.566519126E-2,6.446388364E-1
4.512299850E0,6.575675011E0,2.076970041E-1,5.632359385E-1
4.514787610E0,6.408081055E0,4.710591733E-1,5.776011348E-1
4.517275371E0,6.245275021E0,6.721721292E-1,6.829460263E-1
4.519763131E0,6.115988255E0,7.487865686E-1,8.696937561E-1
4.522250891E0,6.053739071E0,7.392097712E-1,1.161786318E0
4.524738652E0,6.039373875E0,6.434416771E-1,1.501762986E0
4.527226412E0,6.087257862E0,5.333084464E-1,1.832162857E0
4.529714173E0,6.192602634E0,3.561375141E-1,2.186504602E0
4.532201933E0,6.364984989E0,1.693897694E-1,2.531269789E0
4.534689693E0,6.580463409E0,-3.651157767E-2,2.842515945E0
4.537177454E0,6.834248543E0,-2.376245260E-1,3.139396906E0
4.539665214E0,7.092822552E0,-4.243722558E-1,3.402759075E0
4.542152975E0,7.356184959E0,-6.350619793E-1,3.618237257E0
4.544640735E0,7.624335289E0,-8.457517624E-1,3.785831451E0
4.547128496E0,7.887697697E0,-1.070806742E0,3.919906616E0
4.549616256E0,8.136694908E0,-1.338957310E0,4.068347454E0
4.552104016E0,8.390480042E0,-1.602319479E0,4.216787815E0
4.554591777E0,8.644265175E0,-1.870470047E0,4.365228176E0
4.557079537E0,8.878896713E0,-2.129043818E0,4.513668537E0
4.559567298E0,9.094375610E0,-2.339733601E0,4.609436989E0
4.562055058E0,9.295488358E0,-2.516904593E0,4.662109375E0
4.564542818E0,9.496601105E0,-2.665344954E0,4.662109375E0
4.567030579E0,9.673771858E0,-2.746747971E0,4.628590584E0
4.569518339E0,9.827000618E0,-2.780266762E0,4.523245335E0
4.572006100E0,9.941922188E0,-2.780266762E0,4.398746967E0
4.574493860E0,9.980229378E0,-2.727594376E0,4.226364613E0
4.576981621E0,9.961075783E0,-2.670133352E0,4.087501049E0
4.579469381E0,9.908403397E0,-2.631826162E0,3.986944437E0
4.581957141E0,9.855731010E0,-2.612672567E0,3.872022629E0
4.584444902E0,9.884461403E0,-2.555211782E0,3.752312660E0
4.586932662E0,9.989806175E0,-2.401982784E0,3.623025656E0
4.589420423E0,1.009036350E1,-2.124255419E0,3.527257681E0
4.591908183E0,1.017655468E1,-1.760336757E0,3.522469282E0
4.594395943E0,1.023880386E1,-1.367687702E0,3.589506865E0
4.596883704E0,1.024838066E1,-9.654618502E-1,3.680486679E0
4.599371464E0,1.027232265E1,-6.398503780E-1,3.848080635E0
4.601859225E0,1.029147625E1,-3.764882088E-1,4.015674591E0
4.604346985E0,1.035851383E1,-1.897404790E-1,4.183269024E0
4.606834746E0,1.043991661E1,-3.651157767E-2,4.336497784E0
4.609322506E0,1.053568459E1,8.798690885E-2,4.465784550E0
4.611810266E0,1.073200893E1,1.981201917E-1,4.571129799E0
4.614298027E0,1.095706367E1,2.938882709E-1,4.614225388E0
4.616785787E0,1.120606136E1,3.609259129E-1,4.638167381E0
4.619273548E0,1.144069290E1,4.040215313E-1,4.609436989E0
4.621761308E0,1.164659405E1,4.088099301E-1,4.551976204E0
4.624249068E0,1.178545761E1,3.752911091E-1,4.456207752E0
4.626736829E0,1.186207199E1,2.986766696E-1,4.336497784E0
4.629224589E0,1.192910957E1,2.172738016E-1,4.183269024E0
4.631712350E0,1.199135876E1,1.167173311E-1,4.025251389E0
4.634200110E0,1.207276249E1,2.573766746E-2,3.876811028E0
4.636687871E0,1.216853046E1,-6.524199992E-2,3.737947464E0
4.639175631E0,1.223077965E1,-1.370680481E-1,3.627814054E0
4.641663391E0,1.225951004E1,-1.945288926E-1,3.551199675E0
4.644151152E0,1.222599125E1,-2.615665495E-1,3.498527288E0
4.646638912E0,1.220204926E1,-3.333925903E-1,3.460220098E0
4.649126673E0,1.216853046E1,-4.052186310E-1,3.426701069E0
4.651614433E0,1.210628128E1,-4.722562730E-1,3.393182278E0
4.654102193E0,1.204882050E1,-5.392939448E-1,3.354875088E0
4.656589954E0,1.196741676E1,-6.063315868E-1,3.321356297E0
4.659077714E0,1.188122559E1,-6.781576276E-1,3.273472309E0
4.661565475E0,1.179503441E1,-7.595604658E-1,3.187281132E0
4.664053235E0,1.170405483E1,-8.313865662E-1,3.110666513E0
4.666540996E0,1.160828686E1,-8.936358094E-1,3.034052134E0
4.669028756E0,1.150773048E1,-9.367313981E-1,2.986168146E0
4.671516516E0,1.144548130E1,-9.654618502E-1,2.962226152E0
4.674004277E0,1.137844372E1,-9.606734514E-1,2.928707123E0
4.676492037E0,1.128746414E1,-9.510966539E-1,2.923918724E0
4.678979798E0,1.117733097E1,-9.080010056E-1,2.943072557E0
4.681467558E0,1.103846741E1,-8.505401611E-1,3.019686937E0
4.683955318E0,1.087566090E1,-8.170213103E-1,3.153762102E0
4.686443079E0,1.065539455E1,-7.547720671E-1,3.316567898E0
4.688930839E0,1.042555141E1,-6.973112226E-1,3.455431700E0
4.691418600E0,1.023401546E1,-6.494272351E-1,3.579930067E0
4.693906360E0,1.013345909E1,-6.015431881E-1,3.685275078E0
4.696394121E0,1.011430550E1,-5.105634928E-1,3.747524261E0
4.698881881E0,1.018134308E1,-3.764882088E-1,3.790619850E0
4.701369641E0,1.030584145E1,-1.705868691E-1,3.843292236E0
4.703857402E0,1.044949341E1,1.071405262E-1,3.895964622E0
4.706345162E0,1.057399178E1,3.848679364E-1,3.982156038E0
4.708832923E0,1.063624096E1,6.290764809E-1,4.092289448E0
4.711320683E0,1.065539455E1,8.254010081E-1,4.240729809E0
4.713808443E0,1.066018295E1,9.546879530E-1,4.393958569E0
4.716296204E0,1.064102936E1,1.026513934E0,4.566341400E0
4.718783964E0,1.061708736E1,1.021725535E0,4.719570160E0
4.721271725E0,1.061229897E1,9.786299467E-1,4.872798920E0
4.723759485E0,1.062187576E1,9.403226972E-1,4.992508888E0
4.726247246E0,1.066497135E1,8.972271085E-1,5.064335346E0
4.728735006E0,1.074637413E1,8.541314602E-1,5.107430935E0
4.731222766E0,1.089481449E1,7.823054194E-1,5.073912144E0
4.733710527E0,1.105762100E1,6.625953317E-1,5.002085686E0
4.736198287E0,1.116296577E1,5.380968451E-1,4.915894508E0
4.738686048E0,1.126352215E1,3.896563351E-1,4.853645325E0
4.741173808E0,1.136886692E1,2.507926226E-1,4.796184540E0
4.743661568E0,1.141675091E1,1.119289324E-1,4.757877350E0
4.746149329E0,1.144548130E1,-1.735796221E-2,4.709993362E0
4.748637089E0,1.143590450E1,-1.418564469E-1,4.671686172E0
4.751124850E0,1.142153931E1,-2.328361124E-1,4.652532578E0
4.753612610E0,1.141196251E1,-3.142389655E-1,4.638167381E0
4.756100371E0,1.141196251E1,-4.004302323E-1,4.609436989E0
4.758588131E0,1.140717411E1,-5.057750940E-1,4.561553001E0
4.761075891E0,1.144069290E1,-6.159083843E-1,4.484938145E0
4.763563652E0,1.145984650E1,-7.020996213E-1,4.417900562E0
4.766051412E0,1.147421169E1,-8.026561141E-1,4.336497784E0
4.768539173E0,1.152209568E1,-8.601169586E-1,4.259883404E0
4.771026933E0,1.160828686E1,-8.792705536E-1,4.173692226E0
4.773514693E0,1.176630402E1,-8.170213103E-1,4.068347454E0
4.776002454E0,1.195783997E1,-6.925228238E-1,3.967790842E0
4.778490214E0,1.213501167E1,-5.105634928E-1,3.872022629E0
4.780978027E0,1.226908684E1,-2.855085433E-1,3.833715439E0
4.783465839E0,1.233612442E1,-6.524199992E-2,3.857657433E0
4.785953652E0,1.229781723E1,1.310825497E-1,3.939060450E0
4.788441464E0,1.220204926E1,2.890998423E-1,4.058770657E0
4.790929277E0,1.205360889E1,4.327519536E-1,4.211999416E0
4.793417089E0,1.188122559E1,5.524620414E-1,4.403535366E0
4.795904902E0,1.170405483E1,7.056909800E-1,4.566341400E0
4.798392714E0,1.156519127E1,8.684966564E-1,4.681262970E0
4.800880527E0,1.141196251E1,1.016937137E0,4.729146957E0
4.803368339E0,1.128267574E1,1.151012421E0,4.781819344E0
4.805856152E0,1.118211937E1,1.280299306E0,4.796184540E0
4.808343964E0,1.107198620E1,1.400009394E0,4.781819344E0
4.810831777E0,1.097142887E1,1.471835494E0,4.738723755E0
4.813319589E0,1.085171890E1,1.543661594E0,4.700416565E0
4.815807402E0,1.075116253E1,1.596333981E0,4.614225388E0
4.818295214E0,1.066975975E1,1.653794765E0,4.470572948E0
4.820783027E0,1.058835697E1,1.677736878E0,4.346074581E0
4.823270839E0,1.051653099E1,1.711255670E0,4.197634220E0
4.825758652E0,1.042555141E1,1.763928056E0,4.053982258E0
4.828246464E0,1.027232265E1,1.826177359E0,3.943848848E0
4.830734277E0,1.010472870E1,1.917157054E0,3.872022629E0
4.833222089E0,9.937133789E0,1.998559833E0,3.761889458E0
4.835709902E0,9.788693428E0,2.051232338E0,3.651756048E0
4.838197714E0,9.692925453E0,2.079962730E0,3.541622877E0
4.840685527E0,9.645041466E0,2.075174332E0,3.388393879E0
4.843173339E0,9.601945877E0,2.060809135E0,3.259107113E0
4.845661152E0,9.597157478E0,2.051232338E0,3.148973703E0
4.848148964E0,9.611522675E0,2.022501945E0,3.067570925E0
4.850636777E0,9.635464668E0,1.998559833E0,2.981379747E0
4.853124589E0,9.645041466E0,1.974617839E0,2.923918724E0
4.855612350E0,9.678560257E0,1.945887446E0,2.856881142E0
4.858100110E0,9.716867447E0,1.936310649E0,2.770689964E0
4.860587871E0,9.736021042E0,1.898003340E0,2.689286947E0
4.863075631E0,9.779116631E0,1.869272947E0,2.631826162E0
4.865563391E0,9.831789017E0,1.830965757E0,2.540846586E0
4.868051152E0,9.865307808E0,1.802235365E0,2.464232206E0
4.870538912E0,9.913191795E0,1.768716455E0,2.363675594E0
4.873026673E0,9.927556992E0,1.759139657E0,2.267907619E0
4.875514433E0,9.956287384E0,1.730409265E0,2.196081400E0
4.878002193E0,9.989806175E0,1.735197663E0,2.124255419E0
4.880489954E0,1.002332497E1,1.730409265E0,2.047641039E0
4.882977714E0,1.005205631E1,1.692102075E0,1.971026540E0
4.885465475E0,1.005684471E1,1.668160081E0,1.889623642E0
4.887953235E0,1.005684471E1,1.653794765E0,1.779490471E0
4.890440996E0,1.001853657E1,1.658583283E0,1.678933978E0
4.892928756E0,9.913191795E0,1.682525277E0,1.592742682E0
4.895416516E0,9.788693428E0,1.706467271E0,1.511339784E0
4.897904277E0,9.635464668E0,1.773504853E0,1.434725404E0
4.900392037E0,9.510966301E0,1.854907751E0,1.358110905E0
4.902879798E0,9.410409927E0,1.921945453E0,1.305438519E0
4.905367558E0,9.343372345E0,1.960252643E0,1.214458823E0
4.907855318E0,9.285911560E0,1.979406238E0,1.109113932E0
4.910343079E0,9.257181168E0,1.979406238E0,9.894038439E-1
4.912830839E0,9.223662376E0,1.965041041E0,8.792705536E-1
4.915318600E0,9.170989990E0,1.965041041E0,8.026561141E-1
4.917806360E0,9.113529205E0,1.969829440E0,7.691373229E-1
4.920294121E0,9.032125473E0,1.969829440E0,7.499836683E-1
4.922781881E0,8.945934296E0,1.960252643E0,7.308300734E-1
4.925269641E0,8.854954720E0,1.960252643E0,7.020996213E-1
4.927757402E0,8.797493935E0,1.979406238E0,6.590040326E-1
4.930245162E0,8.754398346E0,1.979406238E0,6.063315868E-1
4.932732923E0,8.740033150E0,1.960252643E0,5.488707423E-1
4.935220683E0,8.735244751E0,1.931522250E0,5.536591411E-1
4.937708443E0,8.730456352E0,1.893214941E0,5.919663906E-1
4.940196204E0,8.716091156E0,1.864484549E0,6.254851818E-1
4.942683964E0,8.696937561E0,1.840542555E0,6.925228238E-1
4.945171725E0,8.692149162E0,1.826177359E0,7.356184721E-1
4.947659485E0,8.677783966E0,1.816600561E0,7.787141204E-1
4.950147246E0,8.687360764E0,1.811812162E0,8.122329116E-1
4.952635006E0,8.706514359E0,1.821388960E0,8.218097091E-1
4.955122766E0,8.763975143E0,1.864484549E0,8.457517624E-1
4.957610527E0,8.845377922E0,1.864484549E0,8.505401611E-1
4.960098287E0,8.965087891E0,1.859696150E0,8.744821548E-1
4.962586048E0,9.108740807E0,1.835754156E0,9.463081956E-1
4.965073808E0,9.252392769E0,1.778293371E0,1.022922635E0
4.967561568E0,9.386467934E0,1.763928056E0,1.113902330E0
4.970049329E0,9.501389503E0,1.739986062E0,1.219247222E0
4.972537089E0,9.573215485E0,1.744774461E0,1.367687702E0
4.975024850E0,9.683348656E0,1.739986062E0,1.511339784E0
4.977512610E0,9.812635422E0,1.744774461E0,1.635838270E0
4.980000371E0,9.898826599E0,1.744774461E0,1.741183162E0
4.982488131E0,9.965864182E0,1.749562860E0,1.860893250E0
4.984975891E0,1.002811337E1,1.749562860E0,1.985391736E0
4.987463652E0,1.006642151E1,1.759139657E0,2.105101824E0
4.989951412E0,1.009994030E1,1.754351258E0,2.253542423E0
4.992439173E0,1.010951710E1,1.763928056E0,2.454655409E0
4.994926933E0,1.008557510E1,1.783081770E0,2.660556555E0
4.997414693E0,1.009036350E1,1.797446966E0,2.866457939E0
4.999902454E0,1.008078671E1,1.802235365E0,3.043628931E0
5.002390214E0,1.009036350E1,1.802235365E0,3.192069530E0
5.004877975E0,1.008078671E1,1.802235365E0,3.297414303E0
5.007365735E0,1.006642151E1,1.816600561E0,3.340509892E0
5.009853496E0,1.001853657E1,1.816600561E0,3.407547474E0
5.012341256E0,9.965864182E0,1.830965757E0,3.469796896E0
5.014829016E0,9.922768593E0,1.816600561E0,3.508104086E0
5.017316777E0,9.884461403E0,1.811812162E0,3.498527288E0
5.019804537E0,9.850942612E0,1.792658567E0,3.503315687E0
5.022292298E0,9.850942612E0,1.807023764E0,3.488950491E0
5.024780058E0,9.841365814E0,1.835754156E0,3.488950491E0
5.027267818E0,9.793481827E0,1.869272947E0,3.488950491E0
5.029755579E0,9.745597839E0,1.902791858E0,3.460220098E0
5.032243339E0,9.707290649E0,1.955464244E0,3.469796896E0
5.034731100E0,9.659406662E0,1.984194636E0,3.465008497E0
5.037218860E0,9.616311073E0,2.003348351E0,3.441066504E0
5.039706621E0,9.554061890E0,2.056020737E0,3.417124271E0
5.042194381E0,9.515754700E0,2.075174332E0,3.388393879E0
5.044682141E0,9.515754700E0,2.108693123E0,3.369240284E0
5.047169902E0,9.539696693E0,2.108693123E0,3.359663486E0
5.049657662E0,9.601945877E0,2.108693123E0,3.388393879E0
5.052145423E0,9.673771858E0,2.075174332E0,3.431489468E0
5.054633183E0,9.750386238E0,2.041655540E0,3.479373693E0
5.057120943E0,9.798270226E0,1.993771434E0,3.508104086E0
5.059608704E0,9.855731010E0,1.969829440E0,3.508104086E0
5.062096464E0,9.913191795E0,1.945887446E0,3.503315687E0
5.064584225E0,9.999382973E0,1.926733851E0,3.503315687E0
5.067071985E0,1.013824749E1,1.960252643E0,3.493738890E0
5.069559746E0,1.033936024E1,2.027290344E0,3.498527288E0
5.072047506E0,1.066018295E1,2.199672699E0,3.498527288E0
5.074535266E0,1.111029339E1,2.463035107E0,3.484162092E0
5.077023027E0,1.170405483E1,2.874837637E0,3.474585295E0
5.079510787E0,1.244625759E1,3.435081005E0,3.445854902E0
5.081998548E0,1.335126591E1,4.138976097E0,3.445854902E0
5.084486308E0,1.437598419E1,4.981735229E0,3.407547474E0
5.086974068E0,1.548210526E1,5.929839134E0,3.369240284E0
5.089461829E0,1.654991913E1,6.882731438E0,3.220799923E0
5.091949589E0,1.740704346E1,7.711124897E0,2.899976730E0
5.094437350E0,1.774223137E1,8.199542046E0,2.449866772E0
5.096925110E0,1.735915947E1,8.046313286E0,1.913565755E0
5.099412871E0,1.631528664E1,7.203554153E0,1.463455796E0
5.101900631E0,1.474947929E1,5.719149113E0,1.257554412E0
5.104388391E0,1.302086639E1,3.971382141E0,1.281496406E0
5.106876152E0,1.146463490E1,2.391208887E0,1.415571809E0
5.109363912E0,1.022922707E1,1.304241419E0,1.769913554E0
5.111851673E0,9.204508781E0,7.727286220E-1,2.282272816E0
5.114339433E0,8.385691643E0,7.439981699E-1,2.856881142E0
5.116827193E0,7.796717644E0,1.107916832E0,3.431489468E0
5.119314954E0,7.466318130E0,1.672948480E0,4.030039787E0
5.121802714E0,7.351396084E0,2.261922121E0,4.575918198E0
5.124290475E0,7.284358501E0,2.726397276E0,5.016450882E0
5.126778235E0,7.236474514E0,2.989759445E0,5.337274075E0
5.129265996E0,7.164648533E0,3.023278236E0,5.504868031E0
5.131753756E0,7.116764545E0,2.893991232E0,5.533598900E0
5.134241516E0,7.179013729E0,2.644994259E0,5.423465252E0
5.136729277E0,7.327454090E0,2.381632090E0,5.174468517E0
5.139217037E0,7.590816498E0,2.137423515E0,4.834491730E0
5.141704798E0,7.897274494E0,1.941099048E0,4.566341400E0
5.144192558E0,8.198944092E0,1.869272947E0,4.346074581E0
5.146680318E0,8.481459618E0,1.845330954E0,4.183269024E0
5.149168079E0,8.744821548E0,1.807023764E0,4.044404984E0
5.151655839E0,8.965087891E0,1.768716455E0,3.886387825E0
5.154143600E0,9.127894402E0,1.639429569E0,3.714005470E0
5.156631360E0,9.242815971E0,1.500565886E0,3.527257681E0
5.159119121E0,9.290699959E0,1.366490602E0,3.321356297E0
5.161606881E0,9.290699959E0,1.251568913E0,3.125031710E0
5.164094641E0,9.281123161E0,1.165377736E0,2.909553528E0
5.166582402E0,9.233239174E0,1.155800819E0,2.718017578E0
5.169070162E0,9.161413193E0,1.203684926E0,2.540846586E0
5.171557923E0,9.075222015E0,1.289876223E0,2.368463993E0
5.174045683E0,8.984241486E0,1.356913805E0,2.220023632E0
5.176533443E0,8.893261909E0,1.404797792E0,2.109890223E0
5.179021204E0,8.773551941E0,1.452681899E0,2.042852640E0
5.181508964E0,8.625111580E0,1.481412292E0,1.985391736E0
5.183996725E0,8.467094421E0,1.476623893E0,1.975814939E0
5.186484485E0,8.304288864E0,1.481412292E0,1.980603337E0
5.188972246E0,8.151060104E0,1.490989089E0,1.990180135E0
5.191460006E0,8.050502777E0,1.500565886E0,1.999756932E0
5.193947766E0,7.969100475E0,1.500565886E0,2.018910646E0
5.196435527E0,7.930793285E0,1.500565886E0,2.047641039E0
5.198923287E0,7.945158482E0,1.495777488E0,2.042852640E0
5.201411048E0,7.983465672E0,1.505354285E0,2.066794634E0
5.203898808E0,8.016983986E0,1.534084797E0,2.105101824E0
5.206386568E0,8.098387718E0,1.577180386E0,2.148197412E0
5.208874329E0,8.198944092E0,1.620275974E0,2.181716204E0
5.211362089E0,8.323442459E0,1.663371682E0,2.248754025E0
