"Time (s)","Gyroscope x (rad/s)","Gyroscope y (rad/s)","Gyroscope z (rad/s)"
7.580005900E-2,-1.890842915E-1,2.845585644E-1,2.930806577E-1
7.835005900E-2,-1.752358675E-1,2.866890728E-1,2.920154035E-1
8.090005900E-2,-1.592569202E-1,2.898848653E-1,2.888196111E-1
8.345005900E-2,-1.422126889E-1,2.930806577E-1,2.834932804E-1
8.600005900E-2,-1.230379492E-1,2.973417044E-1,2.760364413E-1
8.855005900E-2,-1.038632020E-1,3.005374968E-1,2.675143182E-1
9.110005900E-2,-8.468846232E-2,3.037332892E-1,2.589922249E-1
9.365005900E-2,-6.551371515E-2,3.069290817E-1,2.504701018E-1
9.620005900E-2,-4.846949503E-2,3.101248741E-1,2.430132627E-1
9.875005900E-2,-3.142527863E-2,3.122554123E-1,2.355564237E-1
1.013000590E-1,-1.757685095E-2,3.143859208E-1,2.280995846E-1
1.038500590E-1,-6.924213842E-3,3.175817132E-1,2.227732539E-1
1.064000590E-1,2.663159044E-3,3.197122514E-1,2.185122073E-1
1.089500590E-1,9.054740891E-3,3.218427896E-1,2.142511457E-1
1.115000590E-1,1.225053146E-2,3.239732981E-1,2.110553533E-1
1.140500590E-1,1.331579592E-2,3.250385821E-1,2.078595608E-1
1.166000590E-1,1.331579592E-2,3.261038363E-1,2.046637833E-1
1.191500590E-1,1.225053146E-2,3.261038363E-1,2.004027218E-1
1.217000590E-1,1.118526794E-2,3.250385821E-1,1.972069293E-1
1.242500590E-1,1.012000442E-2,3.239732981E-1,1.918806136E-1
1.268000590E-1,7.989477366E-3,3.229080439E-1,1.897500902E-1
1.293500590E-1,6.924213842E-3,3.197122514E-1,1.865542978E-1
1.319000590E-1,6.924213842E-3,3.175817132E-1,1.822932363E-1
1.344500590E-1,6.924213842E-3,3.143859208E-1,1.790974438E-1
1.370000590E-1,6.924213842E-3,3.111901283E-1,1.759016514E-1
1.395500590E-1,6.924213842E-3,3.079943359E-1,1.716406047E-1
1.421000590E-1,7.989477366E-3,3.037332892E-1,1.673795432E-1
1.446500590E-1,9.054740891E-3,2.994722426E-1,1.641837656E-1
1.472000590E-1,1.225053146E-2,2.941459119E-1,1.620532274E-1
1.497500590E-1,1.438105945E-2,2.898848653E-1,1.599227041E-1
1.523000590E-1,1.864211448E-2,2.856238186E-1,1.577921808E-1
1.548500590E-1,2.290316857E-2,2.813627720E-1,1.577921808E-1
1.574000590E-1,2.716422267E-2,2.771016955E-1,1.577921808E-1
1.599448510E-1,3.142527863E-2,2.739059031E-1,1.588574350E-1
1.624325590E-1,3.462106735E-2,2.707101107E-1,1.609879732E-1
1.649202160E-1,3.781685978E-2,2.685796022E-1,1.620532274E-1
1.674078720E-1,3.888212144E-2,2.664490640E-1,1.631184965E-1
1.698955280E-1,3.994738683E-2,2.653838098E-1,1.652490199E-1
1.723831840E-1,3.888212144E-2,2.653838098E-1,1.684448123E-1
1.748708410E-1,3.675159439E-2,2.664490640E-1,1.716406047E-1
1.773584970E-1,3.355580568E-2,2.675143182E-1,1.759016514E-1
1.798461530E-1,3.142527863E-2,2.685796022E-1,1.812279820E-1
1.823338090E-1,2.929474972E-2,2.707101107E-1,1.876195520E-1
1.848214660E-1,2.822948620E-2,2.728406489E-1,1.950764060E-1
1.873091220E-1,2.822948620E-2,2.749711871E-1,2.025332451E-1
1.897967780E-1,2.822948620E-2,2.760364413E-1,2.121206224E-1
1.922844340E-1,2.929474972E-2,2.781669796E-1,2.206427306E-1
1.947720910E-1,3.142527863E-2,2.802974880E-1,2.280995846E-1
1.972597470E-1,3.462106735E-2,2.813627720E-1,2.355564237E-1
1.997474030E-1,3.994738683E-2,2.813627720E-1,2.419480085E-1
2.022350590E-1,4.633896798E-2,2.802974880E-1,2.472743243E-1
2.047227160E-1,5.379581451E-2,2.781669796E-1,2.504701018E-1
2.072103720E-1,6.231792271E-2,2.749711871E-1,2.526006401E-1
2.096980280E-1,7.297056168E-2,2.696448565E-1,2.536658943E-1
2.121856840E-1,8.362319320E-2,2.643185556E-1,2.526006401E-1
2.146733410E-1,9.427583218E-2,2.589922249E-1,2.504701018E-1
2.171609970E-1,1.059937328E-1,2.536658943E-1,2.462090552E-1
2.196486530E-1,1.177116334E-1,2.483395934E-1,2.419480085E-1
2.221363090E-1,1.294295341E-1,2.430132627E-1,2.355564237E-1
2.246239660E-1,1.411474347E-1,2.366216928E-1,2.291648388E-1
2.271116220E-1,1.539305896E-1,2.302301079E-1,2.217079997E-1
2.295992780E-1,1.677790284E-1,2.238385230E-1,2.153164148E-1
2.320869340E-1,1.826927215E-1,2.174469382E-1,2.078595608E-1
2.345745910E-1,1.965411454E-1,2.110553533E-1,2.004027218E-1
2.370622470E-1,2.114548385E-1,2.057290375E-1,1.929458827E-1
2.395499030E-1,2.274337858E-1,1.993374527E-1,1.854890287E-1
2.420375590E-1,2.423474789E-1,1.950764060E-1,1.790974438E-1
2.445252160E-1,2.583264410E-1,1.897500902E-1,1.727058738E-1
2.470128720E-1,2.732401192E-1,1.844237745E-1,1.684448123E-1
2.495005280E-1,2.870885432E-1,1.812279820E-1,1.641837656E-1
2.519882370E-1,2.998717129E-1,1.780321896E-1,1.609879732E-1
2.544759450E-1,3.115896285E-1,1.759016514E-1,1.577921808E-1
2.569636530E-1,3.222422600E-1,1.748363972E-1,1.545963883E-1
2.594513620E-1,3.296990991E-1,1.759016514E-1,1.535311192E-1
2.619390700E-1,3.360906839E-1,1.769669205E-1,1.514005959E-1
2.644267780E-1,3.414169848E-1,1.780321896E-1,1.503353268E-1
2.669144870E-1,3.435475230E-1,1.812279820E-1,1.503353268E-1
2.694021950E-1,3.446127772E-1,1.822932363E-1,1.503353268E-1
2.718899030E-1,3.435475230E-1,1.854890287E-1,1.503353268E-1
2.743776120E-1,3.414169848E-1,1.876195520E-1,1.503353268E-1
2.768653200E-1,3.371559381E-1,1.897500902E-1,1.503353268E-1
2.793530280E-1,3.328948915E-1,1.918806136E-1,1.503353268E-1
2.818407370E-1,3.254380524E-1,1.940111369E-1,1.503353268E-1
2.843284450E-1,3.190464675E-1,1.972069293E-1,1.492700726E-1
2.868161530E-1,3.115896285E-1,1.993374527E-1,1.471395344E-1
2.893038620E-1,3.030675054E-1,2.014679909E-1,1.450090110E-1
2.917915700E-1,2.966759205E-1,2.035985142E-1,1.418132186E-1
2.942792780E-1,2.881538272E-1,2.057290375E-1,1.396826953E-1
2.967669870E-1,2.817622423E-1,2.067943066E-1,1.364869028E-1
2.992546950E-1,2.764359117E-1,2.089248300E-1,1.343563795E-1
3.017424030E-1,2.711096108E-1,2.099900991E-1,1.322258562E-1
3.042301120E-1,2.657832801E-1,2.110553533E-1,1.300953180E-1
3.067178200E-1,2.615222335E-1,2.110553533E-1,1.290300637E-1
3.092055280E-1,2.561959028E-1,2.099900991E-1,1.279647946E-1
3.116932370E-1,2.530001104E-1,2.078595608E-1,1.268995255E-1
3.141809450E-1,2.487390637E-1,2.046637833E-1,1.258342713E-1
3.166686530E-1,2.455432713E-1,2.004027218E-1,1.247690022E-1
3.191563620E-1,2.423474789E-1,1.950764060E-1,1.247690022E-1
3.216440700E-1,2.380864173E-1,1.886848211E-1,1.247690022E-1
3.241317780E-1,2.359558940E-1,1.812279820E-1,1.247690022E-1
3.266194870E-1,2.327601016E-1,1.737711281E-1,1.247690022E-1
3.291071950E-1,2.295643091E-1,1.641837656E-1,1.258342713E-1
3.315949030E-1,2.274337858E-1,1.535311192E-1,1.258342713E-1
3.340826120E-1,2.253032625E-1,1.439437568E-1,1.258342713E-1
3.365703200E-1,2.242379934E-1,1.332911104E-1,1.247690022E-1
3.390580280E-1,2.242379934E-1,1.247690022E-1,1.237037405E-1
3.415457370E-1,2.253032625E-1,1.162468940E-1,1.237037405E-1
3.440334450E-1,2.274337858E-1,1.098553166E-1,1.237037405E-1
3.465211530E-1,2.295643091E-1,1.045289934E-1,1.247690022E-1
3.490088620E-1,2.338253707E-1,1.013332009E-1,1.268995255E-1
3.514965700E-1,2.391516864E-1,1.002679393E-1,1.300953180E-1
3.539842780E-1,2.455432713E-1,9.920267761E-2,1.354216337E-1
3.564719870E-1,2.551306486E-1,1.002679393E-1,1.439437568E-1
3.589596950E-1,2.657832801E-1,1.013332009E-1,1.535311192E-1
3.614474030E-1,2.775011659E-1,1.045289934E-1,1.620532274E-1
3.639351120E-1,2.913496196E-1,1.087900475E-1,1.716406047E-1
3.664228200E-1,3.051980436E-1,1.141163707E-1,1.812279820E-1
3.689105280E-1,3.201117218E-1,1.215732098E-1,1.897500902E-1
3.713982370E-1,3.350254297E-1,1.300953180E-1,1.993374527E-1
3.738859450E-1,3.478085697E-1,1.396826953E-1,2.067943066E-1
3.763736530E-1,3.595264852E-1,1.492700726E-1,2.131858915E-1
3.788613620E-1,3.691138625E-1,1.588574350E-1,2.185122073E-1
3.813490700E-1,3.755054474E-1,1.673795432E-1,2.206427306E-1
3.838367780E-1,3.797664940E-1,1.748363972E-1,2.227732539E-1
3.863244870E-1,3.808317482E-1,1.822932363E-1,2.217079997E-1
3.888121950E-1,3.787012100E-1,1.897500902E-1,2.206427306E-1
3.912999030E-1,3.733749092E-1,1.961416751E-1,2.174469382E-1
3.937876120E-1,3.659180701E-1,2.014679909E-1,2.142511457E-1
3.962753200E-1,3.573959470E-1,2.067943066E-1,2.110553533E-1
3.987630280E-1,3.446127772E-1,2.110553533E-1,2.057290375E-1
4.012507370E-1,3.307643533E-1,2.153164148E-1,1.993374527E-1
4.037384450E-1,3.147853911E-1,2.174469382E-1,1.929458827E-1
4.062261530E-1,2.945453823E-1,2.185122073E-1,1.854890287E-1
4.087138620E-1,2.732401192E-1,2.163816839E-1,1.769669205E-1
4.112015700E-1,2.476737946E-1,2.121206224E-1,1.695100814E-1
4.136892780E-1,2.210422009E-1,2.046637833E-1,1.609879732E-1
4.161769870E-1,1.922800839E-1,1.961416751E-1,1.535311192E-1
4.186646950E-1,1.624527127E-1,1.854890287E-1,1.460742801E-1
4.211524030E-1,1.326253265E-1,1.759016514E-1,1.386174262E-1
4.236401120E-1,1.038632020E-1,1.663142890E-1,1.332911104E-1
4.261278200E-1,7.616634667E-2,1.588574350E-1,1.290300637E-1
4.286155280E-1,4.953476042E-2,1.514005959E-1,1.247690022E-1
4.311032370E-1,2.609895915E-2,1.460742801E-1,1.215732098E-1
4.335909450E-1,4.793686327E-3,1.428784877E-1,1.194426864E-1
4.360786530E-1,-1.438105945E-2,1.407479644E-1,1.194426864E-1
4.385663620E-1,-3.142527863E-2,1.418132186E-1,1.183774248E-1
4.410540700E-1,-4.633896798E-2,1.460742801E-1,1.183774248E-1
4.435417780E-1,-5.912213027E-2,1.503353268E-1,1.194426864E-1
4.460294870E-1,-6.870950758E-2,1.567269117E-1,1.194426864E-1
4.485171950E-1,-7.723161578E-2,1.652490199E-1,1.215732098E-1
4.510049030E-1,-8.362319320E-2,1.737711281E-1,1.237037405E-1
4.534926120E-1,-8.788424730E-2,1.833585054E-1,1.247690022E-1
4.559803200E-1,-9.108003974E-2,1.940111369E-1,1.279647946E-1
4.584680280E-1,-9.108003974E-2,2.035985142E-1,1.322258562E-1
4.609556840E-1,-9.108003974E-2,2.142511457E-1,1.354216337E-1
4.634433410E-1,-9.001477808E-2,2.249037921E-1,1.407479644E-1
4.659309970E-1,-8.681898564E-2,2.344911546E-1,1.460742801E-1
4.684186530E-1,-8.255793154E-2,2.440785319E-1,1.545963883E-1
4.709063090E-1,-7.829687744E-2,2.526006401E-1,1.652490199E-1
4.733939660E-1,-7.510108501E-2,2.611227632E-1,1.790974438E-1
4.758816220E-1,-7.190529257E-2,2.707101107E-1,1.940111369E-1
4.783692780E-1,-7.084003091E-2,2.802974880E-1,2.089248300E-1
4.808569340E-1,-7.403582335E-2,2.898848653E-1,2.259690464E-1
4.833445910E-1,-7.936213911E-2,2.973417044E-1,2.430132627E-1
4.858322470E-1,-8.788424730E-2,3.026680350E-1,2.600574791E-1
4.883199030E-1,-1.017326787E-1,3.069290817E-1,2.749711871E-1
4.908075590E-1,-1.198421568E-1,3.111901283E-1,2.877543271E-1
4.932952160E-1,-1.422126889E-1,3.122554123E-1,2.962764502E-1
4.957828720E-1,-1.688442826E-1,3.122554123E-1,3.005374968E-1
4.982705280E-1,-1.997369379E-1,3.111901283E-1,3.005374968E-1
5.007581840E-1,-2.327601016E-1,3.069290817E-1,2.952111959E-1
5.032458410E-1,-2.679138184E-1,3.026680350E-1,2.856238186E-1
5.057334970E-1,-3.020022511E-1,2.962764502E-1,2.717753947E-1
5.082211530E-1,-3.339601457E-1,2.877543271E-1,2.515353858E-1
5.107088090E-1,-3.637875319E-1,2.781669796E-1,2.291648388E-1
5.131964660E-1,-3.904191256E-1,2.675143182E-1,2.046637833E-1
5.156841220E-1,-4.127896726E-1,2.557964325E-1,1.790974438E-1
5.181717780E-1,-4.287686050E-1,2.430132627E-1,1.545963883E-1
5.206594340E-1,-4.394212663E-1,2.291648388E-1,1.311605871E-1
5.231470910E-1,-4.436823130E-1,2.174469382E-1,1.109205782E-1
5.256347470E-1,-4.415517747E-1,2.099900991E-1,9.174583107E-2
5.281224030E-1,-4.351601899E-1,2.046637833E-1,7.363634557E-2
5.306100590E-1,-4.266380966E-1,2.014679909E-1,5.552686751E-2
5.330977160E-1,-4.149201810E-1,2.025332451E-1,3.954791278E-2
5.355853720E-1,-4.021370113E-1,2.057290375E-1,2.356895804E-2
5.380730280E-1,-3.882885873E-1,2.099900991E-1,7.590003312E-3
5.405606840E-1,-3.765707016E-1,2.163816839E-1,-5.193160381E-3
5.430483410E-1,-3.659180701E-1,2.227732539E-1,-1.797632314E-2
5.455360490E-1,-3.563306928E-1,2.302301079E-1,-2.756369673E-2
5.480237570E-1,-3.488738537E-1,2.387522161E-1,-3.289001435E-2
5.505114660E-1,-3.456780612E-1,2.494048476E-1,-3.395527974E-2
5.529991740E-1,-3.446127772E-1,2.589922249E-1,-3.182475269E-2
5.554868820E-1,-3.478085697E-1,2.707101107E-1,-2.436790615E-2
5.579745910E-1,-3.542001545E-1,2.824280262E-1,-1.158474199E-2
5.604622990E-1,-3.669833243E-1,2.941459119E-1,4.394212738E-3
5.629500070E-1,-3.861580789E-1,3.058638275E-1,2.463422157E-2
5.654377160E-1,-4.106591344E-1,3.165164590E-1,5.020054802E-2
5.679254240E-1,-4.415517747E-1,3.261038363E-1,7.896266878E-2
5.704131320E-1,-4.767054915E-1,3.346259296E-1,1.098553166E-1
5.729008410E-1,-5.161202550E-1,3.420827985E-1,1.439437568E-1
5.753885490E-1,-5.587307811E-1,3.495396376E-1,1.790974438E-1
5.778762570E-1,-6.056023836E-1,3.548659384E-1,2.153164148E-1
5.803639660E-1,-6.535392404E-1,3.601922691E-1,2.515353858E-1
5.828516740E-1,-7.046719193E-1,3.644533157E-1,2.845585644E-1
5.853393820E-1,-7.558045387E-1,3.665838540E-1,3.143859208E-1
5.878270910E-1,-8.048067093E-1,3.676491082E-1,3.399522603E-1
5.903147990E-1,-8.506129980E-1,3.644533157E-1,3.601922691E-1
5.928025070E-1,-8.910930157E-1,3.569964767E-1,3.719101548E-1
5.952902160E-1,-9.273120165E-1,3.442133069E-1,3.761712313E-1
5.977779240E-1,-9.560741186E-1,3.282343447E-1,3.729754388E-1
6.002656320E-1,-9.784446359E-1,3.058638275E-1,3.623228073E-1
6.027533410E-1,-9.912278056E-1,2.813627720E-1,3.452785909E-1
6.052410490E-1,-9.965541363E-1,2.547311783E-1,3.218427896E-1
6.077287570E-1,-9.933583736E-1,2.270343155E-1,2.909501195E-1
6.102164660E-1,-9.805752039E-1,2.004027218E-1,2.568616867E-1
6.127041740E-1,-9.582046270E-1,1.748363972E-1,2.174469382E-1
6.151918820E-1,-9.251814485E-1,1.535311192E-1,1.759016514E-1
6.176795910E-1,-8.836361766E-1,1.375521719E-1,1.332911104E-1
6.201672990E-1,-8.335688114E-1,1.247690022E-1,9.174583107E-2
6.226550070E-1,-7.760445476E-1,1.162468940E-1,5.020054802E-2
6.251427160E-1,-7.142592669E-1,1.119858399E-1,9.720530361E-3
6.276304240E-1,-6.492781639E-1,1.109205782E-1,-2.969422378E-2
6.301181320E-1,-5.853623748E-1,1.130511016E-1,-6.591318548E-2
6.326058410E-1,-5.225118399E-1,1.194426864E-1,-9.893636405E-2
6.350935490E-1,-4.660528302E-1,1.290300637E-1,-1.276984811E-1
6.375812570E-1,-4.170507193E-1,1.428784877E-1,-1.511342824E-1
6.400689660E-1,-3.765707016E-1,1.609879732E-1,-1.692437679E-1
6.425566740E-1,-3.467433155E-1,1.801627129E-1,-1.820269227E-1
6.450443820E-1,-3.275685608E-1,2.014679909E-1,-1.884185076E-1
6.475320910E-1,-3.190464675E-1,2.206427306E-1,-1.894837767E-1
6.500197990E-1,-3.211769760E-1,2.376869470E-1,-1.830921918E-1
6.525075070E-1,-3.339601457E-1,2.504701018E-1,-1.692437679E-1
6.549952160E-1,-3.573959470E-1,2.600574791E-1,-1.479384899E-1
6.574829240E-1,-3.914843798E-1,2.664490640E-1,-1.181111038E-1
6.599706320E-1,-4.362254739E-1,2.707101107E-1,-7.976161689E-2
6.624583410E-1,-4.937497079E-1,2.739059031E-1,-3.395527974E-2
6.649460490E-1,-5.619265437E-1,2.781669796E-1,1.824264042E-2
6.674337570E-1,-6.386255622E-1,2.824280262E-1,7.363634557E-2
6.699214660E-1,-7.249119282E-1,2.834932804E-1,1.300953180E-1
6.724091740E-1,-8.154593110E-1,2.824280262E-1,1.865542978E-1
6.748968820E-1,-9.102677703E-1,2.792322338E-1,2.408827394E-1
6.773845910E-1,-1.006141543E0,2.717753947E-1,2.909501195E-1
6.798722990E-1,-1.098819494E0,2.600574791E-1,3.367564678E-1
6.823600070E-1,-1.187236309E0,2.451438010E-1,3.761712313E-1
6.848477160E-1,-1.269261599E0,2.270343155E-1,4.102596641E-1
6.873354240E-1,-1.343830109E0,2.067943066E-1,4.379565120E-1
6.898231320E-1,-1.406680584E0,1.844237745E-1,4.592617750E-1
6.923108410E-1,-1.458878517E0,1.599227041E-1,4.731102288E-1
6.947985490E-1,-1.499358535E0,1.343563795E-1,4.795017838E-1
6.972862570E-1,-1.525990129E0,1.087900475E-1,4.805670679E-1
6.997739660E-1,-1.540903807E0,8.322372288E-2,4.741754830E-1
7.022616740E-1,-1.541969061E0,5.872265995E-2,4.635228515E-1
7.047493820E-1,-1.530251265E0,3.422159329E-2,4.454133511E-1
7.072370910E-1,-1.503619671E0,1.078579482E-2,4.230428338E-1
7.097247990E-1,-1.466335416E0,-1.265000552E-2,3.974764943E-1
7.122125070E-1,-1.417333245E0,-3.395527974E-2,3.687143922E-1
7.147002160E-1,-1.356613278E0,-5.313002318E-2,3.367564678E-1
7.171879240E-1,-1.287371159E0,-7.017423958E-2,3.037332892E-1
7.196756320E-1,-1.210672140E0,-8.508793265E-2,2.675143182E-1
7.221633410E-1,-1.127581596E0,-9.893636405E-2,2.302301079E-1
7.246510490E-1,-1.041295171E0,-1.095889956E-1,1.918806136E-1
7.271387570E-1,-9.518130422E-1,-1.181111038E-1,1.545963883E-1
7.296264660E-1,-8.633961678E-1,-1.223721579E-1,1.183774248E-1
7.321141740E-1,-7.771098018E-1,-1.255679578E-1,8.322372288E-2
7.346018820E-1,-6.918887496E-1,-1.266332120E-1,5.020054802E-2
7.370895910E-1,-6.130592227E-1,-1.266332120E-1,2.037316747E-2
7.395772990E-1,-5.384907722E-1,-1.255679578E-1,-8.388951421E-3
7.420650070E-1,-4.713791609E-1,-1.255679578E-1,-3.289001435E-2
7.445527160E-1,-4.106591344E-1,-1.255679578E-1,-5.419528857E-2
7.470404240E-1,-3.573959470E-1,-1.255679578E-1,-7.337003201E-2
7.495281320E-1,-3.126548827E-1,-1.266332120E-1,-8.828372508E-2
7.520158410E-1,-2.753706574E-1,-1.276984811E-1,-1.000016257E-1
7.545035490E-1,-2.476737946E-1,-1.298290044E-1,-1.074584723E-1
7.569912570E-1,-2.284990549E-1,-1.330247968E-1,-1.117195264E-1
7.594789660E-1,-2.178464085E-1,-1.362205893E-1,-1.106542572E-1
7.619666740E-1,-2.146506310E-1,-1.383511126E-1,-1.053279415E-1
7.644543820E-1,-2.210422009E-1,-1.404816359E-1,-9.574057162E-2
7.669420390E-1,-2.327601016E-1,-1.426121742E-1,-8.295740932E-2
7.694296950E-1,-2.508696020E-1,-1.447426975E-1,-6.910897791E-2
7.719173510E-1,-2.743053734E-1,-1.479384899E-1,-5.313002318E-2
7.744050070E-1,-2.998717129E-1,-1.511342824E-1,-3.715106845E-2
7.768926640E-1,-3.286338449E-1,-1.564605981E-1,-2.223737910E-2
7.793803200E-1,-3.605917394E-1,-1.617869139E-1,-1.051947847E-2
7.818679760E-1,-3.936149180E-1,-1.692437679E-1,-9.321057005E-4
7.843556320E-1,-4.277033508E-1,-1.777658761E-1,4.394212738E-3
7.868432890E-1,-4.596612751E-1,-1.873532385E-1,5.459476262E-3
7.893309450E-1,-4.905539155E-1,-1.969406158E-1,2.263685223E-3
7.918186010E-1,-5.193160176E-1,-2.086585164E-1,-5.193160381E-3
7.943062570E-1,-5.459476113E-1,-2.203764170E-1,-1.584579609E-2
7.967939140E-1,-5.683181286E-1,-2.331595868E-1,-3.075948730E-2
7.992815700E-1,-5.864276290E-1,-2.459427416E-1,-4.780370742E-2
8.017692260E-1,-6.013413072E-1,-2.587259114E-1,-6.591318548E-2
8.042568820E-1,-6.109287143E-1,-2.715090811E-1,-8.615319431E-2
8.067445390E-1,-6.173202991E-1,-2.832269669E-1,-1.074584723E-1
8.092321950E-1,-6.194508076E-1,-2.949448824E-1,-1.276984811E-1
8.117198510E-1,-6.183855534E-1,-3.077280223E-1,-1.479384899E-1
8.142075070E-1,-6.173202991E-1,-3.173153996E-1,-1.660479754E-1
8.166951640E-1,-6.141244769E-1,-3.258375227E-1,-1.830921918E-1
8.191828200E-1,-6.087981462E-1,-3.322291076E-1,-1.969406158E-1
8.216704760E-1,-6.034718752E-1,-3.354249001E-1,-2.075932473E-1
8.241581320E-1,-5.981455445E-1,-3.375554085E-1,-2.150501013E-1
8.266457890E-1,-5.938844681E-1,-3.375554085E-1,-2.203764170E-1
8.291334450E-1,-5.906887054E-1,-3.364901543E-1,-2.214416862E-1
8.316211010E-1,-5.906887054E-1,-3.332943618E-1,-2.203764170E-1
8.341087570E-1,-5.906887054E-1,-3.300985694E-1,-2.161153555E-1
8.365964140E-1,-5.960150361E-1,-3.258375227E-1,-2.075932473E-1
8.390840700E-1,-6.045371294E-1,-3.205111921E-1,-1.969406158E-1
8.415717260E-1,-6.162550449E-1,-3.119890988E-1,-1.820269227E-1
8.440593820E-1,-6.322339773E-1,-3.013364673E-1,-1.639174372E-1
8.465470390E-1,-6.524739861E-1,-2.864227593E-1,-1.415469050E-1
8.490347470E-1,-6.801708341E-1,-2.672480047E-1,-1.138500497E-1
8.515224550E-1,-7.163897753E-1,-2.459427416E-1,-8.295740932E-2
8.540101640E-1,-7.632613778E-1,-2.214416862E-1,-4.567318037E-2
8.564978720E-1,-8.186551332E-1,-1.969406158E-1,-5.193160381E-3
8.589855800E-1,-8.804404140E-1,-1.735048145E-1,3.635212034E-2
8.614732890E-1,-9.507477880E-1,-1.511342824E-1,8.002793044E-2
8.639609970E-1,-1.029577255E0,-1.319595277E-1,1.237037405E-1
8.664487050E-1,-1.116928935E0,-1.191763729E-1,1.695100814E-1
8.689364140E-1,-1.213867903E0,-1.149153188E-1,2.153164148E-1
8.714241220E-1,-1.317198515E0,-1.181111038E-1,2.611227632E-1
8.739118300E-1,-1.426920652E0,-1.298290044E-1,3.090596199E-1
8.763995390E-1,-1.532381773E0,-1.490037590E-1,3.516701460E-1
8.788872470E-1,-1.628255486E0,-1.724395454E-1,3.846933246E-1
8.813749550E-1,-1.708150268E0,-1.958753467E-1,4.059986174E-1
8.838626640E-1,-1.767804980E0,-2.150501013E-1,4.166512489E-1
8.863503720E-1,-1.805089235E0,-2.257027328E-1,4.198470414E-1
8.888380800E-1,-1.816807151E0,-2.267680019E-1,4.177165031E-1
8.913257890E-1,-1.805089235E0,-2.193111479E-1,4.102596641E-1
8.938134970E-1,-1.773131371E0,-2.022669315E-1,4.028028250E-1
8.963012050E-1,-1.724129200E0,-1.745700836E-1,3.921501637E-1
8.987889140E-1,-1.663409233E0,-1.394163817E-1,3.814975321E-1
9.012766220E-1,-1.593101740E0,-9.680583328E-2,3.687143922E-1
9.037643300E-1,-1.519598603E0,-5.206476152E-2,3.569964767E-1
9.062520390E-1,-1.443964839E0,-6.258423906E-3,3.452785909E-1
9.087397470E-1,-1.370461702E0,3.848264739E-2,3.335606754E-1
9.112274550E-1,-1.302284837E0,8.002793044E-2,3.229080439E-1
9.137151640E-1,-1.238368988E0,1.162468940E-1,3.122554123E-1
9.162028720E-1,-1.181910038E0,1.482048035E-1,3.005374968E-1
9.186905800E-1,-1.132907867E0,1.737711281E-1,2.888196111E-1
9.211782890E-1,-1.090297341E0,1.950764060E-1,2.749711871E-1
9.236659970E-1,-1.054078341E0,2.121206224E-1,2.611227632E-1
9.261537050E-1,-1.019989967E0,2.249037921E-1,2.472743243E-1
9.286414140E-1,-9.869667888E-1,2.366216928E-1,2.323606312E-1
9.311291220E-1,-9.539436102E-1,2.451438010E-1,2.185122073E-1
9.336168300E-1,-9.187898636E-1,2.536658943E-1,2.046637833E-1
9.361045390E-1,-8.815056682E-1,2.621880174E-1,1.918806136E-1
9.385922470E-1,-8.388951421E-1,2.717753947E-1,1.801627129E-1
9.410799550E-1,-7.930887938E-1,2.824280262E-1,1.695100814E-1
9.435676640E-1,-7.451519370E-1,2.962764502E-1,1.567269117E-1
9.460553720E-1,-6.940192580E-1,3.133206666E-1,1.428784877E-1
9.485430800E-1,-6.396908164E-1,3.335606754E-1,1.290300637E-1
9.510307890E-1,-5.832318664E-1,3.538006842E-1,1.162468940E-1
9.535184970E-1,-5.235770941E-1,3.740406930E-1,1.045289934E-1
9.560062050E-1,-4.617917836E-1,3.910849094E-1,9.068056941E-2
9.584939140E-1,-4.000065029E-1,4.070638716E-1,7.683213800E-2
9.609816220E-1,-3.371559381E-1,4.209122956E-1,6.191844866E-2
9.634693300E-1,-2.764359117E-1,4.326302111E-1,4.700475931E-2
9.659570390E-1,-2.146506310E-1,4.422175586E-1,3.102580272E-2
9.684447470E-1,-1.549958587E-1,4.496744275E-1,1.504684892E-2
9.709324550E-1,-9.640636295E-2,4.560659826E-1,1.331579551E-4
9.734201640E-1,-3.994738683E-2,4.613923132E-1,-1.478053257E-2
9.759078720E-1,1.544632297E-2,4.645881057E-1,-2.649843320E-2
9.783955800E-1,6.764423847E-2,4.667186439E-1,-3.821633384E-2
9.808832890E-1,1.177116334E-1,4.688491523E-1,-4.673844203E-2
9.833709970E-1,1.667137593E-1,4.699144363E-1,-5.419528857E-2
9.858587050E-1,2.125200927E-1,4.688491523E-1,-5.952160433E-2
9.883464140E-1,2.551306486E-1,4.667186439E-1,-6.271740049E-2
9.908341220E-1,2.945453823E-1,4.645881057E-1,-6.378266215E-2
9.933218300E-1,3.328948915E-1,4.624575675E-1,-6.804371625E-2
9.958095390E-1,3.659180701E-1,4.592617750E-1,-6.910897791E-2
9.982972470E-1,3.957454562E-1,4.550007284E-1,-7.230477035E-2
1.000784955E0,4.223770201E-1,4.496744275E-1,-7.656582445E-2
1.003272664E0,4.447475672E-1,4.454133511E-1,-8.189214021E-2
1.005760372E0,4.628570378E-1,4.400870502E-1,-8.828372508E-2
1.008248080E0,4.777707458E-1,4.347607195E-1,-9.467530251E-2
1.010735789E0,4.905539155E-1,4.315649271E-1,-1.010668874E-1
1.013223497E0,4.990760088E-1,4.283691347E-1,-1.063932031E-1
1.015711205E0,5.065328479E-1,4.262386262E-1,-1.117195264E-1
1.018198914E0,5.097286701E-1,4.241080880E-1,-1.138500497E-1
1.020686622E0,5.118591785E-1,4.241080880E-1,-1.149153188E-1
1.023174330E0,5.075981021E-1,4.251733422E-1,-1.138500497E-1
1.025662039E0,5.001412630E-1,4.273038805E-1,-1.117195264E-1
1.028149747E0,4.862928391E-1,4.273038805E-1,-1.074584723E-1
1.030637455E0,4.660528302E-1,4.273038805E-1,-1.021321490E-1
1.033125164E0,4.404865205E-1,4.273038805E-1,-9.467530251E-2
1.035612872E0,4.095938802E-1,4.262386262E-1,-8.615319431E-2
1.038100580E0,3.744401634E-1,4.241080880E-1,-7.763108611E-2
1.040588289E0,3.371559381E-1,4.219775498E-1,-6.697845459E-2
1.043075997E0,2.977411747E-1,4.198470414E-1,-5.632581562E-2
1.045563705E0,2.561959028E-1,4.177165031E-1,-4.567318037E-2
1.048051414E0,2.157158852E-1,4.155859649E-1,-3.502054140E-2
1.050539122E0,1.752358675E-1,4.113249183E-1,-2.330264263E-2
1.053026830E0,1.379516423E-1,4.081291258E-1,-1.158474199E-2
1.055514539E0,1.006674170E-1,4.049333334E-1,1.198421582E-3
1.058002247E0,6.764423847E-2,4.028028250E-1,1.291632187E-2
1.060489955E0,3.568633273E-2,4.006722867E-1,2.569948509E-2
1.062977664E0,6.924213842E-3,3.985417485E-1,3.848264739E-2
1.065465372E0,-1.970737800E-2,3.974764943E-1,5.020054802E-2
1.067953080E0,-4.420844093E-2,3.964112401E-1,6.085318699E-2
1.070440789E0,-6.657897681E-2,3.953459561E-1,7.044056058E-2
1.072928497E0,-8.575372398E-2,3.921501637E-1,7.896266878E-2
1.075416205E0,-1.038632020E-1,3.900196552E-1,8.641951531E-2
1.077903914E0,-1.198421568E-1,3.868238628E-1,9.281109273E-2
1.080391622E0,-1.347558498E-1,3.825628161E-1,1.002679393E-1
1.082879330E0,-1.464737505E-1,3.793670237E-1,1.055942550E-1
1.085367039E0,-1.592569202E-1,3.740406930E-1,1.119858399E-1
1.087854695E0,-1.709748209E-1,3.697796464E-1,1.173121557E-1
1.090342351E0,-1.826927215E-1,3.655185997E-1,1.205079481E-1
1.092830007E0,-1.944106072E-1,3.612575233E-1,1.226384789E-1
1.095317664E0,-2.071937770E-1,3.569964767E-1,1.226384789E-1
1.097805320E0,-2.199769467E-1,3.516701460E-1,1.205079481E-1
1.100292976E0,-2.327601016E-1,3.474090993E-1,1.183774248E-1
1.102780632E0,-2.434127480E-1,3.442133069E-1,1.141163707E-1
1.105268289E0,-2.530001104E-1,3.399522603E-1,1.087900475E-1
1.107755945E0,-2.593916953E-1,3.367564678E-1,1.045289934E-1
1.110243601E0,-2.647180259E-1,3.335606754E-1,1.002679393E-1
1.112731257E0,-2.657832801E-1,3.303648829E-1,9.813741595E-2
1.115218914E0,-2.657832801E-1,3.271690905E-1,9.600688517E-2
1.117706570E0,-2.625874877E-1,3.218427896E-1,9.600688517E-2
1.120194226E0,-2.561959028E-1,3.175817132E-1,9.707214683E-2
1.122681882E0,-2.466085255E-1,3.133206666E-1,1.013332009E-1
1.125169539E0,-2.338253707E-1,3.069290817E-1,1.066595241E-1
1.127657195E0,-2.178464085E-1,2.994722426E-1,1.109205782E-1
1.130144851E0,-1.997369379E-1,2.898848653E-1,1.162468940E-1
1.132632507E0,-1.784316599E-1,2.802974880E-1,1.194426864E-1
1.135120164E0,-1.539305896E-1,2.685796022E-1,1.237037405E-1
1.137607820E0,-1.262337416E-1,2.568616867E-1,1.268995255E-1
1.140095476E0,-9.640636295E-2,2.430132627E-1,1.300953180E-1
1.142583132E0,-6.444845349E-2,2.291648388E-1,1.322258562E-1
1.145070789E0,-3.036001325E-2,2.142511457E-1,1.332911104E-1
1.147558445E0,6.924213842E-3,2.014679909E-1,1.354216337E-1
1.150046101E0,4.314317927E-2,1.908153445E-1,1.354216337E-1
1.152533757E0,8.042740822E-2,1.833585054E-1,1.354216337E-1
1.155021414E0,1.166463718E-1,1.780321896E-1,1.332911104E-1
1.157509070E0,1.518000662E-1,1.748363972E-1,1.322258562E-1
1.159996726E0,1.837579757E-1,1.737711281E-1,1.290300637E-1
1.162484382E0,2.114548385E-1,1.737711281E-1,1.258342713E-1
1.164972039E0,2.359558940E-1,1.748363972E-1,1.226384789E-1
1.167459747E0,2.551306486E-1,1.780321896E-1,1.194426864E-1
1.169947455E0,2.689790726E-1,1.801627129E-1,1.183774248E-1
1.172435164E0,2.785664499E-1,1.844237745E-1,1.183774248E-1
1.174922872E0,2.817622423E-1,1.876195520E-1,1.194426864E-1
1.177410580E0,2.796317041E-1,1.897500902E-1,1.237037405E-1
1.179898289E0,2.721748650E-1,1.908153445E-1,1.290300637E-1
1.182385997E0,2.604569495E-1,1.897500902E-1,1.354216337E-1
1.184873705E0,2.466085255E-1,1.865542978E-1,1.439437568E-1
1.187361414E0,2.284990549E-1,1.833585054E-1,1.535311192E-1
1.189849122E0,2.093243003E-1,1.780321896E-1,1.620532274E-1
1.192336830E0,1.869537681E-1,1.727058738E-1,1.705753356E-1
1.194824539E0,1.645832360E-1,1.663142890E-1,1.780321896E-1
1.197312247E0,1.411474347E-1,1.599227041E-1,1.854890287E-1
1.199799955E0,1.155811027E-1,1.535311192E-1,1.929458827E-1
1.202287664E0,9.108003974E-2,1.460742801E-1,1.993374527E-1
1.204775372E0,6.551371515E-2,1.375521719E-1,2.025332451E-1
1.207263080E0,3.994738683E-2,1.300953180E-1,2.057290375E-1
1.209750789E0,1.544632297E-2,1.226384789E-1,2.078595608E-1
1.212238497E0,-9.054740891E-3,1.162468940E-1,2.089248300E-1
1.214726205E0,-3.142527863E-2,1.109205782E-1,2.089248300E-1
1.217213914E0,-5.273054913E-2,1.077247858E-1,2.089248300E-1
1.219701622E0,-7.297056168E-2,1.055942550E-1,2.078595608E-1
1.222189330E0,-9.214530140E-2,1.055942550E-1,2.057290375E-1
1.224677039E0,-1.091895252E-1,1.077247858E-1,2.035985142E-1
1.227164747E0,-1.251684725E-1,1.109205782E-1,2.014679909E-1
1.229652455E0,-1.400821656E-1,1.151816323E-1,1.993374527E-1
1.232140164E0,-1.549958587E-1,1.215732098E-1,1.972069293E-1
1.234627872E0,-1.699095517E-1,1.279647946E-1,1.950764060E-1
1.237115580E0,-1.837579757E-1,1.354216337E-1,1.929458827E-1
1.239603289E0,-1.976063997E-1,1.439437568E-1,1.918806136E-1
1.242090997E0,-2.125200927E-1,1.545963883E-1,1.918806136E-1
1.244578705E0,-2.295643091E-1,1.641837656E-1,1.940111369E-1
1.247066414E0,-2.466085255E-1,1.759016514E-1,1.972069293E-1
1.249554122E0,-2.647180259E-1,1.876195520E-1,2.025332451E-1
1.252041830E0,-2.828274965E-1,2.004027218E-1,2.089248300E-1
1.254529539E0,-3.030675054E-1,2.121206224E-1,2.163816839E-1
1.257017247E0,-3.222422600E-1,2.238385230E-1,2.238385230E-1
1.259504955E0,-3.424822688E-1,2.344911546E-1,2.312953621E-1
1.261992664E0,-3.616569936E-1,2.440785319E-1,2.376869470E-1
1.264480372E0,-3.797664940E-1,2.526006401E-1,2.440785319E-1
1.266968080E0,-3.957454562E-1,2.600574791E-1,2.504701018E-1
1.269455789E0,-4.085285962E-1,2.664490640E-1,2.557964325E-1
1.271943497E0,-4.191812575E-1,2.728406489E-1,2.600574791E-1
1.274431205E0,-4.255728126E-1,2.771016955E-1,2.632532716E-1
1.276918914E0,-4.277033508E-1,2.824280262E-1,2.653838098E-1
1.279406622E0,-4.266380966E-1,2.877543271E-1,2.653838098E-1
1.281894330E0,-4.213117659E-1,2.930806577E-1,2.643185556E-1
1.284382039E0,-4.117243886E-1,2.984069884E-1,2.621880174E-1
1.286869747E0,-4.000065029E-1,3.037332892E-1,2.600574791E-1
1.289357455E0,-3.840275407E-1,3.101248741E-1,2.568616867E-1
1.291845164E0,-3.637875319E-1,3.165164590E-1,2.547311783E-1
1.294332872E0,-3.403517306E-1,3.218427896E-1,2.526006401E-1
1.296820580E0,-3.147853911E-1,3.271690905E-1,2.504701018E-1
1.299308289E0,-2.849580348E-1,3.314301372E-1,2.504701018E-1
1.301795997E0,-2.519348562E-1,3.356912136E-1,2.526006401E-1
1.304283705E0,-2.189116776E-1,3.399522603E-1,2.568616867E-1
1.306771414E0,-1.858884990E-1,3.442133069E-1,2.621880174E-1
1.309259122E0,-1.518000662E-1,3.474090993E-1,2.685796022E-1
1.311746830E0,-1.209074259E-1,3.516701460E-1,2.760364413E-1
1.314234539E0,-9.108003974E-2,3.559312224E-1,2.834932804E-1
1.316722247E0,-6.444845349E-2,3.580617309E-1,2.920154035E-1
1.319209955E0,-4.101264849E-2,3.601922691E-1,2.984069884E-1
1.321697664E0,-2.183790505E-2,3.612575233E-1,3.047985733E-1
1.324185372E0,-5.858949851E-3,3.623228073E-1,3.090596199E-1
1.326673080E0,4.793686327E-3,3.612575233E-1,3.122554123E-1
1.329160789E0,1.225053146E-2,3.601922691E-1,3.143859208E-1
1.331648497E0,1.331579592E-2,3.591270149E-1,3.143859208E-1
1.334136205E0,1.118526794E-2,3.569964767E-1,3.122554123E-1
1.336623914E0,5.858949851E-3,3.527354300E-1,3.079943359E-1
1.339111622E0,-3.728422802E-3,3.484743834E-1,3.026680350E-1
1.341599330E0,-1.651158556E-2,3.420827985E-1,2.941459119E-1
1.344087039E0,-3.355580568E-2,3.356912136E-1,2.834932804E-1
1.346574747E0,-5.166528746E-2,3.271690905E-1,2.707101107E-1
1.349062455E0,-7.190529257E-2,3.186469972E-1,2.557964325E-1
1.351550164E0,-9.214530140E-2,3.111901283E-1,2.398174703E-1
1.354037872E0,-1.134505793E-1,3.026680350E-1,2.217079997E-1
1.356525580E0,-1.336905807E-1,2.941459119E-1,2.025332451E-1
1.359013289E0,-1.528653353E-1,2.866890728E-1,1.822932363E-1
1.361500997E0,-1.709748209E-1,2.781669796E-1,1.631184965E-1
1.363988705E0,-1.869537681E-1,2.707101107E-1,1.428784877E-1
1.366476414E0,-1.997369379E-1,2.653838098E-1,1.226384789E-1
1.368964122E0,-2.093243003E-1,2.589922249E-1,1.045289934E-1
1.371451830E0,-2.178464085E-1,2.536658943E-1,8.641951531E-2
1.373939539E0,-2.231727391E-1,2.494048476E-1,7.150582224E-2
1.376427247E0,-2.253032625E-1,2.462090552E-1,5.765739456E-2
1.378914955E0,-2.242379934E-1,2.419480085E-1,4.593949392E-2
1.381402664E0,-2.221074700E-1,2.408827394E-1,3.741738573E-2
1.383890372E0,-2.178464085E-1,2.398174703E-1,2.996053919E-2
1.386378080E0,-2.114548385E-1,2.398174703E-1,2.569948509E-2
1.388865789E0,-2.039979845E-1,2.398174703E-1,2.250369452E-2
1.391353497E0,-1.965411454E-1,2.408827394E-1,2.143843099E-2
1.393841205E0,-1.880190372E-1,2.419480085E-1,2.356895804E-2
1.396328914E0,-1.805621833E-1,2.430132627E-1,2.569948509E-2
1.398816622E0,-1.720400751E-1,2.440785319E-1,2.889527567E-2
1.401304330E0,-1.645832360E-1,2.440785319E-1,3.315633163E-2
1.403792039E0,-1.560611278E-1,2.419480085E-1,3.741738573E-2
1.406279747E0,-1.486042738E-1,2.387522161E-1,4.167843983E-2
1.408767455E0,-1.400821656E-1,2.344911546E-1,4.700475931E-2
1.411255164E0,-1.326253265E-1,2.280995846E-1,5.233107507E-2
1.413742872E0,-1.251684725E-1,2.206427306E-1,5.872265995E-2
1.416230580E0,-1.166463718E-1,2.110553533E-1,6.617950648E-2
1.418718289E0,-1.091895252E-1,2.025332451E-1,7.363634557E-2
1.421205997E0,-9.960214794E-2,1.918806136E-1,8.109319210E-2
1.423693705E0,-9.108003974E-2,1.822932363E-1,8.961530030E-2
1.426181414E0,-8.149266988E-2,1.716406047E-1,9.600688517E-2
1.428669122E0,-7.297056168E-2,1.620532274E-1,1.023984700E-1
1.431156830E0,-6.444845349E-2,1.535311192E-1,1.066595241E-1
1.433644487E0,-5.699160323E-2,1.460742801E-1,1.109205782E-1
1.436132143E0,-5.060002208E-2,1.386174262E-1,1.130511016E-1
1.438619799E0,-4.527370632E-2,1.311605871E-1,1.141163707E-1
1.441107455E0,-4.101264849E-2,1.237037405E-1,1.109205782E-1
1.443595112E0,-3.781685978E-2,1.183774248E-1,1.077247858E-1
1.446082768E0,-3.568633273E-2,1.130511016E-1,1.023984700E-1
1.448570424E0,-3.568633273E-2,1.087900475E-1,9.494162351E-2
1.451058080E0,-3.675159439E-2,1.045289934E-1,8.535424620E-2
1.453545737E0,-3.781685978E-2,1.002679393E-1,7.576687634E-2
1.456033393E0,-3.888212144E-2,9.707214683E-2,6.404897571E-2
1.458521049E0,-4.101264849E-2,9.494162351E-2,5.339634046E-2
1.461008705E0,-4.314317927E-2,9.174583107E-2,4.380896688E-2
1.463496362E0,-4.527370632E-2,8.855003864E-2,3.422159329E-2
1.465984018E0,-4.740423337E-2,8.535424620E-2,2.569948509E-2
1.468471674E0,-4.953476042E-2,8.002793044E-2,1.824264042E-2
1.470959330E0,-5.060002208E-2,7.576687634E-2,1.185105834E-2
1.473446987E0,-4.953476042E-2,6.937529147E-2,5.459476262E-3
1.475934643E0,-4.846949503E-2,6.404897571E-2,1.331579551E-4
1.478422299E0,-4.527370632E-2,5.765739456E-2,-3.062632866E-3
1.480909955E0,-4.101264849E-2,5.126581341E-2,-5.193160381E-3
1.483397612E0,-3.462106735E-2,4.487423226E-2,-5.193160381E-3
1.485885268E0,-2.716422267E-2,3.848264739E-2,-4.127896391E-3
1.488372924E0,-1.864211448E-2,3.315633163E-2,-3.062632866E-3
1.490860580E0,-9.054740891E-3,2.676474862E-2,-1.997369342E-3
1.493348237E0,-5.326318205E-4,2.037316747E-2,1.198421582E-3
1.495835893E0,6.924213842E-3,1.504684892E-2,4.394212738E-3
1.498323549E0,1.544632297E-2,1.078579482E-2,6.524739787E-3
1.500811205E0,2.290316857E-2,5.459476262E-3,8.655266836E-3
1.503298862E0,2.822948620E-2,1.198421582E-3,9.720530361E-3
1.505786518E0,3.355580568E-2,-3.062632866E-3,1.078579482E-2
1.508274174E0,3.888212144E-2,-7.323687430E-3,1.078579482E-2
1.510761882E0,4.314317927E-2,-1.158474199E-2,1.078579482E-2
1.513249591E0,4.633896798E-2,-1.691105962E-2,9.720530361E-3
1.515737299E0,5.060002208E-2,-2.117211558E-2,8.655266836E-3
1.518225007E0,5.379581451E-2,-2.756369673E-2,5.459476262E-3
1.520712716E0,5.699160323E-2,-3.182475269E-2,1.198421582E-3
1.523200424E0,6.018739566E-2,-3.715106845E-2,-5.193160381E-3
1.525688132E0,6.444845349E-2,-4.354264960E-2,-1.265000552E-2
1.528175841E0,6.657897681E-2,-4.886896908E-2,-2.223737910E-2
1.530663549E0,6.977476925E-2,-5.526055023E-2,-3.182475269E-2
1.533151257E0,7.297056168E-2,-6.271740049E-2,-4.460791498E-2
1.535638966E0,7.723161578E-2,-6.804371625E-2,-5.739107728E-2
1.538126674E0,8.149266988E-2,-7.443529367E-2,-7.337003201E-2
1.540614382E0,8.575372398E-2,-8.082687855E-2,-8.934898674E-2
1.543102091E0,9.214530140E-2,-8.721846342E-2,-1.053279415E-1
1.545589799E0,9.747162461E-2,-9.254477918E-2,-1.213068962E-1
1.548077507E0,1.049284711E-1,-9.574057162E-2,-1.362205893E-1
1.550565216E0,1.123853177E-1,-1.000016257E-1,-1.490037590E-1
1.553052924E0,1.187768951E-1,-1.010668874E-1,-1.607216448E-1
1.555540632E0,1.251684725E-1,-1.010668874E-1,-1.692437679E-1
1.558028341E0,1.304948032E-1,-1.000016257E-1,-1.756353378E-1
1.560516049E0,1.347558498E-1,-9.787109494E-2,-1.809616536E-1
1.563003757E0,1.379516423E-1,-9.574057162E-2,-1.830921918E-1
1.565491466E0,1.411474347E-1,-9.147951752E-2,-1.852227151E-1
1.567979174E0,1.443432271E-1,-8.721846342E-2,-1.830921918E-1
1.570466882E0,1.454084814E-1,-8.189214021E-2,-1.798963994E-1
1.572954591E0,1.475390196E-1,-7.656582445E-2,-1.745700836E-1
1.575442299E0,1.475390196E-1,-7.017423958E-2,-1.681784987E-1
1.577930007E0,1.464737505E-1,-6.591318548E-2,-1.585911214E-1
1.580417716E0,1.443432271E-1,-6.165213138E-2,-1.490037590E-1
1.582905424E0,1.400821656E-1,-5.845634267E-2,-1.362205893E-1
1.585393132E0,1.358211190E-1,-5.632581562E-2,-1.213068962E-1
1.587880841E0,1.294295341E-1,-5.526055023E-2,-1.063932031E-1
1.590368549E0,1.209074259E-1,-5.419528857E-2,-9.041424841E-2
1.592856257E0,1.113200486E-1,-5.419528857E-2,-7.443529367E-2
1.595343966E0,9.960214794E-2,-5.419528857E-2,-5.845634267E-2
1.597831674E0,8.788424730E-2,-5.419528857E-2,-4.247738793E-2
1.600319382E0,7.403582335E-2,-5.313002318E-2,-2.756369673E-2
1.602807091E0,5.912213027E-2,-5.313002318E-2,-1.265000552E-2
1.605294799E0,4.420844093E-2,-5.313002318E-2,2.263685223E-3
1.607782507E0,3.036001325E-2,-5.206476152E-2,1.717737690E-2
1.610270216E0,1.757685095E-2,-5.099949613E-2,3.102580272E-2
1.612757924E0,5.858949851E-3,-5.099949613E-2,4.274370521E-2
1.615245632E0,-4.793686327E-3,-5.099949613E-2,5.339634046E-2
1.617733341E0,-1.438105945E-2,-4.993423447E-2,6.191844866E-2
1.620221049E0,-2.183790505E-2,-4.886896908E-2,6.831002980E-2
1.622708757E0,-2.716422267E-2,-4.567318037E-2,7.150582224E-2
1.625196466E0,-3.036001325E-2,-4.247738793E-2,7.257108390E-2
1.627684174E0,-3.249054030E-2,-3.821633384E-2,7.150582224E-2
1.630171882E0,-3.142527863E-2,-3.502054140E-2,6.724476814E-2
1.632659591E0,-2.822948620E-2,-3.182475269E-2,6.085318699E-2
1.635147299E0,-2.396843210E-2,-2.862896025E-2,5.233107507E-2
1.637635007E0,-1.757685095E-2,-2.756369673E-2,4.274370521E-2
1.640122716E0,-1.012000442E-2,-2.649843320E-2,3.209106624E-2
1.642610424E0,-5.326318205E-4,-2.649843320E-2,1.930790395E-2
1.645098132E0,1.012000442E-2,-2.649843320E-2,7.590003312E-3
1.647585841E0,2.183790505E-2,-2.862896025E-2,-6.258423906E-3
1.650073549E0,3.568633273E-2,-3.182475269E-2,-2.010685205E-2
1.652561257E0,4.953476042E-2,-3.608580679E-2,-3.395527974E-2
1.655048966E0,6.338318437E-2,-4.141212255E-2,-4.780370742E-2
1.657536674E0,8.042740822E-2,-4.673844203E-2,-6.271740049E-2
1.660024382E0,9.747162461E-2,-5.313002318E-2,-7.869634777E-2
1.662512091E0,1.134505793E-1,-5.845634267E-2,-9.254477918E-2
1.664999799E0,1.304948032E-1,-6.378266215E-2,-1.074584723E-1
1.667487507E0,1.454084814E-1,-6.910897791E-2,-1.213068962E-1
1.669975216E0,1.603221744E-1,-7.443529367E-2,-1.340900660E-1
1.672462924E0,1.741705984E-1,-7.869634777E-2,-1.458079666E-1
1.674950632E0,1.869537681E-1,-8.295740932E-2,-1.553953290E-1
1.677438341E0,1.986716688E-1,-8.615319431E-2,-1.628521830E-1
1.679926049E0,2.093243003E-1,-8.934898674E-2,-1.681784987E-1
1.682413757E0,2.189116776E-1,-9.147951752E-2,-1.713742912E-1
1.684901466E0,2.263685167E-1,-9.467530251E-2,-1.745700836E-1
1.687389174E0,2.338253707E-1,-9.680583328E-2,-1.745700836E-1
1.689876882E0,2.402169555E-1,-9.893636405E-2,-1.735048145E-1
1.692364591E0,2.434127480E-1,-1.000016257E-1,-1.713742912E-1
1.694852299E0,2.455432713E-1,-1.021321490E-1,-1.671132296E-1
1.697340007E0,2.466085255E-1,-1.042626798E-1,-1.628521830E-1
1.699827716E0,2.455432713E-1,-1.053279415E-1,-1.564605981E-1
1.702315424E0,2.434127480E-1,-1.074584723E-1,-1.490037590E-1
1.704803132E0,2.402169555E-1,-1.074584723E-1,-1.394163817E-1
1.707290841E0,2.359558940E-1,-1.074584723E-1,-1.298290044E-1
1.709778549E0,2.295643091E-1,-1.053279415E-1,-1.159805804E-1
1.712266257E0,2.231727391E-1,-1.021321490E-1,-1.021321490E-1
1.714753966E0,2.146506310E-1,-9.787109494E-2,-8.721846342E-2
1.717241674E0,2.050632536E-1,-9.254477918E-2,-7.230477035E-2
1.719729382E0,1.944106072E-1,-8.615319431E-2,-5.952160433E-2
1.722217091E0,1.837579757E-1,-7.869634777E-2,-4.567318037E-2
1.724704799E0,1.731053442E-1,-7.123950869E-2,-3.395527974E-2
1.727192507E0,1.624527127E-1,-6.378266215E-2,-2.543316968E-2
1.729680216E0,1.528653353E-1,-5.526055023E-2,-1.797632314E-2
1.732167924E0,1.443432271E-1,-4.780370742E-2,-1.265000552E-2
1.734655632E0,1.379516423E-1,-4.034686089E-2,-8.388951421E-3
1.737143341E0,1.294295341E-1,-3.395527974E-2,-8.388951421E-3
1.739631049E0,1.230379492E-1,-2.649843320E-2,-9.454214945E-3
1.742118757E0,1.187768951E-1,-1.904158667E-2,-1.371526904E-2
1.744606466E0,1.155811027E-1,-1.158474199E-2,-1.904158667E-2
1.747094174E0,1.134505793E-1,-5.193160381E-3,-2.543316968E-2
1.749581882E0,1.113200486E-1,1.331579551E-4,-3.182475269E-2
1.752069591E0,1.113200486E-1,5.459476262E-3,-3.821633384E-2
1.754557299E0,1.134505793E-1,1.078579482E-2,-4.354264960E-2
1.757045007E0,1.177116334E-1,1.504684892E-2,-4.780370742E-2
1.759532716E0,1.241032109E-1,1.930790395E-2,-5.206476152E-2
1.762020424E0,1.304948032E-1,2.143843099E-2,-5.739107728E-2
1.764508132E0,1.390169114E-1,2.356895804E-2,-6.058686972E-2
1.766995841E0,1.496695429E-1,2.463422157E-2,-6.271740049E-2
1.769483549E0,1.592569202E-1,2.463422157E-2,-6.484792382E-2
1.771971257E0,1.709748209E-1,2.356895804E-2,-6.591318548E-2
1.774458966E0,1.805621833E-1,2.143843099E-2,-6.591318548E-2
1.776946674E0,1.912148297E-1,1.717737690E-2,-6.484792382E-2
1.779434382E0,1.986716688E-1,1.291632187E-2,-6.058686972E-2
1.781922091E0,2.061285079E-1,1.078579482E-2,-5.526055023E-2
1.784409799E0,2.125200927E-1,6.524739787E-3,-4.780370742E-2
1.786897507E0,2.157158852E-1,4.394212738E-3,-3.821633384E-2
1.789385216E0,2.157158852E-1,3.328948980E-3,-2.756369673E-2
1.791872924E0,2.146506310E-1,1.198421582E-3,-1.691105962E-2
1.794360632E0,2.103895694E-1,1.331579551E-4,-7.323687430E-3
1.796848341E0,2.029327303E-1,-1.997369342E-3,3.328948980E-3
1.799336049E0,1.944106072E-1,-1.997369342E-3,1.291632187E-2
1.801823757E0,1.837579757E-1,-1.997369342E-3,2.143843099E-2
1.804311466E0,1.720400751E-1,1.331579551E-4,2.996053919E-2
1.806799122E0,1.581916511E-1,1.198421582E-3,3.848264739E-2
1.809286778E0,1.443432271E-1,3.328948980E-3,4.807002097E-2
1.811774434E0,1.294295341E-1,6.524739787E-3,5.659212917E-2
1.814262091E0,1.145158410E-1,1.078579482E-2,6.511423737E-2
1.816749747E0,9.853688627E-2,1.398158539E-2,7.470161468E-2
1.819237403E0,8.255793154E-2,1.824264042E-2,8.322372288E-2
1.821725059E0,6.551371515E-2,2.463422157E-2,9.174583107E-2
1.824212716E0,4.846949503E-2,2.889527567E-2,9.920267761E-2
1.826700372E0,3.036001325E-2,3.528685868E-2,1.045289934E-1
1.829188028E0,1.225053146E-2,4.061317816E-2,1.077247858E-1
1.831675684E0,-5.858949851E-3,4.593949392E-2,1.119858399E-1
1.834163341E0,-2.396843210E-2,5.020054802E-2,1.119858399E-1
1.836650997E0,-4.101264849E-2,5.446160212E-2,1.130511016E-1
1.839138653E0,-5.699160323E-2,5.872265995E-2,1.109205782E-1
1.841626309E0,-7.297056168E-2,6.085318699E-2,1.077247858E-1
1.844113966E0,-8.788424730E-2,6.404897571E-2,1.034637317E-1
1.846601622E0,-1.017326787E-1,6.617950648E-2,9.813741595E-2
1.849089278E0,-1.134505793E-1,6.831002980E-2,9.174583107E-2
1.851576934E0,-1.219726875E-1,7.044056058E-2,8.428898454E-2
1.854064591E0,-1.283642650E-1,7.150582224E-2,7.576687634E-2
1.856552247E0,-1.304948032E-1,7.257108390E-2,6.617950648E-2
1.859039903E0,-1.304948032E-1,7.363634557E-2,5.659212917E-2
1.861527559E0,-1.251684725E-1,7.470161468E-2,4.700475931E-2
1.864015216E0,-1.187768951E-1,7.576687634E-2,3.741738573E-2
1.866502872E0,-1.081242561E-1,7.683213800E-2,2.889527567E-2
1.868990528E0,-9.427583218E-2,7.789740711E-2,1.930790395E-2
1.871478184E0,-7.829687744E-2,8.002793044E-2,1.078579482E-2
1.873965841E0,-6.125266105E-2,8.215846121E-2,2.263685223E-3
1.876453497E0,-4.101264849E-2,8.428898454E-2,-5.193160381E-3
1.878941153E0,-2.077264152E-2,8.748477697E-2,-1.051947847E-2
1.881428862E0,-1.597895520E-3,9.068056941E-2,-1.478053257E-2
1.883916570E0,1.757685095E-2,9.281109273E-2,-1.691105962E-2
1.886404278E0,3.462106735E-2,9.494162351E-2,-1.904158667E-2
1.888891987E0,5.060002208E-2,9.600688517E-2,-1.904158667E-2
1.891379695E0,6.338318437E-2,9.813741595E-2,-1.691105962E-2
1.893867403E0,7.510108501E-2,9.813741595E-2,-1.371526904E-2
1.896355112E0,8.362319320E-2,9.813741595E-2,-8.388951421E-3
1.898842820E0,8.894951642E-2,9.600688517E-2,-1.997369342E-3
1.901330528E0,9.108003974E-2,9.387636185E-2,4.394212738E-3
1.903818237E0,9.001477808E-2,8.961530030E-2,1.185105834E-2
1.906305945E0,8.681898564E-2,8.535424620E-2,1.930790395E-2
1.908793653E0,8.149266988E-2,8.109319210E-2,2.569948509E-2
1.911281362E0,7.297056168E-2,7.576687634E-2,3.102580272E-2
1.913769070E0,6.338318437E-2,7.150582224E-2,3.741738573E-2
1.916256778E0,5.273054913E-2,6.831002980E-2,4.274370521E-2
1.918744487E0,4.101264849E-2,6.724476814E-2,4.807002097E-2
1.921232195E0,2.929474972E-2,6.511423737E-2,5.339634046E-2
1.923719903E0,1.651158556E-2,6.617950648E-2,5.872265995E-2
1.926207612E0,4.793686327E-3,6.724476814E-2,6.298371404E-2
1.928695320E0,-6.924213842E-3,6.831002980E-2,6.831002980E-2
1.931183028E0,-1.970737800E-2,7.044056058E-2,7.257108390E-2
1.933670737E0,-3.142527863E-2,7.257108390E-2,7.576687634E-2
1.936158445E0,-4.314317927E-2,7.470161468E-2,7.896266878E-2
1.938646153E0,-5.379581451E-2,7.576687634E-2,8.215846121E-2
1.941133862E0,-6.444845349E-2,7.683213800E-2,8.641951531E-2
1.943621570E0,-7.510108501E-2,7.789740711E-2,8.961530030E-2
1.946109278E0,-8.362319320E-2,7.683213800E-2,9.494162351E-2
1.948596987E0,-9.214530140E-2,7.576687634E-2,9.920267761E-2
1.951084695E0,-9.853688627E-2,7.363634557E-2,1.055942550E-1
1.953572403E0,-1.049284711E-1,7.257108390E-2,1.119858399E-1
1.956060112E0,-1.102547869E-1,7.150582224E-2,1.183774248E-1
1.958547820E0,-1.145158410E-1,7.044056058E-2,1.258342713E-1
1.961035528E0,-1.166463718E-1,6.937529147E-2,1.311605871E-1
1.963523237E0,-1.177116334E-1,6.724476814E-2,1.364869028E-1
1.966010945E0,-1.177116334E-1,6.617950648E-2,1.386174262E-1
1.968498653E0,-1.166463718E-1,6.404897571E-2,1.407479644E-1
1.970986362E0,-1.145158410E-1,6.191844866E-2,1.396826953E-1
1.973474070E0,-1.123853177E-1,5.978792161E-2,1.375521719E-1
1.975961778E0,-1.081242561E-1,5.659212917E-2,1.343563795E-1
1.978449487E0,-1.059937328E-1,5.339634046E-2,1.290300637E-1
1.980937195E0,-1.017326787E-1,4.913528636E-2,1.247690022E-1
1.983424903E0,-9.747162461E-2,4.380896688E-2,1.183774248E-1
1.985912612E0,-9.214530140E-2,3.741738573E-2,1.119858399E-1
1.988400320E0,-8.788424730E-2,2.889527567E-2,1.055942550E-1
1.990888028E0,-8.362319320E-2,2.143843099E-2,9.813741595E-2
1.993375737E0,-7.936213911E-2,1.291632187E-2,9.174583107E-2
1.995863445E0,-7.510108501E-2,4.394212738E-3,8.535424620E-2
1.998351153E0,-7.084003091E-2,-4.127896391E-3,7.896266878E-2
2.000838862E0,-6.870950758E-2,-1.371526904E-2,7.257108390E-2
2.003326570E0,-6.657897681E-2,-2.223737910E-2,6.511423737E-2
2.005814278E0,-6.551371515E-2,-3.182475269E-2,5.765739456E-2
2.008301987E0,-6.551371515E-2,-4.141212255E-2,5.126581341E-2
2.010789695E0,-6.657897681E-2,-5.099949613E-2,4.380896688E-2
2.013277403E0,-6.870950758E-2,-6.165213138E-2,3.741738573E-2
2.015765112E0,-6.977476925E-2,-7.230477035E-2,3.102580272E-2
2.018252820E0,-7.190529257E-2,-8.295740932E-2,2.463422157E-2
2.020740528E0,-7.510108501E-2,-9.254477918E-2,1.930790395E-2
2.023228237E0,-7.723161578E-2,-1.021321490E-1,1.291632187E-2
2.025715945E0,-7.936213911E-2,-1.106542572E-1,8.655266836E-3
2.028203653E0,-8.042740822E-2,-1.170458421E-1,4.394212738E-3
2.030691362E0,-8.255793154E-2,-1.234374270E-1,1.198421582E-3
2.033179070E0,-8.149266988E-2,-1.266332120E-1,-3.062632866E-3
2.035666778E0,-7.936213911E-2,-1.287637353E-1,-5.193160381E-3
2.038154487E0,-7.829687744E-2,-1.287637353E-1,-7.323687430E-3
2.040642195E0,-7.403582335E-2,-1.287637353E-1,-1.051947847E-2
2.043129903E0,-6.977476925E-2,-1.266332120E-1,-1.265000552E-2
2.045617612E0,-6.657897681E-2,-1.255679578E-1,-1.478053257E-2
2.048105320E0,-6.018739566E-2,-1.245026886E-1,-1.691105962E-2
2.050593028E0,-5.379581451E-2,-1.234374270E-1,-1.904158667E-2
2.053080737E0,-4.633896798E-2,-1.234374270E-1,-2.010685205E-2
2.055568445E0,-3.781685978E-2,-1.234374270E-1,-1.904158667E-2
2.058056153E0,-2.822948620E-2,-1.245026886E-1,-1.904158667E-2
2.060543862E0,-1.970737800E-2,-1.266332120E-1,-1.797632314E-2
2.063031570E0,-1.012000442E-2,-1.287637353E-1,-1.691105962E-2
2.065519278E0,-2.663159044E-3,-1.319595277E-1,-1.691105962E-2
2.068006987E0,5.858949851E-3,-1.351553202E-1,-1.584579609E-2
2.070494695E0,1.225053146E-2,-1.394163817E-1,-1.478053257E-2
2.072982403E0,1.864211448E-2,-1.436774284E-1,-1.371526904E-2
2.075470112E0,2.396843210E-2,-1.479384899E-1,-1.265000552E-2
2.077957820E0,2.716422267E-2,-1.521995366E-1,-1.265000552E-2
2.080445528E0,3.036001325E-2,-1.575258672E-1,-1.265000552E-2
2.082933237E0,3.249054030E-2,-1.628521830E-1,-1.265000552E-2
2.085420945E0,3.462106735E-2,-1.681784987E-1,-1.371526904E-2
2.087908653E0,3.568633273E-2,-1.735048145E-1,-1.371526904E-2
2.090396362E0,3.462106735E-2,-1.788311303E-1,-1.371526904E-2
2.092884070E0,3.355580568E-2,-1.841574460E-1,-1.478053257E-2
2.095371778E0,3.036001325E-2,-1.884185076E-1,-1.584579609E-2
2.097859487E0,2.609895915E-2,-1.926795542E-1,-1.584579609E-2
2.100347195E0,2.077264152E-2,-1.958753467E-1,-1.797632314E-2
2.102834903E0,1.331579592E-2,-1.990711391E-1,-2.010685205E-2
2.105322612E0,4.793686327E-3,-2.022669315E-1,-2.436790615E-2
2.107810320E0,-3.728422802E-3,-2.033322006E-1,-2.862896025E-2
2.110298028E0,-1.438105945E-2,-2.043974549E-1,-3.395527974E-2
2.112785737E0,-2.503369562E-2,-2.054627240E-1,-4.034686089E-2
2.115273445E0,-3.568633273E-2,-2.043974549E-1,-4.886896908E-2
2.117761153E0,-4.633896798E-2,-2.043974549E-1,-5.632581562E-2
2.120248862E0,-5.592634156E-2,-2.043974549E-1,-6.378266215E-2
2.122736570E0,-6.551371515E-2,-2.033322006E-1,-7.123950869E-2
2.125224278E0,-7.297056168E-2,-2.033322006E-1,-7.763108611E-2
2.127711987E0,-8.149266988E-2,-2.022669315E-1,-8.295740932E-2
2.130199695E0,-8.894951642E-2,-2.012016773E-1,-8.721846342E-2
2.132687403E0,-9.640636295E-2,-2.001364082E-1,-9.041424841E-2
2.135175112E0,-1.027979404E-1,-2.001364082E-1,-9.254477918E-2
2.137662820E0,-1.081242561E-1,-2.001364082E-1,-9.361004084E-2
2.140150528E0,-1.134505793E-1,-1.990711391E-1,-9.361004084E-2
2.142638237E0,-1.198421568E-1,-1.980058849E-1,-9.254477918E-2
2.145125945E0,-1.241032109E-1,-1.958753467E-1,-9.041424841E-2
2.147613653E0,-1.283642650E-1,-1.948100924E-1,-8.828372508E-2
2.150101362E0,-1.326253265E-1,-1.916143000E-1,-8.508793265E-2
2.152589070E0,-1.347558498E-1,-1.894837767E-1,-8.295740932E-2
2.155076778E0,-1.358211190E-1,-1.873532385E-1,-7.976161689E-2
2.157564487E0,-1.358211190E-1,-1.873532385E-1,-7.656582445E-2
2.160052195E0,-1.336905807E-1,-1.862879843E-1,-7.550056279E-2
2.162539903E0,-1.304948032E-1,-1.862879843E-1,-7.230477035E-2
2.165027612E0,-1.262337416E-1,-1.862879843E-1,-7.123950869E-2
2.167515320E0,-1.209074259E-1,-1.873532385E-1,-6.910897791E-2
2.170003028E0,-1.134505793E-1,-1.894837767E-1,-6.804371625E-2
2.172490737E0,-1.059937328E-1,-1.905490309E-1,-6.697845459E-2
2.174978445E0,-9.747162461E-2,-1.937448233E-1,-6.591318548E-2
2.177466153E0,-8.788424730E-2,-1.958753467E-1,-6.378266215E-2
2.179953862E0,-7.829687744E-2,-1.969406158E-1,-6.165213138E-2
2.182441570E0,-6.870950758E-2,-1.990711391E-1,-6.058686972E-2
2.184929278E0,-5.699160323E-2,-2.001364082E-1,-5.952160433E-2
2.187416987E0,-4.633896798E-2,-2.012016773E-1,-5.845634267E-2
2.189904695E0,-3.462106735E-2,-2.022669315E-1,-5.952160433E-2
2.192392403E0,-2.396843210E-2,-2.022669315E-1,-5.952160433E-2
2.194880112E0,-1.331579592E-2,-2.022669315E-1,-5.952160433E-2
2.197367820E0,-2.663159044E-3,-2.043974549E-1,-6.165213138E-2
2.199855528E0,7.989477366E-3,-2.054627240E-1,-6.271740049E-2
2.202343237E0,1.864211448E-2,-2.075932473E-1,-6.591318548E-2
2.204830945E0,3.036001325E-2,-2.097237855E-1,-6.910897791E-2
2.207318653E0,4.101264849E-2,-2.107890397E-1,-7.230477035E-2
2.209806362E0,5.166528746E-2,-2.139848322E-1,-7.656582445E-2
2.212294070E0,6.231792271E-2,-2.171806246E-1,-8.189214021E-2
2.214781726E0,7.297056168E-2,-2.203764170E-1,-8.615319431E-2
2.217269382E0,8.362319320E-2,-2.235722095E-1,-9.041424841E-2
2.219757039E0,9.427583218E-2,-2.257027328E-1,-9.574057162E-2
2.222244695E0,1.049284711E-1,-2.267680019E-1,-9.893636405E-2
2.224732351E0,1.155811027E-1,-2.278332561E-1,-1.021321490E-1
2.227220007E0,1.251684725E-1,-2.267680019E-1,-1.053279415E-1
2.229707664E0,1.368863732E-1,-2.267680019E-1,-1.063932031E-1
2.232195320E0,1.475390196E-1,-2.267680019E-1,-1.074584723E-1
2.234682976E0,1.571263820E-1,-2.267680019E-1,-1.074584723E-1
2.237170632E0,1.667137593E-1,-2.246374637E-1,-1.074584723E-1
2.239658289E0,1.763011366E-1,-2.246374637E-1,-1.063932031E-1
2.242145945E0,1.837579757E-1,-2.235722095E-1,-1.042626798E-1
2.244633601E0,1.901495606E-1,-2.225069404E-1,-1.010668874E-1
2.247121257E0,1.954758763E-1,-2.203764170E-1,-9.893636405E-2
2.249608914E0,1.997369379E-1,-2.203764170E-1,-9.467530251E-2
2.252096570E0,2.018674612E-1,-2.193111479E-1,-9.041424841E-2
2.254584226E0,2.039979845E-1,-2.182458937E-1,-8.615319431E-2
2.257071882E0,2.039979845E-1,-2.171806246E-1,-7.976161689E-2
2.259559539E0,2.029327303E-1,-2.171806246E-1,-7.550056279E-2
2.262047195E0,2.008021921E-1,-2.161153555E-1,-6.910897791E-2
2.264534851E0,1.976063997E-1,-2.161153555E-1,-6.484792382E-2
2.267022507E0,1.944106072E-1,-2.161153555E-1,-5.952160433E-2
2.269510164E0,1.912148297E-1,-2.161153555E-1,-5.632581562E-2
2.271997820E0,1.858884990E-1,-2.171806246E-1,-5.206476152E-2
2.274485476E0,1.816274524E-1,-2.182458937E-1,-4.780370742E-2
2.276973132E0,1.773663908E-1,-2.203764170E-1,-4.354264960E-2
2.279460789E0,1.720400751E-1,-2.225069404E-1,-4.034686089E-2
2.281948445E0,1.677790284E-1,-2.257027328E-1,-3.715106845E-2
2.284436101E0,1.656484902E-1,-2.278332561E-1,-3.502054140E-2
2.286923809E0,1.635179669E-1,-2.310290486E-1,-3.289001435E-2
2.289411518E0,1.613874435E-1,-2.342248410E-1,-3.182475269E-2
2.291899226E0,1.603221744E-1,-2.363553643E-1,-3.182475269E-2
2.294386934E0,1.603221744E-1,-2.395511568E-1,-3.182475269E-2
2.296874643E0,1.624527127E-1,-2.427469492E-1,-3.395527974E-2
2.299362351E0,1.667137593E-1,-2.459427416E-1,-3.608580679E-2
2.301850059E0,1.709748209E-1,-2.480732650E-1,-4.034686089E-2
2.304337768E0,1.773663908E-1,-2.502037883E-1,-4.460791498E-2
2.306825476E0,1.858884990E-1,-2.523343265E-1,-4.993423447E-2
2.309313184E0,1.944106072E-1,-2.555301189E-1,-5.526055023E-2
2.311800893E0,2.050632536E-1,-2.576606572E-1,-6.165213138E-2
2.314288601E0,2.167811543E-1,-2.597911656E-1,-6.804371625E-2
2.316776309E0,2.295643091E-1,-2.629869580E-1,-7.443529367E-2
2.319264018E0,2.444780022E-1,-2.651174963E-1,-8.082687855E-2
2.321751726E0,2.604569495E-1,-2.672480047E-1,-8.615319431E-2
2.324239434E0,2.775011659E-1,-2.704437971E-1,-9.361004084E-2
2.326727143E0,2.956106663E-1,-2.747048736E-1,-1.000016257E-1
2.329214851E0,3.126548827E-1,-2.768353820E-1,-1.063932031E-1
2.331702559E0,3.307643533E-1,-2.810964286E-1,-1.117195264E-1
2.334190268E0,3.488738537E-1,-2.842922211E-1,-1.159805804E-1
2.336677976E0,3.680485785E-1,-2.885532975E-1,-1.191763729E-1
2.339165684E0,3.861580789E-1,-2.928143442E-1,-1.234374270E-1
2.341653393E0,4.032022953E-1,-2.960101366E-1,-1.255679578E-1
2.344141101E0,4.213117659E-1,-2.992059290E-1,-1.276984811E-1
2.346628809E0,4.383559823E-1,-3.013364673E-1,-1.287637353E-1
2.349116518E0,4.543349445E-1,-3.024017215E-1,-1.308942735E-1
2.351604226E0,4.692486227E-1,-3.024017215E-1,-1.319595277E-1
2.354091934E0,4.830970466E-1,-3.024017215E-1,-1.319595277E-1
2.356579643E0,4.937497079E-1,-3.013364673E-1,-1.308942735E-1
2.359067351E0,5.054675937E-1,-3.002711833E-1,-1.308942735E-1
2.361555059E0,5.150549412E-1,-2.981406748E-1,-1.287637353E-1
2.364042768E0,5.225118399E-1,-2.960101366E-1,-1.276984811E-1
2.366530476E0,5.289034247E-1,-2.938795984E-1,-1.266332120E-1
2.369018184E0,5.342296958E-1,-2.906838059E-1,-1.245026886E-1
2.371505893E0,5.363602638E-1,-2.874880135E-1,-1.223721579E-1
2.373993601E0,5.374255180E-1,-2.842922211E-1,-1.202416345E-1
2.376481309E0,5.374255180E-1,-2.810964286E-1,-1.181111038E-1
2.378969018E0,5.352949500E-1,-2.789659202E-1,-1.149153188E-1
2.381456726E0,5.320991874E-1,-2.768353820E-1,-1.127847880E-1
2.383944434E0,5.267728567E-1,-2.768353820E-1,-1.085237339E-1
2.386432143E0,5.214465261E-1,-2.768353820E-1,-1.042626798E-1
2.388919851E0,5.139896870E-1,-2.768353820E-1,-1.010668874E-1
2.391407559E0,5.054675937E-1,-2.789659202E-1,-9.680583328E-2
2.393895268E0,4.958802164E-1,-2.821617126E-1,-9.361004084E-2
2.396382976E0,4.852275848E-1,-2.853575051E-1,-8.934898674E-2
2.398870684E0,4.735096991E-1,-2.896185517E-1,-8.615319431E-2
2.401358393E0,4.628570378E-1,-2.949448824E-1,-8.295740932E-2
2.403846101E0,4.500738978E-1,-3.013364673E-1,-8.082687855E-2
2.406333809E0,4.383559823E-1,-3.066627681E-1,-7.869634777E-2
2.408821518E0,4.277033508E-1,-3.130543530E-1,-7.869634777E-2
2.411309226E0,4.159854650E-1,-3.183806837E-1,-7.869634777E-2
2.413796934E0,4.053328037E-1,-3.226417303E-1,-7.976161689E-2
2.416284643E0,3.946801722E-1,-3.269027770E-1,-8.189214021E-2
2.418772351E0,3.850927949E-1,-3.300985694E-1,-8.615319431E-2
2.421260059E0,3.765707016E-1,-3.332943618E-1,-9.041424841E-2
2.423747768E0,3.701791167E-1,-3.354249001E-1,-9.574057162E-2
2.426235476E0,3.648527861E-1,-3.364901543E-1,-1.031974182E-1
2.428723184E0,3.595264852E-1,-3.364901543E-1,-1.106542572E-1
2.431210893E0,3.552654386E-1,-3.364901543E-1,-1.213068962E-1
2.433698601E0,3.542001545E-1,-3.343596160E-1,-1.319595277E-1
2.436186309E0,3.531349003E-1,-3.322291076E-1,-1.426121742E-1
2.438674018E0,3.531349003E-1,-3.279680312E-1,-1.532648057E-1
2.441161726E0,3.542001545E-1,-3.247722387E-1,-1.639174372E-1
2.443649434E0,3.573959470E-1,-3.226417303E-1,-1.745700836E-1
2.446137143E0,3.616569936E-1,-3.205111921E-1,-1.852227151E-1
2.448624851E0,3.669833243E-1,-3.194459379E-1,-1.958753467E-1
2.451112559E0,3.723096550E-1,-3.194459379E-1,-2.054627240E-1
2.453600268E0,3.797664940E-1,-3.194459379E-1,-2.150501013E-1
2.456087976E0,3.872233331E-1,-3.215764761E-1,-2.246374637E-1
2.458575684E0,3.946801722E-1,-3.237069845E-1,-2.331595868E-1
2.461063393E0,4.042675495E-1,-3.258375227E-1,-2.427469492E-1
2.463551101E0,4.149201810E-1,-3.279680312E-1,-2.512690723E-1
2.466038809E0,4.255728126E-1,-3.290333152E-1,-2.608564198E-1
2.468526518E0,4.362254739E-1,-3.300985694E-1,-2.704437971E-1
2.471014226E0,4.479433596E-1,-3.300985694E-1,-2.800311744E-1
2.473501934E0,4.607265294E-1,-3.300985694E-1,-2.885532975E-1
2.475989643E0,4.745749533E-1,-3.290333152E-1,-2.949448824E-1
2.478477351E0,4.894886315E-1,-3.258375227E-1,-3.024017215E-1
2.480965059E0,5.054675937E-1,-3.226417303E-1,-3.077280223E-1
2.483452768E0,5.225118399E-1,-3.194459379E-1,-3.119890988E-1
2.485940476E0,5.406212807E-1,-3.151848912E-1,-3.151848912E-1
2.488428184E0,5.587307811E-1,-3.119890988E-1,-3.173153996E-1
2.490915893E0,5.757750273E-1,-3.077280223E-1,-3.194459379E-1
2.493403601E0,5.928192139E-1,-3.045322299E-1,-3.205111921E-1
2.495891309E0,6.098634601E-1,-3.013364673E-1,-3.215764761E-1
2.498379018E0,6.258423924E-1,-2.981406748E-1,-3.226417303E-1
2.500866726E0,6.418213248E-1,-2.949448824E-1,-3.226417303E-1
2.503354434E0,6.588655710E-1,-2.896185517E-1,-3.226417303E-1
2.505842143E0,6.748445034E-1,-2.853575051E-1,-3.215764761E-1
2.508329851E0,6.897581816E-1,-2.810964286E-1,-3.205111921E-1
2.510817559E0,7.046719193E-1,-2.789659202E-1,-3.194459379E-1
2.513305268E0,7.195855975E-1,-2.747048736E-1,-3.183806837E-1
2.515792976E0,7.334340215E-1,-2.704437971E-1,-3.173153996E-1
2.518280684E0,7.451519370E-1,-2.672480047E-1,-3.151848912E-1
2.520768393E0,7.568697929E-1,-2.640522122E-1,-3.130543530E-1
2.523256101E0,7.653919458E-1,-2.608564198E-1,-3.119890988E-1
2.525743809E0,7.739140391E-1,-2.576606572E-1,-3.098585606E-1
2.528231518E0,7.813708782E-1,-2.544648647E-1,-3.066627681E-1
2.530719226E0,7.866972089E-1,-2.491385341E-1,-3.055975139E-1
2.533206934E0,7.909582257E-1,-2.448774725E-1,-3.034669757E-1
2.535694643E0,7.952193022E-1,-2.395511568E-1,-3.024017215E-1
2.538182351E0,7.984151244E-1,-2.342248410E-1,-3.024017215E-1
2.540670059E0,7.994803786E-1,-2.299637944E-1,-3.024017215E-1
2.543157768E0,7.994803786E-1,-2.246374637E-1,-3.034669757E-1
2.545645476E0,7.973498106E-1,-2.214416862E-1,-3.055975139E-1
2.548133184E0,7.941540480E-1,-2.171806246E-1,-3.087933064E-1
2.550620893E0,7.877624631E-1,-2.150501013E-1,-3.109238148E-1
2.553108601E0,7.813708782E-1,-2.129195631E-1,-3.130543530E-1
2.555596309E0,7.717835307E-1,-2.107890397E-1,-3.151848912E-1
2.558084018E0,7.621961236E-1,-2.097237855E-1,-3.173153996E-1
2.560571726E0,7.515435219E-1,-2.097237855E-1,-3.194459379E-1
2.563059434E0,7.419561148E-1,-2.097237855E-1,-3.205111921E-1
2.565547143E0,7.302381992E-1,-2.107890397E-1,-3.194459379E-1
2.568034851E0,7.195855975E-1,-2.118543088E-1,-3.183806837E-1
2.570522559E0,7.078676820E-1,-2.129195631E-1,-3.173153996E-1
2.573010268E0,6.950845122E-1,-2.150501013E-1,-3.141196072E-1
2.575497976E0,6.823013425E-1,-2.161153555E-1,-3.109238148E-1
2.577985684E0,6.695181727E-1,-2.182458937E-1,-3.077280223E-1
2.580473393E0,6.567350626E-1,-2.203764170E-1,-3.024017215E-1
2.582961101E0,6.428865790E-1,-2.225069404E-1,-2.960101366E-1
2.585448809E0,6.290381551E-1,-2.246374637E-1,-2.885532975E-1
2.587936518E0,6.162550449E-1,-2.267680019E-1,-2.800311744E-1
2.590424226E0,6.045371294E-1,-2.278332561E-1,-2.725743353E-1
2.592911934E0,5.917539597E-1,-2.267680019E-1,-2.629869580E-1
2.595399643E0,5.800360441E-1,-2.246374637E-1,-2.533995807E-1
2.597887351E0,5.683181286E-1,-2.214416862E-1,-2.438122183E-1
2.600375059E0,5.576655269E-1,-2.150501013E-1,-2.342248410E-1
2.602862768E0,5.470128655E-1,-2.086585164E-1,-2.257027328E-1
2.605350476E0,5.374255180E-1,-2.022669315E-1,-2.171806246E-1
2.607838184E0,5.267728567E-1,-1.937448233E-1,-2.097237855E-1
2.610325893E0,5.182507634E-1,-1.841574460E-1,-2.043974549E-1
2.612813601E0,5.097286701E-1,-1.745700836E-1,-1.990711391E-1
2.615301309E0,5.022718310E-1,-1.639174372E-1,-1.937448233E-1
2.617789018E0,4.969455004E-1,-1.543300748E-1,-1.905490309E-1
2.620276726E0,4.926844239E-1,-1.436774284E-1,-1.862879843E-1
2.622764434E0,4.884233773E-1,-1.319595277E-1,-1.841574460E-1
2.625252143E0,4.873581231E-1,-1.213068962E-1,-1.820269227E-1
2.627739851E0,4.873581231E-1,-1.095889956E-1,-1.798963994E-1
2.630227559E0,4.884233773E-1,-9.680583328E-2,-1.788311303E-1
2.632715268E0,4.916191697E-1,-8.508793265E-2,-1.788311303E-1
2.635202976E0,4.937497079E-1,-7.337003201E-2,-1.809616536E-1
2.637690684E0,4.958802164E-1,-6.271740049E-2,-1.830921918E-1
2.640178393E0,4.980107546E-1,-5.419528857E-2,-1.873532385E-1
2.642666101E0,4.980107546E-1,-4.567318037E-2,-1.926795542E-1
2.645153809E0,4.980107546E-1,-4.034686089E-2,-1.980058849E-1
2.647641518E0,4.980107546E-1,-3.715106845E-2,-2.033322006E-1
2.650129226E0,4.969455004E-1,-3.608580679E-2,-2.075932473E-1
2.652616934E0,4.937497079E-1,-3.715106845E-2,-2.118543088E-1
2.655104643E0,4.894886315E-1,-4.141212255E-2,-2.150501013E-1
2.657592351E0,4.830970466E-1,-4.886896908E-2,-2.171806246E-1
2.660080059E0,4.745749533E-1,-5.739107728E-2,-2.182458937E-1
2.662567768E0,4.649875760E-1,-6.910897791E-2,-2.193111479E-1
2.665055476E0,4.522044063E-1,-8.295740932E-2,-2.193111479E-1
2.667543184E0,4.372907281E-1,-9.787109494E-2,-2.193111479E-1
2.670030893E0,4.202465117E-1,-1.149153188E-1,-2.182458937E-1
2.672518601E0,4.032022953E-1,-1.319595277E-1,-2.161153555E-1
2.675006309E0,3.850927949E-1,-1.511342824E-1,-2.129195631E-1
2.677494018E0,3.648527861E-1,-1.703090221E-1,-2.075932473E-1
2.679981674E0,3.467433155E-1,-1.916143000E-1,-2.001364082E-1
2.682469330E0,3.275685608E-1,-2.139848322E-1,-1.916143000E-1
2.684956987E0,3.115896285E-1,-2.352901101E-1,-1.820269227E-1
2.687444643E0,2.956106663E-1,-2.565953732E-1,-1.703090221E-1
2.689932299E0,2.817622423E-1,-2.757701278E-1,-1.575258672E-1
2.692419955E0,2.700443268E-1,-2.928143442E-1,-1.436774284E-1
2.694907612E0,2.583264410E-1,-3.087933064E-1,-1.298290044E-1
2.697395268E0,2.498043180E-1,-3.226417303E-1,-1.149153188E-1
2.699882924E0,2.434127480E-1,-3.311638236E-1,-1.000016257E-1
2.702370580E0,2.380864173E-1,-3.386206925E-1,-8.402267098E-2
2.704858237E0,2.380864173E-1,-3.407512009E-1,-6.910897791E-2
2.707345893E0,2.402169555E-1,-3.396859467E-1,-5.419528857E-2
2.709833549E0,2.476737946E-1,-3.343596160E-1,-4.034686089E-2
2.712321205E0,2.593916953E-1,-3.258375227E-1,-2.649843320E-2
2.714808862E0,2.743053734E-1,-3.130543530E-1,-1.584579609E-2
2.717296518E0,2.956106663E-1,-2.981406748E-1,-7.323687430E-3
2.719784174E0,3.201117218E-1,-2.800311744E-1,-9.321057005E-4
2.722271830E0,3.478085697E-1,-2.597911656E-1,2.263685223E-3
2.724759487E0,3.787012100E-1,-2.384859025E-1,2.263685223E-3
2.727247143E0,4.117243886E-1,-2.161153555E-1,-9.321057005E-4
2.729734799E0,4.458128214E-1,-1.926795542E-1,-6.258423906E-3
2.732222455E0,4.820317924E-1,-1.692437679E-1,-1.371526904E-2
2.734710112E0,5.182507634E-1,-1.458079666E-1,-2.436790615E-2
2.737197768E0,5.534044504E-1,-1.245026886E-1,-3.608580679E-2
2.739685424E0,5.874928832E-1,-1.042626798E-1,-4.780370742E-2
2.742173080E0,6.194508076E-1,-8.615319431E-2,-6.058686972E-2
2.744660737E0,6.482129097E-1,-6.804371625E-2,-7.230477035E-2
2.747148393E0,6.727139950E-1,-5.099949613E-2,-8.189214021E-2
2.749636049E0,6.918887496E-1,-3.608580679E-2,-9.147951752E-2
2.752123757E0,7.068024278E-1,-2.223737910E-2,-9.893636405E-2
2.754611466E0,7.153245211E-1,-1.265000552E-2,-1.053279415E-1
2.757099174E0,7.185203433E-1,-5.193160381E-3,-1.095889956E-1
2.759586882E0,7.163897753E-1,-1.997369342E-3,-1.138500497E-1
2.762074591E0,7.078676820E-1,-4.127896391E-3,-1.181111038E-1
2.764562299E0,6.918887496E-1,-1.051947847E-2,-1.202416345E-1
2.767050007E0,6.727139950E-1,-2.330264263E-2,-1.223721579E-1
2.769537716E0,6.482129097E-1,-4.034686089E-2,-1.234374270E-1
2.772025424E0,6.194508076E-1,-6.378266215E-2,-1.245026886E-1
2.774513132E0,5.885581374E-1,-9.147951752E-2,-1.234374270E-1
2.777000841E0,5.555350184E-1,-1.223721579E-1,-1.213068962E-1
2.779488549E0,5.214465261E-1,-1.564605981E-1,-1.191763729E-1
2.781976257E0,4.862928391E-1,-1.905490309E-1,-1.170458421E-1
2.784463966E0,4.522044063E-1,-2.257027328E-1,-1.138500497E-1
2.786951674E0,4.202465117E-1,-2.597911656E-1,-1.095889956E-1
2.789439382E0,3.904191256E-1,-2.938795984E-1,-1.053279415E-1
2.791927091E0,3.627222776E-1,-3.258375227E-1,-1.010668874E-1
2.794414799E0,3.403517306E-1,-3.545996249E-1,-9.680583328E-2
2.796902507E0,3.211769760E-1,-3.801659644E-1,-9.361004084E-2
2.799390216E0,3.062632978E-1,-4.014712274E-1,-9.041424841E-2
2.801877924E0,2.977411747E-1,-4.185154438E-1,-8.615319431E-2
2.804365632E0,2.945453823E-1,-4.302333593E-1,-8.402267098E-2
2.806853341E0,2.966759205E-1,-4.387554526E-1,-8.082687855E-2
2.809341049E0,3.041327596E-1,-4.408859909E-1,-7.763108611E-2
2.811828757E0,3.169159293E-1,-4.387554526E-1,-7.550056279E-2
2.814316466E0,3.339601457E-1,-4.312986135E-1,-7.230477035E-2
2.816804174E0,3.552654386E-1,-4.195807278E-1,-6.910897791E-2
2.819291882E0,3.818970025E-1,-4.046670198E-1,-6.591318548E-2
2.821779591E0,4.127896726E-1,-3.865575492E-1,-6.378266215E-2
2.824267299E0,4.447475672E-1,-3.641870022E-1,-6.165213138E-2
2.826755007E0,4.820317924E-1,-3.396859467E-1,-6.165213138E-2
2.829242716E0,5.203812718E-1,-3.141196072E-1,-6.165213138E-2
2.831730424E0,5.597960353E-1,-2.874880135E-1,-6.271740049E-2
2.834218132E0,5.992107987E-1,-2.597911656E-1,-6.591318548E-2
2.836705841E0,6.396908164E-1,-2.331595868E-1,-6.804371625E-2
2.839193549E0,6.801708341E-1,-2.075932473E-1,-7.123950869E-2
2.841681257E0,7.185203433E-1,-1.809616536E-1,-7.337003201E-2
2.844168966E0,7.558045387E-1,-1.564605981E-1,-7.656582445E-2
2.846656674E0,7.888277173E-1,-1.330247968E-1,-7.976161689E-2
2.849144382E0,8.175898194E-1,-1.106542572E-1,-8.295740932E-2
2.851632091E0,8.431561589E-1,-9.041424841E-2,-8.721846342E-2
2.854119799E0,8.623309135E-1,-7.230477035E-2,-9.041424841E-2
2.856607507E0,8.761793375E-1,-5.739107728E-2,-9.361004084E-2
2.859095216E0,8.847014308E-1,-4.567318037E-2,-9.574057162E-2
2.861582924E0,8.878972530E-1,-3.928159550E-2,-9.893636405E-2
2.864070632E0,8.857667446E-1,-3.715106845E-2,-1.010668874E-1
2.866558341E0,8.761793375E-1,-3.928159550E-2,-1.031974182E-1
2.869046049E0,8.612656593E-1,-4.567318037E-2,-1.042626798E-1
2.871533757E0,8.420909047E-1,-5.739107728E-2,-1.053279415E-1
2.874021466E0,8.165245652E-1,-7.123950869E-2,-1.063932031E-1
2.876509174E0,7.866972089E-1,-8.828372508E-2,-1.063932031E-1
2.878996882E0,7.515435219E-1,-1.095889956E-1,-1.053279415E-1
2.881484591E0,7.121287584E-1,-1.319595277E-1,-1.053279415E-1
2.883972299E0,6.695181727E-1,-1.575258672E-1,-1.042626798E-1
2.886460007E0,6.258423924E-1,-1.820269227E-1,-1.031974182E-1
2.888947716E0,5.789707899E-1,-2.065279931E-1,-1.010668874E-1
2.891435424E0,5.331644416E-1,-2.310290486E-1,-1.000016257E-1
2.893923132E0,4.884233773E-1,-2.533995807E-1,-9.893636405E-2
2.896410841E0,4.436823130E-1,-2.757701278E-1,-9.680583328E-2
2.898898549E0,4.021370113E-1,-2.949448824E-1,-9.467530251E-2
2.901386257E0,3.627222776E-1,-3.130543530E-1,-9.254477918E-2
2.903873966E0,3.265033066E-1,-3.269027770E-1,-9.147951752E-2
2.906361674E0,2.934801280E-1,-3.375554085E-1,-9.041424841E-2
2.908849382E0,2.636527419E-1,-3.439469934E-1,-9.041424841E-2
2.911337091E0,2.391516864E-1,-3.450122476E-1,-8.934898674E-2
2.913824799E0,2.167811543E-1,-3.450122476E-1,-8.721846342E-2
2.916312507E0,1.997369379E-1,-3.418164849E-1,-8.721846342E-2
2.918800216E0,1.858884990E-1,-3.354249001E-1,-8.615319431E-2
2.921287924E0,1.763011366E-1,-3.279680312E-1,-8.508793265E-2
2.923775632E0,1.688442826E-1,-3.183806837E-1,-8.508793265E-2
2.926263341E0,1.656484902E-1,-3.077280223E-1,-8.615319431E-2
2.928751049E0,1.645832360E-1,-2.970753908E-1,-8.828372508E-2
2.931238757E0,1.667137593E-1,-2.864227593E-1,-9.041424841E-2
2.933726466E0,1.688442826E-1,-2.768353820E-1,-9.254477918E-2
2.936214174E0,1.741705984E-1,-2.661827505E-1,-9.574057162E-2
2.938701882E0,1.805621833E-1,-2.576606572E-1,-9.787109494E-2
2.941189591E0,1.869537681E-1,-2.512690723E-1,-1.000016257E-1
2.943677299E0,1.933453530E-1,-2.470080107E-1,-1.010668874E-1
2.946165007E0,1.997369379E-1,-2.448774725E-1,-1.000016257E-1
2.948652716E0,2.061285079E-1,-2.448774725E-1,-1.000016257E-1
2.951140424E0,2.103895694E-1,-2.470080107E-1,-9.893636405E-2
2.953628132E0,2.135853618E-1,-2.512690723E-1,-9.680583328E-2
2.956115841E0,2.157158852E-1,-2.565953732E-1,-9.361004084E-2
2.958603549E0,2.146506310E-1,-2.619217038E-1,-9.041424841E-2
2.961091257E0,2.125200927E-1,-2.683132887E-1,-8.615319431E-2
2.963578966E0,2.082590461E-1,-2.747048736E-1,-8.189214021E-2
2.966066674E0,2.008021921E-1,-2.810964286E-1,-7.869634777E-2
2.968554382E0,1.912148297E-1,-2.864227593E-1,-7.443529367E-2
2.971042091E0,1.805621833E-1,-2.917490900E-1,-7.123950869E-2
2.973529799E0,1.667137593E-1,-2.970753908E-1,-6.804371625E-2
2.976017507E0,1.518000662E-1,-3.013364673E-1,-6.591318548E-2
2.978505216E0,1.336905807E-1,-3.045322299E-1,-6.378266215E-2
2.980992924E0,1.145158410E-1,-3.055975139E-1,-6.165213138E-2
2.983480632E0,9.427583218E-2,-3.055975139E-1,-5.952160433E-2
2.985968341E0,7.297056168E-2,-3.034669757E-1,-5.739107728E-2
2.988456049E0,4.953476042E-2,-3.002711833E-1,-5.419528857E-2
2.990943757E0,2.716422267E-2,-2.960101366E-1,-5.099949613E-2
2.993431466E0,4.793686327E-3,-2.885532975E-1,-4.673844203E-2
2.995919174E0,-1.757685095E-2,-2.810964286E-1,-4.247738793E-2
2.998406882E0,-3.781685978E-2,-2.725743353E-1,-3.821633384E-2
3.000894591E0,-5.805686861E-2,-2.640522122E-1,-3.395527974E-2
3.003382299E0,-7.829687744E-2,-2.555301189E-1,-3.075948730E-2
3.005870007E0,-9.640636295E-2,-2.470080107E-1,-2.862896025E-2
3.008357716E0,-1.134505793E-1,-2.395511568E-1,-2.862896025E-2
3.010845424E0,-1.304948032E-1,-2.331595868E-1,-2.862896025E-2
3.013333132E0,-1.464737505E-1,-2.278332561E-1,-2.969422378E-2
3.015820841E0,-1.613874435E-1,-2.235722095E-1,-3.289001435E-2
3.018308549E0,-1.763011366E-1,-2.203764170E-1,-3.608580679E-2
3.020796257E0,-1.890842915E-1,-2.182458937E-1,-4.034686089E-2
3.023283966E0,-2.029327303E-1,-2.171806246E-1,-4.354264960E-2
3.025771674E0,-2.135853618E-1,-2.171806246E-1,-4.780370742E-2
3.028259382E0,-2.231727391E-1,-2.182458937E-1,-5.099949613E-2
3.030747091E0,-2.316948473E-1,-2.225069404E-1,-5.419528857E-2
3.033234799E0,-2.380864173E-1,-2.267680019E-1,-5.526055023E-2
3.035722507E0,-2.412822098E-1,-2.342248410E-1,-5.739107728E-2
3.038210216E0,-2.434127480E-1,-2.427469492E-1,-5.952160433E-2
3.040697924E0,-2.434127480E-1,-2.523343265E-1,-6.165213138E-2
3.043185632E0,-2.412822098E-1,-2.640522122E-1,-6.378266215E-2
3.045673341E0,-2.359558940E-1,-2.757701278E-1,-6.697845459E-2
3.048161049E0,-2.284990549E-1,-2.874880135E-1,-6.804371625E-2
3.050648757E0,-2.189116776E-1,-2.981406748E-1,-7.017423958E-2
3.053136466E0,-2.071937770E-1,-3.077280223E-1,-7.123950869E-2
3.055624174E0,-1.933453530E-1,-3.151848912E-1,-7.337003201E-2
3.058111882E0,-1.773663908E-1,-3.215764761E-1,-7.337003201E-2
3.060599591E0,-1.603221744E-1,-3.269027770E-1,-7.550056279E-2
3.063087299E0,-1.422126889E-1,-3.300985694E-1,-7.656582445E-2
3.065575007E0,-1.230379492E-1,-3.311638236E-1,-7.763108611E-2
3.068062716E0,-1.049284711E-1,-3.311638236E-1,-8.082687855E-2
3.070550424E0,-8.468846232E-2,-3.290333152E-1,-8.402267098E-2
3.073038132E0,-6.551371515E-2,-3.247722387E-1,-8.721846342E-2
3.075525841E0,-4.527370632E-2,-3.194459379E-1,-9.041424841E-2
3.078013549E0,-2.609895915E-2,-3.130543530E-1,-9.361004084E-2
3.080501257E0,-7.989477366E-3,-3.034669757E-1,-9.680583328E-2
3.082988966E0,9.054740891E-3,-2.928143442E-1,-9.787109494E-2
3.085476674E0,2.503369562E-2,-2.821617126E-1,-9.893636405E-2
3.087964382E0,3.994738683E-2,-2.683132887E-1,-1.010668874E-1
3.090452091E0,5.379581451E-2,-2.544648647E-1,-1.021321490E-1
3.092939799E0,6.657897681E-2,-2.384859025E-1,-1.042626798E-1
3.095427507E0,7.723161578E-2,-2.225069404E-1,-1.063932031E-1
3.097915216E0,8.468846232E-2,-2.065279931E-1,-1.095889956E-1
3.100402924E0,9.108003974E-2,-1.905490309E-1,-1.127847880E-1
3.102890632E0,9.534109384E-2,-1.756353378E-1,-1.170458421E-1
3.105378341E0,9.747162461E-2,-1.639174372E-1,-1.213068962E-1
3.107866049E0,9.853688627E-2,-1.543300748E-1,-1.245026886E-1
3.110353757E0,9.640636295E-2,-1.458079666E-1,-1.276984811E-1
3.112841466E0,9.321057051E-2,-1.404816359E-1,-1.287637353E-1
3.115329174E0,8.894951642E-2,-1.383511126E-1,-1.287637353E-1
3.117816882E0,8.468846232E-2,-1.383511126E-1,-1.276984811E-1
3.120304591E0,8.042740822E-2,-1.404816359E-1,-1.255679578E-1
3.122792299E0,7.723161578E-2,-1.458079666E-1,-1.213068962E-1
3.125280007E0,7.403582335E-2,-1.532648057E-1,-1.159805804E-1
3.127767716E0,7.190529257E-2,-1.607216448E-1,-1.106542572E-1
3.130255424E0,7.084003091E-2,-1.703090221E-1,-1.053279415E-1
3.132743132E0,6.977476925E-2,-1.820269227E-1,-1.010668874E-1
3.135230841E0,7.084003091E-2,-1.937448233E-1,-9.787109494E-2
3.137718549E0,7.190529257E-2,-2.065279931E-1,-9.467530251E-2
3.140206257E0,7.403582335E-2,-2.193111479E-1,-9.147951752E-2
3.142693966E0,7.723161578E-2,-2.310290486E-1,-8.934898674E-2
3.145181674E0,8.149266988E-2,-2.427469492E-1,-8.828372508E-2
3.147669382E0,8.681898564E-2,-2.533995807E-1,-8.721846342E-2
3.150157091E0,9.108003974E-2,-2.619217038E-1,-8.615319431E-2
3.152644799E0,9.747162461E-2,-2.693785429E-1,-8.508793265E-2
3.155132507E0,1.038632020E-1,-2.725743353E-1,-8.402267098E-2
3.157620216E0,1.102547869E-1,-2.747048736E-1,-8.402267098E-2
3.160107924E0,1.177116334E-1,-2.747048736E-1,-8.402267098E-2
3.162595632E0,1.251684725E-1,-2.725743353E-1,-8.508793265E-2
3.165083341E0,1.347558498E-1,-2.704437971E-1,-8.721846342E-2
3.167571049E0,1.443432271E-1,-2.651174963E-1,-8.934898674E-2
3.170058757E0,1.539305896E-1,-2.597911656E-1,-9.254477918E-2
3.172546466E0,1.656484902E-1,-2.533995807E-1,-9.680583328E-2
3.175034174E0,1.784316599E-1,-2.459427416E-1,-1.021321490E-1
3.177521882E0,1.901495606E-1,-2.395511568E-1,-1.074584723E-1
3.180009591E0,2.039979845E-1,-2.331595868E-1,-1.138500497E-1
3.182497299E0,2.167811543E-1,-2.267680019E-1,-1.191763729E-1
3.184985007E0,2.306295782E-1,-2.203764170E-1,-1.234374270E-1
3.187472716E0,2.434127480E-1,-2.129195631E-1,-1.298290044E-1
3.189960424E0,2.551306486E-1,-2.075932473E-1,-1.330247968E-1
3.192448132E0,2.679138184E-1,-2.012016773E-1,-1.362205893E-1
3.194935841E0,2.785664499E-1,-1.958753467E-1,-1.394163817E-1
3.197423549E0,2.892190814E-1,-1.905490309E-1,-1.415469050E-1
3.199911257E0,2.998717129E-1,-1.862879843E-1,-1.436774284E-1
3.202398966E0,3.094590902E-1,-1.809616536E-1,-1.436774284E-1
3.204886674E0,3.169159293E-1,-1.756353378E-1,-1.447426975E-1
3.207374382E0,3.243727684E-1,-1.703090221E-1,-1.436774284E-1
3.209862091E0,3.307643533E-1,-1.660479754E-1,-1.436774284E-1
3.212349799E0,3.371559381E-1,-1.639174372E-1,-1.436774284E-1
3.214837507E0,3.424822688E-1,-1.617869139E-1,-1.415469050E-1
3.217325216E0,3.499391079E-1,-1.628521830E-1,-1.404816359E-1
3.219812924E0,3.573959470E-1,-1.671132296E-1,-1.394163817E-1
3.222300632E0,3.691138625E-1,-1.798963994E-1,-1.383511126E-1
3.224788341E0,3.861580789E-1,-1.980058849E-1,-1.415469050E-1
3.227276049E0,4.074633420E-1,-2.139848322E-1,-1.490037590E-1
3.229763705E0,4.266380966E-1,-2.150501013E-1,-1.596563905E-1
3.232251362E0,4.426170290E-1,-2.043974549E-1,-1.692437679E-1
3.234739018E0,4.522044063E-1,-1.841574460E-1,-1.756353378E-1
3.237226674E0,4.564654827E-1,-1.596563905E-1,-1.756353378E-1
3.239714330E0,4.596612751E-1,-1.340900660E-1,-1.724395454E-1
3.242201987E0,4.628570378E-1,-1.117195264E-1,-1.671132296E-1
3.244689643E0,4.639223218E-1,-9.361004084E-2,-1.585911214E-1
3.247177299E0,4.639223218E-1,-8.189214021E-2,-1.490037590E-1
3.249664955E0,4.617917836E-1,-7.443529367E-2,-1.404816359E-1
3.252152612E0,4.585959911E-1,-7.230477035E-2,-1.308942735E-1
3.254640268E0,4.522044063E-1,-7.550056279E-2,-1.223721579E-1
3.257127924E0,4.458128214E-1,-8.189214021E-2,-1.138500497E-1
3.259615580E0,4.383559823E-1,-9.147951752E-2,-1.053279415E-1
3.262103237E0,4.298338890E-1,-1.042626798E-1,-9.574057162E-2
3.264590893E0,4.202465117E-1,-1.181111038E-1,-8.508793265E-2
3.267078549E0,4.106591344E-1,-1.298290044E-1,-7.443529367E-2
3.269566205E0,3.978759646E-1,-1.404816359E-1,-6.271740049E-2
3.272053862E0,3.840275407E-1,-1.479384899E-1,-5.206476152E-2
3.274541518E0,3.701791167E-1,-1.532648057E-1,-4.141212255E-2
3.277029174E0,3.563306928E-1,-1.553953290E-1,-3.182475269E-2
3.279516830E0,3.424822688E-1,-1.553953290E-1,-2.436790615E-2
3.282004487E0,3.275685608E-1,-1.543300748E-1,-1.584579609E-2
3.284492143E0,3.126548827E-1,-1.500690132E-1,-9.454214945E-3
3.286979799E0,2.966759205E-1,-1.447426975E-1,-4.127896391E-3
3.289467455E0,2.817622423E-1,-1.372858584E-1,1.198421582E-3
3.291955112E0,2.657832801E-1,-1.287637353E-1,6.524739787E-3
3.294442768E0,2.508696020E-1,-1.181111038E-1,1.078579482E-2
3.296930424E0,2.348906398E-1,-1.063932031E-1,1.504684892E-2
3.299418132E0,2.189116776E-1,-9.467530251E-2,1.930790395E-2
3.301905841E0,2.029327303E-1,-8.295740932E-2,2.356895804E-2
3.304393549E0,1.869537681E-1,-7.230477035E-2,2.996053919E-2
3.306881257E0,1.699095517E-1,-6.165213138E-2,3.528685868E-2
3.309368966E0,1.549958587E-1,-5.313002318E-2,4.061317816E-2
3.311856674E0,1.432779580E-1,-4.567318037E-2,4.700475931E-2
3.314344382E0,1.315600574E-1,-4.034686089E-2,5.339634046E-2
3.316832091E0,1.219726875E-1,-3.715106845E-2,5.978792161E-2
3.319319799E0,1.145158410E-1,-3.608580679E-2,6.511423737E-2
3.321807507E0,1.102547869E-1,-3.715106845E-2,7.044056058E-2
3.324295216E0,1.091895252E-1,-3.821633384E-2,7.257108390E-2
3.326782924E0,1.091895252E-1,-3.928159550E-2,7.470161468E-2
3.329270632E0,1.123853177E-1,-3.928159550E-2,7.363634557E-2
3.331758341E0,1.187768951E-1,-4.034686089E-2,6.937529147E-2
3.334246049E0,1.262337416E-1,-4.034686089E-2,6.298371404E-2
3.336733757E0,1.358211190E-1,-3.928159550E-2,5.339634046E-2
3.339221466E0,1.475390196E-1,-3.821633384E-2,4.061317816E-2
3.341709174E0,1.613874435E-1,-3.608580679E-2,2.356895804E-2
3.344196882E0,1.763011366E-1,-3.289001435E-2,6.524739787E-3
3.346684591E0,1.933453530E-1,-2.969422378E-2,-1.265000552E-2
3.349172299E0,2.103895694E-1,-2.543316968E-2,-3.289001435E-2
3.351660007E0,2.284990549E-1,-2.117211558E-2,-5.099949613E-2
3.354147716E0,2.444780022E-1,-1.797632314E-2,-7.017423958E-2
3.356635424E0,2.604569495E-1,-1.478053257E-2,-8.721846342E-2
3.359123132E0,2.753706574E-1,-1.158474199E-2,-1.021321490E-1
3.361610841E0,2.881538272E-1,-1.051947847E-2,-1.170458421E-1
3.364098549E0,2.988064587E-1,-1.051947847E-2,-1.298290044E-1
3.366586257E0,3.083938360E-1,-1.158474199E-2,-1.404816359E-1
3.369073966E0,3.169159293E-1,-1.478053257E-2,-1.479384899E-1
3.371561674E0,3.233075142E-1,-1.904158667E-2,-1.553953290E-1
3.374049382E0,3.265033066E-1,-2.436790615E-2,-1.585911214E-1
3.376537091E0,3.286338449E-1,-2.969422378E-2,-1.607216448E-1
3.379024799E0,3.307643533E-1,-3.502054140E-2,-1.596563905E-1
3.381512507E0,3.296990991E-1,-4.141212255E-2,-1.564605981E-1
3.384000216E0,3.296990991E-1,-4.673844203E-2,-1.521995366E-1
3.386487924E0,3.286338449E-1,-4.993423447E-2,-1.458079666E-1
3.388975632E0,3.286338449E-1,-5.313002318E-2,-1.362205893E-1
3.391463341E0,3.275685608E-1,-5.419528857E-2,-1.266332120E-1
3.393951049E0,3.296990991E-1,-5.419528857E-2,-1.149153188E-1
3.396438757E0,3.339601457E-1,-5.313002318E-2,-1.031974182E-1
3.398926466E0,3.392864764E-1,-4.993423447E-2,-9.041424841E-2
3.401414174E0,3.467433155E-1,-4.460791498E-2,-7.869634777E-2
3.403901882E0,3.552654386E-1,-3.928159550E-2,-6.804371625E-2
3.406389591E0,3.648527861E-1,-3.395527974E-2,-5.845634267E-2
3.408877299E0,3.755054474E-1,-2.649843320E-2,-5.099949613E-2
3.411365007E0,3.861580789E-1,-1.904158667E-2,-4.673844203E-2
3.413852716E0,3.978759646E-1,-1.265000552E-2,-4.354264960E-2
3.416340424E0,4.095938802E-1,-7.323687430E-3,-4.354264960E-2
3.418828132E0,4.191812575E-1,-3.062632866E-3,-4.460791498E-2
3.421315841E0,4.287686050E-1,-9.321057005E-4,-4.673844203E-2
3.423803549E0,4.372907281E-1,2.263685223E-3,-4.993423447E-2
3.426291257E0,4.447475672E-1,3.328948980E-3,-5.419528857E-2
3.428778966E0,4.500738978E-1,4.394212738E-3,-5.952160433E-2
3.431266674E0,4.532696903E-1,4.394212738E-3,-6.591318548E-2
3.433754382E0,4.564654827E-1,5.459476262E-3,-7.443529367E-2
3.436242091E0,4.575307369E-1,4.394212738E-3,-8.082687855E-2
3.438729799E0,4.575307369E-1,3.328948980E-3,-8.934898674E-2
3.441217507E0,4.543349445E-1,1.331579551E-4,-9.787109494E-2
3.443705216E0,4.511391521E-1,-4.127896391E-3,-1.053279415E-1
3.446192924E0,4.436823130E-1,-8.388951421E-3,-1.127847880E-1
3.448680632E0,4.351601899E-1,-1.158474199E-2,-1.191763729E-1
3.451168341E0,4.245075583E-1,-1.691105962E-2,-1.255679578E-1
3.453656049E0,4.127896726E-1,-2.117211558E-2,-1.308942735E-1
3.456143757E0,4.000065029E-1,-2.436790615E-2,-1.351553202E-1
3.458631466E0,3.861580789E-1,-2.862896025E-2,-1.383511126E-1
3.461119174E0,3.723096550E-1,-3.289001435E-2,-1.415469050E-1
3.463606882E0,3.573959470E-1,-3.608580679E-2,-1.436774284E-1
3.466094591E0,3.414169848E-1,-4.034686089E-2,-1.458079666E-1
3.468582299E0,3.254380524E-1,-4.354264960E-2,-1.479384899E-1
3.471070007E0,3.083938360E-1,-4.673844203E-2,-1.490037590E-1
3.473557716E0,2.902843356E-1,-4.886896908E-2,-1.500690132E-1
3.476045424E0,2.711096108E-1,-5.099949613E-2,-1.511342824E-1
3.478533132E0,2.519348562E-1,-5.313002318E-2,-1.532648057E-1
3.481020841E0,2.338253707E-1,-5.419528857E-2,-1.543300748E-1
3.483508549E0,2.146506310E-1,-5.419528857E-2,-1.543300748E-1
3.485996257E0,1.976063997E-1,-5.419528857E-2,-1.553953290E-1
3.488483966E0,1.816274524E-1,-5.099949613E-2,-1.553953290E-1
3.490971674E0,1.667137593E-1,-4.780370742E-2,-1.543300748E-1
3.493459382E0,1.539305896E-1,-4.354264960E-2,-1.521995366E-1
3.495947091E0,1.422126889E-1,-3.715106845E-2,-1.490037590E-1
3.498434799E0,1.315600574E-1,-2.862896025E-2,-1.447426975E-1
3.500922507E0,1.209074259E-1,-1.797632314E-2,-1.383511126E-1
3.503410216E0,1.123853177E-1,-6.258423906E-3,-1.319595277E-1
3.505897924E0,1.049284711E-1,6.524739787E-3,-1.255679578E-1
3.508385632E0,9.747162461E-2,1.930790395E-2,-1.191763729E-1
3.510873341E0,9.001477808E-2,3.315633163E-2,-1.117195264E-1
3.513361049E0,8.149266988E-2,4.593949392E-2,-1.053279415E-1
3.515848757E0,7.510108501E-2,5.765739456E-2,-9.787109494E-2
3.518336466E0,6.657897681E-2,6.937529147E-2,-9.147951752E-2
3.520824174E0,5.912213027E-2,7.896266878E-2,-8.508793265E-2
3.523311882E0,5.166528746E-2,8.855003864E-2,-7.869634777E-2
3.525799591E0,4.420844093E-2,9.707214683E-2,-7.443529367E-2
3.528287299E0,3.568633273E-2,1.077247858E-1,-7.017423958E-2
3.530775007E0,2.716422267E-2,1.162468940E-1,-6.697845459E-2
3.533262716E0,1.757685095E-2,1.237037405E-1,-6.378266215E-2
3.535750424E0,9.054740891E-3,1.311605871E-1,-6.165213138E-2
3.538238132E0,-5.326318205E-4,1.386174262E-1,-5.952160433E-2
3.540725841E0,-1.012000442E-2,1.450090110E-1,-5.845634267E-2
3.543213549E0,-1.864211448E-2,1.492700726E-1,-5.845634267E-2
3.545701257E0,-2.716422267E-2,1.535311192E-1,-5.632581562E-2
3.548188966E0,-3.568633273E-2,1.545963883E-1,-5.419528857E-2
3.550676674E0,-4.314317927E-2,1.535311192E-1,-5.313002318E-2
3.553164382E0,-5.060002208E-2,1.503353268E-1,-5.099949613E-2
3.555652091E0,-5.699160323E-2,1.439437568E-1,-4.993423447E-2
3.558139799E0,-6.338318437E-2,1.354216337E-1,-4.780370742E-2
3.560627507E0,-6.764423847E-2,1.258342713E-1,-4.567318037E-2
3.563115216E0,-7.190529257E-2,1.151816323E-1,-4.354264960E-2
3.565602924E0,-7.510108501E-2,1.034637317E-1,-4.034686089E-2
3.568090632E0,-7.616634667E-2,9.068056941E-2,-3.715106845E-2
3.570578341E0,-7.616634667E-2,7.470161468E-2,-3.289001435E-2
3.573066049E0,-7.403582335E-2,5.872265995E-2,-2.862896025E-2
3.575553757E0,-6.977476925E-2,4.061317816E-2,-2.436790615E-2
3.578041466E0,-6.231792271E-2,2.143843099E-2,-1.904158667E-2
3.580529174E0,-5.379581451E-2,1.198421582E-3,-1.265000552E-2
3.583016882E0,-4.314317927E-2,-1.797632314E-2,-6.258423906E-3
3.585504591E0,-3.036001325E-2,-3.715106845E-2,1.331579551E-4
3.587992299E0,-1.864211448E-2,-5.419528857E-2,7.590003312E-3
3.590480007E0,-3.728422802E-3,-6.910897791E-2,1.398158539E-2
3.592967716E0,1.118526794E-2,-8.082687855E-2,2.143843099E-2
3.595455424E0,2.609895915E-2,-9.041424841E-2,2.783001214E-2
3.597943132E0,4.314317927E-2,-9.574057162E-2,3.422159329E-2
3.600430841E0,5.912213027E-2,-9.893636405E-2,3.954791278E-2
3.602918549E0,7.510108501E-2,-9.893636405E-2,4.487423226E-2
3.605406257E0,9.214530140E-2,-9.574057162E-2,4.807002097E-2
3.607893966E0,1.070589945E-1,-9.041424841E-2,5.020054802E-2
3.610381674E0,1.209074259E-1,-8.189214021E-2,5.020054802E-2
3.612869382E0,1.336905807E-1,-7.230477035E-2,4.913528636E-2
3.615357091E0,1.443432271E-1,-6.271740049E-2,4.487423226E-2
3.617844799E0,1.528653353E-1,-5.313002318E-2,3.848264739E-2
3.620332507E0,1.581916511E-1,-4.247738793E-2,3.102580272E-2
3.622820216E0,1.613874435E-1,-3.289001435E-2,2.143843099E-2
3.625307924E0,1.613874435E-1,-2.330264263E-2,1.185105834E-2
3.627795632E0,1.581916511E-1,-1.584579609E-2,2.263685223E-3
3.630283341E0,1.518000662E-1,-7.323687430E-3,-7.323687430E-3
3.632771049E0,1.432779580E-1,-9.321057005E-4,-1.478053257E-2
3.635258757E0,1.315600574E-1,4.394212738E-3,-1.904158667E-2
3.637746466E0,1.166463718E-1,8.655266836E-3,-2.330264263E-2
3.640234174E0,9.960214794E-2,1.185105834E-2,-2.436790615E-2
3.642721882E0,8.042740822E-2,1.291632187E-2,-2.330264263E-2
3.645209591E0,5.805686861E-2,1.291632187E-2,-2.010685205E-2
3.647697299E0,3.568633273E-2,9.720530361E-3,-1.584579609E-2
3.650185007E0,1.012000442E-2,5.459476262E-3,-9.454214945E-3
3.652672716E0,-1.651158556E-2,-1.997369342E-3,-1.997369342E-3
3.655160424E0,-4.314317927E-2,-1.051947847E-2,7.590003312E-3
3.657648132E0,-7.084003091E-2,-1.904158667E-2,1.717737690E-2
3.660135841E0,-9.747162461E-2,-2.862896025E-2,2.676474862E-2
3.662623549E0,-1.230379492E-1,-3.928159550E-2,3.635212034E-2
3.665111257E0,-1.486042738E-1,-4.886896908E-2,4.593949392E-2
3.667598966E0,-1.720400751E-1,-5.952160433E-2,5.446160212E-2
3.670086674E0,-1.933453530E-1,-6.804371625E-2,6.191844866E-2
3.672574382E0,-2.114548385E-1,-7.656582445E-2,6.831002980E-2
3.675062091E0,-2.263685167E-1,-8.402267098E-2,7.257108390E-2
3.677549799E0,-2.370211631E-1,-9.041424841E-2,7.576687634E-2
3.680037507E0,-2.455432713E-1,-9.467530251E-2,7.789740711E-2
3.682525216E0,-2.487390637E-1,-9.893636405E-2,7.896266878E-2
3.685012924E0,-2.487390637E-1,-1.010668874E-1,8.002793044E-2
3.687500632E0,-2.455432713E-1,-1.031974182E-1,8.109319210E-2
3.689988341E0,-2.391516864E-1,-1.042626798E-1,8.109319210E-2
3.692476049E0,-2.295643091E-1,-1.031974182E-1,8.109319210E-2
3.694963757E0,-2.178464085E-1,-1.010668874E-1,8.109319210E-2
3.697451466E0,-2.050632536E-1,-9.893636405E-2,8.109319210E-2
3.699939174E0,-1.890842915E-1,-9.467530251E-2,8.002793044E-2
3.702426882E0,-1.731053442E-1,-8.934898674E-2,8.002793044E-2
3.704914591E0,-1.549958587E-1,-8.615319431E-2,7.789740711E-2
3.707402299E0,-1.368863732E-1,-8.189214021E-2,7.683213800E-2
3.709890007E0,-1.187768951E-1,-7.976161689E-2,7.576687634E-2
3.712377716E0,-9.960214794E-2,-7.656582445E-2,7.363634557E-2
3.714865424E0,-8.362319320E-2,-7.550056279E-2,7.150582224E-2
3.717353132E0,-6.657897681E-2,-7.443529367E-2,7.044056058E-2
3.719840841E0,-5.060002208E-2,-7.550056279E-2,6.831002980E-2
3.722328549E0,-3.675159439E-2,-7.763108611E-2,6.617950648E-2
3.724816257E0,-2.396843210E-2,-7.869634777E-2,6.298371404E-2
3.727303966E0,-1.225053146E-2,-7.869634777E-2,5.978792161E-2
3.729791674E0,-4.793686327E-3,-7.763108611E-2,5.446160212E-2
3.732279382E0,3.728422802E-3,-7.656582445E-2,5.020054802E-2
3.734767091E0,9.054740891E-3,-7.443529367E-2,4.487423226E-2
3.737254799E0,1.331579592E-2,-7.230477035E-2,3.954791278E-2
3.739742507E0,1.757685095E-2,-7.017423958E-2,3.422159329E-2
3.742230216E0,1.970737800E-2,-6.804371625E-2,2.783001214E-2
3.744717924E0,2.183790505E-2,-6.484792382E-2,2.143843099E-2
3.747205632E0,2.290316857E-2,-6.271740049E-2,1.930790395E-2
3.749693341E0,2.503369562E-2,-5.952160433E-2,1.824264042E-2
3.752181049E0,2.609895915E-2,-5.739107728E-2,1.930790395E-2
3.754668757E0,2.716422267E-2,-5.632581562E-2,2.250369452E-2
3.757156466E0,2.822948620E-2,-5.632581562E-2,2.889527567E-2
3.759644174E0,2.822948620E-2,-5.526055023E-2,3.741738573E-2
3.762131882E0,2.609895915E-2,-5.526055023E-2,4.913528636E-2
3.764619591E0,2.503369562E-2,-5.526055023E-2,5.978792161E-2
3.767107299E0,2.290316857E-2,-5.632581562E-2,7.257108390E-2
3.769595007E0,2.077264152E-2,-5.632581562E-2,8.428898454E-2
3.772082716E0,1.864211448E-2,-5.739107728E-2,9.707214683E-2
3.774570424E0,1.438105945E-2,-5.845634267E-2,1.098553166E-1
3.777058132E0,1.225053146E-2,-5.952160433E-2,1.215732098E-1
3.779545841E0,1.012000442E-2,-6.058686972E-2,1.322258562E-1
3.782033549E0,6.924213842E-3,-6.271740049E-2,1.418132186E-1
3.784521257E0,3.728422802E-3,-6.484792382E-2,1.492700726E-1
3.787008966E0,5.326318205E-4,-6.697845459E-2,1.567269117E-1
3.789496674E0,-2.663159044E-3,-7.017423958E-2,1.609879732E-1
3.791984382E0,-4.793686327E-3,-7.443529367E-2,1.641837656E-1
3.794472091E0,-6.924213842E-3,-7.869634777E-2,1.673795432E-1
3.796959799E0,-1.012000442E-2,-8.295740932E-2,1.695100814E-1
3.799447507E0,-1.331579592E-2,-8.721846342E-2,1.705753356E-1
3.801935216E0,-1.651158556E-2,-8.934898674E-2,1.727058738E-1
3.804422924E0,-2.077264152E-2,-9.147951752E-2,1.737711281E-1
3.806910632E0,-2.503369562E-2,-9.041424841E-2,1.759016514E-1
3.809398341E0,-2.929474972E-2,-8.828372508E-2,1.759016514E-1
3.811886049E0,-3.355580568E-2,-8.402267098E-2,1.759016514E-1
3.814373757E0,-3.675159439E-2,-7.976161689E-2,1.748363972E-1
3.816861466E0,-3.994738683E-2,-7.443529367E-2,1.737711281E-1
3.819349174E0,-4.314317927E-2,-6.804371625E-2,1.716406047E-1
3.821836882E0,-4.420844093E-2,-6.058686972E-2,1.673795432E-1
3.824324591E0,-4.633896798E-2,-5.206476152E-2,1.620532274E-1
3.826812299E0,-4.633896798E-2,-4.354264960E-2,1.567269117E-1
3.829300007E0,-4.633896798E-2,-3.395527974E-2,1.503353268E-1
3.831787716E0,-4.420844093E-2,-2.543316968E-2,1.450090110E-1
3.834275424E0,-4.207791388E-2,-1.691105962E-2,1.375521719E-1
3.836763132E0,-3.781685978E-2,-9.454214945E-3,1.300953180E-1
3.839250841E0,-3.249054030E-2,-1.997369342E-3,1.226384789E-1
3.841738549E0,-2.822948620E-2,5.459476262E-3,1.151816323E-1
3.844226257E0,-2.290316857E-2,1.185105834E-2,1.066595241E-1
3.846713966E0,-1.757685095E-2,1.824264042E-2,9.813741595E-2
3.849201674E0,-1.225053146E-2,2.250369452E-2,8.748477697E-2
3.851689382E0,-6.924213842E-3,2.676474862E-2,7.789740711E-2
3.854177091E0,-2.663159044E-3,2.996053919E-2,6.617950648E-2
3.856664799E0,5.326318205E-4,3.102580272E-2,5.233107507E-2
3.859152507E0,4.793686327E-3,3.102580272E-2,4.061317816E-2
3.861640216E0,6.924213842E-3,2.889527567E-2,3.102580272E-2
3.864127924E0,1.012000442E-2,2.569948509E-2,2.037316747E-2
3.866615632E0,1.225053146E-2,2.037316747E-2,1.185105834E-2
3.869103341E0,1.438105945E-2,1.398158539E-2,5.459476262E-3
3.871591049E0,1.438105945E-2,5.459476262E-3,1.198421582E-3
3.874078757E0,1.438105945E-2,-6.258423906E-3,-9.321057005E-4
3.876566466E0,1.225053146E-2,-1.904158667E-2,-1.997369342E-3
3.879054174E0,7.989477366E-3,-3.608580679E-2,-1.997369342E-3
3.881541882E0,1.597895520E-3,-5.419528857E-2,-9.321057005E-4
3.884029591E0,-5.858949851E-3,-7.443529367E-2,1.198421582E-3
3.886517299E0,-1.544632297E-2,-9.680583328E-2,4.394212738E-3
3.889005007E0,-2.503369562E-2,-1.181111038E-1,6.524739787E-3
3.891492716E0,-3.462106735E-2,-1.383511126E-1,1.078579482E-2
3.893980424E0,-4.420844093E-2,-1.575258672E-1,1.398158539E-2
3.896468132E0,-5.379581451E-2,-1.745700836E-1,1.824264042E-2
3.898955789E0,-6.231792271E-2,-1.894837767E-1,2.143843099E-2
3.901443445E0,-6.977476925E-2,-2.012016773E-1,2.463422157E-2
3.903931101E0,-7.616634667E-2,-2.097237855E-1,2.676474862E-2
3.906418757E0,-8.042740822E-2,-2.150501013E-1,2.889527567E-2
3.908906414E0,-8.255793154E-2,-2.193111479E-1,2.889527567E-2
3.911394070E0,-8.255793154E-2,-2.203764170E-1,2.889527567E-2
3.913881726E0,-7.936213911E-2,-2.182458937E-1,2.783001214E-2
3.916369382E0,-7.403582335E-2,-2.129195631E-1,2.676474862E-2
3.918857039E0,-6.657897681E-2,-2.054627240E-1,2.463422157E-2
3.921344695E0,-5.592634156E-2,-1.958753467E-1,2.356895804E-2
3.923832351E0,-4.314317927E-2,-1.830921918E-1,2.250369452E-2
3.926320007E0,-2.929474972E-2,-1.681784987E-1,2.037316747E-2
3.928807664E0,-1.331579592E-2,-1.521995366E-1,1.824264042E-2
3.931295320E0,3.728422802E-3,-1.351553202E-1,1.717737690E-2
3.933782976E0,2.290316857E-2,-1.181111038E-1,1.504684892E-2
3.936270632E0,3.994738683E-2,-1.010668874E-1,1.291632187E-2
3.938758289E0,5.805686861E-2,-8.508793265E-2,1.185105834E-2
3.941245945E0,7.510108501E-2,-6.910897791E-2,9.720530361E-3
3.943733601E0,9.108003974E-2,-5.419528857E-2,7.590003312E-3
3.946221257E0,1.059937328E-1,-4.247738793E-2,4.394212738E-3
3.948708914E0,1.198421568E-1,-3.182475269E-2,1.331579551E-4
3.951196570E0,1.315600574E-1,-2.223737910E-2,-3.062632866E-3
3.953684226E0,1.411474347E-1,-1.371526904E-2,-6.258423906E-3
3.956171882E0,1.486042738E-1,-6.258423906E-3,-1.051947847E-2
3.958659539E0,1.539305896E-1,1.198421582E-3,-1.371526904E-2
3.961147195E0,1.581916511E-1,6.524739787E-3,-1.584579609E-2
3.963634851E0,1.613874435E-1,1.078579482E-2,-1.691105962E-2
3.966122559E0,1.624527127E-1,1.504684892E-2,-1.691105962E-2
3.968610268E0,1.624527127E-1,1.611211337E-2,-1.478053257E-2
3.971097976E0,1.613874435E-1,1.717737690E-2,-1.265000552E-2
3.973585684E0,1.581916511E-1,1.398158539E-2,-9.454214945E-3
3.976073393E0,1.539305896E-1,1.078579482E-2,-5.193160381E-3
3.978561101E0,1.475390196E-1,4.394212738E-3,1.331579551E-4
3.981048809E0,1.390169114E-1,-3.062632866E-3,6.524739787E-3
3.983536518E0,1.294295341E-1,-1.265000552E-2,1.291632187E-2
3.986024226E0,1.166463718E-1,-2.223737910E-2,1.824264042E-2
3.988511934E0,1.038632020E-1,-3.182475269E-2,2.356895804E-2
3.990999643E0,8.894951642E-2,-4.247738793E-2,2.889527567E-2
3.993487351E0,7.403582335E-2,-5.313002318E-2,3.315633163E-2
3.995975059E0,5.805686861E-2,-6.271740049E-2,3.635212034E-2
3.998462768E0,4.101264849E-2,-7.230477035E-2,4.061317816E-2
4.000950476E0,2.503369562E-2,-8.295740932E-2,4.274370521E-2
4.003438184E0,1.012000442E-2,-9.254477918E-2,4.274370521E-2
4.005925893E0,-2.663159044E-3,-1.021321490E-1,4.167843983E-2
4.008413601E0,-1.544632297E-2,-1.106542572E-1,3.954791278E-2
4.010901309E0,-2.503369562E-2,-1.191763729E-1,3.528685868E-2
4.013389018E0,-3.462106735E-2,-1.266332120E-1,3.102580272E-2
4.015876726E0,-4.207791388E-2,-1.330247968E-1,2.676474862E-2
4.018364434E0,-4.633896798E-2,-1.394163817E-1,2.143843099E-2
4.020852143E0,-4.953476042E-2,-1.436774284E-1,1.717737690E-2
4.023339851E0,-5.166528746E-2,-1.458079666E-1,1.611211337E-2
4.025827559E0,-5.166528746E-2,-1.458079666E-1,1.504684892E-2
4.028315268E0,-4.846949503E-2,-1.436774284E-1,1.611211337E-2
4.030802976E0,-4.314317927E-2,-1.394163817E-1,1.824264042E-2
4.033290684E0,-3.675159439E-2,-1.340900660E-1,2.356895804E-2
4.035778393E0,-2.822948620E-2,-1.255679578E-1,2.889527567E-2
4.038266101E0,-1.864211448E-2,-1.159805804E-1,3.422159329E-2
4.040753809E0,-9.054740891E-3,-1.063932031E-1,4.167843983E-2
4.043241518E0,5.326318205E-4,-9.467530251E-2,4.807002097E-2
4.045729226E0,1.012000442E-2,-8.402267098E-2,5.552686751E-2
4.048216934E0,1.651158556E-2,-7.337003201E-2,6.191844866E-2
4.050704643E0,2.077264152E-2,-6.378266215E-2,6.831002980E-2
4.053192351E0,2.609895915E-2,-5.632581562E-2,7.470161468E-2
4.055680059E0,2.716422267E-2,-5.206476152E-2,8.109319210E-2
4.058167768E0,2.822948620E-2,-4.780370742E-2,8.641951531E-2
4.060655476E0,2.503369562E-2,-4.673844203E-2,9.281109273E-2
4.063143184E0,2.183790505E-2,-4.780370742E-2,9.600688517E-2
4.065630893E0,1.438105945E-2,-5.206476152E-2,1.013332009E-1
4.068118601E0,4.793686327E-3,-5.845634267E-2,1.045289934E-1
4.070606309E0,-5.858949851E-3,-6.804371625E-2,1.087900475E-1
4.073094018E0,-1.970737800E-2,-7.869634777E-2,1.130511016E-1
4.075581726E0,-3.355580568E-2,-8.934898674E-2,1.173121557E-1
4.078069434E0,-4.846949503E-2,-1.010668874E-1,1.215732098E-1
4.080557143E0,-6.338318437E-2,-1.117195264E-1,1.247690022E-1
4.083044851E0,-7.829687744E-2,-1.202416345E-1,1.268995255E-1
4.085532559E0,-9.108003974E-2,-1.276984811E-1,1.279647946E-1
4.088020268E0,-1.027979404E-1,-1.330247968E-1,1.279647946E-1
4.090507976E0,-1.145158410E-1,-1.351553202E-1,1.268995255E-1
4.092995684E0,-1.230379492E-1,-1.362205893E-1,1.237037405E-1
4.095483393E0,-1.304948032E-1,-1.330247968E-1,1.194426864E-1
4.097971101E0,-1.368863732E-1,-1.287637353E-1,1.151816323E-1
4.100458809E0,-1.400821656E-1,-1.202416345E-1,1.087900475E-1
4.102946518E0,-1.411474347E-1,-1.095889956E-1,1.034637317E-1
4.105434226E0,-1.379516423E-1,-9.574057162E-2,9.813741595E-2
4.107921934E0,-1.326253265E-1,-8.082687855E-2,9.281109273E-2
4.110409643E0,-1.230379492E-1,-6.484792382E-2,8.855003864E-2
4.112897351E0,-1.102547869E-1,-4.673844203E-2,8.535424620E-2
4.115385059E0,-9.534109384E-2,-2.756369673E-2,8.322372288E-2
4.117872768E0,-7.723161578E-2,-8.388951421E-3,8.322372288E-2
4.120360476E0,-5.592634156E-2,1.185105834E-2,8.215846121E-2
4.122848184E0,-3.142527863E-2,3.209106624E-2,8.322372288E-2
4.125335893E0,-4.793686327E-3,5.233107507E-2,8.428898454E-2
4.127823601E0,2.290316857E-2,7.150582224E-2,8.428898454E-2
4.130311309E0,5.166528746E-2,8.855003864E-2,8.322372288E-2
4.132799018E0,7.829687744E-2,1.023984700E-1,8.322372288E-2
4.135286726E0,1.038632020E-1,1.130511016E-1,8.109319210E-2
4.137774434E0,1.272990108E-1,1.194426864E-1,8.109319210E-2
4.140262143E0,1.475390196E-1,1.226384789E-1,8.109319210E-2
4.142749851E0,1.645832360E-1,1.205079481E-1,8.322372288E-2
4.145237559E0,1.794969290E-1,1.162468940E-1,8.535424620E-2
4.147725268E0,1.912148297E-1,1.077247858E-1,8.855003864E-2
4.150212976E0,1.986716688E-1,9.600688517E-2,9.068056941E-2
4.152700684E0,2.029327303E-1,8.109319210E-2,9.281109273E-2
4.155188393E0,2.050632536E-1,6.298371404E-2,9.281109273E-2
4.157676101E0,2.029327303E-1,4.380896688E-2,9.068056941E-2
4.160163809E0,1.986716688E-1,2.250369452E-2,8.748477697E-2
4.162651518E0,1.901495606E-1,2.263685223E-3,8.322372288E-2
4.165139226E0,1.794969290E-1,-1.797632314E-2,7.789740711E-2
4.167626934E0,1.677790284E-1,-3.821633384E-2,7.257108390E-2
4.170114643E0,1.560611278E-1,-5.632581562E-2,6.724476814E-2
4.172602351E0,1.432779580E-1,-7.443529367E-2,6.191844866E-2
4.175090059E0,1.326253265E-1,-8.934898674E-2,5.872265995E-2
4.177577768E0,1.230379492E-1,-1.042626798E-1,5.659212917E-2
4.180065476E0,1.155811027E-1,-1.170458421E-1,5.659212917E-2
4.182553184E0,1.113200486E-1,-1.298290044E-1,5.765739456E-2
4.185040893E0,1.113200486E-1,-1.383511126E-1,5.978792161E-2
4.187528601E0,1.145158410E-1,-1.458079666E-1,6.191844866E-2
4.190016309E0,1.219726875E-1,-1.500690132E-1,6.298371404E-2
4.192504018E0,1.326253265E-1,-1.521995366E-1,6.404897571E-2
4.194991726E0,1.432779580E-1,-1.532648057E-1,6.511423737E-2
4.197479434E0,1.560611278E-1,-1.543300748E-1,6.617950648E-2
4.199967143E0,1.667137593E-1,-1.532648057E-1,6.724476814E-2
4.202454851E0,1.752358675E-1,-1.532648057E-1,6.937529147E-2
4.204942559E0,1.826927215E-1,-1.532648057E-1,7.257108390E-2
4.207430268E0,1.869537681E-1,-1.532648057E-1,7.683213800E-2
4.209917976E0,1.869537681E-1,-1.521995366E-1,8.109319210E-2
4.212405684E0,1.837579757E-1,-1.500690132E-1,8.641951531E-2
4.214893393E0,1.784316599E-1,-1.490037590E-1,9.387636185E-2
4.217381101E0,1.709748209E-1,-1.458079666E-1,1.002679393E-1
4.219868809E0,1.603221744E-1,-1.426121742E-1,1.077247858E-1
4.222356518E0,1.486042738E-1,-1.372858584E-1,1.151816323E-1
4.224844226E0,1.358211190E-1,-1.308942735E-1,1.247690022E-1
4.227331934E0,1.209074259E-1,-1.223721579E-1,1.343563795E-1
4.229819643E0,1.049284711E-1,-1.117195264E-1,1.460742801E-1
4.232307351E0,8.788424730E-2,-9.680583328E-2,1.567269117E-1
4.234795059E0,7.084003091E-2,-7.869634777E-2,1.695100814E-1
4.237282768E0,5.379581451E-2,-5.845634267E-2,1.822932363E-1
4.239770476E0,3.675159439E-2,-3.502054140E-2,1.929458827E-1
4.242258184E0,1.970737800E-2,-9.454214945E-3,2.025332451E-1
4.244745893E0,2.663159044E-3,1.611211337E-2,2.110553533E-1
4.247233601E0,-1.438105945E-2,4.061317816E-2,2.174469382E-1
4.249721309E0,-3.249054030E-2,6.298371404E-2,2.206427306E-1
4.252209018E0,-5.060002208E-2,8.215846121E-2,2.227732539E-1
4.254696726E0,-7.084003091E-2,9.707214683E-2,2.238385230E-1
4.257184434E0,-9.321057051E-2,1.077247858E-1,2.249037921E-1
4.259672143E0,-1.166463718E-1,1.141163707E-1,2.249037921E-1
4.262159851E0,-1.432779580E-1,1.162468940E-1,2.249037921E-1
4.264647559E0,-1.699095517E-1,1.130511016E-1,2.238385230E-1
4.267135268E0,-1.965411454E-1,1.055942550E-1,2.217079997E-1
4.269622976E0,-2.221074700E-1,9.494162351E-2,2.185122073E-1
4.272110684E0,-2.444780022E-1,8.215846121E-2,2.131858915E-1
4.274598393E0,-2.657832801E-1,6.724476814E-2,2.078595608E-1
4.277086101E0,-2.838927507E-1,5.233107507E-2,1.993374527E-1
4.279573809E0,-2.988064587E-1,3.635212034E-2,1.908153445E-1
4.282061518E0,-3.105243444E-1,2.143843099E-2,1.812279820E-1
4.284549226E0,-3.169159293E-1,8.655266836E-3,1.705753356E-1
4.287036934E0,-3.201117218E-1,-1.997369342E-3,1.609879732E-1
4.289524643E0,-3.190464675E-1,-1.051947847E-2,1.524658650E-1
4.292012351E0,-3.147853911E-1,-1.691105962E-2,1.439437568E-1
4.294500059E0,-3.062632978E-1,-2.223737910E-2,1.364869028E-1
4.296987768E0,-2.945453823E-1,-2.543316968E-2,1.300953180E-1
4.299475476E0,-2.806969583E-1,-2.756369673E-2,1.258342713E-1
4.301963184E0,-2.647180259E-1,-2.862896025E-2,1.215732098E-1
4.304450893E0,-2.434127480E-1,-2.649843320E-2,1.183774248E-1
4.306938601E0,-2.210422009E-1,-2.223737910E-2,1.162468940E-1
4.309426309E0,-1.976063997E-1,-1.691105962E-2,1.130511016E-1
4.311914018E0,-1.709748209E-1,-7.323687430E-3,1.098553166E-1
4.314401726E0,-1.432779580E-1,4.394212738E-3,1.066595241E-1
4.316889434E0,-1.155811027E-1,1.824264042E-2,1.013332009E-1
4.319377143E0,-8.681898564E-2,3.422159329E-2,9.707214683E-2
4.321864851E0,-5.805686861E-2,5.233107507E-2,9.174583107E-2
4.324352559E0,-3.036001325E-2,7.257108390E-2,8.748477697E-2
4.326840268E0,-3.728422802E-3,9.600688517E-2,8.215846121E-2
4.329327976E0,1.864211448E-2,1.194426864E-1,7.576687634E-2
4.331815684E0,3.888212144E-2,1.460742801E-1,6.937529147E-2
4.334303393E0,5.379581451E-2,1.716406047E-1,6.191844866E-2
4.336791101E0,6.444845349E-2,1.982721984E-1,5.339634046E-2
4.339278809E0,6.870950758E-2,2.259690464E-1,4.593949392E-2
4.341766518E0,6.764423847E-2,2.515353858E-1,3.848264739E-2
4.344254226E0,6.125266105E-2,2.760364413E-1,3.209106624E-2
4.346741934E0,4.846949503E-2,2.984069884E-1,2.569948509E-2
4.349229643E0,2.929474972E-2,3.175817132E-1,2.143843099E-2
4.351717351E0,5.858949851E-3,3.346259296E-1,1.930790395E-2
4.354205059E0,-2.396843210E-2,3.495396376E-1,1.717737690E-2
4.356692768E0,-5.699160323E-2,3.601922691E-1,1.504684892E-2
4.359180476E0,-9.321057051E-2,3.687143922E-1,1.504684892E-2
4.361668184E0,-1.304948032E-1,3.740406930E-1,1.504684892E-2
4.364155893E0,-1.688442826E-1,3.783017397E-1,1.504684892E-2
4.366643601E0,-2.071937770E-1,3.814975321E-1,1.504684892E-2
4.369131309E0,-2.444780022E-1,3.836280704E-1,1.504684892E-2
4.371619018E0,-2.785664499E-1,3.846933246E-1,1.611211337E-2
4.374106726E0,-3.115896285E-1,3.846933246E-1,1.824264042E-2
4.376594434E0,-3.403517306E-1,3.836280704E-1,1.824264042E-2
4.379082143E0,-3.659180701E-1,3.825628161E-1,2.037316747E-2
4.381569851E0,-3.882885873E-1,3.804322779E-1,2.143843099E-2
4.384057559E0,-4.053328037E-1,3.793670237E-1,2.250369452E-2
4.386545268E0,-4.191812575E-1,3.751059473E-1,2.250369452E-2
4.389032976E0,-4.266380966E-1,3.719101548E-1,2.356895804E-2
4.391520684E0,-4.308991432E-1,3.676491082E-1,2.250369452E-2
4.394008393E0,-4.287686050E-1,3.644533157E-1,2.250369452E-2
4.396496101E0,-4.223770201E-1,3.601922691E-1,2.143843099E-2
4.398983809E0,-4.106591344E-1,3.569964767E-1,2.037316747E-2
4.401471518E0,-3.946801722E-1,3.538006842E-1,1.824264042E-2
4.403959226E0,-3.755054474E-1,3.527354300E-1,1.717737690E-2
4.406446934E0,-3.520696461E-1,3.527354300E-1,1.504684892E-2
4.408934643E0,-3.254380524E-1,3.538006842E-1,1.185105834E-2
4.411422351E0,-2.977411747E-1,3.569964767E-1,8.655266836E-3
4.413910059E0,-2.679138184E-1,3.601922691E-1,5.459476262E-3
4.416397768E0,-2.370211631E-1,3.655185997E-1,1.331579551E-4
4.418885476E0,-2.061285079E-1,3.708449006E-1,-4.127896391E-3
4.421373184E0,-1.763011366E-1,3.772364855E-1,-1.051947847E-2
4.423860893E0,-1.475390196E-1,3.825628161E-1,-1.691105962E-2
4.426348601E0,-1.198421568E-1,3.878891170E-1,-2.436790615E-2
4.428836309E0,-9.534109384E-2,3.942807019E-1,-3.182475269E-2
4.431324018E0,-7.403582335E-2,4.006722867E-1,-3.928159550E-2
4.433811726E0,-5.486107618E-2,4.059986174E-1,-4.673844203E-2
4.436299434E0,-4.101264849E-2,4.102596641E-1,-5.419528857E-2
4.438787143E0,-3.142527863E-2,4.145207107E-1,-6.165213138E-2
4.441274851E0,-2.609895915E-2,4.166512489E-1,-6.804371625E-2
4.443762559E0,-2.396843210E-2,4.187817574E-1,-7.443529367E-2
4.446250268E0,-2.716422267E-2,4.198470414E-1,-8.082687855E-2
4.448737976E0,-3.355580568E-2,4.209122956E-1,-8.508793265E-2
4.451225684E0,-4.314317927E-2,4.219775498E-1,-8.934898674E-2
4.453713393E0,-5.486107618E-2,4.219775498E-1,-9.254477918E-2
4.456201101E0,-6.657897681E-2,4.241080880E-1,-9.361004084E-2
4.458688809E0,-8.042740822E-2,4.251733422E-1,-9.254477918E-2
4.461176518E0,-9.534109384E-2,4.262386262E-1,-9.041424841E-2
4.463664226E0,-1.102547869E-1,4.283691347E-1,-8.615319431E-2
4.466151934E0,-1.262337416E-1,4.304996729E-1,-8.082687855E-2
4.468639643E0,-1.422126889E-1,4.315649271E-1,-7.337003201E-2
4.471127351E0,-1.603221744E-1,4.347607195E-1,-6.378266215E-2
4.473615059E0,-1.784316599E-1,4.368912578E-1,-5.313002318E-2
4.476102768E0,-1.954758763E-1,4.379565120E-1,-4.034686089E-2
4.478590476E0,-2.157158852E-1,4.379565120E-1,-2.756369673E-2
4.481078184E0,-2.348906398E-1,4.379565120E-1,-1.265000552E-2
4.483565893E0,-2.551306486E-1,4.358259737E-1,3.328948980E-3
4.486053601E0,-2.775011659E-1,4.336954653E-1,1.930790395E-2
4.488541309E0,-3.009369671E-1,4.315649271E-1,3.315633163E-2
4.491029018E0,-3.254380524E-1,4.283691347E-1,4.807002097E-2
4.493516726E0,-3.531349003E-1,4.273038805E-1,6.085318699E-2
4.496004434E0,-3.797664940E-1,4.251733422E-1,7.257108390E-2
4.498492143E0,-4.074633420E-1,4.241080880E-1,8.322372288E-2
4.500979851E0,-4.351601899E-1,4.241080880E-1,9.281109273E-2
4.503467559E0,-4.607265294E-1,4.251733422E-1,1.002679393E-1
4.505955268E0,-4.841623306E-1,4.262386262E-1,1.077247858E-1
4.508442976E0,-5.054675937E-1,4.262386262E-1,1.151816323E-1
4.510930684E0,-5.246423483E-1,4.251733422E-1,1.194426864E-1
4.513418393E0,-5.395560265E-1,4.230428338E-1,1.215732098E-1
4.515906101E0,-5.523391962E-1,4.187817574E-1,1.215732098E-1
4.518393809E0,-5.597960353E-1,4.145207107E-1,1.183774248E-1
4.520881518E0,-5.640571117E-1,4.091944098E-1,1.130511016E-1
4.523369226E0,-5.629918575E-1,4.028028250E-1,1.023984700E-1
4.525856934E0,-5.576655269E-1,3.985417485E-1,8.961530030E-2
4.528344643E0,-5.448823571E-1,3.932154477E-1,7.363634557E-2
4.530832351E0,-5.267728567E-1,3.878891170E-1,5.765739456E-2
4.533320059E0,-5.033370852E-1,3.836280704E-1,4.061317816E-2
4.535807768E0,-4.745749533E-1,3.783017397E-1,2.250369452E-2
4.538295476E0,-4.426170290E-1,3.751059473E-1,6.524739787E-3
4.540783184E0,-4.063980877E-1,3.729754388E-1,-8.388951421E-3
4.543270893E0,-3.701791167E-1,3.708449006E-1,-2.223737910E-2
4.545758601E0,-3.339601457E-1,3.697796464E-1,-3.395527974E-2
4.548246309E0,-2.988064587E-1,3.676491082E-1,-4.354264960E-2
4.550734018E0,-2.657832801E-1,3.655185997E-1,-5.099949613E-2
4.553221726E0,-2.348906398E-1,3.623228073E-1,-5.632581562E-2
4.555709434E0,-2.071937770E-1,3.580617309E-1,-6.058686972E-2
4.558197143E0,-1.848232448E-1,3.527354300E-1,-6.271740049E-2
4.560684851E0,-1.667137593E-1,3.463438451E-1,-6.378266215E-2
4.563172559E0,-1.528653353E-1,3.388870060E-1,-6.378266215E-2
4.565660268E0,-1.443432271E-1,3.324954212E-1,-6.378266215E-2
4.568147976E0,-1.400821656E-1,3.250385821E-1,-6.271740049E-2
4.570635684E0,-1.411474347E-1,3.175817132E-1,-5.952160433E-2
4.573123393E0,-1.464737505E-1,3.101248741E-1,-5.632581562E-2
4.575611101E0,-1.549958587E-1,3.037332892E-1,-5.206476152E-2
4.578098809E0,-1.667137593E-1,2.984069884E-1,-4.567318037E-2
4.580586518E0,-1.826927215E-1,2.930806577E-1,-3.928159550E-2
4.583074226E0,-1.997369379E-1,2.888196111E-1,-3.182475269E-2
4.585561934E0,-2.167811543E-1,2.845585644E-1,-2.330264263E-2
4.588049643E0,-2.338253707E-1,2.802974880E-1,-1.371526904E-2
4.590537351E0,-2.508696020E-1,2.771016955E-1,-4.127896391E-3
4.593025059E0,-2.647180259E-1,2.739059031E-1,4.394212738E-3
4.595512768E0,-2.785664499E-1,2.707101107E-1,1.291632187E-2
4.598000476E0,-2.913496196E-1,2.696448565E-1,2.037316747E-2
4.600488184E0,-3.030675054E-1,2.707101107E-1,2.783001214E-2
4.602975893E0,-3.158506751E-1,2.717753947E-1,3.528685868E-2
4.605463601E0,-3.275685608E-1,2.749711871E-1,4.274370521E-2
4.607951309E0,-3.403517306E-1,2.771016955E-1,4.913528636E-2
4.610439018E0,-3.531349003E-1,2.781669796E-1,5.339634046E-2
4.612926726E0,-3.659180701E-1,2.781669796E-1,5.552686751E-2
4.615414434E0,-3.776359558E-1,2.771016955E-1,5.446160212E-2
4.617902143E0,-3.893538713E-1,2.749711871E-1,5.126581341E-2
4.620389851E0,-4.010717571E-1,2.728406489E-1,4.700475931E-2
4.622877559E0,-4.095938802E-1,2.707101107E-1,4.061317816E-2
4.625365268E0,-4.170507193E-1,2.675143182E-1,3.528685868E-2
4.627852976E0,-4.223770201E-1,2.664490640E-1,2.783001214E-2
4.630340684E0,-4.255728126E-1,2.675143182E-1,2.250369452E-2
4.632828393E0,-4.266380966E-1,2.685796022E-1,1.930790395E-2
4.635316101E0,-4.266380966E-1,2.728406489E-1,1.717737690E-2
4.637803809E0,-4.255728126E-1,2.760364413E-1,1.824264042E-2
4.640291518E0,-4.223770201E-1,2.792322338E-1,2.037316747E-2
4.642779226E0,-4.202465117E-1,2.824280262E-1,2.463422157E-2
4.645266934E0,-4.191812575E-1,2.856238186E-1,2.996053919E-2
4.647754643E0,-4.191812575E-1,2.888196111E-1,3.741738573E-2
4.650242351E0,-4.170507193E-1,2.920154035E-1,4.274370521E-2
4.652730059E0,-4.170507193E-1,2.952111959E-1,4.807002097E-2
4.655217768E0,-4.159854650E-1,2.962764502E-1,5.126581341E-2
4.657705476E0,-4.127896726E-1,2.962764502E-1,5.126581341E-2
4.660193184E0,-4.074633420E-1,2.941459119E-1,5.126581341E-2
4.662680893E0,-4.010717571E-1,2.909501195E-1,4.807002097E-2
4.665168601E0,-3.925496638E-1,2.866890728E-1,4.380896688E-2
4.667656309E0,-3.829622865E-1,2.824280262E-1,3.848264739E-2
4.670144018E0,-3.744401634E-1,2.771016955E-1,3.209106624E-2
4.672631726E0,-3.659180701E-1,2.728406489E-1,2.463422157E-2
4.675119434E0,-3.595264852E-1,2.685796022E-1,1.611211337E-2
4.677607143E0,-3.520696461E-1,2.632532716E-1,6.524739787E-3
4.680094851E0,-3.467433155E-1,2.579269707E-1,-3.062632866E-3
4.682582559E0,-3.414169848E-1,2.515353858E-1,-1.265000552E-2
4.685070268E0,-3.371559381E-1,2.440785319E-1,-2.330264263E-2
4.687557976E0,-3.350254297E-1,2.355564237E-1,-3.502054140E-2
4.690045684E0,-3.318296373E-1,2.280995846E-1,-4.673844203E-2
4.692533393E0,-3.296990991E-1,2.195774615E-1,-5.845634267E-2
4.695021101E0,-3.275685608E-1,2.131858915E-1,-7.123950869E-2
4.697508809E0,-3.265033066E-1,2.089248300E-1,-8.189214021E-2
4.699996518E0,-3.254380524E-1,2.078595608E-1,-9.147951752E-2
4.702484226E0,-3.254380524E-1,2.067943066E-1,-1.021321490E-1
4.704971934E0,-3.254380524E-1,2.078595608E-1,-1.095889956E-1
4.707459643E0,-3.265033066E-1,2.089248300E-1,-1.159805804E-1
4.709947351E0,-3.286338449E-1,2.110553533E-1,-1.191763729E-1
4.712435059E0,-3.339601457E-1,2.142511457E-1,-1.213068962E-1
4.714922768E0,-3.392864764E-1,2.163816839E-1,-1.202416345E-1
4.717410476E0,-3.488738537E-1,2.195774615E-1,-1.159805804E-1
4.719898184E0,-3.616569936E-1,2.238385230E-1,-1.095889956E-1
4.722385893E0,-3.755054474E-1,2.302301079E-1,-1.021321490E-1
4.724873601E0,-3.914843798E-1,2.376869470E-1,-9.041424841E-2
4.727361309E0,-4.106591344E-1,2.462090552E-1,-7.656582445E-2
4.729849018E0,-4.287686050E-1,2.547311783E-1,-6.058686972E-2
4.732336726E0,-4.479433596E-1,2.621880174E-1,-4.354264960E-2
4.734824434E0,-4.639223218E-1,2.675143182E-1,-2.756369673E-2
4.737312143E0,-4.799012840E-1,2.696448565E-1,-1.051947847E-2
4.739799851E0,-4.937497079E-1,2.685796022E-1,5.459476262E-3
4.742287559E0,-5.075981021E-1,2.675143182E-1,2.250369452E-2
4.744775268E0,-5.193160176E-1,2.643185556E-1,3.848264739E-2
4.747262976E0,-5.299686790E-1,2.611227632E-1,5.552686751E-2
4.749750684E0,-5.406212807E-1,2.579269707E-1,7.044056058E-2
4.752238393E0,-5.502086878E-1,2.547311783E-1,8.215846121E-2
4.754726101E0,-5.587307811E-1,2.515353858E-1,9.174583107E-2
4.757213809E0,-5.651223660E-1,2.494048476E-1,9.707214683E-2
4.759701518E0,-5.704486966E-1,2.462090552E-1,9.813741595E-2
4.762189226E0,-5.747097135E-1,2.419480085E-1,9.707214683E-2
4.764676934E0,-5.789707899E-1,2.387522161E-1,9.174583107E-2
4.767164643E0,-5.811012983E-1,2.334259003E-1,8.322372288E-2
4.769652351E0,-5.821665525E-1,2.280995846E-1,7.150582224E-2
4.772140059E0,-5.832318664E-1,2.206427306E-1,5.978792161E-2
4.774627768E0,-5.842971206E-1,2.142511457E-1,4.807002097E-2
4.777115476E0,-5.853623748E-1,2.057290375E-1,3.635212034E-2
4.779603184E0,-5.874928832E-1,1.982721984E-1,2.676474862E-2
4.782090893E0,-5.917539597E-1,1.886848211E-1,1.717737690E-2
4.784578601E0,-5.970802903E-1,1.801627129E-1,6.524739787E-3
4.787066257E0,-6.034718752E-1,1.716406047E-1,-1.997369342E-3
4.789553914E0,-6.119939685E-1,1.652490199E-1,-1.158474199E-2
4.792041570E0,-6.215813160E-1,1.599227041E-1,-2.010685205E-2
4.794529226E0,-6.311687231E-1,1.556616426E-1,-2.862896025E-2
4.797016882E0,-6.428865790E-1,1.503353268E-1,-3.715106845E-2
4.799504539E0,-6.524739861E-1,1.471395344E-1,-4.567318037E-2
4.801992195E0,-6.631265879E-1,1.428784877E-1,-5.313002318E-2
4.804479851E0,-6.737792492E-1,1.407479644E-1,-6.058686972E-2
4.806967507E0,-6.844319105E-1,1.396826953E-1,-6.910897791E-2
4.809455164E0,-6.961497664E-1,1.396826953E-1,-7.656582445E-2
4.811942820E0,-7.078676820E-1,1.407479644E-1,-8.402267098E-2
4.814430476E0,-7.217161059E-1,1.428784877E-1,-9.041424841E-2
4.816918132E0,-7.366297841E-1,1.450090110E-1,-9.680583328E-2
4.819405789E0,-7.526087761E-1,1.492700726E-1,-1.010668874E-1
4.821893445E0,-7.696529627E-1,1.556616426E-1,-1.031974182E-1
4.824381101E0,-7.888277173E-1,1.620532274E-1,-1.053279415E-1
4.826868757E0,-8.058719635E-1,1.673795432E-1,-1.063932031E-1
4.829356414E0,-8.239814043E-1,1.716406047E-1,-1.063932031E-1
4.831844070E0,-8.410256505E-1,1.748363972E-1,-1.042626798E-1
4.834331726E0,-8.580698371E-1,1.769669205E-1,-1.021321490E-1
4.836819382E0,-8.729835749E-1,1.780321896E-1,-9.893636405E-2
4.839307039E0,-8.868319988E-1,1.780321896E-1,-9.574057162E-2
4.841794695E0,-8.996151686E-1,1.780321896E-1,-9.467530251E-2
4.844282351E0,-9.113330245E-1,1.769669205E-1,-9.361004084E-2
4.846770007E0,-9.209204316E-1,1.759016514E-1,-9.147951752E-2
4.849257664E0,-9.305077791E-1,1.727058738E-1,-8.934898674E-2
4.851745372E0,-9.379646182E-1,1.684448123E-1,-8.828372508E-2
4.854233080E0,-9.443562031E-1,1.641837656E-1,-8.721846342E-2
4.856720789E0,-9.507477880E-1,1.588574350E-1,-8.615319431E-2
4.859208497E0,-9.560741186E-1,1.535311192E-1,-8.295740932E-2
4.861696205E0,-9.603351951E-1,1.492700726E-1,-7.976161689E-2
4.864183914E0,-9.614004493E-1,1.460742801E-1,-7.550056279E-2
4.866671622E0,-9.614004493E-1,1.428784877E-1,-7.017423958E-2
4.869159330E0,-9.614004493E-1,1.386174262E-1,-6.378266215E-2
4.871647039E0,-9.603351951E-1,1.354216337E-1,-5.739107728E-2
4.874134747E0,-9.582046270E-1,1.300953180E-1,-5.099949613E-2
4.876622455E0,-9.539436102E-1,1.237037405E-1,-4.460791498E-2
4.879110164E0,-9.507477880E-1,1.162468940E-1,-3.928159550E-2
4.881597872E0,-9.464867711E-1,1.077247858E-1,-3.502054140E-2
4.884085580E0,-9.422256947E-1,1.002679393E-1,-3.075948730E-2
4.886573289E0,-9.368993640E-1,9.281109273E-2,-2.756369673E-2
4.889060997E0,-9.315730333E-1,8.641951531E-2,-2.436790615E-2
4.891548705E0,-9.262467623E-1,8.109319210E-2,-2.223737910E-2
4.894036414E0,-9.198551774E-1,7.789740711E-2,-2.010685205E-2
4.896524122E0,-9.113330245E-1,7.470161468E-2,-1.904158667E-2
4.899011830E0,-9.038761854E-1,7.150582224E-2,-1.691105962E-2
4.901499539E0,-8.942888379E-1,6.831002980E-2,-1.265000552E-2
4.903987247E0,-8.847014308E-1,6.404897571E-2,-9.454214945E-3
4.906474955E0,-8.751140833E-1,6.085318699E-2,-4.127896391E-3
4.908962664E0,-8.644614220E-1,5.765739456E-2,-1.997369342E-3
4.911450372E0,-8.538088202E-1,5.552686751E-2,2.263685223E-3
4.913938080E0,-8.431561589E-1,5.659212917E-2,5.459476262E-3
4.916425789E0,-8.293077350E-1,5.872265995E-2,9.720530361E-3
4.918913497E0,-8.143940568E-1,6.298371404E-2,1.185105834E-2
4.921401205E0,-7.994803786E-1,6.724476814E-2,1.504684892E-2
4.923888914E0,-7.824361324E-1,7.257108390E-2,1.717737690E-2
4.926376622E0,-7.643266916E-1,7.683213800E-2,1.824264042E-2
4.928864330E0,-7.494129539E-1,7.896266878E-2,1.930790395E-2
4.931352039E0,-7.323687673E-1,8.002793044E-2,1.930790395E-2
4.933839747E0,-7.185203433E-1,7.896266878E-2,2.037316747E-2
4.936327455E0,-7.036066055E-1,7.576687634E-2,2.037316747E-2
4.938815164E0,-6.897581816E-1,7.150582224E-2,1.930790395E-2
4.941302872E0,-6.769750714E-1,6.404897571E-2,1.824264042E-2
4.943790580E0,-6.641919017E-1,5.659212917E-2,1.504684892E-2
4.946278289E0,-6.535392404E-1,4.593949392E-2,1.185105834E-2
4.948765997E0,-6.439518929E-1,3.422159329E-2,8.655266836E-3
4.951253705E0,-6.354297400E-1,2.143843099E-2,4.394212738E-3
4.953741414E0,-6.279729009E-1,8.655266836E-3,-9.321057005E-4
4.956229122E0,-6.226465702E-1,-5.193160381E-3,-6.258423906E-3
4.958716830E0,-6.183855534E-1,-1.904158667E-2,-1.158474199E-2
4.961204539E0,-6.162550449E-1,-3.289001435E-2,-1.584579609E-2
4.963692247E0,-6.151897311E-1,-4.780370742E-2,-2.010685205E-2
4.966179955E0,-6.141244769E-1,-6.271740049E-2,-2.330264263E-2
4.968667664E0,-6.151897311E-1,-7.656582445E-2,-2.756369673E-2
4.971155372E0,-6.173202991E-1,-8.934898674E-2,-2.969422378E-2
4.973643080E0,-6.194508076E-1,-1.000016257E-1,-3.289001435E-2
4.976130789E0,-6.205160618E-1,-1.074584723E-1,-3.821633384E-2
4.978618497E0,-6.215813160E-1,-1.117195264E-1,-4.247738793E-2
4.981106205E0,-6.215813160E-1,-1.127847880E-1,-4.886896908E-2
4.983593914E0,-6.194508076E-1,-1.127847880E-1,-5.526055023E-2
4.986081622E0,-6.151897311E-1,-1.095889956E-1,-6.165213138E-2
4.988569330E0,-6.098634601E-1,-1.074584723E-1,-6.697845459E-2
4.991057039E0,-6.045371294E-1,-1.042626798E-1,-6.804371625E-2
