"Time (s)","Acceleration x (m/s^2)","Acceleration y (m/s^2)","Acceleration z (m/s^2)"
3.828869800E-2,-1.799242616E0,9.827599525E0,-2.507926226E-1
4.078541700E-2,-1.736993313E0,9.837176323E0,-2.795230448E-1
4.328203200E-2,-1.679532528E0,9.808445930E0,-2.890998423E-1
4.577828200E-2,-1.646013618E0,9.774927139E0,-3.034650683E-1
4.827453200E-2,-1.617283225E0,9.750985146E0,-3.226186931E-1
5.077078200E-2,-1.574187636E0,9.707889557E0,-3.178302646E-1
5.326703200E-2,-1.574187636E0,9.669582367E0,-3.417722881E-1
5.576328200E-2,-1.550245643E0,9.640851974E0,-3.848679364E-1
5.826072900E-2,-1.555034041E0,9.636063576E0,-4.135983288E-1
6.075817700E-2,-1.559822440E0,9.631275177E0,-4.758476019E-1
6.320817700E-2,-1.545457244E0,9.636063576E0,-5.189431906E-1
6.566093800E-2,-1.535880446E0,9.645640373E0,-5.620388389E-1
6.811369800E-2,-1.526303530E0,9.669582367E0,-5.859808922E-1
7.057354200E-2,-1.507149935E0,9.688735962E0,-6.051344872E-1
7.304166700E-2,-1.483207941E0,9.707889557E0,-6.147112846E-1
7.551895900E-2,-1.459265947E0,9.741408348E0,-5.811924338E-1
7.800583400E-2,-1.440112352E0,9.770138741E0,-5.237316489E-1
8.050203200E-2,-1.430535555E0,9.784503937E0,-4.758476019E-1
8.300682300E-2,-1.416170359E0,9.803657532E0,-4.183867574E-1
8.551916700E-2,-1.440112352E0,9.813234329E0,-3.513490856E-1
8.803776100E-2,-1.449689150E0,9.822811127E0,-2.795230448E-1
9.056114600E-2,-1.468842745E0,9.822811127E0,-2.220622003E-1
9.308770900E-2,-1.487996340E0,9.822811127E0,-1.837549806E-1
9.561572900E-2,-1.535880446E0,9.808445930E0,-1.502361596E-1
9.813947900E-2,-1.612494826E0,9.822811127E0,-1.215057373E-1
1.006271360E-1,-1.693897724E0,9.822811127E0,-1.262941360E-1
1.031147920E-1,-1.784877419E0,9.841964722E0,-1.502361596E-1
1.056024480E-1,-1.851915002E0,9.865906715E0,-1.837549806E-1
1.080901040E-1,-1.933317900E0,9.894637108E0,-1.837549806E-1
1.105777610E-1,-2.000355482E0,9.904213905E0,-1.598129570E-1
1.130654170E-1,-2.067393064E0,9.909002304E0,-1.023521200E-1
1.155530730E-1,-2.062604666E0,9.894637108E0,-1.616086066E-2
1.180407290E-1,-2.038662672E0,9.909002304E0,3.651157767E-2
1.205283860E-1,-2.024297476E0,9.899425507E0,8.918401599E-2
1.230160420E-1,-2.009932280E0,9.894637108E0,1.083376259E-1
1.255036980E-1,-1.985990286E0,9.889848709E0,6.524199992E-2
1.279913540E-1,-1.976413488E0,9.889848709E0,4.129998013E-2
1.304790110E-1,-2.005143881E0,9.880271912E0,6.045359373E-2
1.329666670E-1,-2.019509077E0,9.875483513E0,6.524199992E-2
1.354543230E-1,-2.019509077E0,9.913790703E0,-1.795651275E-3
1.379419790E-1,-2.019509077E0,9.937732697E0,-8.798690885E-2
1.404296360E-1,-2.033874273E0,9.947309494E0,-1.310825497E-1
1.429172920E-1,-2.081758261E0,9.932944298E0,-9.277531505E-2
1.454049480E-1,-2.086546898E0,9.865906715E0,-6.883329898E-2
1.478926040E-1,-2.076969862E0,9.813234329E0,-1.023521200E-1
1.503802610E-1,-1.995567083E0,9.755773544E0,-1.981201917E-1
1.528679170E-1,-1.909375906E0,9.717466354E0,-2.651578486E-1
1.553555730E-1,-1.823184609E0,9.707889557E0,-3.417722881E-1
1.578432290E-1,-1.746570110E0,9.717466354E0,-3.705027103E-1
1.603308860E-1,-1.660378933E0,9.750985146E0,-3.465606868E-1
1.628185420E-1,-1.617283225E0,9.774927139E0,-3.417722881E-1
1.653061980E-1,-1.569399238E0,9.813234329E0,-2.938882709E-1
1.677938540E-1,-1.545457244E0,9.846753120E0,-2.938882709E-1
1.702815110E-1,-1.511938334E0,9.865906715E0,-2.795230448E-1
1.727691670E-1,-1.492784739E0,9.865906715E0,-3.417722881E-1
1.752568230E-1,-1.459265947E0,9.870695114E0,-2.938882709E-1
1.777444790E-1,-1.444900751E0,9.880271912E0,-3.944447339E-1
1.802321360E-1,-1.397016644E0,9.861118317E0,-3.226186931E-1
1.827197920E-1,-1.363497853E0,9.851541519E0,-2.890998423E-1
1.852074480E-1,-1.277306557E0,9.837176323E0,-2.124854028E-1
1.876951040E-1,-1.258152962E0,9.841964722E0,-3.848679364E-1
1.901827610E-1,-1.234210968E0,9.813234329E0,-4.279635549E-1
1.926704170E-1,-1.310825467E0,9.794080734E0,-5.189431906E-1
1.951580730E-1,-1.420958757E0,9.750985146E0,-3.944447339E-1
1.976457290E-1,-1.569399238E0,9.722254753E0,-3.848679364E-1
2.001333860E-1,-1.727416515E0,9.703101158E0,-2.460042238E-1
2.026210420E-1,-1.856703401E0,9.707889557E0,-2.986766696E-1
2.051086980E-1,-1.962048292E0,9.703101158E0,-1.933317930E-1
2.075963540E-1,-2.048239470E0,9.717466354E0,-2.747346461E-1
2.100840110E-1,-2.081758261E0,9.717466354E0,-1.598129570E-1
2.125716670E-1,-2.086546898E0,9.722254753E0,-2.316390127E-1
2.150593230E-1,-2.057816267E0,9.712677956E0,-1.023521200E-1
2.175469790E-1,-2.048239470E0,9.707889557E0,-1.646013707E-1
2.200346360E-1,-1.995567083E0,9.655217171E0,-2.573766746E-2
2.225222920E-1,-1.957259893E0,9.645640373E0,-8.319851011E-2
2.250099480E-1,-1.904587507E0,9.602544785E0,-1.616086066E-2
2.274976040E-1,-1.856703401E0,9.602544785E0,-1.119289324E-1
2.299852610E-1,-1.784877419E0,9.597756386E0,-8.798690885E-2
2.324729170E-1,-1.717839718E0,9.621698380E0,-2.172738016E-1
2.349605730E-1,-1.626860023E0,9.631275177E0,-1.933317930E-1
2.374482290E-1,-1.540668845E0,9.640851974E0,-2.795230448E-1
2.399358860E-1,-1.464054346E0,9.631275177E0,-2.316390127E-1
2.424235420E-1,-1.377863050E0,9.626486778E0,-3.034650683E-1
2.449111980E-1,-1.301248670E0,9.616909981E0,-3.130418658E-1
2.473988540E-1,-1.191115379E0,9.645640373E0,-3.752911091E-1
2.498865110E-1,-1.114500880E0,9.626486778E0,-3.705027103E-1
2.523741670E-1,-1.028309584E0,9.626486778E0,-4.279635549E-1
2.548618230E-1,-9.852139950E-1,9.631275177E0,-4.614823759E-1
2.573494790E-1,-9.421183467E-1,9.655217171E0,-5.141547918E-1
2.598371360E-1,-9.325415492E-1,9.674370766E0,-5.907692909E-1
2.623247920E-1,-9.564836025E-1,9.717466354E0,-6.673837304E-1
2.648124480E-1,-1.018732786E0,9.746196747E0,-7.679402232E-1
2.673001040E-1,-1.066616893E0,9.794080734E0,-8.493430614E-1
2.697877610E-1,-1.138442874E0,9.832387924E0,-9.594763517E-1
2.722754170E-1,-1.162384868E0,9.865906715E0,-9.546879530E-1
2.747630730E-1,-1.176750183E0,9.865906715E0,-9.977835417E-1
2.772507290E-1,-1.138442874E0,9.870695114E0,-8.732850552E-1
2.797383860E-1,-1.109712481E0,9.875483513E0,-8.397662640E-1
2.822260420E-1,-1.028309584E0,9.856329918E0,-6.769605279E-1
2.847136980E-1,-9.708487988E-1,9.865906715E0,-6.865373254E-1
2.872013540E-1,-9.229647517E-1,9.894637108E0,-5.811924338E-1
2.896890110E-1,-8.846575022E-1,9.923367500E0,-6.625953317E-1
2.921766670E-1,-8.702923059E-1,9.942521095E0,-5.859808922E-1
2.946643230E-1,-8.750807047E-1,9.966463089E0,-6.673837304E-1
2.971519790E-1,-8.942343593E-1,9.976039886E0,-5.716156363E-1
2.996396360E-1,-9.373299479E-1,1.001434708E1,-6.961141229E-1
3.021272920E-1,-9.564836025E-1,1.003828907E1,-6.099228859E-1
3.046149480E-1,-9.660604000E-1,1.003828907E1,-7.152677774E-1
3.071026040E-1,-9.516952038E-1,1.003828907E1,-6.338648796E-1
3.095902610E-1,-9.277531505E-1,1.005265427E1,-7.535749674E-1
3.120779170E-1,-9.038111567E-1,1.005744267E1,-6.578069329E-1
3.145655730E-1,-9.038111567E-1,1.006701946E1,-7.152677774E-1
3.170532290E-1,-9.085995555E-1,1.004786587E1,-5.764040351E-1
3.195408860E-1,-9.229647517E-1,1.005744267E1,-6.386532784E-1
3.220285420E-1,-9.660604000E-1,1.003350067E1,-5.333084464E-1
3.245161980E-1,-1.009155989E0,1.004307747E1,-6.242880821E-1
3.270038540E-1,-1.052251697E0,1.003828907E1,-4.950011969E-1
3.294915110E-1,-1.052251697E0,1.002871227E1,-5.380968451E-1
3.319791670E-1,-1.028309584E0,1.001434708E1,-4.614823759E-1
3.344668230E-1,-9.995791912E-1,1.003350067E1,-5.764040351E-1
3.369544790E-1,-9.660604000E-1,1.001434708E1,-5.668272376E-1
3.394421360E-1,-9.325415492E-1,1.000955868E1,-6.530185342E-1
3.419297920E-1,-8.942343593E-1,9.985616684E0,-6.051344872E-1
3.444174480E-1,-8.655039072E-1,9.976039886E0,-6.961141229E-1
3.469051040E-1,-8.846575022E-1,9.966463089E0,-6.673837304E-1
3.493927610E-1,-9.085995555E-1,9.961674690E0,-7.296329737E-1
3.518804170E-1,-9.708487988E-1,9.937732697E0,-7.296329737E-1
3.543680730E-1,-1.023521185E0,9.932944298E0,-7.727286220E-1
3.568557290E-1,-1.085770488E0,9.899425507E0,-7.487865686E-1
3.593433860E-1,-1.143231273E0,9.894637108E0,-7.439981699E-1
3.618310420E-1,-1.167173386E0,9.851541519E0,-7.009025216E-1
3.643186980E-1,-1.157596469E0,9.798869133E0,-6.530185342E-1
3.668063540E-1,-1.167173386E0,9.774927139E0,-6.386532784E-1
3.692940110E-1,-1.167173386E0,9.741408348E0,-5.811924338E-1
3.717816670E-1,-1.162384868E0,9.712677956E0,-6.386532784E-1
3.742693230E-1,-1.157596469E0,9.707889557E0,-6.434416771E-1
3.767569790E-1,-1.138442874E0,9.703101158E0,-7.392097712E-1
3.792446360E-1,-1.085770488E0,9.703101158E0,-7.296329737E-1
3.817322920E-1,-1.061828494E0,9.693524361E0,-8.254010081E-1
3.842199480E-1,-9.995791912E-1,9.660005569E0,-7.583633661E-1
3.867076040E-1,-9.229647517E-1,9.655217171E0,-8.349778652E-1
3.891952610E-1,-8.463503122E-1,9.645640373E0,-7.296329737E-1
3.916829170E-1,-7.888894677E-1,9.612121582E0,-8.158242106E-1
3.941705730E-1,-7.218518257E-1,9.578602791E0,-7.200561762E-1
3.966582290E-1,-6.739677787E-1,9.559449196E0,-8.206126094E-1
3.991458860E-1,-6.452373862E-1,9.549872398E0,-7.631517649E-1
4.016335420E-1,-6.356605291E-1,9.554660797E0,-9.020155072E-1
4.041211980E-1,-5.877765417E-1,9.545084000E0,-8.301894665E-1
4.066088540E-1,-5.638344884E-1,9.554660797E0,-9.355342984E-1
4.090965110E-1,-5.590460896E-1,9.549872398E0,-8.110358119E-1
4.115841670E-1,-5.686228871E-1,9.569025993E0,-8.828618526E-1
4.140718230E-1,-5.781996846E-1,9.573814392E0,-7.631517649E-1
4.165594790E-1,-6.212953329E-1,9.612121582E0,-8.684966564E-1
4.190471360E-1,-6.643909812E-1,9.631275177E0,-7.870938182E-1
4.215347920E-1,-6.931213737E-1,9.660005569E0,-9.068039060E-1
4.240224480E-1,-7.170634270E-1,9.664793968E0,-8.110358119E-1
4.265101040E-1,-7.457938194E-1,9.693524361E0,-8.924387097E-1
4.289977610E-1,-7.505822182E-1,9.703101158E0,-8.158242106E-1
4.314854170E-1,-7.936778665E-1,9.727043152E0,-8.780734539E-1
4.339730730E-1,-8.463503122E-1,9.722254753E0,-8.110358119E-1
4.364607290E-1,-9.181763530E-1,9.765350342E0,-9.211691022E-1
4.389483860E-1,-1.023521185E0,9.789292336E0,-8.924387097E-1
4.414360420E-1,-1.104924083E0,9.827599525E0,-1.012148738E0
4.439236980E-1,-1.162384868E0,9.841964722E0,-9.738415480E-1
4.464113540E-1,-1.186326981E0,9.856329918E0,-1.007360339E0
4.488990110E-1,-1.191115379E0,9.841964722E0,-9.163807034E-1
4.513866670E-1,-1.143231273E0,9.846753120E0,-9.020155072E-1
4.538743230E-1,-1.095347285E0,9.822811127E0,-8.110358119E-1
4.563619790E-1,-1.042674899E0,9.818022728E0,-7.679402232E-1
4.588496360E-1,-9.947907925E-1,9.813234329E0,-7.487865686E-1
4.613372920E-1,-9.564836025E-1,9.837176323E0,-7.870938182E-1
4.638249480E-1,-9.085995555E-1,9.865906715E0,-8.541314602E-1
4.663126040E-1,-8.702923059E-1,9.870695114E0,-8.828618526E-1
4.688002610E-1,-8.271966577E-1,9.880271912E0,-9.211691022E-1
4.712879170E-1,-7.697358727E-1,9.894637108E0,-9.068039060E-1
4.737755730E-1,-7.266402245E-1,9.913790703E0,-9.786299467E-1
4.762632290E-1,-6.596025825E-1,9.947309494E0,-9.690531492E-1
4.787508860E-1,-6.165069342E-1,9.971251488E0,-1.055244446E0
4.812385420E-1,-5.542576909E-1,9.980828285E0,-9.834183455E-1
4.837261980E-1,-5.398924947E-1,9.985616684E0,-1.055244446E0
4.862138540E-1,-5.303156972E-1,9.947309494E0,-1.002571940E0
4.887015110E-1,-5.781996846E-1,9.937732697E0,-1.131858826E0
4.911891670E-1,-6.117185354E-1,9.942521095E0,-1.117493629E0
4.936768230E-1,-6.643909812E-1,9.961674690E0,-1.289876223E0
4.961644790E-1,-6.931213737E-1,9.999981880E0,-1.275510907E0
4.986521360E-1,-7.170634270E-1,1.005744267E1,-1.433528304E0
5.011397920E-1,-7.266402245E-1,1.007659626E1,-1.376067400E0
5.036274480E-1,-7.218518257E-1,1.010532665E1,-1.495777488E0
5.061151040E-1,-7.314286232E-1,1.007659626E1,-1.313818216E0
5.086027610E-1,-7.505822182E-1,1.004786587E1,-1.318606615E0
5.110904170E-1,-8.176198602E-1,9.980828285E0,-1.131858826E0
5.135780730E-1,-8.559271097E-1,9.913790703E0,-1.208473325E0
5.160657290E-1,-9.038111567E-1,9.846753120E0,-1.103128433E0
5.185533860E-1,-9.373299479E-1,9.837176323E0,-1.208473325E0
5.210410420E-1,-9.373299479E-1,9.841964722E0,-1.112705231E0
5.235286980E-1,-9.229647517E-1,9.894637108E0,-1.237203717E0
5.260163540E-1,-9.181763530E-1,9.952097893E0,-1.155800819E0
5.285040110E-1,-9.133879542E-1,1.002392387E1,-1.265934110E0
5.309916670E-1,-9.133879542E-1,1.003828907E1,-1.165377736E0
5.334793230E-1,-9.181763530E-1,1.009096146E1,-1.232415318E0
5.359669790E-1,-9.469067454E-1,1.010053825E1,-1.136647224E0
5.384546360E-1,-9.708487988E-1,1.010532665E1,-1.165377736E0
5.409422920E-1,-1.013944387E0,1.009574986E1,-1.079186440E0
5.434299480E-1,-1.052251697E0,1.009574986E1,-1.117493629E0
5.459176040E-1,-1.076193690E0,1.007180786E1,-9.882067442E-1
5.484052610E-1,-1.061828494E0,1.004786587E1,-9.882067442E-1
5.508929170E-1,-1.033097982E0,1.001913548E1,-9.068039060E-1
5.533805730E-1,-1.023521185E0,9.995193481E0,-9.307458997E-1
5.558682290E-1,-9.995791912E-1,9.990405083E0,-8.732850552E-1
5.583558860E-1,-9.660604000E-1,9.999981880E0,-8.924387097E-1
5.608435420E-1,-9.516952038E-1,9.999981880E0,-9.115923047E-1
5.633311980E-1,-9.325415492E-1,1.000955868E1,-9.451110959E-1
5.658188540E-1,-9.421183467E-1,1.002392387E1,-1.026513934E0
5.683065110E-1,-9.564836025E-1,1.002871227E1,-1.069609642E0
5.707941670E-1,-9.804255962E-1,1.004786587E1,-1.160589218E0
5.732818230E-1,-9.756371975E-1,1.002871227E1,-1.170166135E0
5.757694790E-1,-9.995791912E-1,9.995193481E0,-1.246780515E0
5.782571360E-1,-9.804255962E-1,9.952097893E0,-1.203684926E0
5.807447920E-1,-9.708487988E-1,9.923367500E0,-1.275510907E0
5.832324480E-1,-9.469067454E-1,9.923367500E0,-1.213261724E0
5.857201040E-1,-9.229647517E-1,9.894637108E0,-1.237203717E0
5.882077610E-1,-8.990227580E-1,9.875483513E0,-1.093551636E0
5.906954170E-1,-8.942343593E-1,9.875483513E0,-1.151012421E0
5.931830730E-1,-8.942343593E-1,9.880271912E0,-1.016937137E0
5.956707290E-1,-9.373299479E-1,9.889848709E0,-1.103128433E0
5.981583860E-1,-9.708487988E-1,9.880271912E0,-1.026513934E0
6.006460420E-1,-1.009155989E0,9.923367500E0,-1.160589218E0
6.031336980E-1,-1.023521185E0,9.932944298E0,-1.079186440E0
6.056213540E-1,-1.037886381E0,9.971251488E0,-1.198896527E0
6.081090110E-1,-1.013944387E0,9.971251488E0,-1.069609642E0
6.105966670E-1,-9.756371975E-1,9.990405083E0,-1.184531331E0
6.130843230E-1,-9.421183467E-1,9.995193481E0,-1.036090732E0
6.155719790E-1,-9.133879542E-1,9.995193481E0,-1.103128433E0
6.180596360E-1,-8.942343593E-1,9.980828285E0,-1.007360339E0
6.205472920E-1,-9.181763530E-1,9.980828285E0,-1.146224022E0
6.230349480E-1,-9.325415492E-1,9.961674690E0,-1.050456047E0
6.255226040E-1,-9.612720013E-1,9.985616684E0,-1.136647224E0
6.280102610E-1,-9.804255962E-1,9.976039886E0,-9.977835417E-1
6.304979170E-1,-9.947907925E-1,9.999981880E0,-1.040879130E0
6.329855730E-1,-9.804255962E-1,9.999981880E0,-8.972271085E-1
6.354732290E-1,-9.612720013E-1,1.001913548E1,-9.307458997E-1
6.379608860E-1,-9.373299479E-1,1.000955868E1,-8.301894665E-1
6.404485420E-1,-9.373299479E-1,1.003828907E1,-9.068039060E-1
6.429361980E-1,-9.612720013E-1,1.002871227E1,-8.493430614E-1
6.454238540E-1,-9.900023937E-1,1.005265427E1,-9.259575009E-1
6.479115110E-1,-1.033097982E0,1.002871227E1,-9.211691022E-1
6.503991670E-1,-1.066616893E0,1.004786587E1,-1.031302333E0
6.528868230E-1,-1.114500880E0,1.005744267E1,-1.069609642E0
6.553744790E-1,-1.157596469E0,1.006223106E1,-1.131858826E0
6.578621360E-1,-1.210268974E0,1.007180786E1,-1.146224022E0
6.603497920E-1,-1.253364563E0,1.007180786E1,-1.165377736E0
6.628374480E-1,-1.262941360E0,1.004786587E1,-1.131858826E0
6.653251040E-1,-1.286883354E0,1.003828907E1,-1.093551636E0
6.678127610E-1,-1.262941360E0,1.002392387E1,-9.977835417E-1
6.703004170E-1,-1.291671872E0,9.995193481E0,-9.259575009E-1
6.727880730E-1,-1.310825467E0,1.000477028E1,-8.732850552E-1
6.752757290E-1,-1.349132657E0,1.001434708E1,-8.397662640E-1
6.777633860E-1,-1.397016644E0,1.002871227E1,-8.158242106E-1
6.802510420E-1,-1.459265947E0,1.005265427E1,-8.254010081E-1
6.827386980E-1,-1.535880446E0,1.010053825E1,-8.637082577E-1
6.852263540E-1,-1.578976035E0,1.012926865E1,-8.972271085E-1
6.877140110E-1,-1.583764434E0,1.014363384E1,-8.828618526E-1
6.902016670E-1,-1.564610839E0,1.016757584E1,-8.876502514E-1
6.926893230E-1,-1.531091928E0,1.019630623E1,-8.876502514E-1
6.951769790E-1,-1.464054346E0,1.022982502E1,-8.924387097E-1
6.976646360E-1,-1.416170359E0,1.024419022E1,-8.780734539E-1
7.001522920E-1,-1.397016644E0,1.028249741E1,-8.589198589E-1
7.026399480E-1,-1.377863050E0,1.030643940E1,-8.349778652E-1
7.051276040E-1,-1.368286252E0,1.031122780E1,-8.445546627E-1
7.076152610E-1,-1.339555860E0,1.033516979E1,-8.589198589E-1
7.101029170E-1,-1.310825467E0,1.036868858E1,-8.254010081E-1
7.125905730E-1,-1.272518158E0,1.038305378E1,-8.014590144E-1
7.150782290E-1,-1.215057373E0,1.038784218E1,-8.014590144E-1
7.175658860E-1,-1.191115379E0,1.038305378E1,-8.589198589E-1
7.200535420E-1,-1.210268974E0,1.039741898E1,-9.738415480E-1
7.225411980E-1,-1.234210968E0,1.040220737E1,-1.103128433E0
7.250288540E-1,-1.282094955E0,1.040699577E1,-1.174954534E0
7.275165110E-1,-1.320402265E0,1.038305378E1,-1.237203717E0
7.300041670E-1,-1.377863050E0,1.036390018E1,-1.246780515E0
7.324918230E-1,-1.420958757E0,1.033038139E1,-1.246780515E0
7.349794790E-1,-1.459265947E0,1.031122780E1,-1.213261724E0
7.374671360E-1,-1.473631144E0,1.029207420E1,-1.184531331E0
7.399547920E-1,-1.497573137E0,1.027770901E1,-1.194108129E0
7.424424480E-1,-1.535880446E0,1.027770901E1,-1.189319730E0
7.449301040E-1,-1.588552833E0,1.028249741E1,-1.160589218E0
7.474177610E-1,-1.655590534E0,1.029686260E1,-1.131858826E0
7.499054170E-1,-1.751358509E0,1.031601620E1,-1.093551636E0
7.523930730E-1,-1.847126603E0,1.034474659E1,-1.055244446E0
7.548807290E-1,-1.947683096E0,1.038784218E1,-1.055244446E0
7.573683860E-1,-2.005143881E0,1.044530392E1,-1.040879130E0
7.598560420E-1,-2.043451071E0,1.048839951E1,-1.021725535E0
7.623436980E-1,-2.072181463E0,1.053628349E1,-1.002571940E0
7.648313540E-1,-2.048239470E0,1.060810947E1,-9.977835417E-1
7.673190110E-1,-2.000355482E0,1.067514706E1,-9.690531492E-1
7.698066670E-1,-1.928529501E0,1.075176144E1,-9.498994946E-1
7.722943230E-1,-1.847126603E0,1.086668301E1,-9.546879530E-1
7.747819790E-1,-1.765723705E0,1.098639297E1,-9.882067442E-1
7.772696360E-1,-1.679532528E0,1.112046814E1,-1.031302333E0
7.797572920E-1,-1.612494826E0,1.127369690E1,-1.045667648E0
7.822449480E-1,-1.540668845E0,1.143650341E1,-1.064821243E0
7.847326040E-1,-1.464054346E0,1.160409737E1,-1.060032845E0
7.872202610E-1,-1.382651448E0,1.177169132E1,-1.021725535E0
7.897079170E-1,-1.286883354E0,1.192013168E1,-9.690531492E-1
7.921955730E-1,-1.234210968E0,1.207814884E1,-9.498994946E-1
7.946832290E-1,-1.210268974E0,1.223616600E1,-9.546879530E-1
7.971708860E-1,-1.191115379E0,1.235108757E1,-9.834183455E-1
7.996585420E-1,-1.238999367E0,1.245643330E1,-1.026513934E0
8.021461980E-1,-1.301248670E0,1.252347088E1,-1.098340034E0
8.046338540E-1,-1.334767461E0,1.258093166E1,-1.112705231E0
8.071215110E-1,-1.344344258E0,1.259529686E1,-1.141435623E0
8.096091670E-1,-1.344344258E0,1.258093166E1,-1.184531331E0
8.120968230E-1,-1.349132657E0,1.253783607E1,-1.194108129E0
8.145844790E-1,-1.368286252E0,1.248037529E1,-1.227626920E0
8.170721360E-1,-1.406593442E0,1.239418411E1,-1.251568913E0
8.195597920E-1,-1.459265947E0,1.232714558E1,-1.299453020E0
8.220474480E-1,-1.487996340E0,1.225053120E1,-1.285087705E0
8.245351040E-1,-1.521515131E0,1.218349361E1,-1.309029818E0
8.270227610E-1,-1.526303530E0,1.213560963E1,-1.285087705E0
8.295104170E-1,-1.550245643E0,1.209730244E1,-1.222838521E0
8.319980730E-1,-1.569399238E0,1.209251404E1,-1.165377736E0
8.344857290E-1,-1.617283225E0,1.209251404E1,-1.155800819E0
8.369733860E-1,-1.660378933E0,1.210687923E1,-1.131858826E0
8.394610420E-1,-1.698686123E0,1.211645603E1,-1.112705231E0
8.419486980E-1,-1.727416515E0,1.214518642E1,-1.079186440E0
8.444363540E-1,-1.736993313E0,1.218828201E1,-1.074398041E0
8.469240110E-1,-1.765723705E0,1.222658920E1,-1.045667648E0
8.494116670E-1,-1.794454217E0,1.226010799E1,-1.040879130E0
8.518993230E-1,-1.794454217E0,1.228404999E1,-1.050456047E0
8.543869790E-1,-1.770512104E0,1.234629917E1,-1.036090732E0
8.568746360E-1,-1.722628117E0,1.237502956E1,-9.594763517E-1
8.593622920E-1,-1.660378933E0,1.238460732E1,-9.115923047E-1
8.618499480E-1,-1.612494826E0,1.239418411E1,-8.349778652E-1
8.643376040E-1,-1.583764434E0,1.239418411E1,-7.679402232E-1
8.668252610E-1,-1.578976035E0,1.238460732E1,-7.439981699E-1
8.693129170E-1,-1.588552833E0,1.238939571E1,-7.775170207E-1
8.718005730E-1,-1.607706428E0,1.237502956E1,-8.301894665E-1
8.742882290E-1,-1.626860023E0,1.236066437E1,-9.020155072E-1
8.767758860E-1,-1.612494826E0,1.236066437E1,-9.355342984E-1
8.792635420E-1,-1.612494826E0,1.235587597E1,-9.642647505E-1
8.817511980E-1,-1.612494826E0,1.235108757E1,-9.594763517E-1
8.842388540E-1,-1.593341231E0,1.230320358E1,-9.594763517E-1
8.867265110E-1,-1.578976035E0,1.227447319E1,-9.642647505E-1
8.892141670E-1,-1.559822440E0,1.223616600E1,-9.690531492E-1
8.917018230E-1,-1.559822440E0,1.222180080E1,-9.403226972E-1
8.941894790E-1,-1.540668845E0,1.220743561E1,-9.020155072E-1
8.966771360E-1,-1.550245643E0,1.218349361E1,-8.445546627E-1
8.991647920E-1,-1.598129630E0,1.215476322E1,-8.397662640E-1
9.016524480E-1,-1.646013618E0,1.214039803E1,-8.780734539E-1
9.041401040E-1,-1.669955730E0,1.215955162E1,-8.828618526E-1
9.066277610E-1,-1.703474522E0,1.215476322E1,-8.972271085E-1
9.091154170E-1,-1.741781712E0,1.217391682E1,-8.924387097E-1
9.116030730E-1,-1.751358509E0,1.218349361E1,-9.068039060E-1
9.140907290E-1,-1.765723705E0,1.220264721E1,-9.115923047E-1
9.165783860E-1,-1.756146908E0,1.220264721E1,-8.541314602E-1
9.190660420E-1,-1.784877419E0,1.219785881E1,-8.206126094E-1
9.215536980E-1,-1.804031014E0,1.217870522E1,-7.966706157E-1
9.240413540E-1,-1.842338204E0,1.215476322E1,-7.918822169E-1
9.265290110E-1,-1.880645394E0,1.214997482E1,-7.439981699E-1
9.290166670E-1,-1.904587507E0,1.214997482E1,-7.775170207E-1
9.315043230E-1,-1.904587507E0,1.214039803E1,-8.110358119E-1
9.339919790E-1,-1.880645394E0,1.214997482E1,-8.493430614E-1
9.364796360E-1,-1.813607812E0,1.214518642E1,-8.684966564E-1
9.389672920E-1,-1.727416515E0,1.214997482E1,-8.684966564E-1
9.414549480E-1,-1.636436820E0,1.215955162E1,-8.397662640E-1
9.439426040E-1,-1.569399238E0,1.213560963E1,-8.158242106E-1
9.464302610E-1,-1.478419542E0,1.209730244E1,-8.206126094E-1
9.489179170E-1,-1.435323954E0,1.207814884E1,-8.349778652E-1
9.514055730E-1,-1.401805043E0,1.204463005E1,-8.349778652E-1
9.538932290E-1,-1.368286252E0,1.200153446E1,-8.732850552E-1
9.563808860E-1,-1.353921056E0,1.197280407E1,-9.068039060E-1
9.588685420E-1,-1.363497853E0,1.193928528E1,-1.007360339E0
9.613561980E-1,-1.382651448E0,1.189140129E1,-1.064821243E0
9.638438540E-1,-1.392228246E0,1.187224770E1,-1.069609642E0
9.663315110E-1,-1.358709455E0,1.182436371E1,-1.088763237E0
9.688191670E-1,-1.306037068E0,1.176690292E1,-1.112705231E0
9.713068230E-1,-1.243787766E0,1.169507694E1,-1.093551636E0
9.737944790E-1,-1.200692177E0,1.160409737E1,-1.045667648E0
9.762821360E-1,-1.176750183E0,1.154184818E1,-1.012148738E0
9.787697920E-1,-1.171961784E0,1.147481060E1,-9.977835417E-1
9.812574480E-1,-1.200692177E0,1.142213821E1,-1.002571940E0
9.837451040E-1,-1.210268974E0,1.139819527E1,-1.012148738E0
9.862327610E-1,-1.215057373E0,1.139340687E1,-1.040879130E0
9.887204170E-1,-1.186326981E0,1.140777302E1,-1.055244446E0
9.912080730E-1,-1.143231273E0,1.141256142E1,-1.026513934E0
9.936957290E-1,-1.076193690E0,1.144129181E1,-1.002571940E0
9.961833860E-1,-1.023521185E0,1.145086861E1,-9.882067442E-1
9.986710420E-1,-9.947907925E-1,1.146044540E1,-9.834183455E-1
1.001158698E0,-9.852139950E-1,1.146044540E1,-9.642647505E-1
1.003646354E0,-1.028309584E0,1.147002220E1,-9.403226972E-1
1.006134011E0,-1.104924083E0,1.147481060E1,-9.594763517E-1
1.008621667E0,-1.148019671E0,1.148917580E1,-1.002571940E0
1.011109323E0,-1.171961784E0,1.151790619E1,-1.064821243E0
1.013596979E0,-1.176750183E0,1.154184818E1,-1.093551636E0
1.016084636E0,-1.114500880E0,1.155621338E1,-1.103128433E0
1.018572292E0,-1.033097982E0,1.158973217E1,-1.079186440E0
1.021059948E0,-9.229647517E-1,1.159452057E1,-1.040879130E0
1.023547604E0,-8.080430627E-1,1.163761616E1,-1.031302333E0
1.026035261E0,-7.218518257E-1,1.166155815E1,-1.026513934E0
1.028522917E0,-6.691793799E-1,1.169507694E1,-1.021725535E0
1.031010573E0,-6.356605291E-1,1.173338413E1,-1.016937137E0
1.033498229E0,-6.308721304E-1,1.178126812E1,-1.012148738E0
1.035985886E0,-6.260837317E-1,1.182436371E1,-9.690531492E-1
1.038473542E0,-6.165069342E-1,1.186745930E1,-9.259575009E-1
1.040961198E0,-5.925649405E-1,1.189618969E1,-8.876502514E-1
1.043448854E0,-5.686228871E-1,1.188182449E1,-8.493430614E-1
1.045936511E0,-5.255272985E-1,1.186745930E1,-7.918822169E-1
1.048424167E0,-4.728548229E-1,1.185309410E1,-7.439981699E-1
1.050911823E0,-4.537012279E-1,1.181957531E1,-6.578069329E-1
1.053399479E0,-4.537012279E-1,1.179563332E1,-5.716156363E-1
1.055887136E0,-5.159504414E-1,1.177647972E1,-5.237316489E-1
1.058374792E0,-5.542576909E-1,1.175732613E1,-5.285200477E-1
1.060862448E0,-6.069301367E-1,1.172380733E1,-5.716156363E-1
1.063350104E0,-6.548141837E-1,1.171423054E1,-6.386532784E-1
1.065837761E0,-6.931213737E-1,1.172859573E1,-7.056909800E-1
1.068325417E0,-7.218518257E-1,1.175253773E1,-7.248445749E-1
1.070813073E0,-7.601590157E-1,1.176690292E1,-7.009025216E-1
1.073300729E0,-7.888894677E-1,1.181478691E1,-6.386532784E-1
1.075788386E0,-8.271966577E-1,1.184351730E1,-5.380968451E-1
1.078276042E0,-8.463503122E-1,1.184351730E1,-4.758476019E-1
1.080763698E0,-8.367735147E-1,1.184830570E1,-3.992331326E-1
1.083251354E0,-7.984662652E-1,1.183394051E1,-3.513490856E-1
1.085739011E0,-7.362170219E-1,1.180521011E1,-2.699462473E-1
1.088226667E0,-6.500257850E-1,1.176690292E1,-1.598129570E-1
1.090714323E0,-5.734112859E-1,1.173338413E1,-4.489128292E-2
1.093201979E0,-5.255272985E-1,1.169986534E1,4.608838260E-2
1.095689636E0,-4.824316502E-1,1.163761616E1,7.960720360E-2
1.098177292E0,-4.632780254E-1,1.158494377E1,7.960720360E-2
1.100664948E0,-4.680664241E-1,1.155142498E1,5.566519126E-2
1.103152604E0,-4.393360019E-1,1.148917580E1,1.256955881E-2
1.105640261E0,-4.345476031E-1,1.141734982E1,-6.883329898E-2
1.108127917E0,-4.249708056E-1,1.133594608E1,-1.071405262E-1
1.110615573E0,-3.962403834E-1,1.124975491E1,-1.167173311E-1
1.113103229E0,-3.722983599E-1,1.113004494E1,-1.023521200E-1
1.115590886E0,-3.292027414E-1,1.099118137E1,-7.362170517E-2
1.118078542E0,-3.148375154E-1,1.083316422E1,-7.362170517E-2
1.120566198E0,-2.813186944E-1,1.068472385E1,-3.052607179E-2
1.123053854E0,-2.238578647E-1,1.052191830E1,1.735796221E-2
1.125541511E0,-1.568202078E-1,1.037826538E1,7.960720360E-2
1.128029167E0,-9.935937077E-2,1.023940182E1,1.370680481E-1
1.130516823E0,-8.499415964E-2,1.013884544E1,1.227028370E-1
1.133004479E0,-1.280897856E-1,1.006223106E1,7.481880486E-2
1.135492136E0,-2.094926536E-1,1.002392387E1,-2.094926499E-2
1.137979792E0,-2.908954918E-1,9.990405083E0,-1.454477459E-1
1.140467448E0,-3.914519846E-1,1.000477028E1,-2.412158251E-1
1.142955104E0,-4.489128292E-1,1.001913548E1,-3.369838893E-1
1.145442761E0,-4.537012279E-1,1.003828907E1,-3.800795078E-1
1.147930417E0,-4.584896266E-1,1.003350067E1,-3.130418658E-1
1.150418073E0,-4.345476031E-1,1.000955868E1,-1.646013707E-1
1.152905729E0,-4.393360019E-1,9.990405083E0,2.992752008E-3
1.155393386E0,-4.393360019E-1,9.913790703E0,1.753752679E-1
1.157881042E0,-4.584896266E-1,9.851541519E0,2.950853705E-1
1.160368698E0,-4.632780254E-1,9.784503937E0,4.100070298E-1
1.162856354E0,-4.680664241E-1,9.722254753E0,5.105634928E-1
1.165344011E0,-4.728548229E-1,9.693524361E0,5.536591411E-1
1.167831667E0,-4.489128292E-1,9.669582367E0,5.345055461E-1
1.170319323E0,-3.770867586E-1,9.636063576E0,5.009866953E-1
1.172806979E0,-2.956839204E-1,9.597756386E0,4.818331003E-1
1.175294636E0,-1.951274425E-1,9.516353607E0,4.578910768E-1
1.177782292E0,-1.233013868E-1,9.430161476E0,4.147954583E-1
1.180269948E0,-7.541735470E-2,9.329605103E0,3.860650361E-1
1.182757604E0,-4.668693244E-2,9.181164742E0,3.094505668E-1
1.185245261E0,-5.147533491E-2,9.061454773E0,1.897404790E-1
1.187732917E0,-1.280897856E-1,8.927379608E0,4.129998013E-2
1.190220573E0,-1.951274425E-1,8.802881241E0,-1.406593472E-1
1.192708229E0,-2.908954918E-1,8.687959671E0,-3.752911091E-1
1.195195886E0,-3.148375154E-1,8.606556892E0,-5.428852439E-1
1.197683542E0,-3.339911401E-1,8.515577316E0,-6.003460884E-1
1.200171198E0,-3.196259141E-1,8.438961983E0,-5.476736426E-1
1.202658854E0,-2.525882721E-1,8.376712799E0,-4.566939771E-1
1.205146511E0,-1.903390288E-1,8.295310020E0,-3.800795078E-1
1.207634167E0,-1.759738177E-1,8.213907242E0,-3.034650683E-1
1.210121823E0,-1.999158412E-1,8.146869659E0,-1.981201917E-1
1.212609479E0,-2.382230759E-1,8.113350868E0,-1.502361596E-1
1.215097136E0,-3.387795389E-1,8.094197273E0,-1.119289324E-1
1.217584792E0,-4.345476031E-1,8.084620476E0,-1.023521200E-1
1.220072448E0,-4.967968464E-1,8.146869659E0,-1.406593472E-1
1.222560104E0,-5.542576909E-1,8.204330444E0,-2.460042238E-1
1.225047761E0,-5.734112859E-1,8.266579628E0,-3.752911091E-1
1.227535417E0,-5.638344884E-1,8.343194008E0,-4.854243994E-1
1.230023073E0,-5.542576909E-1,8.371924400E0,-5.428852439E-1
1.232510729E0,-5.590460896E-1,8.362347603E0,-4.519055784E-1
1.234998386E0,-5.877765417E-1,8.328828812E0,-3.226186931E-1
1.237486042E0,-6.643909812E-1,8.247426033E0,-1.885433793E-1
1.239973698E0,-7.697358727E-1,8.146869659E0,-1.071405262E-1
1.242461354E0,-8.655039072E-1,8.017582893E0,-1.598129570E-1
1.244949011E0,-9.373299479E-1,7.873930931E0,-2.172738016E-1
1.247436667E0,-9.516952038E-1,7.735067368E0,-2.699462473E-1
1.249924323E0,-8.894459605E-1,7.610568523E0,-2.986766696E-1
1.252411979E0,-7.457938194E-1,7.514800549E0,-2.651578486E-1
1.254899636E0,-6.021417379E-1,7.447762966E0,-1.933317930E-1
1.257387292E0,-4.824316502E-1,7.399878979E0,-1.550245583E-1
1.259874948E0,-4.106055796E-1,7.380725384E0,-1.167173311E-1
1.262362604E0,-3.579331636E-1,7.366360188E0,-1.167173311E-1
1.264850313E0,-3.722983599E-1,7.342418194E0,-1.262941360E-1
1.267338021E0,-4.153940082E-1,7.308899403E0,-1.837549806E-1
1.269825729E0,-5.638344884E-1,7.332841396E0,-4.423287511E-1
1.272313438E0,-6.979097724E-1,7.457339764E0,-8.158242106E-1
1.274801146E0,-7.074866295E-1,7.356783390E0,-3.082534671E-1
1.277288854E0,-6.931213737E-1,7.318476200E0,-5.446808785E-2
1.279776563E0,-6.643909812E-1,7.313687801E0,-1.789665818E-1
1.282264271E0,-6.404489279E-1,7.313687801E0,-3.657143116E-1
1.284751979E0,-6.260837317E-1,7.318476200E0,-3.465606868E-1
1.287239688E0,-6.356605291E-1,7.323264599E0,-1.550245583E-1
1.289727396E0,-6.835445762E-1,7.347206593E0,-2.573766746E-2
1.292215104E0,-7.888894677E-1,7.347206593E0,2.992752008E-3
1.294702813E0,-9.516952038E-1,7.337629795E0,-7.362170517E-2
1.297190521E0,-1.095347285E0,7.342418194E0,-1.023521200E-1
1.299678229E0,-1.229422569E0,7.375936985E0,-1.215057373E-1
1.302165938E0,-1.291671872E0,7.419032574E0,-1.310825497E-1
1.304653646E0,-1.272518158E0,7.457339764E0,-1.646013707E-1
1.307141354E0,-1.205480576E0,7.466916561E0,-1.789665818E-1
1.309629063E0,-1.080982089E0,7.490858555E0,-1.454477459E-1
1.312116771E0,-9.564836025E-1,7.514800549E0,-4.967968538E-2
1.314604479E0,-8.846575022E-1,7.543530941E0,4.608838260E-2
1.317092188E0,-8.798691034E-1,7.572261333E0,1.562216580E-1
1.319579896E0,-9.995791912E-1,7.610568523E0,2.328361124E-1
1.322067604E0,-1.210268974E0,7.639298916E0,3.142389655E-1
1.324555313E0,-1.483207941E0,7.672817707E0,3.525462151E-1
1.327043021E0,-1.689109325E0,7.668029308E0,3.094505668E-1
1.329530729E0,-1.842338204E0,7.639298916E0,2.519897223E-1
1.332018438E0,-1.909375906E0,7.572261333E0,1.801636815E-1
1.334506094E0,-1.880645394E0,7.519588947E0,1.466448605E-1
1.336993750E0,-1.804031014E0,7.471704960E0,1.610100716E-1
1.339481407E0,-1.732204914E0,7.442974567E0,2.232593149E-1
1.341969063E0,-1.660378933E0,7.438186169E0,3.190273643E-1
1.344456719E0,-1.650802016E0,7.476493359E0,3.669114113E-1
1.346944375E0,-1.698686123E0,7.529165745E0,3.716998100E-1
1.349432032E0,-1.823184609E0,7.577049732E0,3.525462151E-1
1.351919688E0,-1.962048292E0,7.634510517E0,3.812766075E-1
1.354407344E0,-2.048239470E0,7.672817707E0,5.105634928E-1
1.356895000E0,-2.043451071E0,7.696759701E0,6.781576276E-1
1.359382657E0,-1.957259893E0,7.701548100E0,9.080010056E-1
1.361870313E0,-1.808819413E0,7.696759701E0,1.190516829E0
1.364357969E0,-1.679532528E0,7.691971302E0,1.439513803E0
1.366845625E0,-1.588552833E0,7.725490570E0,1.578377485E0
1.369333282E0,-1.602918029E0,7.816470146E0,1.559223890E0
1.371820938E0,-1.684320927E0,7.921814919E0,1.391629696E0
1.374308594E0,-1.808819413E0,8.046313286E0,1.171363235E0
1.376796250E0,-1.966836691E0,8.127716064E0,9.080010056E-1
1.379283907E0,-2.105700493E0,8.204330444E0,6.350619793E-1
1.381771563E0,-2.163161278E0,8.280944824E0,4.100070298E-1
1.384259219E0,-2.182314873E0,8.343194008E0,2.902969420E-1
1.386746875E0,-2.158372879E0,8.395866394E0,2.567781210E-1
1.389234532E0,-2.081758261E0,8.424596786E0,3.238157928E-1
1.391722188E0,-1.981201887E0,8.448538780E0,3.908534348E-1
1.394209844E0,-1.890222192E0,8.467693329E0,4.674678743E-1
1.396697500E0,-1.832761407E0,8.506000519E0,5.584475398E-1
1.399185157E0,-1.827973008E0,8.544307709E0,6.973112226E-1
1.401672813E0,-1.895010591E0,8.577826500E0,8.409633636E-1
1.404160469E0,-2.019509077E0,8.616133690E0,9.750386477E-1
1.406648125E0,-2.158372879E0,8.678382874E0,1.070806742E0
1.409135782E0,-2.297236443E0,8.711901665E0,1.171363235E0
1.411623438E0,-2.407369852E0,8.707113266E0,1.233612418E0
1.414111094E0,-2.498349428E0,8.687959671E0,1.257554412E0
1.416598750E0,-2.531868219E0,8.668806076E0,1.224035621E0
1.419086407E0,-2.507926226E0,8.625710487E0,1.137844324E0
1.421574063E0,-2.450465441E0,8.573038101E0,9.989806414E-1
1.424061719E0,-2.378639460E0,8.520365715E0,8.744821548E-1
1.426549375E0,-2.302024841E0,8.482058525E0,7.595604658E-1
1.429037032E0,-2.254140854E0,8.462904930E0,6.350619793E-1
1.431524688E0,-2.206256866E0,8.472481728E0,4.722562730E-1
1.434012344E0,-2.191891670E0,8.477270126E0,4.147954583E-1
1.436500000E0,-2.134430885E0,8.472481728E0,5.297171474E-1
1.438987657E0,-2.053027868E0,8.472481728E0,7.595604658E-1
1.441475313E0,-1.928529501E0,8.443750381E0,1.022922635E0
1.443962969E0,-1.775300503E0,8.405443192E0,1.281496406E0
1.446450625E0,-1.598129630E0,8.338405609E0,1.568800688E0
1.448938282E0,-1.435323954E0,8.290521622E0,1.793855667E0
1.451425938E0,-1.344344258E0,8.261791229E0,1.841739655E0
1.453913594E0,-1.387439847E0,8.266579628E0,1.765125155E0
1.456401250E0,-1.598129630E0,8.304886818E0,1.631049871E0
1.458888907E0,-1.842338204E0,8.343194008E0,1.540070295E0
1.461376563E0,-2.000355482E0,8.233060837E0,1.482609391E0
1.463864219E0,-2.316390038E0,8.510788918E0,7.020996213E-1
1.466351875E0,-2.464830637E0,8.582614899E0,7.930793166E-1
1.468839532E0,-2.512714624E0,8.534730911E0,7.164648771E-1
1.471327188E0,-2.450465441E0,8.443750381E0,5.680243373E-1
1.473814844E0,-2.388216257E0,8.300098419E0,5.249287486E-1
1.476302500E0,-2.340332270E0,8.166023254E0,4.914098978E-1
1.478790157E0,-2.359485865E0,8.118139267E0,4.100070298E-1
1.481277813E0,-2.416946650E0,8.156446457E0,3.716998100E-1
1.483765469E0,-2.498349428E0,8.218695641E0,3.716998100E-1
1.486253125E0,-2.574964046E0,8.328828812E0,4.483142793E-1
1.488740782E0,-2.560598612E0,8.448538780E0,5.297171474E-1
1.491228438E0,-2.527079821E0,8.539519310E0,6.590040326E-1
1.493716094E0,-2.302024841E0,8.438961983E0,1.152209520E0
1.496203750E0,-2.115277290E0,8.534730911E0,1.204882026E0
1.498691407E0,-1.957259893E0,8.754997253E0,1.362899303E0
1.501179063E0,-1.646013618E0,8.673594475E0,2.267907619E0
1.503666719E0,-1.224634171E0,8.391077995E0,2.698863983E0
1.506154375E0,-1.262941360E0,8.841188431E0,1.602319479E0
1.508642032E0,-1.306037068E0,8.898649216E0,2.167351007E0
1.511129688E0,-1.387439847E0,8.932168007E0,2.258330822E0
1.513617344E0,-1.473631144E0,8.932168007E0,1.856104851E0
1.516105000E0,-1.545457244E0,8.764574051E0,1.702875972E0
1.518592657E0,-1.602918029E0,8.544307709E0,1.564012289E0
1.521080313E0,-1.655590534E0,8.343194008E0,1.377264500E0
1.523567969E0,-1.626860023E0,8.161234856E0,1.267131209E0
1.526055625E0,-1.521515131E0,7.993640900E0,1.214458823E0
1.528543282E0,-1.521515131E0,7.902661324E0,1.118690729E0
1.531030938E0,-1.588552833E0,7.873930931E0,9.606734514E-1
1.533518594E0,-1.660378933E0,7.893084526E0,8.649053574E-1
1.536006250E0,-1.765723705E0,7.912238121E0,8.505401611E-1
1.538493907E0,-1.895010591E0,7.950545311E0,8.792705536E-1
1.540981563E0,-2.014720678E0,7.969698906E0,9.463081956E-1
1.543469219E0,-2.144007683E0,7.974487305E0,9.798270464E-1
1.545956875E0,-2.230198860E0,7.950545311E0,1.027711034E0
1.548444532E0,-2.254140854E0,7.888296127E0,1.042076349E0
1.550932188E0,-2.244564056E0,7.806893349E0,1.046864748E0
1.553419844E0,-2.196680069E0,7.711124897E0,1.037287831E0
1.555907500E0,-2.110488892E0,7.639298916E0,1.056441545E0
1.558395157E0,-2.005143881E0,7.591414928E0,1.066018343E0
1.560882813E0,-1.899798989E0,7.557896137E0,1.080383539E0
1.563370469E0,-1.799242616E0,7.553107738E0,1.032499433E0
1.565858125E0,-1.693897724E0,7.586626530E0,9.606734514E-1
1.568345782E0,-1.574187636E0,7.620145321E0,8.888474107E-1
1.570833438E0,-1.444900751E0,7.668029308E0,7.882909179E-1
1.573321094E0,-1.282094955E0,7.682394505E0,7.116764784E-1
1.575808750E0,-1.133654475E0,7.706336498E0,6.829460263E-1
1.578296407E0,-1.009155989E0,7.720701694E0,6.877344251E-1
1.580784063E0,-9.133879542E-1,7.735067368E0,7.260416746E-1
1.583271719E0,-8.559271097E-1,7.763797760E0,7.404068708E-1
1.585759375E0,-8.176198602E-1,7.768586159E0,7.356184721E-1
1.588247032E0,-8.080430627E-1,7.759009361E0,7.260416746E-1
1.590734688E0,-7.793126702E-1,7.739855766E0,6.637924314E-1
1.593222344E0,-7.505822182E-1,7.744644165E0,5.776011348E-1
1.595710000E0,-7.170634270E-1,7.773374557E0,4.722562730E-1
1.598197657E0,-7.314286232E-1,7.802104950E0,3.956418335E-1
1.600685313E0,-8.032546639E-1,7.854777336E0,2.998737693E-1
1.603172969E0,-9.229647517E-1,7.945756912E0,1.897404790E-1
1.605660625E0,-1.090558887E0,8.060678482E0,1.131260321E-1
1.608148282E0,-1.234210968E0,8.146869659E0,9.876082093E-2
1.610635938E0,-1.306037068E0,8.199542046E0,1.179144308E-1
1.613123594E0,-1.306037068E0,8.175600052E0,1.849520802E-1
1.615611250E0,-1.229422569E0,8.122927666E0,2.663549483E-1
1.618098907E0,-1.124077678E0,8.103774071E0,3.333925903E-1
1.620586563E0,-1.052251697E0,8.108562469E0,4.004302323E-1
1.623074219E0,-1.013944387E0,8.185176849E0,4.052186310E-1
1.625561875E0,-9.995791912E-1,8.295310020E0,4.100070298E-1
1.628049532E0,-9.995791912E-1,8.424596786E0,3.716998100E-1
1.630537188E0,-9.612720013E-1,8.539519310E0,3.525462151E-1
1.633024844E0,-8.655039072E-1,8.678382874E0,3.525462151E-1
1.635512500E0,-7.601590157E-1,8.769362450E0,3.860650361E-1
1.638000157E0,-6.500257850E-1,8.845976830E0,4.291606545E-1
1.640487813E0,-5.590460896E-1,8.903437614E0,4.195838571E-1
1.642975469E0,-4.824316502E-1,8.941744804E0,3.812766075E-1
1.645463125E0,-4.393360019E-1,9.003993988E0,3.477577865E-1
1.647950782E0,-4.106055796E-1,9.032724380E0,2.998737693E-1
1.650438438E0,-3.722983599E-1,9.032724380E0,2.663549483E-1
1.652926094E0,-3.627215624E-1,9.018359184E0,2.184709013E-1
1.655413750E0,-3.914519846E-1,9.018359184E0,1.849520802E-1
1.657901407E0,-4.584896266E-1,9.047089577E0,1.945288926E-1
1.660389063E0,-5.590460896E-1,9.114127159E0,1.562216580E-1
1.662876719E0,-6.500257850E-1,9.195529938E0,9.397241473E-2
1.665364375E0,-7.170634270E-1,9.272144318E0,7.960720360E-2
1.667852032E0,-7.314286232E-1,9.343970299E0,8.439560980E-2
1.670339688E0,-7.026981711E-1,9.372700691E0,9.397241473E-2
1.672827344E0,-6.500257850E-1,9.382277489E0,1.322796494E-1
1.675315000E0,-5.973533392E-1,9.382277489E0,1.897404790E-1
1.677802657E0,-5.781996846E-1,9.358335495E0,2.376245260E-1
1.680290313E0,-5.925649405E-1,9.343970299E0,2.519897223E-1
1.682777969E0,-6.596025825E-1,9.358335495E0,2.567781210E-1
1.685265625E0,-7.457938194E-1,9.387065887E0,2.376245260E-1
1.687753282E0,-8.463503122E-1,9.406219482E0,1.849520802E-1
1.690240938E0,-9.229647517E-1,9.458892822E0,1.274912357E-1
1.692728594E0,-9.469067454E-1,9.535507202E0,7.960720360E-2
1.695216250E0,-8.750807047E-1,9.597756386E0,7.960720360E-2
1.697703907E0,-7.745242715E-1,9.636063576E0,6.045359373E-2
1.700191563E0,-6.452373862E-1,9.683947563E0,5.566519126E-2
1.702679219E0,-5.494692922E-1,9.731831551E0,7.003039867E-2
1.705166875E0,-4.680664241E-1,9.798869133E0,6.045359373E-2
1.707654532E0,-4.106055796E-1,9.851541519E0,5.566519126E-2
1.710142188E0,-3.579331636E-1,9.894637108E0,3.172317147E-2
1.712629844E0,-3.004723191E-1,9.947309494E0,-1.795651275E-3
1.715117500E0,-2.430114746E-1,9.999981880E0,-3.052607179E-2
1.717605157E0,-1.951274425E-1,1.006223106E1,-6.883329898E-2
1.720092813E0,-1.711854190E-1,1.013884544E1,-1.310825497E-1
1.722580469E0,-1.328781992E-1,1.021545982E1,-1.885433793E-1
1.725068125E0,-9.457096457E-2,1.029207420E1,-1.933317930E-1
1.727555834E0,-3.232172132E-2,1.035432339E1,-1.406593472E-1
1.730043542E0,1.556231081E-2,1.035432339E1,-5.925649032E-2
1.732531250E0,7.302315533E-2,1.034474659E1,1.735796221E-2
1.735018959E0,1.209071875E-1,1.035911179E1,8.918401599E-2
1.737506667E0,1.113303825E-1,1.034953499E1,1.418564469E-1
1.739994375E0,6.823474914E-2,1.037826538E1,1.418564469E-1
1.742482084E0,-1.795651205E-2,1.044051552E1,9.397241473E-2
1.744969792E0,-1.089361757E-1,1.048361111E1,1.131260321E-1
1.747457500E0,-1.807622313E-1,1.054586029E1,1.466448605E-1
1.749945209E0,-2.430114746E-1,1.060810947E1,1.945288926E-1
1.752432917E0,-2.861070931E-1,1.061289787E1,2.376245260E-1
1.754920625E0,-3.196259141E-1,1.061768627E1,2.759317458E-1
1.757408334E0,-3.292027414E-1,1.062726307E1,3.477577865E-1
1.759896042E0,-3.339911401E-1,1.061289787E1,4.387374520E-1
1.762383750E0,-3.579331636E-1,1.062726307E1,5.105634928E-1
1.764871459E0,-3.818751574E-1,1.064162827E1,5.871779919E-1
1.767359167E0,-4.201824069E-1,1.065599346E1,6.446388364E-1
1.769846875E0,-5.159504414E-1,1.065599346E1,6.925228238E-1
1.772334584E0,-6.548141837E-1,1.067514706E1,7.212532759E-1
1.774822292E0,-7.793126702E-1,1.069430065E1,7.260416746E-1
1.777310000E0,-8.655039072E-1,1.069908905E1,7.020996213E-1
1.779797709E0,-8.894459605E-1,1.066557026E1,6.973112226E-1
1.782285417E0,-8.415619135E-1,1.059853268E1,6.973112226E-1
1.784773125E0,-7.170634270E-1,1.048839951E1,7.164648771E-1
1.787260834E0,-5.829881430E-1,1.038305378E1,7.164648771E-1
1.789748542E0,-4.153940082E-1,1.029686260E1,7.260416746E-1
1.792236250E0,-2.861070931E-1,1.024897861E1,7.164648771E-1
1.794723959E0,-1.807622313E-1,1.023940182E1,6.637924314E-1
1.797211667E0,-1.185129806E-1,1.026813221E1,5.919663906E-1
1.799699375E0,-8.499415964E-2,1.030165100E1,4.770447016E-1
1.802187032E0,-2.753331885E-2,1.032559299E1,3.812766075E-1
1.804674688E0,2.035071515E-2,1.033038139E1,3.429693878E-1
1.807162344E0,7.781155407E-2,1.030165100E1,3.333925903E-1
1.809650000E0,1.304839998E-1,1.025855541E1,3.190273643E-1
1.812137657E0,1.783680320E-1,1.019151783E1,3.046621680E-1
1.814625313E0,1.735796183E-1,1.012926865E1,2.424129248E-1
1.817112969E0,1.496376097E-1,1.010532665E1,2.041056901E-1
1.819600625E0,9.696517140E-2,1.010532665E1,1.945288926E-1
1.822088282E0,2.035071515E-2,1.012926865E1,2.328361124E-1
1.824575938E0,-1.795651205E-2,1.015799904E1,2.855085433E-1
1.827063594E0,-8.020575345E-2,1.016757584E1,3.812766075E-1
1.829551250E0,-1.280897856E-1,1.013405704E1,4.914098978E-1
1.832038907E0,-1.328781992E-1,1.012926865E1,5.823895931E-1
1.834526563E0,-1.520318091E-1,1.011011505E1,6.877344251E-1
1.837014219E0,-1.472434103E-1,1.006701946E1,7.882909179E-1
1.839501875E0,-1.233013868E-1,1.001913548E1,9.032126069E-1
1.841989532E0,-8.020575345E-2,9.966463089E0,9.798270464E-1
1.844477188E0,-5.147533491E-2,9.923367500E0,1.061229944E0
1.846964844E0,-4.668693244E-2,9.894637108E0,1.109113932E0
1.849452500E0,-7.541735470E-2,9.846753120E0,1.133055925E0
1.851940157E0,-1.185129806E-1,9.818022728E0,1.166574836E0
1.854427813E0,-1.999158412E-1,9.808445930E0,1.195305228E0
1.856915469E0,-2.573766708E-1,9.765350342E0,1.219247222E0
1.859403125E0,-3.052607179E-1,9.746196747E0,1.243189216E0
1.861890782E0,-3.196259141E-1,9.707889557E0,1.233612418E0
1.864378438E0,-3.196259141E-1,9.722254753E0,1.137844324E0
1.866866094E0,-2.813186944E-1,9.636063576E0,1.252766013E0
1.869353750E0,-2.573766708E-1,9.554660797E0,1.286284804E0
1.871841407E0,-2.621650994E-1,9.478046417E0,1.195305228E0
1.874329063E0,-2.956839204E-1,9.391854286E0,1.224035621E0
1.876816719E0,-3.339911401E-1,9.320028305E0,1.204882026E0
1.879304375E0,-3.531447649E-1,9.267355919E0,1.128267527E0
1.881792032E0,-4.153940082E-1,9.238625526E0,1.070806742E0
1.884279688E0,-4.345476031E-1,9.219471931E0,9.750386477E-1
1.886767344E0,-4.584896266E-1,9.200318336E0,8.936358094E-1
1.889255000E0,-4.728548229E-1,9.147645950E0,8.601169586E-1
1.891742657E0,-4.728548229E-1,9.085396767E0,8.505401611E-1
1.894230313E0,-4.584896266E-1,9.027935982E0,8.313865662E-1
1.896717969E0,-4.297592044E-1,8.960898399E0,8.409633636E-1
1.899205625E0,-4.153940082E-1,8.903437614E0,8.409633636E-1
1.901693282E0,-4.010287821E-1,8.817246437E0,8.361749649E-1
1.904180938E0,-4.058171809E-1,8.740632057E0,8.313865662E-1
1.906668594E0,-4.345476031E-1,8.673594475E0,8.601169586E-1
1.909156250E0,-5.015852451E-1,8.606556892E0,8.409633636E-1
1.911643907E0,-5.686228871E-1,8.534730911E0,7.787141204E-1
1.914131563E0,-6.739677787E-1,8.491635323E0,5.967547894E-1
1.916619219E0,-8.511387110E-1,8.486846924E0,3.190273643E-1
1.919106875E0,-1.047463298E0,8.549096107E0,2.693476900E-2
1.921594532E0,-1.238999367E0,8.707113266E0,-1.646013707E-1
1.924082188E0,-1.377863050E0,8.932168007E0,-2.268506140E-1
1.926569844E0,-1.368286252E0,9.152434349E0,-1.646013707E-1
1.929057500E0,-1.215057373E0,9.348758698E0,7.781155407E-3
1.931545157E0,-9.181763530E-1,9.497200012E0,2.663549483E-1
1.934032813E0,-6.069301367E-1,9.607333183E0,5.728127360E-1
1.936520469E0,-3.100491166E-1,9.683947563E0,8.553285599E-1
1.939008125E0,-8.978256583E-2,9.750985146E0,1.089960337E0
1.941495782E0,-3.591302549E-3,9.813234329E0,1.243189216E0
1.943983438E0,-3.591302549E-3,9.856329918E0,1.305438519E0
1.946471094E0,-3.591302549E-3,9.885060310E0,1.319803715E0
1.948958750E0,-1.316810958E-2,9.899425507E0,1.262342811E0
1.951446407E0,2.513911761E-2,9.899425507E0,1.195305228E0
1.953934063E0,8.259996027E-2,9.918579102E0,1.123479128E0
1.956421719E0,1.831564307E-1,9.952097893E0,1.037287831E0
1.958909375E0,3.028665185E-1,1.003350067E1,9.271546006E-1
1.961397032E0,3.699041605E-1,1.012448025E1,8.505401611E-1
1.963884688E0,4.082113802E-1,1.025376701E1,7.978677154E-1
1.966372344E0,3.794809580E-1,1.039741898E1,7.835025191E-1
1.968860000E0,3.363853395E-1,1.054586029E1,7.930793166E-1
1.971347657E0,2.597708702E-1,1.066557026E1,7.978677154E-1
1.973835313E0,1.592144072E-1,1.076133823E1,7.978677154E-1
1.976322969E0,5.386953801E-2,1.078528023E1,8.601169586E-1
1.978810625E0,-7.062894851E-2,1.075654984E1,9.415197968E-1
1.981298282E0,-1.855506301E-1,1.071824265E1,1.061229944E0
1.983785938E0,-3.052607179E-1,1.067035866E1,1.147421122E0
1.986273594E0,-4.345476031E-1,1.060810947E1,1.238400817E0
1.988761250E0,-5.638344884E-1,1.057937908E1,1.286284804E0
1.991248907E0,-6.404489279E-1,1.056501389E1,1.271919608E0
1.993736563E0,-6.835445762E-1,1.057459068E1,1.224035621E0
1.996224219E0,-6.883329749E-1,1.059853268E1,1.204882026E0
1.998711875E0,-6.596025825E-1,1.059853268E1,1.161786318E0
2.001199532E0,-6.021417379E-1,1.064641666E1,1.147421122E0
2.003687188E0,-5.542576909E-1,1.070387745E1,1.142632723E0
2.006174844E0,-5.446808934E-1,1.075176144E1,1.204882026E0
2.008662500E0,-5.590460896E-1,1.079006863E1,1.291073322E0
2.011150157E0,-5.638344884E-1,1.085231781E1,1.391629696E0
2.013637813E0,-5.446808934E-1,1.088583660E1,1.458667397E0
2.016125469E0,-5.063736439E-1,1.087625980E1,1.506551385E0
2.018613125E0,-4.393360019E-1,1.084752941E1,1.535281897E0
2.021100782E0,-3.196259141E-1,1.078528023E1,1.583165884E0
2.023588438E0,-2.047042400E-1,1.073739624E1,1.607107878E0
2.026076094E0,-7.062894851E-2,1.067993546E1,1.621473074E0
2.028563750E0,8.259996027E-2,1.064162827E1,1.654991984E0
2.031051407E0,2.501940727E-1,1.059853268E1,1.659780383E0
2.033539063E0,4.273650050E-1,1.055064869E1,1.669357181E0
2.036026719E0,5.949591398E-1,1.055064869E1,1.654991984E0
2.038514375E0,7.625532150E-1,1.057459068E1,1.640626669E0
2.041002032E0,9.205705523E-1,1.061289787E1,1.578377485E0
2.043489688E0,1.097741485E0,1.065599346E1,1.511339784E0
2.045977344E0,1.274912357E0,1.067035866E1,1.463455796E0
2.048465000E0,1.413776159E0,1.065599346E1,1.439513803E0
2.050952657E0,1.552639842E0,1.061768627E1,1.415571809E0
2.053440313E0,1.701080322E0,1.054586029E1,1.348534107E0
2.055927969E0,1.777694821E0,1.045966911E1,1.262342811E0
2.058415625E0,1.801636815E0,1.039263058E1,1.176151633E0
2.060903282E0,1.744175911E0,1.033038139E1,1.075595140E0
2.063390938E0,1.648407817E0,1.032080460E1,9.750386477E-1
2.065878594E0,1.547851443E0,1.029686260E1,8.744821548E-1
2.068366250E0,1.456871748E0,1.025855541E1,8.122329116E-1
2.070853907E0,1.428141356E0,1.020109463E1,7.451952696E-1
2.073341563E0,1.428141356E0,1.010532665E1,7.164648771E-1
2.075829219E0,1.432929754E0,1.000955868E1,7.068880796E-1
2.078316875E0,1.432929754E0,9.913790703E0,6.973112226E-1
2.080804532E0,1.428141356E0,9.818022728E0,7.308300734E-1
2.083292188E0,1.370680451E0,9.736619949E0,7.643488646E-1
2.085779844E0,1.298854470E0,9.679159164E0,7.739257216E-1
2.088267500E0,1.212663174E0,9.631275177E0,7.739257216E-1
2.090755157E0,1.121683478E0,9.588179588E0,7.404068708E-1
2.093242813E0,1.021126986E0,9.535507202E0,7.164648771E-1
2.095730469E0,9.301473498E-1,9.482834816E0,7.068880796E-1
2.098218125E0,8.678981066E-1,9.454104424E0,7.068880796E-1
2.100705782E0,8.439561129E-1,9.415796280E0,6.973112226E-1
2.103193438E0,8.535329103E-1,9.339181900E0,7.116764784E-1
2.105681094E0,9.205705523E-1,9.281721115E0,7.212532759E-1
2.108168750E0,9.636662006E-1,9.209895134E0,7.068880796E-1
2.110656407E0,9.828197956E-1,9.138069153E0,6.829460263E-1
2.113144063E0,9.971849918E-1,9.075819969E0,6.398503780E-1
2.115631719E0,9.540894032E-1,9.018359184E0,5.584475398E-1
2.118119375E0,9.014169574E-1,8.965686798E0,4.818331003E-1
2.120607032E0,8.439561129E-1,8.913014412E0,4.339490533E-1
2.123094688E0,7.721300721E-1,8.855553627E0,3.669114113E-1
2.125582396E0,7.290344238E-1,8.783727646E0,2.902969420E-1
2.128070104E0,7.433996201E-1,8.702324867E0,2.472013235E-1
2.130557813E0,7.481880188E-1,8.630498886E0,1.705868691E-1
2.133045521E0,7.481880188E-1,8.568249702E0,8.918401599E-2
2.135533229E0,7.721300721E-1,8.549096107E0,1.256955881E-2
2.138020938E0,7.817068696E-1,8.506000519E0,-6.883329898E-2
2.140508646E0,7.577648163E-1,8.482058525E0,-1.454477459E-1
2.142996354E0,7.003039718E-1,8.419808388E0,-2.220622003E-1
2.145484063E0,6.380547285E-1,8.352770805E0,-2.603694201E-1
2.147971771E0,5.614402890E-1,8.309675217E0,-3.034650683E-1
2.150459479E0,4.896142483E-1,8.257002831E0,-3.034650683E-1
2.152947188E0,4.129997790E-1,8.209118843E0,-3.082534671E-1
2.155434896E0,3.555389643E-1,8.151658058E0,-3.178302646E-1
2.157922604E0,3.363853395E-1,8.122927666E0,-3.226186931E-1
2.160410313E0,3.555389643E-1,8.098985672E0,-3.369838893E-1
2.162898021E0,3.794809580E-1,8.084620476E0,-2.986766696E-1
2.165385729E0,4.225766063E-1,8.065466881E0,-2.603694201E-1
2.167873438E0,4.417302012E-1,8.065466881E0,-1.981201917E-1
2.170361146E0,4.225766063E-1,8.046313286E0,-1.598129570E-1
2.172848854E0,3.651157618E-1,8.027159691E0,-1.167173311E-1
2.175336563E0,2.837128937E-1,7.998429298E0,-9.756372124E-2
2.177824271E0,1.927332431E-1,7.950545311E0,-6.883329898E-2
2.180311979E0,9.217676520E-2,7.897872925E0,-8.319851011E-2
2.182799688E0,4.908113554E-2,7.826046944E0,-8.798690885E-2
2.185287396E0,-8.379706182E-3,7.754220963E0,-1.310825497E-1
2.187775104E0,-4.189852998E-2,7.663240910E0,-1.502361596E-1
2.190262813E0,-5.147533491E-2,7.596203327E0,-1.933317930E-1
2.192750521E0,-6.105214357E-2,7.543530941E0,-2.603694201E-1
2.195238229E0,-8.020575345E-2,7.524377346E0,-3.417722881E-1
2.197725938E0,-8.978256583E-2,7.510012150E0,-4.135983288E-1
2.200213646E0,-1.233013868E-1,7.524377346E0,-5.189431906E-1
2.202701302E0,-1.616086215E-1,7.524377346E0,-5.907692909E-1
2.205188959E0,-2.190694511E-1,7.514800549E0,-6.625953317E-1
2.207676615E0,-2.908954918E-1,7.471704960E0,-6.913257241E-1
2.210164271E0,-3.818751574E-1,7.433397770E0,-7.344213724E-1
2.212651927E0,-4.967968464E-1,7.366360188E0,-7.727286220E-1
2.215139584E0,-5.781996846E-1,7.299322605E0,-8.014590144E-1
2.217627240E0,-6.212953329E-1,7.222707748E0,-8.301894665E-1
2.220114896E0,-6.596025825E-1,7.155670166E0,-8.876502514E-1
2.222602552E0,-6.643909812E-1,7.079055786E0,-9.834183455E-1
2.225090209E0,-6.739677787E-1,7.040748596E0,-1.064821243E0
2.227577865E0,-7.122750282E-1,7.007229805E0,-1.107916832E0
2.230065521E0,-7.314286232E-1,6.973711014E0,-1.160589218E0
2.232553177E0,-7.122750282E-1,6.968922615E0,-1.213261724E0
2.235040834E0,-6.835445762E-1,6.944980621E0,-1.256357312E0
2.237528490E0,-6.308721304E-1,6.911461830E0,-1.265934110E0
2.240016146E0,-5.590460896E-1,6.863577843E0,-1.218050122E0
2.242503802E0,-5.015852451E-1,6.825270653E0,-1.160589218E0
2.244991459E0,-4.824316502E-1,6.772598267E0,-1.069609642E0
2.247479115E0,-4.872200489E-1,6.748656273E0,-9.546879530E-1
2.249966771E0,-5.446808934E-1,6.758233070E0,-8.541314602E-1
2.252454427E0,-6.356605291E-1,6.758233070E0,-7.918822169E-1
2.254942084E0,-6.883329749E-1,6.719925404E0,-7.296329737E-1
2.257429740E0,-7.649474144E-1,6.695983410E0,-6.817489266E-1
2.259917396E0,-8.271966577E-1,6.652887821E0,-6.338648796E-1
2.262405052E0,-8.750807047E-1,6.595427036E0,-5.428852439E-1
2.264892709E0,-8.846575022E-1,6.547543049E0,-4.279635549E-1
2.267380365E0,-9.181763530E-1,6.466140270E0,-2.986766696E-1
2.269868021E0,-9.277531505E-1,6.389525890E0,-1.598129570E-1
2.272355677E0,-9.421183467E-1,6.284181118E0,-4.489128292E-2
2.274843334E0,-9.564836025E-1,6.183624268E0,1.735796221E-2
2.277330990E0,-9.995791912E-1,6.078279495E0,6.524199992E-2
2.279818646E0,-1.047463298E0,5.996876717E0,3.172317147E-2
2.282306302E0,-1.138442874E0,5.944204330E0,-1.789665818E-1
2.284793959E0,-1.248576164E0,5.915473938E0,-5.811924338E-1
2.287281615E0,-1.382651448E0,5.934627533E0,-1.036090732E0
2.289769271E0,-1.487996340E0,5.953781128E0,-1.409586191E0
2.292256927E0,-1.502361536E0,5.963357925E0,-1.596333981E0
2.294744584E0,-1.416170359E0,5.929839134E0,-1.591545582E0
2.297232240E0,-1.267729759E0,5.867589951E0,-1.519719481E0
2.299719896E0,-1.071405292E0,5.767033577E0,-1.452681899E0
2.302207552E0,-8.559271097E-1,5.652111530E0,-1.428739905E0
2.304695209E0,-6.931213737E-1,5.541978359E0,-1.462258697E0
2.307182865E0,-5.877765417E-1,5.484517574E0,-1.558026791E0
2.309670521E0,-4.680664241E-1,5.460575581E0,-1.739986062E0
2.312158177E0,-3.722983599E-1,5.503671169E0,-1.907580256E0
2.314645834E0,-2.669534981E-1,5.594650745E0,-1.979406238E0
2.317133490E0,-1.233013868E-1,5.719149113E0,-1.907580256E0
2.319621146E0,2.035071515E-2,5.867589951E0,-1.739986062E0
2.322108802E0,1.544260085E-1,6.054337502E0,-1.471835494E0
2.324596459E0,1.927332431E-1,6.245873451E0,-1.222838521E0
2.327084115E0,1.735796183E-1,6.446986675E0,-1.026513934E0
2.329571771E0,9.696517140E-2,6.638522625E0,-8.589198589E-1
2.332059427E0,-1.316810958E-2,6.844424248E0,-7.248445749E-1
2.334547084E0,-1.233013868E-1,7.045536995E0,-6.290764809E-1
2.337034740E0,-2.094926536E-1,7.256227016E0,-5.811924338E-1
2.339522396E0,-2.286462635E-1,7.457339764E0,-4.854243994E-1
2.342010052E0,-2.286462635E-1,7.624933720E0,-3.848679364E-1
2.344497709E0,-1.855506301E-1,7.787739754E0,-2.460042238E-1
2.346985365E0,-1.855506301E-1,7.931391716E0,-1.406593472E-1
2.349473021E0,-2.047042400E-1,8.051101685E0,-5.925649032E-2
2.351960677E0,-2.717418969E-1,8.132504463E0,-2.094926499E-2
2.354448334E0,-3.627215624E-1,8.194753647E0,-1.616086066E-2
2.356935990E0,-4.393360019E-1,8.199542046E0,-7.841010392E-2
2.359423646E0,-5.111620426E-1,8.194753647E0,-3.178302646E-1
2.361911302E0,-5.351040959E-1,8.132504463E0,-6.913257241E-1
2.364398959E0,-5.063736439E-1,8.122927666E0,-1.093551636E0
2.366886615E0,-4.728548229E-1,8.103774071E0,-1.467047095E0
2.369374271E0,-3.866635859E-1,8.118139267E0,-1.706467271E0
2.371861927E0,-3.292027414E-1,8.156446457E0,-1.859696150E0
2.374349584E0,-3.387795389E-1,8.194753647E0,-1.874061346E0
2.376837240E0,-3.722983599E-1,8.247426033E0,-1.826177359E0
2.379324896E0,-4.441244006E-1,8.276156425E0,-1.763928056E0
2.381812552E0,-5.734112859E-1,8.309675217E0,-1.754351258E0
2.384300209E0,-7.074866295E-1,8.319252014E0,-1.792658567E0
2.386787865E0,-8.415619135E-1,8.357559204E0,-1.854907751E0
2.389275521E0,-9.133879542E-1,8.429385185E0,-1.869272947E0
2.391763177E0,-9.421183467E-1,8.534730911E0,-1.850119352E0
2.394250834E0,-9.181763530E-1,8.716690063E0,-1.749562860E0
2.396738490E0,-8.798691034E-1,8.913014412E0,-1.586757183E0
2.399226146E0,-8.032546639E-1,9.157222748E0,-1.313818216E0
2.401713802E0,-7.601590157E-1,9.425373077E0,-9.929951429E-1
2.404201459E0,-7.697358727E-1,9.707889557E0,-6.913257241E-1
2.406689115E0,-7.888894677E-1,9.990405083E0,-3.800795078E-1
2.409176771E0,-8.224082589E-1,1.023940182E1,-8.798690885E-2
2.411664427E0,-8.511387110E-1,1.046924591E1,1.849520802E-1
2.414152084E0,-8.750807047E-1,1.067035866E1,3.669114113E-1
2.416639740E0,-9.038111567E-1,1.087625980E1,4.147954583E-1
2.419127396E0,-9.133879542E-1,1.104864216E1,4.770447016E-1
2.421615052E0,-9.085995555E-1,1.118271732E1,5.201402903E-1
2.424102709E0,-9.038111567E-1,1.128327370E1,5.632359385E-1
2.426590365E0,-8.894459605E-1,1.133594608E1,5.536591411E-1
2.429078021E0,-9.133879542E-1,1.134552288E1,4.818331003E-1
2.431565677E0,-9.421183467E-1,1.130721569E1,3.333925903E-1
2.434053334E0,-9.564836025E-1,1.122102451E1,1.562216580E-1
2.436540990E0,-9.852139950E-1,1.110131454E1,-1.502361596E-1
2.439028646E0,-1.023521185E0,1.097202778E1,-6.338648796E-1
2.441516302E0,-1.047463298E0,1.089062500E1,-1.208473325E0
2.444003959E0,-1.090558887E0,1.085231781E1,-1.696890473E0
2.446491615E0,-1.114500880E0,1.082358742E1,-2.027290344E0
2.448979271E0,-1.109712481E0,1.081401062E1,-2.185307503E0
2.451466927E0,-1.085770488E0,1.079485703E1,-2.147000313E0
2.453954584E0,-1.090558887E0,1.071824265E1,-1.969829440E0
2.456442240E0,-1.109712481E0,1.058895588E1,-1.701678872E0
2.458929896E0,-1.133654475E0,1.043093872E1,-1.433528304E0
2.461417552E0,-1.162384868E0,1.026813221E1,-1.232415318E0
2.463905209E0,-1.215057373E0,1.013884544E1,-1.141435623E0
2.466392865E0,-1.243787766E0,1.007659626E1,-1.160589218E0
2.468880521E0,-1.248576164E0,1.007659626E1,-1.241992116E0
2.471368177E0,-1.219845772E0,1.015799904E1,-1.352125406E0
2.473855834E0,-1.176750183E0,1.033038139E1,-1.414374709E0
2.476343490E0,-1.152808070E0,1.055543709E1,-1.447893500E0
2.478831146E0,-1.157596469E0,1.078049183E1,-1.500565886E0
2.481318802E0,-1.200692177E0,1.101991177E1,-1.538873196E0
2.483806459E0,-1.306037068E0,1.120665932E1,-1.572391987E0
2.486294115E0,-1.416170359E0,1.132636929E1,-1.601122379E0
2.488781771E0,-1.545457244E0,1.135988808E1,-1.596333981E0
2.491269479E0,-1.650802016E0,1.135988808E1,-1.548449993E0
2.493757188E0,-1.741781712E0,1.130242729E1,-1.371279001E0
2.496244896E0,-1.818396211E0,1.121623611E1,-1.170166135E0
2.498732604E0,-1.856703401E0,1.112046814E1,-1.002571940E0
2.501220313E0,-1.861491799E0,1.101991177E1,-8.972271085E-1
2.503708021E0,-1.875856996E0,1.093372059E1,-8.876502514E-1
2.506195729E0,-1.890222192E0,1.086668301E1,-9.690531492E-1
2.508683438E0,-1.899798989E0,1.079964542E1,-1.045667648E0
2.511171146E0,-1.899798989E0,1.074218464E1,-1.112705231E0
2.513658854E0,-1.866280198E0,1.069430065E1,-1.117493629E0
2.516146563E0,-1.842338204E0,1.061768627E1,-1.064821243E0
2.518634271E0,-1.827973008E0,1.052670670E1,-1.050456047E0
2.521121979E0,-1.813607812E0,1.045966911E1,-1.165377736E0
2.523609688E0,-1.780089021E0,1.037826538E1,-1.438316703E0
2.526097396E0,-1.708262920E0,1.034474659E1,-1.840542555E0
2.528585104E0,-1.617283225E0,1.034474659E1,-2.324171305E0
2.531072813E0,-1.507149935E0,1.040699577E1,-2.735974073E0
2.533560521E0,-1.425747156E0,1.047882271E1,-2.946663857E0
2.536048229E0,-1.406593442E0,1.056022549E1,-2.932298422E0
2.538535938E0,-1.473631144E0,1.059853268E1,-2.807800055E0
2.541023646E0,-1.636436820E0,1.058895588E1,-2.659359455E0
2.543511354E0,-1.842338204E0,1.053628349E1,-2.597110271E0
2.545999063E0,-2.048239470E0,1.045966911E1,-2.601898670E0
2.548486771E0,-2.263717651E0,1.038784218E1,-2.654571056E0
2.550974479E0,-2.407369852E0,1.033516979E1,-2.702455282E0
2.553462188E0,-2.522291422E0,1.035432339E1,-2.697666883E0
2.555949896E0,-2.589329243E0,1.040220737E1,-2.549226284E0
2.558437604E0,-2.613271236E0,1.050276470E1,-2.328959703E0
2.560925313E0,-2.598906040E0,1.064641666E1,-2.075174332E0
2.563413021E0,-2.560598612E0,1.077091503E1,-1.830965757E0
2.565900729E0,-2.522291422E0,1.090977859E1,-1.634641171E0
2.568388386E0,-2.479195833E0,1.103427696E1,-1.490989089E0
2.570876042E0,-2.460042238E0,1.112525654E1,-1.433528304E0
2.573363698E0,-2.469619036E0,1.124017811E1,-1.447893500E0
2.575851354E0,-2.488772631E0,1.134073448E1,-1.538873196E0
2.578339011E0,-2.498349428E0,1.143650341E1,-1.591545582E0
2.580826667E0,-2.507926226E0,1.150354099E1,-1.620275974E0
2.583314323E0,-2.517503023E0,1.155142498E1,-1.596333981E0
2.585801979E0,-2.493561029E0,1.158494377E1,-1.591545582E0
2.588289636E0,-2.493561029E0,1.158973217E1,-1.596333981E0
2.590777292E0,-2.474407434E0,1.155142498E1,-1.615487576E0
2.593264948E0,-2.474407434E0,1.146523380E1,-1.615487576E0
2.595752604E0,-2.464830637E0,1.134552288E1,-1.615487576E0
2.598240261E0,-2.479195833E0,1.119229412E1,-1.682525277E0
2.600727917E0,-2.440888643E0,1.102948856E1,-1.797446966E0
2.603215573E0,-2.373851061E0,1.082358742E1,-1.955464244E0
2.605703229E0,-2.273294449E0,1.065599346E1,-2.185307503E0
2.608190886E0,-2.134430885E0,1.050755310E1,-2.439092875E0
2.610678542E0,-1.995567083E0,1.037347698E1,-2.625840664E0
2.613166198E0,-1.871068597E0,1.026813221E1,-2.735974073E0
2.615653854E0,-1.770512104E0,1.019630623E1,-2.817376852E0
2.618141511E0,-1.746570110E0,1.013884544E1,-2.951452255E0
2.620629167E0,-1.794454217E0,1.007180786E1,-3.052008629E0
2.623116823E0,-1.914164305E0,9.995193481E0,-3.080739021E0
2.625604479E0,-2.067393064E0,9.932944298E0,-3.023278236E0
2.628092136E0,-2.220622063E0,9.870695114E0,-2.917933226E0
2.630579792E0,-2.349909067E0,9.813234329E0,-2.798223257E0
2.633067448E0,-2.388216257E0,9.755773544E0,-2.659359455E0
2.635555104E0,-2.388216257E0,9.727043152E0,-2.520495892E0
2.638042761E0,-2.330755472E0,9.736619949E0,-2.376843691E0
2.640530417E0,-2.244564056E0,9.774927139E0,-2.228403330E0
2.643018073E0,-2.163161278E0,9.851541519E0,-2.070385933E0
2.645505729E0,-2.105700493E0,9.928155899E0,-1.984194636E0
2.647993386E0,-2.096123695E0,1.004307747E1,-1.955464244E0
2.650481042E0,-2.091335297E0,1.014363384E1,-1.984194636E0
2.652968698E0,-2.086546898E0,1.025855541E1,-2.012925148E0
2.655456354E0,-2.081758261E0,1.034953499E1,-2.084751129E0
2.657944011E0,-2.091335297E0,1.043093872E1,-2.199672699E0
2.660431667E0,-2.091335297E0,1.052670670E1,-2.352901697E0
2.662919323E0,-2.053027868E0,1.060332108E1,-2.554014683E0
2.665406979E0,-2.033874273E0,1.068951225E1,-2.688089848E0
2.667894636E0,-2.019509077E0,1.075654984E1,-2.745550871E0
2.670382292E0,-2.029085875E0,1.081401062E1,-2.750339270E0
2.672869948E0,-2.038662672E0,1.083316422E1,-2.721608877E0
2.675357604E0,-2.057816267E0,1.081401062E1,-2.688089848E0
2.677845261E0,-2.110488892E0,1.077570343E1,-2.625840664E0
2.680332917E0,-2.182314873E0,1.071824265E1,-2.510919094E0
2.682820573E0,-2.249352455E0,1.066557026E1,-2.395997286E0
2.685308229E0,-2.297236443E0,1.059374428E1,-2.314594507E0
2.687795886E0,-2.330755472E0,1.050276470E1,-2.266710520E0
2.690283542E0,-2.369062662E0,1.045009232E1,-2.237980127E0
2.692771198E0,-2.431311846E0,1.039741898E1,-2.233191729E0
2.695258854E0,-2.517503023E0,1.033995819E1,-2.285864115E0
2.697746511E0,-2.598906040E0,1.026813221E1,-2.333748102E0
2.700234167E0,-2.737769604E0,1.021067142E1,-2.376843691E0
2.702721823E0,-2.819172382E0,1.017715263E1,-2.439092875E0
2.705209479E0,-2.871845007E0,1.013884544E1,-2.525284290E0
2.707697136E0,-2.871845007E0,1.011969185E1,-2.635417461E0
2.710184792E0,-2.828749418E0,1.009096146E1,-2.788646460E0
2.712672448E0,-2.752134800E0,1.011490345E1,-2.870049238E0
2.715160104E0,-2.685097218E0,1.012448025E1,-2.860472441E0
2.717647761E0,-2.632424831E0,1.015321064E1,-2.759916067E0
2.720135417E0,-2.642001629E0,1.016757584E1,-2.664147854E0
2.722623073E0,-2.713827610E0,1.019151783E1,-2.568379879E0
2.725110729E0,-2.814383984E0,1.020588303E1,-2.491765499E0
2.727598386E0,-2.967612982E0,1.023461342E1,-2.453458309E0
2.730086042E0,-3.130418777E0,1.025376701E1,-2.439092875E0
2.732573698E0,-3.298012733E0,1.029207420E1,-2.381632090E0
2.735061354E0,-3.403357744E0,1.034474659E1,-2.285864115E0
2.737549011E0,-3.484760523E0,1.037347698E1,-2.170942307E0
2.740036667E0,-3.537432909E0,1.042136192E1,-2.036867142E0
2.742524323E0,-3.566163540E0,1.045009232E1,-1.926733851E0
2.745011979E0,-3.594893932E0,1.047882271E1,-1.802235365E0
2.747499636E0,-3.623624325E0,1.052670670E1,-1.701678872E0
2.749987292E0,-3.705027103E0,1.055543709E1,-1.653794765E0
2.752474948E0,-3.776853085E0,1.055543709E1,-1.653794765E0
2.754962604E0,-3.839102507E0,1.057937908E1,-1.687313676E0
2.757450261E0,-3.891774893E0,1.054107189E1,-1.730409265E0
2.759937917E0,-3.877409697E0,1.052670670E1,-1.744774461E0
2.762425573E0,-3.800795317E0,1.051234150E1,-1.720832467E0
2.764913229E0,-3.695450306E0,1.047403431E1,-1.677736878E0
2.767400886E0,-3.566163540E0,1.042615032E1,-1.601122379E0
2.769888542E0,-3.398569345E0,1.036868858E1,-1.524507880E0
2.772376198E0,-3.240551949E0,1.031601620E1,-1.438316703E0
2.774863854E0,-3.101688385E0,1.026813221E1,-1.361702204E0
2.777351511E0,-2.962824583E0,1.022982502E1,-1.323395014E0
2.779839167E0,-2.843114614E0,1.019630623E1,-1.285087705E0
2.782326823E0,-2.723404408E0,1.016757584E1,-1.270722508E0
2.784814479E0,-2.589329243E0,1.011490345E1,-1.261145711E0
2.787302136E0,-2.436100245E0,1.006701946E1,-1.241992116E0
2.789789792E0,-2.292448044E0,1.003828907E1,-1.309029818E0
2.792277448E0,-2.158372879E0,1.001913548E1,-1.433528304E0
2.794765104E0,-2.000355482E0,1.000477028E1,-1.634641171E0
2.797252761E0,-1.866280198E0,1.001434708E1,-1.883638144E0
2.799740417E0,-1.794454217E0,1.003828907E1,-2.065597534E0
2.802228073E0,-1.746570110E0,1.003350067E1,-2.151788712E0
2.804715729E0,-1.722628117E0,1.001913548E1,-2.180519104E0
2.807203386E0,-1.756146908E0,9.971251488E0,-2.204461098E0
2.809691042E0,-1.804031014E0,9.932944298E0,-2.242768526E0
2.812178698E0,-1.808819413E0,9.865906715E0,-2.328959703E0
2.814666354E0,-1.808819413E0,9.827599525E0,-2.400785685E0
2.817154011E0,-1.775300503E0,9.774927139E0,-2.463035107E0
2.819641667E0,-1.717839718E0,9.746196747E0,-2.443881273E0
2.822129323E0,-1.669955730E0,9.727043152E0,-2.338536501E0
2.824616979E0,-1.607706428E0,9.707889557E0,-2.190095901E0
2.827104636E0,-1.578976035E0,9.703101158E0,-2.036867142E0
2.829592292E0,-1.578976035E0,9.698312759E0,-1.945887446E0
2.832080000E0,-1.607706428E0,9.703101158E0,-1.931522250E0
2.834567709E0,-1.665167332E0,9.707889557E0,-2.017713547E0
2.837055417E0,-1.717839718E0,9.731831551E0,-2.132635117E0
2.839543125E0,-1.765723705E0,9.765350342E0,-2.223614931E0
2.842030834E0,-1.789665818E0,9.827599525E0,-2.305017710E0
2.844518542E0,-1.784877419E0,9.894637108E0,-2.386420488E0
2.847006250E0,-1.760935307E0,9.971251488E0,-2.486977100E0
2.849493959E0,-1.713051319E0,1.005265427E1,-2.554014683E0
2.851981667E0,-1.684320927E0,1.012448025E1,-2.635417461E0
2.854469375E0,-1.669955730E0,1.018672943E1,-2.721608877E0
2.856957084E0,-1.669955730E0,1.023461342E1,-2.783858061E0
2.859444792E0,-1.665167332E0,1.028249741E1,-2.807800055E0
2.861932500E0,-1.679532528E0,1.030643940E1,-2.793434858E0
2.864420209E0,-1.684320927E0,1.028728580E1,-2.755127668E0
2.866907917E0,-1.703474522E0,1.029207420E1,-2.707243681E0
2.869395625E0,-1.717839718E0,1.030165100E1,-2.611475468E0
2.871883334E0,-1.717839718E0,1.031122780E1,-2.472611904E0
2.874371042E0,-1.693897724E0,1.030643940E1,-2.362478495E0
2.876858750E0,-1.684320927E0,1.030165100E1,-2.261922121E0
2.879346459E0,-1.693897724E0,1.032559299E1,-2.204461098E0
2.881834167E0,-1.727416515E0,1.034474659E1,-2.204461098E0
2.884321875E0,-1.789665818E0,1.037347698E1,-2.204461098E0
2.886809584E0,-1.856703401E0,1.039263058E1,-2.242768526E0
2.889297292E0,-1.914164305E0,1.041657257E1,-2.257133722E0
2.891785000E0,-1.962048292E0,1.046445751E1,-2.271498919E0
2.894272709E0,-1.985990286E0,1.050276470E1,-2.328959703E0
2.896760417E0,-1.985990286E0,1.055543709E1,-2.415150881E0
2.899248125E0,-1.971625090E0,1.059374428E1,-2.520495892E0
2.901735834E0,-1.962048292E0,1.067035866E1,-2.592321873E0
2.904223542E0,-1.947683096E0,1.077091503E1,-2.635417461E0
2.906711250E0,-1.928529501E0,1.085231781E1,-2.616263866E0
2.909198959E0,-1.933317900E0,1.093372059E1,-2.630629063E0
2.911686615E0,-1.938106298E0,1.101512337E1,-2.668936253E0
2.914174271E0,-1.947683096E0,1.109652615E1,-2.731185675E0
2.916661927E0,-1.962048292E0,1.116356373E1,-2.740762472E0
2.919149584E0,-1.938106298E0,1.122581291E1,-2.726397276E0
2.921637240E0,-1.899798989E0,1.132636929E1,-2.688089848E0
2.924124896E0,-1.871068597E0,1.143650341E1,-2.611475468E0
2.926612552E0,-1.808819413E0,1.157057858E1,-2.554014683E0
2.929100209E0,-1.760935307E0,1.173817253E1,-2.554014683E0
2.931587865E0,-1.736993313E0,1.192970848E1,-2.601898670E0
2.934075521E0,-1.717839718E0,1.210687923E1,-2.654571056E0
2.936563177E0,-1.775300503E0,1.232714558E1,-2.759916067E0
2.939050834E0,-1.847126603E0,1.257135487E1,-2.898779631E0
2.941538490E0,-1.918952703E0,1.279640961E1,-3.023278236E0
2.944026146E0,-1.976413488E0,1.303582954E1,-3.056797028E0
2.946513802E0,-2.019509077E0,1.327046108E1,-3.066373825E0
2.949001459E0,-2.062604666E0,1.350988197E1,-3.075950623E0
2.951489115E0,-2.072181463E0,1.370141792E1,-3.023278236E0
2.953976771E0,-2.038662672E0,1.388337708E1,-2.956240654E0
2.956464427E0,-2.029085875E0,1.405575943E1,-2.989759445E0
2.958952084E0,-2.029085875E0,1.423293018E1,-3.008913040E0
2.961439740E0,-2.024297476E0,1.438615990E1,-2.980182648E0
2.963927396E0,-2.048239470E0,1.454896545E1,-2.908356428E0
2.966415052E0,-2.081758261E0,1.469740582E1,-2.865260839E0
2.968902709E0,-2.129642487E0,1.480753899E1,-2.817376852E0
2.971390365E0,-2.201468468E0,1.490809536E1,-2.764704466E0
2.973878021E0,-2.263717651E0,1.495597935E1,-2.712032080E0
2.976365677E0,-2.292448044E0,1.498470974E1,-2.644994259E0
2.978853334E0,-2.306813240E0,1.498470974E1,-2.577956676E0
2.981340990E0,-2.340332270E0,1.493203735E1,-2.515707493E0
2.983828646E0,-2.407369852E0,1.485063457E1,-2.482188702E0
2.986316302E0,-2.488772631E0,1.475007820E1,-2.453458309E0
2.988803959E0,-2.603694439E0,1.460642624E1,-2.458246708E0
2.991291615E0,-2.732981205E0,1.441010189E1,-2.434304476E0
2.993779271E0,-2.857479811E0,1.418504620E1,-2.443881273E0
2.996266927E0,-2.967612982E0,1.392647266E1,-2.486977100E0
2.998754584E0,-3.039438963E0,1.363916874E1,-2.482188702E0
3.001242240E0,-3.039438963E0,1.331355667E1,-2.458246708E0
3.003729896E0,-2.996343374E0,1.297358036E1,-2.381632090E0
3.006217552E0,-2.929305792E0,1.261445045E1,-2.290652514E0
3.008705209E0,-2.847903013E0,1.225531960E1,-2.194884300E0
3.011192865E0,-2.756923199E0,1.190576649E1,-2.137423515E0
3.013680521E0,-2.694674015E0,1.153705978E1,-2.084751129E0
3.016168177E0,-2.622848034E0,1.119708252E1,-2.046443939E0
3.018655834E0,-2.594117641E0,1.086189461E1,-2.032078743E0
3.021143490E0,-2.574964046E0,1.054586029E1,-2.060809135E0
3.023631146E0,-2.565387011E0,1.021545982E1,-2.118269920E0
3.026118802E0,-2.551021814E0,9.913790703E0,-2.147000313E0
3.028606459E0,-2.498349428E0,9.626486778E0,-2.156577110E0
3.031094115E0,-2.436100245E0,9.348758698E0,-2.132635117E0
3.033581771E0,-2.354697466E0,9.090185165E0,-2.103904724E0
3.036069427E0,-2.263717651E0,8.845976830E0,-2.027290344E0
3.038557084E0,-2.191891670E0,8.616133690E0,-1.993771434E0
3.041044740E0,-2.144007683E0,8.400654793E0,-2.003348351E0
3.043532396E0,-2.091335297E0,8.213907242E0,-2.046443939E0
3.046020052E0,-2.053027868E0,8.046313286E0,-2.113481522E0
3.048507709E0,-2.019509077E0,7.883507729E0,-2.185307503E0
3.050995365E0,-1.962048292E0,7.754220963E0,-2.242768526E0
3.053483021E0,-1.875856996E0,7.620145321E0,-2.295440912E0
3.055970677E0,-1.775300503E0,7.490858555E0,-2.348113298E0
3.058458334E0,-1.674744129E0,7.419032574E0,-2.348113298E0
3.060945990E0,-1.564610839E0,7.313687801E0,-2.352901697E0
3.063433646E0,-1.483207941E0,7.227496147E0,-2.357690096E0
3.065921302E0,-1.416170359E0,7.174823761E0,-2.352901697E0
3.068408959E0,-1.382651448E0,7.126939774E0,-2.328959703E0
3.070896615E0,-1.377863050E0,7.117362976E0,-2.295440912E0
3.073384271E0,-1.401805043E0,7.112574577E0,-2.295440912E0
3.075871927E0,-1.416170359E0,7.107786179E0,-2.295440912E0
3.078359584E0,-1.459265947E0,7.150881767E0,-2.309806108E0
3.080847240E0,-1.454477549E0,7.193977356E0,-2.300229311E0
3.083334896E0,-1.435323954E0,7.256227016E0,-2.247556925E0
3.085822552E0,-1.411381960E0,7.323264599E0,-2.175730705E0
3.088310209E0,-1.382651448E0,7.399878979E0,-2.103904724E0
3.090797865E0,-1.363497853E0,7.476493359E0,-2.022501945E0
3.093285521E0,-1.329979062E0,7.553107738E0,-1.945887446E0
3.095773177E0,-1.291671872E0,7.629722118E0,-1.888426542E0
3.098260834E0,-1.282094955E0,7.720701694E0,-1.830965757E0
3.100748490E0,-1.286883354E0,7.802104950E0,-1.759139657E0
3.103236146E0,-1.277306557E0,7.888296127E0,-1.711255670E0
3.105723802E0,-1.253364563E0,7.955333710E0,-1.644217968E0
3.108211459E0,-1.219845772E0,8.008006096E0,-1.625064373E0
3.110699115E0,-1.176750183E0,8.075043678E0,-1.639429569E0
3.113186771E0,-1.119289279E0,8.127716064E0,-1.644217968E0
3.115674427E0,-1.066616893E0,8.199542046E0,-1.677736878E0
3.118162084E0,-1.018732786E0,8.252214432E0,-1.677736878E0
3.120649740E0,-9.660604000E-1,8.304886818E0,-1.668160081E0
3.123137396E0,-9.421183467E-1,8.362347603E0,-1.615487576E0
3.125625052E0,-9.421183467E-1,8.415019989E0,-1.572391987E0
3.128112709E0,-9.660604000E-1,8.458115578E0,-1.601122379E0
3.130600365E0,-1.013944387E0,8.515577316E0,-1.687313676E0
3.133088021E0,-1.028309584E0,8.573038101E0,-1.773504853E0
3.135575677E0,-1.061828494E0,8.635287285E0,-1.850119352E0
3.138063334E0,-1.061828494E0,8.716690063E0,-1.945887446E0
3.140550990E0,-1.066616893E0,8.793304443E0,-2.036867142E0
3.143038646E0,-1.028309584E0,8.879495621E0,-2.156577110E0
3.145526302E0,-1.013944387E0,8.975263596E0,-2.305017710E0
3.148013959E0,-9.804255962E-1,9.099761963E0,-2.467823505E0
3.150501615E0,-9.708487988E-1,9.219471931E0,-2.621052265E0
3.152989271E0,-9.516952038E-1,9.353547096E0,-2.774281263E0
3.155476927E0,-9.373299479E-1,9.492411613E0,-2.865260839E0
3.157964584E0,-9.181763530E-1,9.612121582E0,-2.917933226E0
3.160452240E0,-8.894459605E-1,9.736619949E0,-2.917933226E0
3.162939896E0,-8.846575022E-1,9.841964722E0,-2.855684042E0
3.165427604E0,-9.038111567E-1,9.947309494E0,-2.759916067E0
3.167915313E0,-9.085995555E-1,1.003350067E1,-2.621052265E0
3.170403021E0,-9.133879542E-1,1.012926865E1,-2.506130695E0
3.172890729E0,-9.229647517E-1,1.022024822E1,-2.376843691E0
3.175378438E0,-9.421183467E-1,1.032080460E1,-2.247556925E0
3.177866146E0,-9.708487988E-1,1.040699577E1,-2.123058319E0
3.180353854E0,-1.009155989E0,1.051234150E1,-2.036867142E0
3.182841563E0,-1.018732786E0,1.062247467E1,-1.941099048E0
3.185329271E0,-1.061828494E0,1.074218464E1,-1.874061346E0
3.187816979E0,-1.124077678E0,1.085710621E1,-1.830965757E0
3.190304688E0,-1.215057373E0,1.096723938E1,-1.797446966E0
3.192792396E0,-1.310825467E0,1.105821896E1,-1.763928056E0
3.195280104E0,-1.401805043E0,1.113962173E1,-1.749562860E0
3.197767813E0,-1.502361536E0,1.120665932E1,-1.744774461E0
3.200255521E0,-1.578976035E0,1.126890850E1,-1.744774461E0
3.202743229E0,-1.646013618E0,1.130242729E1,-1.716044068E0
3.205230938E0,-1.708262920E0,1.132636929E1,-1.716044068E0
3.207718646E0,-1.770512104E0,1.135988808E1,-1.759139657E0
3.210206354E0,-1.832761407E0,1.136467648E1,-1.850119352E0
3.212694063E0,-1.890222192E0,1.132636929E1,-1.878849745E0
3.215181771E0,-1.942894697E0,1.128327370E1,-1.874061346E0
3.217669479E0,-1.995567083E0,1.125933170E1,-1.830965757E0
3.220157188E0,-2.057816267E0,1.119229412E1,-1.783081770E0
3.222644896E0,-2.120065689E0,1.112046814E1,-1.730409265E0
3.225132604E0,-2.177526474E0,1.103906536E1,-1.672948480E0
3.227620313E0,-2.206256866E0,1.091456699E1,-1.601122379E0
3.230108021E0,-2.206256866E0,1.078049183E1,-1.562815189E0
3.232595729E0,-2.249352455E0,1.063205147E1,-1.495777488E0
3.235083438E0,-2.316390038E0,1.049318790E1,-1.428739905E0
3.237571146E0,-2.383427858E0,1.034474659E1,-1.385644197E0
3.240058854E0,-2.469619036E0,1.016757584E1,-1.342548609E0
3.242546563E0,-2.555810213E0,1.001434708E1,-1.323395014E0
3.245034271E0,-2.574964046E0,9.865906715E0,-1.318606615E0
3.247521927E0,-2.584540844E0,9.722254753E0,-1.342548609E0
3.250009584E0,-2.589329243E0,9.583391190E0,-1.371279001E0
3.252497240E0,-2.565387011E0,9.463681221E0,-1.385644197E0
3.254984896E0,-2.498349428E0,9.348758698E0,-1.380855799E0
3.257472552E0,-2.445677042E0,9.243413925E0,-1.371279001E0
3.259960209E0,-2.364274263E0,9.142857552E0,-1.337760210E0
3.262447865E0,-2.292448044E0,9.066243172E0,-1.366490602E0
3.264935521E0,-2.239775658E0,8.994417191E0,-1.419163108E0
3.267423177E0,-2.177526474E0,8.941744804E0,-1.519719481E0
3.269910834E0,-2.129642487E0,8.903437614E0,-1.634641171E0
3.272398490E0,-2.053027868E0,8.860342026E0,-1.725620866E0
3.274886146E0,-1.995567083E0,8.836400032E0,-1.768716455E0
3.277373802E0,-1.938106298E0,8.812458038E0,-1.792658567E0
3.279861459E0,-1.866280198E0,8.798092842E0,-1.797446966E0
3.282349115E0,-1.818396211E0,8.754997253E0,-1.773504853E0
3.284836771E0,-1.789665818E0,8.711901665E0,-1.773504853E0
3.287324427E0,-1.804031014E0,8.678382874E0,-1.792658567E0
3.289812084E0,-1.866280198E0,8.654440880E0,-1.816600561E0
3.292299740E0,-1.938106298E0,8.620922089E0,-1.845330954E0
3.294787396E0,-2.043451071E0,8.587403297E0,-1.859696150E0
3.297275052E0,-2.148796082E0,8.573038101E0,-1.888426542E0
3.299762709E0,-2.244564056E0,8.577826500E0,-1.878849745E0
3.302250365E0,-2.306813240E0,8.563461304E0,-1.826177359E0
3.304738021E0,-2.321178436E0,8.558672905E0,-1.739986062E0
3.307225677E0,-2.345120668E0,8.549096107E0,-1.653794765E0
3.309713334E0,-2.369062662E0,8.529942513E0,-1.567603588E0
3.312200990E0,-2.407369852E0,8.501212120E0,-1.486200690E0
3.314688646E0,-2.469619036E0,8.506000519E0,-1.462258697E0
3.317176302E0,-2.512714624E0,8.506000519E0,-1.481412292E0
3.319663959E0,-2.570175409E0,8.520365715E0,-1.481412292E0
3.322151615E0,-2.651578426E0,8.549096107E0,-1.529296279E0
3.324639271E0,-2.709039211E0,8.587403297E0,-1.548449993E0
3.327126927E0,-2.752134800E0,8.616133690E0,-1.577180386E0
3.329614584E0,-2.785653591E0,8.659229279E0,-1.581968784E0
3.332102240E0,-2.823961020E0,8.692748070E0,-1.605910778E0
3.334589896E0,-2.857479811E0,8.740632057E0,-1.668160081E0
3.337077552E0,-2.886210203E0,8.798092842E0,-1.696890473E0
3.339565209E0,-2.895787001E0,8.850765228E0,-1.687313676E0
3.342052865E0,-2.900575399E0,8.908226013E0,-1.653794765E0
3.344540521E0,-2.900575399E0,8.984840393E0,-1.639429569E0
3.347028177E0,-2.871845007E0,9.075819969E0,-1.620275974E0
3.349515834E0,-2.857479811E0,9.152434349E0,-1.615487576E0
3.352003490E0,-2.843114614E0,9.219471931E0,-1.572391987E0
3.354491146E0,-2.823961020E0,9.310451508E0,-1.567603588E0
3.356978802E0,-2.814383984E0,9.396642685E0,-1.601122379E0
3.359466459E0,-2.809595585E0,9.497200012E0,-1.658583283E0
3.361954115E0,-2.838326216E0,9.597756386E0,-1.692102075E0
3.364441771E0,-2.852691412E0,9.703101158E0,-1.696890473E0
3.366929427E0,-2.862268209E0,9.803657532E0,-1.692102075E0
3.369417084E0,-2.867056608E0,9.913790703E0,-1.682525277E0
3.371904740E0,-2.876633406E0,1.002392387E1,-1.696890473E0
3.374392396E0,-2.910152197E0,1.011011505E1,-1.706467271E0
3.376880052E0,-2.905363798E0,1.020588303E1,-1.706467271E0
3.379367709E0,-2.914940596E0,1.028249741E1,-1.696890473E0
3.381855365E0,-2.948459387E0,1.036390018E1,-1.692102075E0
3.384343021E0,-2.967612982E0,1.045488071E1,-1.668160081E0
3.386830677E0,-2.981978178E0,1.053149509E1,-1.682525277E0
3.389318334E0,-3.020285368E0,1.063205147E1,-1.696890473E0
3.391805990E0,-3.039438963E0,1.069908905E1,-1.696890473E0
3.394293646E0,-3.039438963E0,1.077091503E1,-1.687313676E0
3.396781302E0,-3.049015760E0,1.084752941E1,-1.649006367E0
3.399268959E0,-3.039438963E0,1.091935539E1,-1.610699177E0
3.401756615E0,-3.049015760E0,1.097681618E1,-1.538873196E0
3.404244271E0,-3.068169594E0,1.103906536E1,-1.495777488E0
3.406731927E0,-3.101688385E0,1.108694935E1,-1.457470298E0
3.409219584E0,-3.135207176E0,1.113962173E1,-1.419163108E0
3.411707240E0,-3.168725967E0,1.116835213E1,-1.390432596E0
3.414194896E0,-3.178302765E0,1.122581291E1,-1.409586191E0
3.416682552E0,-3.197456360E0,1.126412010E1,-1.400009394E0
3.419170209E0,-3.207033157E0,1.130242729E1,-1.395220995E0
3.421657865E0,-3.187879562E0,1.134073448E1,-1.352125406E0
3.424145521E0,-3.159149170E0,1.136946487E1,-1.299453020E0
3.426633177E0,-3.111265182E0,1.139819527E1,-1.261145711E0
3.429120834E0,-3.068169594E0,1.141734982E1,-1.222838521E0
3.431608490E0,-3.034650564E0,1.142213821E1,-1.237203717E0
3.434096146E0,-3.029862165E0,1.143650341E1,-1.275510907E0
3.436583802E0,-3.025073767E0,1.144129181E1,-1.356913805E0
3.439071459E0,-3.039438963E0,1.144608021E1,-1.428739905E0
3.441559115E0,-3.063380957E0,1.146523380E1,-1.471835494E0
3.444046771E0,-3.058592558E0,1.148438740E1,-1.510142684E0
3.446534427E0,-3.039438963E0,1.149875259E1,-1.558026791E0
3.449022084E0,-3.005920172E0,1.154663658E1,-1.586757183E0
3.451509740E0,-2.948459387E0,1.157536697E1,-1.605910778E0
3.453997396E0,-2.890998602E0,1.161846256E1,-1.605910778E0
3.456485052E0,-2.828749418E0,1.166155815E1,-1.596333981E0
3.458972709E0,-2.776076794E0,1.169986534E1,-1.605910778E0
3.461460365E0,-2.737769604E0,1.174296093E1,-1.620275974E0
3.463948021E0,-2.732981205E0,1.181478691E1,-1.677736878E0
3.466435677E0,-2.747346401E0,1.189140129E1,-1.773504853E0
3.468923334E0,-2.742558002E0,1.197280407E1,-1.902791858E0
3.471410990E0,-2.713827610E0,1.207814884E1,-2.003348351E0
3.473898646E0,-2.675520420E0,1.217870522E1,-2.089539528E0
3.476386302E0,-2.661155224E0,1.230799198E1,-2.151788712E0
3.478873959E0,-2.675520420E0,1.243249130E1,-2.180519104E0
3.481361615E0,-2.709039211E0,1.254741287E1,-2.199672699E0
3.483849271E0,-2.771288395E0,1.267669964E1,-2.204461098E0
3.486336979E0,-2.843114614E0,1.281077480E1,-2.175730705E0
3.488824688E0,-2.924517393E0,1.292569637E1,-2.118269920E0
3.491312396E0,-3.001131773E0,1.305498314E1,-2.123058319E0
3.493800104E0,-3.068169594E0,1.318426991E1,-2.099116325E0
3.496287813E0,-3.106476784E0,1.330397987E1,-2.084751129E0
3.498775521E0,-3.125630379E0,1.343805599E1,-2.032078743E0
3.501263229E0,-3.116053581E0,1.356255436E1,-1.974617839E0
3.503750938E0,-3.120841980E0,1.368705273E1,-1.950675845E0
3.506238646E0,-3.096899986E0,1.379718590E1,-1.945887446E0
3.508726354E0,-3.077746391E0,1.388337708E1,-1.945887446E0
3.511214063E0,-3.029862165E0,1.395041466E1,-1.965041041E0
3.513701771E0,-2.991554976E0,1.399351025E1,-2.008136749E0
3.516189479E0,-2.948459387E0,1.403181744E1,-2.089539528E0
3.518677188E0,-2.905363798E0,1.406533623E1,-2.156577110E0
3.521164896E0,-2.862268209E0,1.407012463E1,-2.233191729E0
3.523652604E0,-2.833537817E0,1.406533623E1,-2.261922121E0
3.526140313E0,-2.809595585E0,1.403660583E1,-2.266710520E0
3.528628021E0,-2.776076794E0,1.399351025E1,-2.295440912E0
3.531115729E0,-2.752134800E0,1.393604946E1,-2.357690096E0
3.533603438E0,-2.718616009E0,1.386901188E1,-2.415150881E0
3.536091146E0,-2.704250813E0,1.379718590E1,-2.443881273E0
3.538578854E0,-2.670732021E0,1.370620632E1,-2.477400303E0
3.541066563E0,-2.637213230E0,1.364874554E1,-2.486977100E0
3.543554271E0,-2.632424831E0,1.360564995E1,-2.501342297E0
3.546041979E0,-2.622848034E0,1.355776596E1,-2.520495892E0
3.548529688E0,-2.632424831E0,1.351467037E1,-2.549226284E0
3.551017396E0,-2.618059635E0,1.347636318E1,-2.664147854E0
3.553505104E0,-2.642001629E0,1.346199799E1,-2.731185675E0
3.555992813E0,-2.642001629E0,1.345720959E1,-2.692878246E0
3.558480521E0,-2.622848034E0,1.343326759E1,-2.664147854E0
3.560968229E0,-2.598906040E0,1.342847919E1,-2.668936253E0
3.563455938E0,-2.584540844E0,1.341411400E1,-2.702455282E0
3.565943646E0,-2.570175409E0,1.343326759E1,-2.740762472E0
3.568431354E0,-2.589329243E0,1.343805599E1,-2.735974073E0
3.570919011E0,-2.603694439E0,1.346678638E1,-2.755127668E0
3.573406667E0,-2.646790028E0,1.349072838E1,-2.745550871E0
3.575894323E0,-2.670732021E0,1.349072838E1,-2.769492865E0
3.578381979E0,-2.680308819E0,1.348593998E1,-2.783858061E0
3.580869636E0,-2.675520420E0,1.349072838E1,-2.774281263E0
3.583357292E0,-2.665943623E0,1.345242119E1,-2.712032080E0
3.585844948E0,-2.608482838E0,1.341411400E1,-2.673724651E0
3.588332604E0,-2.565387011E0,1.337101841E1,-2.644994259E0
3.590820261E0,-2.522291422E0,1.331834507E1,-2.640205860E0
3.593307917E0,-2.493561029E0,1.327046108E1,-2.659359455E0
3.595795573E0,-2.460042238E0,1.320342350E1,-2.664147854E0
3.598283229E0,-2.445677042E0,1.313638592E1,-2.673724651E0
3.600770886E0,-2.426523447E0,1.307892513E1,-2.692878246E0
3.603258542E0,-2.426523447E0,1.301667595E1,-2.716820478E0
3.605746198E0,-2.450465441E0,1.294963837E1,-2.774281263E0
3.608233854E0,-2.460042238E0,1.289217758E1,-2.798223257E0
3.610721511E0,-2.445677042E0,1.280119801E1,-2.798223257E0
3.613209167E0,-2.388216257E0,1.271500683E1,-2.764704466E0
3.615696823E0,-2.330755472E0,1.261923885E1,-2.731185675E0
3.618184479E0,-2.258929253E0,1.252347088E1,-2.702455282E0
3.620672136E0,-2.187103271E0,1.242770290E1,-2.678513050E0
3.623159792E0,-2.120065689E0,1.235108757E1,-2.668936253E0
3.625647448E0,-2.100912094E0,1.229841518E1,-2.702455282E0
3.628135104E0,-2.086546898E0,1.224574280E1,-2.755127668E0
3.630622761E0,-2.081758261E0,1.221701241E1,-2.788646460E0
3.633110417E0,-2.081758261E0,1.219785881E1,-2.764704466E0
3.635598073E0,-2.048239470E0,1.217391682E1,-2.688089848E0
3.638085729E0,-1.985990286E0,1.212603283E1,-2.635417461E0
3.640573386E0,-1.899798989E0,1.208293724E1,-2.625840664E0
3.643061042E0,-1.818396211E0,1.202068806E1,-2.635417461E0
3.645548698E0,-1.736993313E0,1.197280407E1,-2.678513050E0
3.648036354E0,-1.650802016E0,1.194407368E1,-2.735974073E0
3.650524011E0,-1.550245643E0,1.192013168E1,-2.759916067E0
3.653011667E0,-1.473631144E0,1.191534328E1,-2.735974073E0
3.655499323E0,-1.416170359E0,1.192970848E1,-2.668936253E0
3.657986979E0,-1.387439847E0,1.195365047E1,-2.616263866E0
3.660474636E0,-1.382651448E0,1.193928528E1,-2.577956676E0
3.662962292E0,-1.392228246E0,1.191055489E1,-2.568379879E0
3.665449948E0,-1.373074651E0,1.185788250E1,-2.568379879E0
3.667937604E0,-1.344344258E0,1.179084492E1,-2.587533474E0
3.670425261E0,-1.286883354E0,1.169986534E1,-2.563591480E0
3.672912917E0,-1.238999367E0,1.162803936E1,-2.554014683E0
3.675400573E0,-1.219845772E0,1.153705978E1,-2.515707493E0
3.677888229E0,-1.248576164E0,1.146044540E1,-2.510919094E0
3.680375886E0,-1.301248670E0,1.139340687E1,-2.534861088E0
3.682863542E0,-1.368286252E0,1.129763889E1,-2.577956676E0
3.685351198E0,-1.449689150E0,1.120665932E1,-2.640205860E0
3.687838854E0,-1.502361536E0,1.109652615E1,-2.702455282E0
3.690326511E0,-1.526303530E0,1.098160458E1,-2.702455282E0
3.692814167E0,-1.526303530E0,1.083795261E1,-2.611475468E0
3.695301823E0,-1.454477549E0,1.069430065E1,-2.491765499E0
3.697789479E0,-1.382651448E0,1.055064869E1,-2.357690096E0
3.700277136E0,-1.301248670E0,1.039741898E1,-2.276287317E0
3.702764792E0,-1.234210968E0,1.027770901E1,-2.228403330E0
3.705252448E0,-1.200692177E0,1.014363384E1,-2.233191729E0
3.707740104E0,-1.186326981E0,1.004307747E1,-2.290652514E0
3.710227761E0,-1.200692177E0,9.971251488E0,-2.333748102E0
3.712715417E0,-1.215057373E0,9.889848709E0,-2.314594507E0
3.715203073E0,-1.243787766E0,9.846753120E0,-2.276287317E0
3.717690729E0,-1.219845772E0,9.789292336E0,-2.204461098E0
3.720178386E0,-1.181538582E0,9.693524361E0,-2.170942307E0
3.722666042E0,-1.104924083E0,9.621698380E0,-2.166153908E0
3.725153698E0,-1.028309584E0,9.545084000E0,-2.190095901E0
3.727641354E0,-9.660604000E-1,9.463681221E0,-2.185307503E0
3.730129011E0,-9.277531505E-1,9.406219482E0,-2.190095901E0
3.732616667E0,-9.277531505E-1,9.372700691E0,-2.214038134E0
3.735104323E0,-9.612720013E-1,9.343970299E0,-2.180519104E0
3.737591979E0,-9.708487988E-1,9.310451508E0,-2.127846718E0
3.740079636E0,-9.708487988E-1,9.248202324E0,-2.070385933E0
3.742567292E0,-9.612720013E-1,9.181164742E0,-2.017713547E0
3.745054948E0,-9.421183467E-1,9.114127159E0,-1.965041041E0
3.747542604E0,-9.085995555E-1,9.032724380E0,-1.984194636E0
3.750030261E0,-8.655039072E-1,8.970475197E0,-2.075174332E0
3.752517917E0,-8.415619135E-1,8.903437614E0,-2.218826532E0
3.755005573E0,-8.511387110E-1,8.884284019E0,-2.338536501E0
3.757493229E0,-9.038111567E-1,8.865130424E0,-2.352901697E0
3.759980886E0,-9.947907925E-1,8.869918823E0,-2.333748102E0
3.762468542E0,-1.104924083E0,8.841188431E0,-2.300229311E0
3.764956198E0,-1.219845772E0,8.788516045E0,-2.300229311E0
3.767443854E0,-1.291671872E0,8.731055260E0,-2.338536501E0
3.769931511E0,-1.329979062E0,8.664017677E0,-2.376843691E0
3.772419167E0,-1.334767461E0,8.549096107E0,-2.324171305E0
3.774906823E0,-1.315613866E0,8.443750381E0,-2.132635117E0
3.777394479E0,-1.229422569E0,8.324040413E0,-1.816600561E0
3.779882136E0,-1.143231273E0,8.252214432E0,-1.524507880E0
3.782369792E0,-1.057040095E0,8.170811653E0,-1.342548609E0
3.784857448E0,-9.660604000E-1,8.113350868E0,-1.251568913E0
3.787345104E0,-8.894459605E-1,8.075043678E0,-1.241992116E0
3.789832761E0,-8.607155085E-1,8.060678482E0,-1.328183413E0
3.792320469E0,-8.702923059E-1,8.041524887E0,-1.467047095E0
3.794808177E0,-8.942343593E-1,8.046313286E0,-1.615487576E0
3.797295886E0,-9.277531505E-1,8.065466881E0,-1.672948480E0
3.799783594E0,-9.660604000E-1,8.079832077E0,-1.696890473E0
3.802271302E0,-9.708487988E-1,8.098985672E0,-1.725620866E0
3.804759011E0,-9.612720013E-1,8.103774071E0,-1.677736878E0
3.807246719E0,-9.325415492E-1,8.084620476E0,-1.725620866E0
3.809734427E0,-8.990227580E-1,8.065466881E0,-1.902791858E0
3.812222136E0,-8.655039072E-1,8.027159691E0,-2.099116325E0
3.814709844E0,-8.415619135E-1,7.993640900E0,-2.247556925E0
3.817197552E0,-8.128314614E-1,7.955333710E0,-2.281075716E0
3.819685261E0,-7.697358727E-1,7.907449722E0,-2.214038134E0
3.822172969E0,-7.074866295E-1,7.869142532E0,-2.075174332E0
3.824660677E0,-6.596025825E-1,7.816470146E0,-1.965041041E0
3.827148386E0,-6.356605291E-1,7.763797760E0,-1.950675845E0
3.829636094E0,-6.643909812E-1,7.711124897E0,-1.988983035E0
3.832123802E0,-7.026981711E-1,7.696759701E0,-2.070385933E0
3.834611511E0,-7.505822182E-1,7.706336498E0,-2.137423515E0
3.837099219E0,-7.601590157E-1,7.749432564E0,-2.214038134E0
3.839586927E0,-7.457938194E-1,7.811681747E0,-2.228403330E0
3.842074636E0,-7.026981711E-1,7.873930931E0,-2.214038134E0
3.844562344E0,-6.643909812E-1,7.931391716E0,-2.137423515E0
3.847050052E0,-6.117185354E-1,7.964910507E0,-2.084751129E0
3.849537761E0,-5.638344884E-1,7.974487305E0,-2.070385933E0
3.852025469E0,-5.494692922E-1,7.964910507E0,-2.070385933E0
3.854513177E0,-5.734112859E-1,7.940968513E0,-2.089539528E0
3.857000886E0,-6.452373862E-1,7.921814919E0,-2.103904724E0
3.859488594E0,-7.122750282E-1,7.902661324E0,-2.089539528E0
3.861976302E0,-7.888894677E-1,7.893084526E0,-2.036867142E0
3.864464011E0,-8.750807047E-1,7.883507729E0,-1.988983035E0
3.866951719E0,-9.373299479E-1,7.902661324E0,-1.878849745E0
3.869439427E0,-9.708487988E-1,7.878719330E0,-1.874061346E0
3.871927136E0,-1.023521185E0,7.869142532E0,-1.912368655E0
3.874414844E0,-1.080982089E0,7.849988937E0,-1.878849745E0
3.876902500E0,-1.143231273E0,7.806893349E0,-1.864484549E0
3.879390157E0,-1.210268974E0,7.787739754E0,-1.859696150E0
3.881877813E0,-1.277306557E0,7.744644165E0,-1.783081770E0
3.884365469E0,-1.315613866E0,7.687182903E0,-1.735197663E0
3.886853125E0,-1.334767461E0,7.605780125E0,-1.744774461E0
3.889340782E0,-1.320402265E0,7.538742542E0,-1.711255670E0
3.891828438E0,-1.286883354E0,7.476493359E0,-1.644217968E0
3.894316094E0,-1.224634171E0,7.395090580E0,-1.634641171E0
3.896803750E0,-1.186326981E0,7.328052998E0,-1.663371682E0
3.899291407E0,-1.181538582E0,7.275380611E0,-1.696890473E0
3.901779063E0,-1.205480576E0,7.227496147E0,-1.749562860E0
3.904266719E0,-1.267729759E0,7.179612160E0,-1.830965757E0
3.906754375E0,-1.339555860E0,7.122151375E0,-1.941099048E0
3.909242032E0,-1.401805043E0,7.074267387E0,-2.070385933E0
3.911729688E0,-1.483207941E0,6.992864609E0,-2.051232338E0
3.914217344E0,-1.636436820E0,7.045536995E0,-3.018489838E0
3.916705000E0,-1.674744129E0,7.031171799E0,-2.922721624E0
3.919192657E0,-1.650802016E0,6.897096634E0,-2.357690096E0
3.921680313E0,-1.559822440E0,6.796540260E0,-2.147000313E0
3.924167969E0,-1.487996340E0,6.753444672E0,-2.477400303E0
3.926655625E0,-1.387439847E0,6.652887821E0,-2.577956676E0
3.929143282E0,-1.253364563E0,6.571485043E0,-2.549226284E0
3.931630938E0,-1.148019671E0,6.518812656E0,-2.496553898E0
3.934118594E0,-1.104924083E0,6.494870663E0,-2.582745075E0
3.936606250E0,-1.181538582E0,6.557119846E0,-2.831742048E0
3.939093907E0,-1.349132657E0,6.657676220E0,-2.793434858E0
3.941581563E0,-1.511938334E0,6.801328659E0,-2.530072689E0
3.944069219E0,-1.622071624E0,6.959345818E0,-2.352901697E0
3.946556875E0,-1.626860023E0,7.088632584E0,-2.247556925E0
3.949044532E0,-1.540668845E0,7.126939774E0,-2.089539528E0
3.951532188E0,-1.425747156E0,7.122151375E0,-1.950675845E0
3.954019844E0,-1.272518158E0,7.141304970E0,-1.787870169E0
3.956507500E0,-1.133654475E0,7.184400558E0,-1.677736878E0
3.958995157E0,-1.080982089E0,7.237073421E0,-1.601122379E0
3.961482813E0,-1.100135684E0,7.332841396E0,-1.586757183E0
3.963970469E0,-1.181538582E0,7.423820972E0,-1.605910778E0
3.966458125E0,-1.320402265E0,7.514800549E0,-1.682525277E0
3.968945782E0,-1.473631144E0,7.620145321E0,-1.835754156E0
3.971433438E0,-1.650802016E0,7.687182903E0,-1.979406238E0
3.973921094E0,-1.799242616E0,7.720701694E0,-2.070385933E0
3.976408750E0,-1.933317900E0,7.730278969E0,-2.075174332E0
3.978896407E0,-2.005143881E0,7.696759701E0,-2.046443939E0
3.981384063E0,-2.048239470E0,7.624933720E0,-1.917157054E0
3.983871719E0,-2.033874273E0,7.514800549E0,-1.725620866E0
3.986359375E0,-1.985990286E0,7.375936985E0,-1.591545582E0
3.988847032E0,-1.976413488E0,7.261015415E0,-1.524507880E0
3.991334688E0,-2.005143881E0,7.174823761E0,-1.529296279E0
3.993822344E0,-2.139219284E0,7.160458565E0,-1.601122379E0
3.996310000E0,-2.340332270E0,7.203554153E0,-1.754351258E0
3.998797657E0,-2.579752445E0,7.304111004E0,-1.754351258E0
4.001285313E0,-2.766499996E0,7.447762966E0,-1.687313676E0
4.003772969E0,-2.828749418E0,7.596203327E0,-1.763928056E0
4.006260625E0,-2.795230389E0,7.730278969E0,-1.821388960E0
4.008748282E0,-2.656366825E0,7.826046944E0,-1.735197663E0
4.011235938E0,-2.455253839E0,7.907449722E0,-1.529296279E0
4.013723594E0,-2.278082848E0,8.022371292E0,-1.313818216E0
4.016211250E0,-2.148796082E0,8.161234856E0,-1.155800819E0
4.018698907E0,-2.062604666E0,8.319252014E0,-1.069609642E0
4.021186563E0,-2.072181463E0,8.482058525E0,-1.079186440E0
4.023674219E0,-2.182314873E0,8.673594475E0,-1.127070427E0
4.026161875E0,-2.383427858E0,8.903437614E0,-1.117493629E0
4.028649532E0,-2.594117641E0,9.114127159E0,-9.690531492E-1
4.031137188E0,-2.752134800E0,9.267355919E0,-7.344213724E-1
4.033624844E0,-2.804807186E0,9.358335495E0,-4.902127981E-1
4.036112500E0,-2.742558002E0,9.382277489E0,-2.795230448E-1
4.038600157E0,-2.560598612E0,9.315239906E0,-7.841010392E-2
4.041087813E0,-2.330755472E0,9.171587944E0,1.514332592E-1
4.043575469E0,-2.120065689E0,8.999205589E0,3.573346138E-1
4.046063125E0,-1.971625090E0,8.802881241E0,5.345055461E-1
4.048550782E0,-1.904587507E0,8.616133690E0,6.590040326E-1
4.051038438E0,-1.875856996E0,8.434173584E0,7.404068708E-1
4.053526094E0,-1.904587507E0,8.257002831E0,7.595604658E-1
4.056013750E0,-1.923741102E0,8.098985672E0,7.164648771E-1
4.058501407E0,-1.942894697E0,7.964910507E0,6.446388364E-1
4.060989063E0,-1.895010591E0,7.797316551E0,5.345055461E-1
4.063476719E0,-1.813607812E0,7.629722118E0,3.764882088E-1
4.065964375E0,-1.746570110E0,7.471704960E0,1.083376259E-1
4.068452032E0,-1.784877419E0,7.356783390E0,-1.933317930E-1
4.070939688E0,-1.895010591E0,7.261015415E0,-4.758476019E-1
4.073427344E0,-2.086546898E0,7.141304970E0,-7.248445749E-1
4.075915052E0,-2.340332270E0,7.064690590E0,-9.498994946E-1
4.078402761E0,-2.665943623E0,6.964134216E0,-1.088763237E0
4.080890469E0,-3.025073767E0,6.921038628E0,-1.194108129E0
4.083378177E0,-3.355473757E0,6.911461830E0,-1.294664621E0
4.085865886E0,-3.642777920E0,6.882731438E0,-1.299453020E0
4.088353594E0,-3.815160513E0,6.834847450E0,-1.026513934E0
4.090841302E0,-3.752911091E0,6.815693855E0,-2.364274114E-1
4.093329011E0,-3.547009706E0,6.873154640E0,-1.107916832E0
4.095816719E0,-3.159149170E0,6.676829815E0,-1.088763237E0
4.098304427E0,-2.656366825E0,6.360795498E0,-5.446808785E-2
4.100792136E0,-2.191891670E0,6.279392719E0,5.488707423E-1
4.103279844E0,-1.866280198E0,6.394314289E0,6.015431881E-1
4.105767552E0,-1.746570110E0,6.514024258E0,7.116764784E-1
4.108255261E0,-1.765723705E0,6.619369030E0,7.356184721E-1
4.110742969E0,-1.880645394E0,6.724713802E0,5.871779919E-1
4.113230677E0,-2.014720678E0,6.796540260E0,3.381809890E-1
4.115718386E0,-2.158372879E0,6.810905457E0,9.876082093E-2
4.118206094E0,-2.263717651E0,6.782175064E0,-8.798690885E-2
4.120693802E0,-2.306813240E0,6.672041416E0,-2.364274114E-1
4.123181511E0,-2.325966835E0,6.537966251E0,-3.034650683E-1
4.125669219E0,-2.282871246E0,6.399102688E0,-3.513490856E-1
4.128156927E0,-2.273294449E0,6.269815922E0,-4.279635549E-1
4.130644636E0,-2.297236443E0,6.188412666E0,-4.183867574E-1
4.133132344E0,-2.393004656E0,6.178835869E0,-6.625953317E-1
4.135620052E0,-2.579752445E0,6.212354660E0,-1.012148738E0
4.138107761E0,-2.819172382E0,6.293757915E0,-1.184531331E0
4.140595469E0,-3.082534790E0,6.432621479E0,-1.280299306E0
4.143083177E0,-3.336320162E0,6.600215435E0,-1.332971811E0
4.145570886E0,-3.489548922E0,6.748656273E0,-1.213261724E0
4.148058594E0,-3.503914118E0,6.858789444E0,-1.026513934E0
4.150546302E0,-3.341108561E0,6.930615425E0,-8.158242106E-1
4.153034011E0,-3.087323189E0,6.983287811E0,-6.434416771E-1
4.155521719E0,-2.800018787E0,7.055113792E0,-4.566939771E-1
4.158009427E0,-2.555810213E0,7.136516571E0,-3.321954906E-1
4.160497136E0,-2.445677042E0,7.270592213E0,-2.747346461E-1
4.162984844E0,-2.469619036E0,7.419032574E0,-2.699462473E-1
4.165472500E0,-2.618059635E0,7.581838131E0,-2.938882709E-1
4.167960157E0,-2.776076794E0,7.735067368E0,-3.369838893E-1
4.170447813E0,-2.886210203E0,7.826046944E0,-3.369838893E-1
4.172935469E0,-2.862268209E0,7.845200539E0,-3.178302646E-1
4.175423125E0,-2.694674015E0,7.806893349E0,-2.124854028E-1
4.177910782E0,-2.445677042E0,7.763797760E0,-8.319851011E-2
4.180398438E0,-2.158372879E0,7.720701694E0,8.918401599E-2
4.182886094E0,-1.918952703E0,7.711124897E0,2.232593149E-1
4.185373750E0,-1.756146908E0,7.787739754E0,3.238157928E-1
4.187861407E0,-1.689109325E0,7.902661324E0,3.669114113E-1
4.190349063E0,-1.732204914E0,8.055890083E0,3.956418335E-1
4.192836719E0,-1.808819413E0,8.213907242E0,3.669114113E-1
4.195324375E0,-1.890222192E0,8.371924400E0,3.094505668E-1
4.197812032E0,-1.976413488E0,8.534730911E0,2.041056901E-1
4.200299688E0,-2.019509077E0,8.683171272E0,1.179144308E-1
4.202787344E0,-2.014720678E0,8.817246437E0,3.651157767E-2
4.205275000E0,-1.981201887E0,8.951321602E0,-3.052607179E-2
4.207762657E0,-1.914164305E0,9.071031570E0,-8.319851011E-2
4.210250313E0,-1.789665818E0,9.195529938E0,-7.362170517E-2
4.212737969E0,-1.626860023E0,9.286509514E0,3.172317147E-2
4.215225625E0,-1.473631144E0,9.377489090E0,1.322796494E-1
4.217713282E0,-1.320402265E0,9.478046417E0,2.041056901E-1
4.220200938E0,-1.186326981E0,9.602544785E0,3.094505668E-1
4.222688594E0,-1.076193690E0,9.760561943E0,3.956418335E-1
4.225176250E0,-9.947907925E-1,9.932944298E0,4.483142793E-1
4.227663907E0,-9.612720013E-1,1.012926865E1,4.722562730E-1
4.230151563E0,-9.421183467E-1,1.033995819E1,4.818331003E-1
4.232639219E0,-9.229647517E-1,1.055064869E1,4.818331003E-1
4.235126875E0,-8.894459605E-1,1.072303104E1,4.818331003E-1
4.237614532E0,-8.702923059E-1,1.086668301E1,4.531026781E-1
4.240102188E0,-8.846575022E-1,1.096723938E1,3.908534348E-1
4.242589844E0,-9.181763530E-1,1.105821896E1,3.190273643E-1
4.245077500E0,-1.013944387E0,1.111567974E1,2.184709013E-1
4.247565157E0,-1.095347285E0,1.113004494E1,1.131260321E-1
4.250052813E0,-1.205480576E0,1.110610294E1,3.172317147E-2
4.252540469E0,-1.329979062E0,1.107737255E1,-1.795651275E-3
4.255028125E0,-1.473631144E0,1.102470016E1,-1.616086066E-2
4.257515782E0,-1.622071624E0,1.096245098E1,-2.573766746E-2
4.260003438E0,-1.751358509E0,1.092893219E1,-2.094926499E-2
4.262491094E0,-1.875856996E0,1.088104820E1,3.651157767E-2
4.264978750E0,-1.981201887E0,1.083795261E1,1.083376259E-1
4.267466407E0,-2.067393064E0,1.082358742E1,1.753752679E-1
4.269954063E0,-2.120065689E0,1.083795261E1,2.567781210E-1
4.272441719E0,-2.182314873E0,1.086189461E1,3.333925903E-1
4.274929375E0,-2.225410461E0,1.085231781E1,4.387374520E-1
4.277417032E0,-2.211045265E0,1.088583660E1,5.249287486E-1
4.279904688E0,-2.196680069E0,1.090020180E1,5.776011348E-1
4.282392344E0,-2.172738075E0,1.092414379E1,5.967547894E-1
4.284880000E0,-2.134430885E0,1.093372059E1,6.015431881E-1
4.287367657E0,-2.067393064E0,1.093372059E1,6.015431881E-1
4.289855313E0,-1.962048292E0,1.091935539E1,6.398503780E-1
4.292342969E0,-1.837549806E0,1.084274101E1,6.637924314E-1
4.294830625E0,-1.669955730E0,1.075654984E1,6.877344251E-1
4.297318282E0,-1.521515131E0,1.064641666E1,6.685808301E-1
4.299805938E0,-1.392228246E0,1.056022549E1,6.063315868E-1
4.302293594E0,-1.296460271E0,1.047403431E1,5.345055461E-1
4.304781250E0,-1.205480576E0,1.039741898E1,4.483142793E-1
4.307268907E0,-1.133654475E0,1.035432339E1,3.477577865E-1
4.309756563E0,-1.061828494E0,1.031122780E1,2.759317458E-1
4.312244219E0,-9.947907925E-1,1.024897861E1,2.280477136E-1
4.314731875E0,-9.373299479E-1,1.021067142E1,2.088941038E-1
4.317219532E0,-9.085995555E-1,1.018672943E1,1.753752679E-1
4.319707188E0,-8.463503122E-1,1.016278744E1,1.897404790E-1
4.322194844E0,-8.032546639E-1,1.014842224E1,1.801636815E-1
4.324682500E0,-7.553706169E-1,1.012926865E1,1.657984704E-1
4.327170157E0,-6.643909812E-1,1.010532665E1,1.610100716E-1
4.329657813E0,-5.734112859E-1,1.009096146E1,1.657984704E-1
4.332145469E0,-4.824316502E-1,1.009096146E1,2.184709013E-1
4.334633125E0,-3.962403834E-1,1.010532665E1,2.855085433E-1
4.337120782E0,-3.531447649E-1,1.012448025E1,3.764882088E-1
4.339608438E0,-3.579331636E-1,1.015321064E1,4.531026781E-1
4.342096094E0,-3.914519846E-1,1.014363384E1,5.009866953E-1
4.344583750E0,-4.920084476E-1,1.012926865E1,5.297171474E-1
4.347071407E0,-6.069301367E-1,1.012448025E1,5.680243373E-1
4.349559063E0,-7.026981711E-1,1.012926865E1,5.871779919E-1
4.352046719E0,-7.888894677E-1,1.011011505E1,6.302735806E-1
4.354534375E0,-8.655039072E-1,1.006223106E1,6.925228238E-1
4.357022084E0,-8.894459605E-1,1.002392387E1,7.930793166E-1
4.359509792E0,-8.942343593E-1,9.971251488E0,8.744821548E-1
4.361997500E0,-8.990227580E-1,9.899425507E0,9.558850527E-1
4.364485209E0,-9.325415492E-1,9.865906715E0,1.018134236E0
4.366972917E0,-1.018732786E0,9.856329918E0,1.013345838E0
4.369460625E0,-1.148019671E0,9.865906715E0,9.989806414E-1
4.371948334E0,-1.286883354E0,9.885060310E0,1.022922635E0
4.374436042E0,-1.373074651E0,9.870695114E0,1.018134236E0
4.376923750E0,-1.387439847E0,9.818022728E0,1.018134236E0
4.379411459E0,-1.349132657E0,9.746196747E0,1.042076349E0
4.381899167E0,-1.267729759E0,9.650428772E0,1.066018343E0
4.384386875E0,-1.162384868E0,9.559449196E0,1.070806742E0
4.386874584E0,-1.066616893E0,9.511565208E0,1.051653147E0
4.389362292E0,-1.004367590E0,9.506776810E0,9.750386477E-1
4.391850000E0,-9.756371975E-1,9.530718803E0,9.032126069E-1
4.394337709E0,-9.756371975E-1,9.569025993E0,8.505401611E-1
4.396825417E0,-9.660604000E-1,9.583391190E0,7.882909179E-1
4.399313125E0,-9.277531505E-1,9.602544785E0,7.499836683E-1
4.401800834E0,-8.798691034E-1,9.602544785E0,7.308300734E-1
4.404288542E0,-8.319851160E-1,9.583391190E0,7.020996213E-1
4.406776250E0,-7.410054207E-1,9.573814392E0,6.733692288E-1
4.409263959E0,-6.643909812E-1,9.530718803E0,6.542156339E-1
4.411751667E0,-5.877765417E-1,9.530718803E0,6.254851818E-1
4.414239375E0,-5.015852451E-1,9.511565208E0,6.206967831E-1
4.416727084E0,-4.249708056E-1,9.487623215E0,6.159083843E-1
4.419214792E0,-3.483563364E-1,9.478046417E0,5.919663906E-1
4.421702500E0,-2.908954918E-1,9.473258018E0,5.776011348E-1
4.424190209E0,-2.573766708E-1,9.487623215E0,5.584475398E-1
4.426677917E0,-2.669534981E-1,9.497200012E0,5.249287486E-1
4.429165625E0,-3.052607179E-1,9.525930405E0,4.961982965E-1
4.431653334E0,-3.483563364E-1,9.554660797E0,4.961982965E-1
4.434141042E0,-3.818751574E-1,9.607333183E0,4.961982965E-1
4.436628750E0,-4.010287821E-1,9.636063576E0,5.153518915E-1
4.439116459E0,-4.297592044E-1,9.636063576E0,5.536591411E-1
4.441604167E0,-4.489128292E-1,9.631275177E0,5.967547894E-1
4.444091875E0,-4.776432514E-1,9.650428772E0,6.302735806E-1
4.446579584E0,-5.303156972E-1,9.679159164E0,6.398503780E-1
4.449067240E0,-6.165069342E-1,9.712677956E0,6.637924314E-1
4.451554896E0,-6.835445762E-1,9.765350342E0,6.733692288E-1
4.454042552E0,-7.553706169E-1,9.813234329E0,6.637924314E-1
4.456530209E0,-8.415619135E-1,9.870695114E0,6.494272351E-1
4.459017865E0,-8.798691034E-1,9.894637108E0,7.164648771E-1
4.461505521E0,-9.085995555E-1,9.913790703E0,7.356184721E-1
4.463993177E0,-9.421183467E-1,9.899425507E0,7.595604658E-1
4.466480834E0,-9.612720013E-1,9.880271912E0,7.643488646E-1
4.468968490E0,-9.756371975E-1,9.875483513E0,7.978677154E-1
4.471456146E0,-9.756371975E-1,9.861118317E0,8.026561141E-1
4.473943802E0,-9.469067454E-1,9.856329918E0,7.930793166E-1
4.476431459E0,-9.133879542E-1,9.841964722E0,7.691373229E-1
4.478919115E0,-8.655039072E-1,9.875483513E0,7.356184721E-1
4.481406771E0,-8.319851160E-1,9.889848709E0,6.973112226E-1
4.483894427E0,-7.984662652E-1,9.942521095E0,6.398503780E-1
4.486382084E0,-7.793126702E-1,9.956886292E0,6.254851818E-1
4.488869740E0,-7.697358727E-1,9.999981880E0,6.159083843E-1
4.491357396E0,-7.553706169E-1,1.002392387E1,6.302735806E-1
4.493845052E0,-7.266402245E-1,1.004786587E1,6.111199856E-1
4.496332709E0,-7.026981711E-1,1.004786587E1,6.159083843E-1
4.498820365E0,-6.452373862E-1,1.006223106E1,6.350619793E-1
4.501308021E0,-5.973533392E-1,1.007659626E1,6.637924314E-1
4.503795677E0,-5.303156972E-1,1.005744267E1,7.116764784E-1
4.506283334E0,-4.584896266E-1,1.004786587E1,7.547720671E-1
4.508770990E0,-3.914519846E-1,1.004786587E1,7.691373229E-1
4.511258646E0,-3.483563364E-1,1.003828907E1,7.691373229E-1
4.513746302E0,-3.004723191E-1,1.001434708E1,7.499836683E-1
4.516233959E0,-2.717418969E-1,9.990405083E0,7.356184721E-1
4.518721615E0,-2.430114746E-1,9.980828285E0,7.356184721E-1
4.521209271E0,-2.334346622E-1,9.980828285E0,7.260416746E-1
4.523696927E0,-2.430114746E-1,9.947309494E0,7.116764784E-1
4.526184584E0,-2.525882721E-1,9.923367500E0,7.020996213E-1
4.528672240E0,-3.004723191E-1,9.904213905E0,6.685808301E-1
4.531159896E0,-3.483563364E-1,9.899425507E0,6.398503780E-1
4.533647552E0,-4.153940082E-1,9.880271912E0,6.302735806E-1
4.536135209E0,-4.537012279E-1,9.870695114E0,5.919663906E-1
4.538622865E0,-5.063736439E-1,9.861118317E0,5.632359385E-1
4.541110521E0,-5.351040959E-1,9.851541519E0,5.680243373E-1
4.543598177E0,-5.590460896E-1,9.827599525E0,5.823895931E-1
4.546085834E0,-5.734112859E-1,9.818022728E0,6.302735806E-1
4.548573490E0,-5.638344884E-1,9.818022728E0,6.925228238E-1
4.551061146E0,-5.446808934E-1,9.798869133E0,7.308300734E-1
4.553548802E0,-5.111620426E-1,9.813234329E0,7.835025191E-1
4.556036459E0,-4.872200489E-1,9.841964722E0,7.739257216E-1
4.558524115E0,-5.111620426E-1,9.870695114E0,7.643488646E-1
4.561011771E0,-5.494692922E-1,9.923367500E0,7.787141204E-1
4.563499427E0,-5.590460896E-1,9.952097893E0,7.691373229E-1
4.565987084E0,-5.686228871E-1,9.971251488E0,7.499836683E-1
4.568474740E0,-5.255272985E-1,9.956886292E0,7.499836683E-1
4.570962396E0,-4.872200489E-1,9.899425507E0,7.164648771E-1
4.573450052E0,-4.393360019E-1,9.865906715E0,6.637924314E-1
4.575937709E0,-3.675099611E-1,9.846753120E0,6.015431881E-1
4.578425365E0,-3.244143426E-1,9.837176323E0,5.632359385E-1
4.580913021E0,-3.148375154E-1,9.851541519E0,4.961982965E-1
4.583400677E0,-2.765302956E-1,9.861118317E0,4.435258508E-1
4.585888334E0,-2.621650994E-1,9.870695114E0,4.387374520E-1
4.588375990E0,-2.334346622E-1,9.870695114E0,3.956418335E-1
4.590863646E0,-2.094926536E-1,9.861118317E0,4.004302323E-1
4.593351302E0,-1.711854190E-1,9.822811127E0,4.291606545E-1
4.595838959E0,-1.711854190E-1,9.813234329E0,4.243722558E-1
4.598326615E0,-1.711854190E-1,9.789292336E0,4.147954583E-1
4.600814271E0,-1.903390288E-1,9.779715538E0,4.100070298E-1
4.603301927E0,-2.094926536E-1,9.779715538E0,3.764882088E-1
4.605789584E0,-2.430114746E-1,9.794080734E0,3.142389655E-1
4.608277240E0,-2.813186944E-1,9.789292336E0,2.759317458E-1
4.610764896E0,-2.861070931E-1,9.803657532E0,2.519897223E-1
4.613252552E0,-2.669534981E-1,9.818022728E0,2.376245260E-1
4.615740209E0,-2.334346622E-1,9.803657532E0,2.232593149E-1
4.618227865E0,-2.286462635E-1,9.798869133E0,2.328361124E-1
4.620715521E0,-2.382230759E-1,9.808445930E0,2.519897223E-1
4.623203177E0,-2.334346622E-1,9.808445930E0,2.855085433E-1
4.625690886E0,-2.813186944E-1,9.822811127E0,2.615665495E-1
4.628178594E0,-3.531447649E-1,9.846753120E0,2.232593149E-1
4.630666302E0,-4.153940082E-1,9.865906715E0,1.897404790E-1
4.633154011E0,-4.584896266E-1,9.875483513E0,1.657984704E-1
4.635641719E0,-4.776432514E-1,9.880271912E0,1.131260321E-1
4.638129427E0,-5.015852451E-1,9.875483513E0,1.179144308E-1
4.640617136E0,-4.824316502E-1,9.875483513E0,1.131260321E-1
4.643104844E0,-4.632780254E-1,9.870695114E0,1.227028370E-1
4.645592552E0,-4.441244006E-1,9.870695114E0,1.322796494E-1
4.648080261E0,-4.489128292E-1,9.885060310E0,1.370680481E-1
4.650567969E0,-4.441244006E-1,9.904213905E0,1.370680481E-1
4.653055677E0,-5.015852451E-1,9.918579102E0,1.035492271E-1
4.655543386E0,-5.446808934E-1,9.947309494E0,7.003039867E-2
4.658031094E0,-5.973533392E-1,9.961674690E0,5.566519126E-2
4.660518802E0,-6.404489279E-1,9.980828285E0,5.087678507E-2
4.663006511E0,-6.643909812E-1,9.952097893E0,5.087678507E-2
4.665494219E0,-6.691793799E-1,9.947309494E0,7.481880486E-2
4.667981927E0,-6.452373862E-1,9.918579102E0,1.083376259E-1
4.670469636E0,-6.260837317E-1,9.894637108E0,1.418564469E-1
4.672957344E0,-6.117185354E-1,9.880271912E0,1.274912357E-1
4.675445052E0,-6.069301367E-1,9.885060310E0,1.322796494E-1
4.677932761E0,-6.500257850E-1,9.889848709E0,1.322796494E-1
4.680420469E0,-7.026981711E-1,9.904213905E0,1.131260321E-1
4.682908177E0,-7.505822182E-1,9.899425507E0,7.481880486E-2
4.685395886E0,-8.176198602E-1,9.865906715E0,2.214636654E-2
4.687883594E0,-8.655039072E-1,9.841964722E0,-1.616086066E-2
4.690371302E0,-9.229647517E-1,9.818022728E0,-2.094926499E-2
4.692859011E0,-9.181763530E-1,9.779715538E0,-3.052607179E-2
4.695346719E0,-9.085995555E-1,9.736619949E0,-4.489128292E-2
4.697834427E0,-8.559271097E-1,9.703101158E0,-1.795651275E-3
4.700322136E0,-7.841010690E-1,9.679159164E0,3.651157767E-2
4.702809844E0,-7.170634270E-1,9.626486778E0,1.179144308E-1
4.705297552E0,-6.883329749E-1,9.583391190E0,1.801636815E-1
4.707785261E0,-7.170634270E-1,9.573814392E0,2.232593149E-1
4.710272969E0,-8.415619135E-1,9.573814392E0,2.567781210E-1
4.712760677E0,-9.708487988E-1,9.564237595E0,2.902969420E-1
4.715248386E0,-1.080982089E0,9.549872398E0,2.998737693E-1
4.717736094E0,-1.176750183E0,9.521142006E0,2.855085433E-1
4.720223750E0,-1.234210968E0,9.478046417E0,2.855085433E-1
4.722711407E0,-1.248576164E0,9.449316025E0,2.615665495E-1
4.725199063E0,-1.243787766E0,9.372700691E0,2.519897223E-1
4.727686719E0,-1.224634171E0,9.300874710E0,2.807201445E-1
4.730174375E0,-1.224634171E0,9.229048729E0,2.855085433E-1
4.732662032E0,-1.248576164E0,9.157222748E0,3.094505668E-1
4.735149688E0,-1.344344258E0,9.104550362E0,2.998737693E-1
4.737637344E0,-1.459265947E0,9.066243172E0,3.142389655E-1
4.740125000E0,-1.564610839E0,9.003993988E0,3.094505668E-1
4.742612657E0,-1.636436820E0,8.913014412E0,2.615665495E-1
4.745100313E0,-1.669955730E0,8.826823235E0,2.232593149E-1
4.747587969E0,-1.674744129E0,8.740632057E0,1.753752679E-1
4.750075625E0,-1.665167332E0,8.654440880E0,1.562216580E-1
4.752563282E0,-1.650802016E0,8.563461304E0,1.227028370E-1
4.755050938E0,-1.626860023E0,8.486846924E0,7.481880486E-2
4.757538594E0,-1.598129630E0,8.395866394E0,3.651157767E-2
4.760026250E0,-1.617283225E0,8.304886818E0,-4.967968538E-2
4.762513907E0,-1.636436820E0,8.213907242E0,-1.262941360E-1
4.765001563E0,-1.669955730E0,8.118139267E0,-1.837549806E-1
4.767489219E0,-1.722628117E0,8.022371292E0,-2.555810213E-1
4.769976875E0,-1.765723705E0,7.931391716E0,-3.465606868E-1
4.772464532E0,-1.789665818E0,7.830835342E0,-4.183867574E-1
4.774952188E0,-1.794454217E0,7.759009361E0,-4.806360006E-1
4.777439844E0,-1.789665818E0,7.696759701E0,-5.285200477E-1
4.779927500E0,-1.813607812E0,7.653664112E0,-5.811924338E-1
4.782415157E0,-1.832761407E0,7.615356922E0,-6.242880821E-1
4.784902813E0,-1.832761407E0,7.577049732E0,-6.434416771E-1
4.787390469E0,-1.856703401E0,7.557896137E0,-6.530185342E-1
4.789878125E0,-1.866280198E0,7.557896137E0,-6.338648796E-1
4.792365782E0,-1.842338204E0,7.557896137E0,-6.290764809E-1
4.794853438E0,-1.818396211E0,7.529165745E0,-6.099228859E-1
4.797341094E0,-1.789665818E0,7.524377346E0,-5.668272376E-1
4.799828750E0,-1.727416515E0,7.510012150E0,-4.902127981E-1
4.802316407E0,-1.669955730E0,7.500435352E0,-3.944447339E-1
4.804804063E0,-1.622071624E0,7.476493359E0,-2.890998423E-1
4.807291719E0,-1.583764434E0,7.462128162E0,-2.268506140E-1
4.809779375E0,-1.564610839E0,7.428609371E0,-2.124854028E-1
4.812267032E0,-1.588552833E0,7.428609371E0,-1.933317930E-1
4.814754688E0,-1.626860023E0,7.409455776E0,-1.837549806E-1
4.817242344E0,-1.698686123E0,7.395090580E0,-2.029085904E-1
4.819730000E0,-1.775300503E0,7.375936985E0,-2.555810213E-1
4.822217657E0,-1.837549806E0,7.361571789E0,-3.130418658E-1
4.824705313E0,-1.866280198E0,7.323264599E0,-3.609259129E-1
4.827192969E0,-1.918952703E0,7.251438618E0,-4.088099301E-1
4.829680625E0,-1.962048292E0,7.179612160E0,-4.423287511E-1
4.832168282E0,-1.981201887E0,7.088632584E0,-4.758476019E-1
4.834655938E0,-2.029085875E0,6.992864609E0,-4.902127981E-1
4.837143594E0,-2.081758261E0,6.901885033E0,-5.333084464E-1
4.839631250E0,-2.134430885E0,6.791751862E0,-6.099228859E-1
4.842118907E0,-2.153584480E0,6.686406612E0,-6.865373254E-1
4.844606563E0,-2.187103271E0,6.585850239E0,-8.301894665E-1
4.847094219E0,-2.187103271E0,6.480505466E0,-1.002571940E0
4.849581875E0,-2.201468468E0,6.379949093E0,-1.194108129E0
4.852069532E0,-2.239775658E0,6.308123112E0,-1.443105102E0
4.854557188E0,-2.306813240E0,6.274604321E0,-1.706467271E0
4.857044844E0,-2.402581453E0,6.288969517E0,-1.893214941E0
4.859532500E0,-2.483984232E0,6.327276707E0,-1.988983035E0
4.862020157E0,-2.517503023E0,6.365583897E0,-1.960252643E0
4.864507813E0,-2.469619036E0,6.418256283E0,-1.826177359E0
4.866995469E0,-2.340332270E0,6.466140270E0,-1.653794765E0
4.869483125E0,-2.144007683E0,6.537966251E0,-1.438316703E0
4.871970782E0,-1.909375906E0,6.595427036E0,-1.146224022E0
4.874458438E0,-1.684320927E0,6.681618214E0,-8.397662640E-1
4.876946094E0,-1.507149935E0,6.806117058E0,-5.859808922E-1
4.879433750E0,-1.377863050E0,6.964134216E0,-4.279635549E-1
4.881921407E0,-1.334767461E0,7.174823761E0,-3.944447339E-1
4.884409063E0,-1.377863050E0,7.428609371E0,-4.040215313E-1
4.886896719E0,-1.430535555E0,7.725490570E0,-3.896563351E-1
4.889384427E0,-1.502361536E0,8.017582893E0,-4.902127981E-1
4.891872136E0,-1.535880446E0,8.290521622E0,-6.625953317E-1
4.894359844E0,-1.487996340E0,8.534730911E0,-8.062474132E-1
4.896847552E0,-1.397016644E0,8.726266861E0,-8.637082577E-1
4.899335261E0,-1.253364563E0,8.874707222E0,-8.780734539E-1
4.901822969E0,-1.124077678E0,8.951321602E0,-8.541314602E-1
4.904310677E0,-1.042674899E0,8.989628792E0,-8.014590144E-1
4.906798386E0,-1.009155989E0,8.989628792E0,-7.200561762E-1
4.909286094E0,-1.033097982E0,8.975263596E0,-6.673837304E-1
4.911773802E0,-1.100135684E0,8.927379608E0,-6.578069329E-1
4.914261511E0,-1.195903778E0,8.860342026E0,-7.248445749E-1
4.916749219E0,-1.315613866E0,8.783727646E0,-8.637082577E-1
4.919236927E0,-1.430535555E0,8.716690063E0,-1.012148738E0
4.921724636E0,-1.564610839E0,8.664017677E0,-1.136647224E0
4.924212344E0,-1.698686123E0,8.620922089E0,-1.165377736E0
4.926700052E0,-1.832761407E0,8.587403297E0,-1.112705231E0
4.929187761E0,-1.981201887E0,8.544307709E0,-1.060032845E0
4.931675469E0,-2.072181463E0,8.438961983E0,-1.026513934E0
4.934163177E0,-2.115277290E0,8.357559204E0,-9.594763517E-1
4.936650886E0,-2.139219284E0,8.242637634E0,-9.259575009E-1
4.939138594E0,-2.134430885E0,8.122927666E0,-9.738415480E-1
4.941626302E0,-2.134430885E0,8.065466881E0,-1.103128433E0
4.944114011E0,-2.153584480E0,8.055890083E0,-1.189319730E0
4.946601719E0,-2.230198860E0,8.113350868E0,-1.275510907E0
4.949089427E0,-2.345120668E0,8.218695641E0,-1.328183413E0
4.951577136E0,-2.445677042E0,8.367136002E0,-1.318606615E0
4.954064844E0,-2.503137827E0,8.520365715E0,-1.237203717E0
4.956552552E0,-2.479195833E0,8.649652481E0,-1.083974838E0
4.959040261E0,-2.388216257E0,8.754997253E0,-8.684966564E-1
4.961527969E0,-2.201468468E0,8.812458038E0,-6.482301354E-1
4.964015677E0,-2.009932280E0,8.826823235E0,-4.614823759E-1
4.966503386E0,-1.794454217E0,8.860342026E0,-2.364274114E-1
4.968991094E0,-1.631648421E0,8.893860817E0,-1.616086066E-2
4.971478802E0,-1.531091928E0,8.956110001E0,1.466448605E-1
4.973966511E0,-1.497573137E0,9.051877975E0,1.897404790E-1
4.976454219E0,-1.545457244E0,9.157222748E0,6.045359373E-2
4.978941927E0,-1.660378933E0,9.281721115E0,-1.598129570E-1
4.981429636E0,-1.746570110E0,9.396642685E0,-4.135983288E-1
4.983917344E0,-1.808819413E0,9.482834816E0,-6.147112846E-1
4.986405000E0,-1.823184609E0,9.501988411E0,-7.727286220E-1
4.988892657E0,-1.780089021E0,9.454104424E0,-9.163807034E-1
4.991380313E0,-1.679532528E0,9.372700691E0,-9.882067442E-1
4.993867969E0,-1.578976035E0,9.243413925E0,-9.642647505E-1
4.996355625E0,-1.483207941E0,9.090185165E0,-8.684966564E-1
4.998843282E0,-1.401805043E0,8.922591209E0,-7.392097712E-1
5.001330938E0,-1.363497853E0,8.702324867E0,-6.003460884E-1
5.003818594E0,-1.329979062E0,8.501212120E0,-4.710591733E-1
5.006306250E0,-1.344344258E0,8.314463615E0,-4.327519536E-1
5.008793907E0,-1.377863050E0,8.146869659E0,-5.428852439E-1
5.011281563E0,-1.416170359E0,8.036736488E0,-7.439981699E-1
5.013769219E0,-1.507149935E0,7.984064102E0,-9.355342984E-1
5.016256875E0,-1.617283225E0,8.012794495E0,-1.040879130E0
5.018744532E0,-1.780089021E0,8.108562469E0,-1.083974838E0
5.021232188E0,-1.981201887E0,8.252214432E0,-1.170166135E0
5.023719844E0,-2.215833664E0,8.443750381E0,-1.332971811E0
5.026207500E0,-2.469619036E0,8.659229279E0,-1.433528304E0
5.028695157E0,-2.732981205E0,8.865130424E0,-1.419163108E0
5.031182813E0,-2.914940596E0,9.080608368E0,-1.337760210E0
5.033670469E0,-3.039438963E0,9.305663109E0,-1.232415318E0
5.036158125E0,-3.092111588E0,9.535507202E0,-1.093551636E0
5.038645782E0,-3.049015760E0,9.750985146E0,-8.445546627E-1
5.041133438E0,-2.938882589E0,9.995193481E0,-4.566939771E-1
5.043621094E0,-2.785653591E0,1.021545982E1,4.608838260E-2
5.046108750E0,-2.603694439E0,1.041657257E1,5.153518915E-1
5.048596407E0,-2.354697466E0,1.059853268E1,7.978677154E-1
5.051084063E0,-2.091335297E0,1.072781944E1,9.223662019E-1
5.053571719E0,-1.842338204E0,1.083316422E1,9.319429994E-1
5.056059375E0,-1.569399238E0,1.093372059E1,8.265981078E-1
5.058547032E0,-1.377863050E0,1.099596977E1,6.494272351E-1
5.061034688E0,-1.238999367E0,1.104864216E1,4.004302323E-1
5.063522344E0,-1.176750183E0,1.107258415E1,1.035492271E-1
5.066010000E0,-1.181538582E0,1.107737255E1,-2.555810213E-1
5.068497657E0,-1.210268974E0,1.102948856E1,-6.051344872E-1
5.070985313E0,-1.224634171E0,1.091456699E1,-9.690531492E-1
5.073472969E0,-1.210268974E0,1.071824265E1,-1.294664621E0
5.075960625E0,-1.148019671E0,1.045488071E1,-1.538873196E0
5.078448282E0,-1.085770488E0,1.014842224E1,-1.653794765E0
5.080935938E0,-9.947907925E-1,9.827599525E0,-1.644217968E0
5.083423594E0,-9.229647517E-1,9.478046417E0,-1.605910778E0
5.085911250E0,-8.798691034E-1,9.138069153E0,-1.596333981E0
5.088398907E0,-8.942343593E-1,8.826823235E0,-1.644217968E0
5.090886563E0,-9.421183467E-1,8.544307709E0,-1.759139657E0
5.093374219E0,-9.804255962E-1,8.271368027E0,-1.864484549E0
5.095861875E0,-9.995791912E-1,8.041524887E0,-1.950675845E0
5.098349532E0,-9.900023937E-1,7.840412140E0,-2.008136749E0
5.100837188E0,-9.516952038E-1,7.691971302E0,-2.151788712E0
5.103324844E0,-9.373299479E-1,7.591414928E0,-2.357690096E0
5.105812500E0,-9.660604000E-1,7.543530941E0,-2.568379879E0
5.108300157E0,-1.052251697E0,7.562684536E0,-2.726397276E0
5.110787813E0,-1.186326981E0,7.620145321E0,-2.726397276E0
5.113275469E0,-1.320402265E0,7.672817707E0,-2.558803082E0
