"Time (s)","Gyroscope x (rad/s)","Gyroscope y (rad/s)","Gyroscope z (rad/s)"
1.156947910E-1,-3.382211924E-2,-3.102580272E-2,-1.225053146E-2
1.182447910E-1,-3.275685757E-2,-3.102580272E-2,-1.118526794E-2
1.207947910E-1,-3.169159219E-2,-2.996053919E-2,-1.012000442E-2
1.233447910E-1,-3.169159219E-2,-2.996053919E-2,-9.054740891E-3
1.258947910E-1,-3.062633052E-2,-2.996053919E-2,-9.054740891E-3
1.284447910E-1,-3.062633052E-2,-2.889527567E-2,-9.054740891E-3
1.309947910E-1,-3.062633052E-2,-2.889527567E-2,-9.054740891E-3
1.335447910E-1,-2.956106514E-2,-2.783001214E-2,-9.054740891E-3
1.360947910E-1,-2.956106514E-2,-2.676474862E-2,-9.054740891E-3
1.386447910E-1,-3.062633052E-2,-2.569948509E-2,-9.054740891E-3
1.411947910E-1,-2.956106514E-2,-2.463422157E-2,-9.054740891E-3
1.437447910E-1,-2.849580161E-2,-2.356895804E-2,-9.054740891E-3
1.462947910E-1,-2.849580161E-2,-2.250369452E-2,-9.054740891E-3
1.488447910E-1,-2.743053809E-2,-2.356895804E-2,-9.054740891E-3
1.513947910E-1,-2.743053809E-2,-2.463422157E-2,-7.989477366E-3
1.539447910E-1,-2.743053809E-2,-2.676474862E-2,-7.989477366E-3
1.564947910E-1,-2.743053809E-2,-2.889527567E-2,-6.924213842E-3
1.590447910E-1,-2.743053809E-2,-3.209106624E-2,-7.989477366E-3
1.615947910E-1,-2.743053809E-2,-3.528685868E-2,-6.924213842E-3
1.641447910E-1,-2.743053809E-2,-3.954791278E-2,-6.924213842E-3
1.666947910E-1,-2.636527456E-2,-4.380896688E-2,-6.924213842E-3
1.692447910E-1,-2.636527456E-2,-4.593949392E-2,-5.858949851E-3
1.717947910E-1,-2.530001104E-2,-4.913528636E-2,-3.728422802E-3
1.743447910E-1,-2.423474751E-2,-5.233107507E-2,-2.663159044E-3
1.768947910E-1,-2.316948399E-2,-5.339634046E-2,-2.663159044E-3
1.794447910E-1,-2.423474751E-2,-5.339634046E-2,-1.597895520E-3
1.819947910E-1,-2.423474751E-2,-5.233107507E-2,5.326318205E-4
1.845447910E-1,-2.530001104E-2,-5.233107507E-2,5.326318205E-4
1.870947910E-1,-2.743053809E-2,-5.020054802E-2,2.663159044E-3
1.896447910E-1,-2.956106514E-2,-4.807002097E-2,4.793686327E-3
1.921947910E-1,-3.062633052E-2,-4.487423226E-2,5.858949851E-3
1.947447910E-1,-3.169159219E-2,-4.167843983E-2,6.924213842E-3
1.972947910E-1,-3.275685757E-2,-3.741738573E-2,7.989477366E-3
1.998188540E-1,-3.382211924E-2,-3.315633163E-2,9.054740891E-3
2.023066140E-1,-3.488738462E-2,-2.889527567E-2,9.054740891E-3
2.047943230E-1,-3.488738462E-2,-2.569948509E-2,1.012000442E-2
2.072820310E-1,-3.595264629E-2,-2.143843099E-2,1.118526794E-2
2.097697390E-1,-3.595264629E-2,-1.824264042E-2,1.118526794E-2
2.122574480E-1,-3.595264629E-2,-1.504684892E-2,1.225053146E-2
2.147451560E-1,-3.595264629E-2,-1.185105834E-2,1.225053146E-2
2.172335930E-1,-3.701791167E-2,-1.078579482E-2,1.331579592E-2
2.197210410E-1,-3.701791167E-2,-9.720530361E-3,1.331579592E-2
2.222084890E-1,-3.808317333E-2,-1.078579482E-2,1.438105945E-2
2.246959370E-1,-3.701791167E-2,-1.185105834E-2,1.544632297E-2
2.271833850E-1,-3.808317333E-2,-1.398158539E-2,1.757685095E-2
2.296708330E-1,-3.808317333E-2,-1.824264042E-2,1.757685095E-2
2.321582810E-1,-3.808317333E-2,-2.250369452E-2,1.864211448E-2
2.346457810E-1,-3.808317333E-2,-2.676474862E-2,1.970737800E-2
2.371333330E-1,-3.701791167E-2,-3.315633163E-2,2.077264152E-2
2.396209370E-1,-3.701791167E-2,-3.848264739E-2,2.077264152E-2
2.421085930E-1,-3.595264629E-2,-4.487423226E-2,2.077264152E-2
2.445963020E-1,-3.701791167E-2,-5.020054802E-2,2.077264152E-2
2.470840620E-1,-3.595264629E-2,-5.552686751E-2,1.970737800E-2
2.495718750E-1,-3.595264629E-2,-6.085318699E-2,1.970737800E-2
2.520597390E-1,-3.595264629E-2,-6.404897571E-2,1.970737800E-2
2.545476560E-1,-3.595264629E-2,-6.724476814E-2,1.970737800E-2
2.570355730E-1,-3.595264629E-2,-7.044056058E-2,2.077264152E-2
2.595234890E-1,-3.701791167E-2,-7.257108390E-2,2.077264152E-2
2.620114060E-1,-3.701791167E-2,-7.363634557E-2,2.183790505E-2
2.644993230E-1,-3.808317333E-2,-7.470161468E-2,2.290316857E-2
2.669872390E-1,-4.021370411E-2,-7.576687634E-2,2.396843210E-2
2.694751560E-1,-4.127896577E-2,-7.789740711E-2,2.503369562E-2
2.719630730E-1,-4.234423116E-2,-7.896266878E-2,2.503369562E-2
2.744508850E-1,-4.447475821E-2,-8.109319210E-2,2.609895915E-2
2.769385930E-1,-4.554001987E-2,-8.215846121E-2,2.716422267E-2
2.794263020E-1,-4.660528526E-2,-8.322372288E-2,2.822948620E-2
2.819140100E-1,-4.873581231E-2,-8.322372288E-2,2.929474972E-2
2.844017180E-1,-4.873581231E-2,-8.322372288E-2,3.036001325E-2
2.868894270E-1,-5.086633936E-2,-8.428898454E-2,3.142527863E-2
2.893771350E-1,-5.193160102E-2,-8.428898454E-2,3.249054030E-2
2.918648430E-1,-5.193160102E-2,-8.322372288E-2,3.355580568E-2
2.943525520E-1,-5.299686641E-2,-8.322372288E-2,3.462106735E-2
2.968402600E-1,-5.406212807E-2,-8.322372288E-2,3.462106735E-2
2.993279680E-1,-5.406212807E-2,-8.322372288E-2,3.462106735E-2
3.018156770E-1,-5.512739345E-2,-8.428898454E-2,3.568633273E-2
3.043033850E-1,-5.725792050E-2,-8.535424620E-2,3.675159439E-2
3.067910930E-1,-5.832318589E-2,-8.535424620E-2,3.675159439E-2
3.092788020E-1,-5.938844755E-2,-8.535424620E-2,3.781685978E-2
3.117665100E-1,-6.045371294E-2,-8.535424620E-2,3.781685978E-2
3.142542180E-1,-6.258423626E-2,-8.535424620E-2,3.888212144E-2
3.167419270E-1,-6.471476704E-2,-8.428898454E-2,3.888212144E-2
3.192296350E-1,-6.578002870E-2,-8.428898454E-2,3.888212144E-2
3.217173430E-1,-6.791055948E-2,-8.215846121E-2,4.101264849E-2
3.242050520E-1,-6.897582114E-2,-8.109319210E-2,4.207791388E-2
3.266927600E-1,-7.004108280E-2,-7.896266878E-2,4.314317927E-2
3.291804680E-1,-7.110634446E-2,-7.576687634E-2,4.527370632E-2
3.316681770E-1,-7.110634446E-2,-7.363634557E-2,4.527370632E-2
3.341558850E-1,-7.217161357E-2,-7.150582224E-2,4.740423337E-2
3.366435930E-1,-7.323687524E-2,-6.937529147E-2,4.846949503E-2
3.391313020E-1,-7.430213690E-2,-6.724476814E-2,5.060002208E-2
3.416190100E-1,-7.643266767E-2,-6.511423737E-2,5.060002208E-2
3.441067180E-1,-7.856319100E-2,-6.404897571E-2,5.166528746E-2
3.465944270E-1,-8.175898343E-2,-6.191844866E-2,5.166528746E-2
3.490821350E-1,-8.388951421E-2,-6.085318699E-2,5.166528746E-2
3.515698430E-1,-8.708529919E-2,-5.978792161E-2,5.166528746E-2
3.540575520E-1,-8.921582997E-2,-5.765739456E-2,5.166528746E-2
3.565452600E-1,-9.241162241E-2,-5.659212917E-2,5.166528746E-2
3.590329680E-1,-9.560741484E-2,-5.446160212E-2,5.060002208E-2
3.615206770E-1,-9.986846894E-2,-5.339634046E-2,5.060002208E-2
3.640083850E-1,-1.030642539E-1,-5.126581341E-2,4.846949503E-2
3.664960930E-1,-1.073253155E-1,-4.913528636E-2,4.846949503E-2
3.689838020E-1,-1.105211005E-1,-4.593949392E-2,4.633896798E-2
3.714715100E-1,-1.147821546E-1,-4.274370521E-2,4.527370632E-2
3.739592180E-1,-1.190432087E-1,-3.848264739E-2,4.420844093E-2
3.764469270E-1,-1.243695319E-1,-3.315633163E-2,4.207791388E-2
3.789346350E-1,-1.296958476E-1,-2.783001214E-2,4.101264849E-2
3.814223430E-1,-1.339569092E-1,-2.143843099E-2,3.888212144E-2
3.839100520E-1,-1.414137483E-1,-1.398158539E-2,3.781685978E-2
3.863977600E-1,-1.478053331E-1,-7.590003312E-3,3.675159439E-2
3.888854680E-1,-1.552621722E-1,-1.331579551E-4,3.675159439E-2
3.913731770E-1,-1.616537571E-1,6.258423906E-3,3.675159439E-2
3.938608850E-1,-1.680453420E-1,1.265000552E-2,3.675159439E-2
3.963486460E-1,-1.744369268E-1,2.010685205E-2,3.781685978E-2
3.988364060E-1,-1.797632426E-1,2.649843320E-2,3.888212144E-2
4.013241660E-1,-1.840242893E-1,3.289001435E-2,3.888212144E-2
4.038119270E-1,-1.893506050E-1,3.928159550E-2,4.101264849E-2
4.062996870E-1,-1.936116666E-1,4.460791498E-2,4.207791388E-2
4.087874480E-1,-1.978727281E-1,4.780370742E-2,4.314317927E-2
4.112752080E-1,-2.021337748E-1,4.886896908E-2,4.420844093E-2
4.137629680E-1,-2.074600905E-1,4.780370742E-2,4.420844093E-2
4.162507290E-1,-2.106558830E-1,4.460791498E-2,4.527370632E-2
4.187384890E-1,-2.149169445E-1,4.034686089E-2,4.420844093E-2
4.212262500E-1,-2.181127369E-1,3.502054140E-2,4.420844093E-2
4.237140100E-1,-2.213085145E-1,3.075948730E-2,4.314317927E-2
4.262017710E-1,-2.245043069E-1,2.649843320E-2,4.314317927E-2
4.286895310E-1,-2.287653685E-1,2.436790615E-2,4.207791388E-2
4.311772910E-1,-2.340916842E-1,2.223737910E-2,4.101264849E-2
4.336650520E-1,-2.404832691E-1,2.117211558E-2,3.994738683E-2
4.361528120E-1,-2.468748540E-1,2.117211558E-2,3.994738683E-2
4.386405730E-1,-2.532664239E-1,2.117211558E-2,3.888212144E-2
4.411283330E-1,-2.596580088E-1,2.330264263E-2,3.781685978E-2
4.436160930E-1,-2.671148479E-1,2.436790615E-2,3.675159439E-2
4.461038540E-1,-2.745717168E-1,2.649843320E-2,3.462106735E-2
4.485916140E-1,-2.809632719E-1,2.969422378E-2,3.355580568E-2
4.510793750E-1,-2.884201407E-1,3.182475269E-2,3.249054030E-2
4.535671350E-1,-2.980075181E-1,3.395527974E-2,3.036001325E-2
4.560548960E-1,-3.054643571E-1,3.502054140E-2,2.929474972E-2
4.585426560E-1,-3.139864504E-1,3.608580679E-2,2.716422267E-2
4.610304160E-1,-3.225085735E-1,3.821633384E-2,2.609895915E-2
4.635181770E-1,-3.310306668E-1,4.034686089E-2,2.503369562E-2
4.660059370E-1,-3.395527899E-1,4.247738793E-2,2.290316857E-2
4.684936980E-1,-3.491401672E-1,4.567318037E-2,2.077264152E-2
4.709814580E-1,-3.576622605E-1,4.886896908E-2,1.757685095E-2
4.734692180E-1,-3.672496378E-1,5.206476152E-2,1.544632297E-2
4.759569790E-1,-3.757717609E-1,5.632581562E-2,1.118526794E-2
4.784447390E-1,-3.853591084E-1,6.165213138E-2,7.989477366E-3
4.809325000E-1,-3.938812315E-1,6.697845459E-2,4.793686327E-3
4.834202600E-1,-4.045338631E-1,7.230477035E-2,5.326318205E-4
4.859080210E-1,-4.162517786E-1,7.869634777E-2,-2.663159044E-3
4.883957810E-1,-4.269044101E-1,8.615319431E-2,-7.989477366E-3
4.908835410E-1,-4.386222959E-1,9.574057162E-2,-1.118526794E-2
4.933713020E-1,-4.492749274E-1,1.053279415E-1,-1.544632297E-2
4.958590620E-1,-4.609928429E-1,1.170458421E-1,-1.757685095E-2
4.983468230E-1,-4.705802202E-1,1.298290044E-1,-1.864211448E-2
5.008345830E-1,-4.812328517E-1,1.426121742E-1,-1.970737800E-2
5.033223430E-1,-4.897549450E-1,1.553953290E-1,-1.970737800E-2
5.058101040E-1,-4.972118139E-1,1.671132296E-1,-1.864211448E-2
5.082978640E-1,-5.036033988E-1,1.788311303E-1,-1.757685095E-2
5.107856250E-1,-5.110602379E-1,1.873532385E-1,-1.544632297E-2
5.132733850E-1,-5.163865685E-1,1.948100924E-1,-1.331579592E-2
5.157611460E-1,-5.238434076E-1,2.012016773E-1,-9.054740891E-3
5.182489060E-1,-5.291697383E-1,2.043974549E-1,-5.858949851E-3
5.207366660E-1,-5.344960093E-1,2.075932473E-1,-5.326318205E-4
5.232243750E-1,-5.387570858E-1,2.097237855E-1,4.793686327E-3
5.257120830E-1,-5.408875942E-1,2.118543088E-1,1.012000442E-2
5.281997910E-1,-5.451486707E-1,2.118543088E-1,1.651158556E-2
5.306875000E-1,-5.472791791E-1,2.118543088E-1,2.183790505E-2
5.331752080E-1,-5.483444333E-1,2.097237855E-1,2.609895915E-2
5.356629160E-1,-5.494097471E-1,2.075932473E-1,3.036001325E-2
5.381506250E-1,-5.494097471E-1,2.043974549E-1,3.355580568E-2
5.406383330E-1,-5.483444333E-1,2.001364082E-1,3.568633273E-2
5.431260410E-1,-5.483444333E-1,1.948100924E-1,3.781685978E-2
5.456137500E-1,-5.472791791E-1,1.884185076E-1,3.781685978E-2
5.481014580E-1,-5.462139249E-1,1.820269227E-1,3.781685978E-2
5.505891660E-1,-5.440834165E-1,1.756353378E-1,3.568633273E-2
5.530768750E-1,-5.430181623E-1,1.692437679E-1,3.355580568E-2
5.555645830E-1,-5.419528484E-1,1.639174372E-1,3.142527863E-2
5.580522910E-1,-5.408875942E-1,1.596563905E-1,2.929474972E-2
5.605400000E-1,-5.387570858E-1,1.564605981E-1,2.609895915E-2
5.630277080E-1,-5.355613232E-1,1.532648057E-1,2.183790505E-2
5.655154160E-1,-5.323655009E-1,1.500690132E-1,1.544632297E-2
5.680031250E-1,-5.291697383E-1,1.479384899E-1,1.012000442E-2
5.704908330E-1,-5.259739161E-1,1.436774284E-1,5.858949851E-3
5.729785410E-1,-5.206475854E-1,1.394163817E-1,-5.326318205E-4
5.754662500E-1,-5.163865685E-1,1.340900660E-1,-6.924213842E-3
5.779539580E-1,-5.131907463E-1,1.287637353E-1,-1.331579592E-2
5.804416660E-1,-5.089297295E-1,1.223721579E-1,-2.077264152E-2
5.829293750E-1,-5.067991614E-1,1.170458421E-1,-2.929474972E-2
5.854170830E-1,-5.046686530E-1,1.106542572E-1,-3.675159439E-2
5.879047910E-1,-5.025381446E-1,1.053279415E-1,-4.420844093E-2
5.903925000E-1,-4.993423223E-1,1.010668874E-1,-5.273054913E-2
5.928802080E-1,-4.972118139E-1,9.893636405E-2,-6.125266105E-2
5.953679160E-1,-4.940160215E-1,9.680583328E-2,-6.977476925E-2
5.978556250E-1,-4.918854833E-1,9.893636405E-2,-7.829687744E-2
6.003433330E-1,-4.897549450E-1,1.021321490E-1,-8.788424730E-2
6.028310410E-1,-4.876244366E-1,1.053279415E-1,-9.640636295E-2
6.053187500E-1,-4.854938984E-1,1.095889956E-1,-1.038632020E-1
6.078064580E-1,-4.833633900E-1,1.138500497E-1,-1.123853177E-1
6.102941660E-1,-4.801675975E-1,1.191763729E-1,-1.198421568E-1
6.127818750E-1,-4.759065211E-1,1.245026886E-1,-1.272990108E-1
6.152695830E-1,-4.716454744E-1,1.298290044E-1,-1.347558498E-1
6.177572910E-1,-4.673844278E-1,1.351553202E-1,-1.411474347E-1
6.202450000E-1,-4.631233811E-1,1.404816359E-1,-1.475390196E-1
6.227327080E-1,-4.609928429E-1,1.458079666E-1,-1.518000662E-1
6.252204160E-1,-4.567317963E-1,1.511342824E-1,-1.560611278E-1
6.277081250E-1,-4.535360038E-1,1.575258672E-1,-1.592569202E-1
6.301958330E-1,-4.503402114E-1,1.639174372E-1,-1.613874435E-1
6.326835410E-1,-4.460791349E-1,1.713742912E-1,-1.635179669E-1
6.351712500E-1,-4.428833723E-1,1.777658761E-1,-1.635179669E-1
6.376590100E-1,-4.396875799E-1,1.830921918E-1,-1.635179669E-1
6.401467710E-1,-4.364917874E-1,1.862879843E-1,-1.635179669E-1
6.426345310E-1,-4.322307110E-1,1.862879843E-1,-1.613874435E-1
6.451222910E-1,-4.279696643E-1,1.841574460E-1,-1.592569202E-1
6.476100520E-1,-4.226433635E-1,1.809616536E-1,-1.571263820E-1
6.500978120E-1,-4.173170328E-1,1.745700836E-1,-1.539305896E-1
6.525855730E-1,-4.119907022E-1,1.671132296E-1,-1.507348120E-1
6.550733330E-1,-4.066644013E-1,1.564605981E-1,-1.475390196E-1
6.575610930E-1,-4.013380706E-1,1.436774284E-1,-1.454084814E-1
6.600488540E-1,-3.960117698E-1,1.287637353E-1,-1.411474347E-1
6.625366140E-1,-3.917506933E-1,1.127847880E-1,-1.390169114E-1
6.650243750E-1,-3.864243925E-1,9.361004084E-2,-1.358211190E-1
6.675121350E-1,-3.810980618E-1,7.230477035E-2,-1.347558498E-1
6.699998960E-1,-3.757717609E-1,4.886896908E-2,-1.315600574E-1
6.724876560E-1,-3.693801761E-1,2.543316968E-2,-1.304948032E-1
6.749754160E-1,-3.629885912E-1,9.321057005E-4,-1.294295341E-1
6.774631770E-1,-3.565970063E-1,-2.463422157E-2,-1.283642650E-1
6.799509370E-1,-3.502054214E-1,-4.807002097E-2,-1.272990108E-1
6.824386980E-1,-3.448790908E-1,-7.150582224E-2,-1.262337416E-1
6.849264580E-1,-3.395527899E-1,-9.494162351E-2,-1.262337416E-1
6.874142180E-1,-3.363569975E-1,-1.141163707E-1,-1.262337416E-1
6.899019790E-1,-3.342264593E-1,-1.311605871E-1,-1.272990108E-1
6.923897390E-1,-3.331612051E-1,-1.428784877E-1,-1.272990108E-1
6.948775000E-1,-3.331612051E-1,-1.524658650E-1,-1.272990108E-1
6.973652600E-1,-3.331612051E-1,-1.567269117E-1,-1.272990108E-1
6.998530210E-1,-3.352917433E-1,-1.577921808E-1,-1.272990108E-1
7.023407810E-1,-3.384875357E-1,-1.545963883E-1,-1.262337416E-1
7.048285410E-1,-3.416832983E-1,-1.471395344E-1,-1.241032109E-1
7.073163020E-1,-3.459443748E-1,-1.354216337E-1,-1.209074259E-1
7.098040620E-1,-3.502054214E-1,-1.215732098E-1,-1.177116334E-1
7.122918230E-1,-3.544664681E-1,-1.045289934E-1,-1.123853177E-1
7.147795830E-1,-3.587275445E-1,-8.535424620E-2,-1.081242561E-1
7.172673430E-1,-3.619233072E-1,-6.511423737E-2,-1.017326787E-1
7.197551040E-1,-3.651190996E-1,-4.487423226E-2,-9.640636295E-2
7.222428640E-1,-3.693801761E-1,-2.463422157E-2,-9.001477808E-2
7.247306250E-1,-3.736412227E-1,-3.328948980E-3,-8.362319320E-2
7.272183850E-1,-3.768370152E-1,1.584579609E-2,-7.829687744E-2
7.297061460E-1,-3.800328076E-1,3.608580679E-2,-7.297056168E-2
7.321939060E-1,-3.832286000E-1,5.632581562E-2,-6.764423847E-2
7.346816660E-1,-3.853591084E-1,7.869634777E-2,-6.338318437E-2
7.371694270E-1,-3.864243925E-1,1.010668874E-1,-5.912213027E-2
7.396571870E-1,-3.874896467E-1,1.234374270E-1,-5.592634156E-2
7.421449480E-1,-3.896201849E-1,1.458079666E-1,-5.273054913E-2
7.446327080E-1,-3.896201849E-1,1.681784987E-1,-5.166528746E-2
7.471204680E-1,-3.906854391E-1,1.873532385E-1,-5.060002208E-2
7.496082290E-1,-3.917506933E-1,2.043974549E-1,-4.953476042E-2
7.520959890E-1,-3.928159773E-1,2.182458937E-1,-4.953476042E-2
7.545837500E-1,-3.928159773E-1,2.278332561E-1,-4.953476042E-2
7.570715100E-1,-3.928159773E-1,2.331595868E-1,-5.060002208E-2
7.595592710E-1,-3.928159773E-1,2.342248410E-1,-5.166528746E-2
7.620470310E-1,-3.906854391E-1,2.310290486E-1,-5.273054913E-2
7.645347910E-1,-3.885549009E-1,2.225069404E-1,-5.486107618E-2
7.670225520E-1,-3.842938542E-1,2.107890397E-1,-5.592634156E-2
7.695103120E-1,-3.810980618E-1,1.948100924E-1,-5.805686861E-2
7.719980210E-1,-3.757717609E-1,1.756353378E-1,-6.018739566E-2
7.744857290E-1,-3.704454303E-1,1.532648057E-1,-6.551371515E-2
7.769734370E-1,-3.672496378E-1,1.298290044E-1,-7.084003091E-2
7.794611460E-1,-3.640538454E-1,1.031974182E-1,-7.616634667E-2
7.819488540E-1,-3.608580530E-1,7.656582445E-2,-8.468846232E-2
7.844365620E-1,-3.587275445E-1,5.099949613E-2,-9.427583218E-2
7.869242710E-1,-3.576622605E-1,2.649843320E-2,-1.027979404E-1
7.894119790E-1,-3.576622605E-1,5.193160381E-3,-1.134505793E-1
7.918996870E-1,-3.565970063E-1,-1.398158539E-2,-1.241032109E-1
7.943873960E-1,-3.565970063E-1,-2.996053919E-2,-1.336905807E-1
7.968751040E-1,-3.565970063E-1,-4.167843983E-2,-1.432779580E-1
7.993628120E-1,-3.565970063E-1,-4.807002097E-2,-1.518000662E-1
8.018505210E-1,-3.565970063E-1,-5.126581341E-2,-1.592569202E-1
8.043382290E-1,-3.576622605E-1,-4.913528636E-2,-1.645832360E-1
8.068259370E-1,-3.587275445E-1,-4.274370521E-2,-1.699095517E-1
8.093136460E-1,-3.608580530E-1,-3.315633163E-2,-1.741705984E-1
8.118013540E-1,-3.629885912E-1,-2.143843099E-2,-1.773663908E-1
8.142890620E-1,-3.661843836E-1,-6.524739787E-3,-1.784316599E-1
8.167767710E-1,-3.693801761E-1,9.454214945E-3,-1.784316599E-1
8.192644790E-1,-3.725759685E-1,2.649843320E-2,-1.784316599E-1
8.217521870E-1,-3.747064769E-1,4.460791498E-2,-1.752358675E-1
8.242398960E-1,-3.768370152E-1,6.378266215E-2,-1.731053442E-1
8.267276040E-1,-3.789675534E-1,8.189214021E-2,-1.699095517E-1
8.292153120E-1,-3.810980618E-1,9.893636405E-2,-1.667137593E-1
8.317030210E-1,-3.821633458E-1,1.159805804E-1,-1.624527127E-1
8.341907290E-1,-3.821633458E-1,1.319595277E-1,-1.571263820E-1
8.366784370E-1,-3.821633458E-1,1.479384899E-1,-1.507348120E-1
8.391661460E-1,-3.810980618E-1,1.639174372E-1,-1.443432271E-1
8.416538540E-1,-3.800328076E-1,1.798963994E-1,-1.368863732E-1
8.441415620E-1,-3.779022694E-1,1.969406158E-1,-1.294295341E-1
8.466292710E-1,-3.757717609E-1,2.118543088E-1,-1.219726875E-1
8.491169790E-1,-3.725759685E-1,2.267680019E-1,-1.145158410E-1
8.516046870E-1,-3.704454303E-1,2.406164259E-1,-1.059937328E-1
8.540923960E-1,-3.661843836E-1,2.523343265E-1,-9.853688627E-2
8.565801040E-1,-3.619233072E-1,2.619217038E-1,-9.108003974E-2
8.590678120E-1,-3.576622605E-1,2.704437971E-1,-8.362319320E-2
8.615555210E-1,-3.523359597E-1,2.747048736E-1,-7.616634667E-2
8.640432290E-1,-3.470096290E-1,2.757701278E-1,-7.084003091E-2
8.665309370E-1,-3.416832983E-1,2.736395895E-1,-6.551371515E-2
8.690186460E-1,-3.374222517E-1,2.683132887E-1,-6.231792271E-2
8.715063540E-1,-3.331612051E-1,2.597911656E-1,-5.805686861E-2
8.739940620E-1,-3.299654126E-1,2.470080107E-1,-5.486107618E-2
8.764817710E-1,-3.257043660E-1,2.320943177E-1,-5.166528746E-2
8.789694790E-1,-3.225085735E-1,2.150501013E-1,-4.953476042E-2
8.814572390E-1,-3.193127811E-1,1.969406158E-1,-4.633896798E-2
8.839450000E-1,-3.150517344E-1,1.767006069E-1,-4.527370632E-2
8.864327600E-1,-3.107906580E-1,1.553953290E-1,-4.314317927E-2
8.889205210E-1,-3.065296113E-1,1.340900660E-1,-4.207791388E-2
8.914082810E-1,-3.012032807E-1,1.106542572E-1,-4.101264849E-2
8.938960410E-1,-2.969422340E-1,8.828372508E-2,-3.994738683E-2
8.963838020E-1,-2.916159332E-1,6.484792382E-2,-3.994738683E-2
8.988715620E-1,-2.862896025E-1,4.247738793E-2,-3.888212144E-2
9.013593230E-1,-2.820285559E-1,2.223737910E-2,-3.888212144E-2
9.038470830E-1,-2.777675092E-1,3.062632866E-3,-3.888212144E-2
9.063348430E-1,-2.724411786E-1,-1.504684892E-2,-3.994738683E-2
9.088226040E-1,-2.681801319E-1,-2.996053919E-2,-3.994738683E-2
9.113103640E-1,-2.660495937E-1,-4.487423226E-2,-4.101264849E-2
9.137981250E-1,-2.639190555E-1,-5.659212917E-2,-4.314317927E-2
9.162858850E-1,-2.617885470E-1,-6.404897571E-2,-4.527370632E-2
9.187736460E-1,-2.607232630E-1,-6.937529147E-2,-4.633896798E-2
9.212614060E-1,-2.596580088E-1,-7.044056058E-2,-4.846949503E-2
9.237491660E-1,-2.585927546E-1,-6.724476814E-2,-5.060002208E-2
9.262369270E-1,-2.585927546E-1,-6.298371404E-2,-5.273054913E-2
9.287246870E-1,-2.585927546E-1,-5.339634046E-2,-5.486107618E-2
9.312124480E-1,-2.585927546E-1,-4.167843983E-2,-5.592634156E-2
9.337002080E-1,-2.585927546E-1,-2.676474862E-2,-5.699160323E-2
9.361879680E-1,-2.585927546E-1,-1.078579482E-2,-5.699160323E-2
9.386757290E-1,-2.585927546E-1,8.388951421E-3,-5.592634156E-2
9.411634890E-1,-2.585927546E-1,2.756369673E-2,-5.486107618E-2
9.436512500E-1,-2.585927546E-1,4.673844203E-2,-5.273054913E-2
9.461390100E-1,-2.596580088E-1,6.591318548E-2,-4.953476042E-2
9.486267710E-1,-2.596580088E-1,8.402267098E-2,-4.633896798E-2
9.511145310E-1,-2.585927546E-1,1.021321490E-1,-4.314317927E-2
9.536022910E-1,-2.575274706E-1,1.181111038E-1,-4.101264849E-2
9.560900520E-1,-2.564622164E-1,1.340900660E-1,-3.781685978E-2
9.585778120E-1,-2.543317080E-1,1.479384899E-1,-3.568633273E-2
9.610655730E-1,-2.490053773E-1,1.607216448E-1,-3.462106735E-2
9.635533330E-1,-2.447443157E-1,1.713742912E-1,-3.355580568E-2
9.660410930E-1,-2.394180000E-1,1.788311303E-1,-3.249054030E-2
9.685288540E-1,-2.340916842E-1,1.841574460E-1,-3.142527863E-2
9.710166140E-1,-2.287653685E-1,1.852227151E-1,-3.249054030E-2
9.735043750E-1,-2.234390527E-1,1.809616536E-1,-3.249054030E-2
9.759921350E-1,-2.170474678E-1,1.735048145E-1,-3.355580568E-2
9.784798960E-1,-2.117211521E-1,1.607216448E-1,-3.462106735E-2
9.809676560E-1,-2.042642981E-1,1.458079666E-1,-3.568633273E-2
9.834554160E-1,-1.978727281E-1,1.287637353E-1,-3.675159439E-2
9.859431770E-1,-1.914811432E-1,1.085237339E-1,-3.888212144E-2
9.884309370E-1,-1.861548275E-1,8.615319431E-2,-4.207791388E-2
9.909186980E-1,-1.808284968E-1,6.058686972E-2,-4.633896798E-2
9.934064580E-1,-1.755021811E-1,3.395527974E-2,-4.953476042E-2
9.958942180E-1,-1.723063886E-1,5.193160381E-3,-5.592634156E-2
9.983819790E-1,-1.691105962E-1,-2.569948509E-2,-6.231792271E-2
1.000869739E0,-1.659148186E-1,-5.659212917E-2,-6.870950758E-2
1.003357500E0,-1.637842804E-1,-8.641951531E-2,-7.616634667E-2
1.005845260E0,-1.627190262E-1,-1.141163707E-1,-8.468846232E-2
1.008333021E0,-1.616537571E-1,-1.386174262E-1,-9.214530140E-2
1.010820781E0,-1.637842804E-1,-1.588574350E-1,-9.960214794E-2
1.013308541E0,-1.659148186E-1,-1.737711281E-1,-1.070589945E-1
1.015796302E0,-1.691105962E-1,-1.822932363E-1,-1.155811027E-1
1.018284062E0,-1.733716577E-1,-1.844237745E-1,-1.219726875E-1
1.020771823E0,-1.786979735E-1,-1.790974438E-1,-1.272990108E-1
1.023259583E0,-1.850895584E-1,-1.684448123E-1,-1.315600574E-1
1.025747291E0,-1.904158741E-1,-1.503353268E-1,-1.336905807E-1
1.028235000E0,-1.957421899E-1,-1.279647946E-1,-1.347558498E-1
1.030722708E0,-2.021337748E-1,-1.002679393E-1,-1.326253265E-1
1.033210416E0,-2.063948363E-1,-6.724476814E-2,-1.272990108E-1
1.035698125E0,-2.106558830E-1,-3.102580272E-2,-1.219726875E-1
1.038185833E0,-2.138516754E-1,8.388951421E-3,-1.155811027E-1
1.040673541E0,-2.138516754E-1,4.886896908E-2,-1.070589945E-1
1.043161250E0,-2.138516754E-1,9.147951752E-2,-9.853688627E-2
1.045648958E0,-2.127864063E-1,1.351553202E-1,-9.001477808E-2
1.048136666E0,-2.095906287E-1,1.777658761E-1,-8.149266988E-2
1.050624375E0,-2.053295672E-1,2.193111479E-1,-7.190529257E-2
1.053112083E0,-2.010685056E-1,2.565953732E-1,-6.338318437E-2
1.055599791E0,-1.957421899E-1,2.906838059E-1,-5.486107618E-2
1.058087500E0,-1.914811432E-1,3.173153996E-1,-4.740423337E-2
1.060575208E0,-1.850895584E-1,3.386206925E-1,-3.994738683E-2
1.063062916E0,-1.786979735E-1,3.535343707E-1,-3.355580568E-2
1.065550625E0,-1.712411344E-1,3.620564938E-1,-2.609895915E-2
1.068038333E0,-1.637842804E-1,3.641870022E-1,-1.864211448E-2
1.070526041E0,-1.552621722E-1,3.609912097E-1,-1.331579592E-2
1.073013750E0,-1.488705873E-1,3.514038324E-1,-9.054740891E-3
1.075501458E0,-1.414137483E-1,3.375554085E-1,-4.793686327E-3
1.077989166E0,-1.350221634E-1,3.173153996E-1,-1.597895520E-3
1.080476875E0,-1.286305785E-1,2.938795984E-1,-5.326318205E-4
1.082964583E0,-1.233042628E-1,2.651174963E-1,-5.326318205E-4
1.085452291E0,-1.179779470E-1,2.331595868E-1,-3.728422802E-3
1.087940000E0,-1.137168929E-1,1.958753467E-1,-7.989477366E-3
1.090427708E0,-1.094558388E-1,1.553953290E-1,-1.544632297E-2
1.092915416E0,-1.062600464E-1,1.127847880E-1,-2.503369562E-2
1.095403125E0,-1.041295230E-1,6.804371625E-2,-3.675159439E-2
1.097890833E0,-1.041295230E-1,2.436790615E-2,-5.060002208E-2
1.100378541E0,-1.051947847E-1,-1.824264042E-2,-6.444845349E-2
1.102866250E0,-1.062600464E-1,-5.765739456E-2,-8.042740822E-2
1.105353958E0,-1.083905771E-1,-9.281109273E-2,-9.534109384E-2
1.107841666E0,-1.115863696E-1,-1.205079481E-1,-1.102547869E-1
1.110329375E0,-1.147821546E-1,-1.428784877E-1,-1.241032109E-1
1.112817083E0,-1.190432087E-1,-1.567269117E-1,-1.347558498E-1
1.115304791E0,-1.222390011E-1,-1.641837656E-1,-1.443432271E-1
1.117792500E0,-1.254348010E-1,-1.641837656E-1,-1.507348120E-1
1.120280208E0,-1.286305785E-1,-1.588574350E-1,-1.528653353E-1
1.122767916E0,-1.296958476E-1,-1.482048035E-1,-1.528653353E-1
1.125255625E0,-1.307611167E-1,-1.311605871E-1,-1.486042738E-1
1.127743385E0,-1.307611167E-1,-1.098553166E-1,-1.422126889E-1
1.130231146E0,-1.296958476E-1,-8.428898454E-2,-1.304948032E-1
1.132718906E0,-1.275653243E-1,-5.765739456E-2,-1.187768951E-1
1.135206666E0,-1.254348010E-1,-2.889527567E-2,-1.038632020E-1
1.137694427E0,-1.211737394E-1,1.997369342E-3,-8.681898564E-2
1.140182187E0,-1.158474237E-1,3.395527974E-2,-6.870950758E-2
1.142669948E0,-1.094558388E-1,6.591318548E-2,-5.060002208E-2
1.145157708E0,-1.019989923E-1,1.000016257E-1,-3.142527863E-2
1.147645468E0,-9.347688407E-2,1.330247968E-1,-1.225053146E-2
1.150133229E0,-8.495477587E-2,1.660479754E-1,7.989477366E-3
1.152620989E0,-7.536740601E-2,1.969406158E-1,2.609895915E-2
1.155108750E0,-6.684529036E-2,2.235722095E-1,4.527370632E-2
1.157596510E0,-5.725792050E-2,2.470080107E-1,6.125266105E-2
1.160084271E0,-4.980107397E-2,2.640522122E-1,7.723161578E-2
1.162572031E0,-4.127896577E-2,2.747048736E-1,9.001477808E-2
1.165059791E0,-3.275685757E-2,2.779006660E-1,1.006674170E-1
1.167547552E0,-2.423474751E-2,2.747048736E-1,1.091895252E-1
1.170035312E0,-1.571263932E-2,2.640522122E-1,1.134505793E-1
1.172523073E0,-7.190529723E-3,2.480732650E-1,1.145158410E-1
1.175010833E0,-7.989477599E-4,2.267680019E-1,1.123853177E-1
1.177498593E0,4.527370445E-3,2.001364082E-1,1.081242561E-1
1.179986354E0,8.788425475E-3,1.692437679E-1,9.960214794E-2
1.182474114E0,1.091895252E-2,1.362205893E-1,8.894951642E-2
1.184961875E0,1.198421605E-2,1.021321490E-1,7.510108501E-2
1.187449635E0,1.091895252E-2,6.804371625E-2,5.912213027E-2
1.189937396E0,6.657897960E-3,3.502054140E-2,4.207791388E-2
1.192425156E0,2.396843163E-3,5.193160381E-3,2.396843210E-2
1.194912916E0,-2.929474926E-3,-2.356895804E-2,4.793686327E-3
1.197400677E0,-9.321057238E-3,-4.700475931E-2,-1.331579592E-2
1.199888437E0,-1.571263932E-2,-6.617950648E-2,-3.036001325E-2
1.202376198E0,-2.210422046E-2,-8.109319210E-2,-4.633896798E-2
1.204863958E0,-2.743053809E-2,-9.174583107E-2,-6.125266105E-2
1.207351718E0,-3.169159219E-2,-9.707214683E-2,-7.297056168E-2
1.209839479E0,-3.595264629E-2,-9.707214683E-2,-8.255793154E-2
1.212327239E0,-3.914843872E-2,-9.387636185E-2,-9.001477808E-2
1.214815000E0,-4.234423116E-2,-8.535424620E-2,-9.534109384E-2
1.217302760E0,-4.447475821E-2,-7.363634557E-2,-9.747162461E-2
1.219790521E0,-4.660528526E-2,-5.872265995E-2,-9.640636295E-2
1.222278281E0,-4.873581231E-2,-4.061317816E-2,-9.427583218E-2
1.224766041E0,-5.086633936E-2,-2.143843099E-2,-8.894951642E-2
1.227253802E0,-5.193160102E-2,9.321057005E-4,-8.042740822E-2
1.229741562E0,-5.086633936E-2,2.436790615E-2,-6.870950758E-2
1.232229323E0,-4.873581231E-2,4.993423447E-2,-5.486107618E-2
1.234717083E0,-4.554001987E-2,7.763108611E-2,-3.994738683E-2
1.237204843E0,-4.021370411E-2,1.063932031E-1,-2.290316857E-2
1.239692604E0,-3.488738462E-2,1.362205893E-1,-5.858949851E-3
1.242180364E0,-2.956106514E-2,1.649827063E-1,1.225053146E-2
1.244668125E0,-2.530001104E-2,1.894837767E-1,2.716422267E-2
1.247155885E0,-2.103895694E-2,2.118543088E-1,4.207791388E-2
1.249643646E0,-1.784316637E-2,2.299637944E-1,5.273054913E-2
1.252131406E0,-1.464737486E-2,2.438122183E-1,6.125266105E-2
1.254619166E0,-1.145158429E-2,2.523343265E-1,6.764423847E-2
1.257106927E0,-7.190529723E-3,2.555301189E-1,7.084003091E-2
1.259594687E0,-5.060002208E-3,2.555301189E-1,7.297056168E-2
1.262082448E0,-1.864211401E-3,2.502037883E-1,7.084003091E-2
1.264570208E0,1.331579522E-3,2.416816950E-1,6.764423847E-2
1.267057968E0,3.462106921E-3,2.299637944E-1,6.125266105E-2
1.269545729E0,4.527370445E-3,2.150501013E-1,5.379581451E-2
1.272033489E0,4.527370445E-3,1.969406158E-1,4.527370632E-2
1.274521250E0,6.657897960E-3,1.756353378E-1,3.462106735E-2
1.277009010E0,6.657897960E-3,1.532648057E-1,2.396843210E-2
1.279496718E0,6.657897960E-3,1.266332120E-1,1.118526794E-2
1.281984427E0,8.788425475E-3,9.893636405E-2,-1.597895520E-3
1.284472135E0,7.723161485E-3,7.123950869E-2,-1.331579592E-2
1.286959843E0,7.723161485E-3,4.141212255E-2,-2.716422267E-2
1.289447552E0,8.788425475E-3,1.265000552E-2,-4.101264849E-2
1.291935260E0,9.853689000E-3,-1.717737690E-2,-5.379581451E-2
1.294422968E0,9.853689000E-3,-4.487423226E-2,-6.764423847E-2
1.296910677E0,1.091895252E-2,-7.150582224E-2,-8.042740822E-2
1.299398385E0,1.198421605E-2,-9.494162351E-2,-9.321057051E-2
1.301886093E0,1.198421605E-2,-1.173121557E-1,-1.059937328E-1
1.304373802E0,1.091895252E-2,-1.354216337E-1,-1.177116334E-1
1.306861510E0,1.091895252E-2,-1.514005959E-1,-1.283642650E-1
1.309349218E0,9.853689000E-3,-1.641837656E-1,-1.379516423E-1
1.311836927E0,9.853689000E-3,-1.727058738E-1,-1.443432271E-1
1.314324635E0,9.853689000E-3,-1.780321896E-1,-1.496695429E-1
1.316812343E0,9.853689000E-3,-1.780321896E-1,-1.518000662E-1
1.319300052E0,1.198421605E-2,-1.727058738E-1,-1.518000662E-1
1.321787760E0,1.304947957E-2,-1.641837656E-1,-1.496695429E-1
1.324275468E0,1.518000662E-2,-1.514005959E-1,-1.454084814E-1
1.326763177E0,1.624527015E-2,-1.332911104E-1,-1.379516423E-1
1.329250885E0,1.837579720E-2,-1.130511016E-1,-1.294295341E-1
1.331738593E0,2.050632425E-2,-9.174583107E-2,-1.198421568E-1
1.334226302E0,2.263685316E-2,-6.724476814E-2,-1.091895252E-1
1.336714010E0,2.370211668E-2,-4.061317816E-2,-9.747162461E-2
1.339201718E0,2.370211668E-2,-1.504684892E-2,-8.468846232E-2
1.341689427E0,2.476738021E-2,1.158474199E-2,-7.190529257E-2
1.344177135E0,2.476738021E-2,3.821633384E-2,-5.805686861E-2
1.346664843E0,2.476738021E-2,6.378266215E-2,-4.527370632E-2
1.349152552E0,2.476738021E-2,8.721846342E-2,-3.249054030E-2
1.351640260E0,2.583264373E-2,1.095889956E-1,-1.970737800E-2
1.354127968E0,2.583264373E-2,1.287637353E-1,-7.989477366E-3
1.356615677E0,2.689790726E-2,1.447426975E-1,2.663159044E-3
1.359103385E0,2.689790726E-2,1.575258672E-1,1.225053146E-2
1.361591093E0,2.689790726E-2,1.660479754E-1,1.864211448E-2
1.364078802E0,2.689790726E-2,1.703090221E-1,2.503369562E-2
1.366566510E0,2.583264373E-2,1.713742912E-1,2.929474972E-2
1.369054218E0,2.476738021E-2,1.692437679E-1,3.249054030E-2
1.371541927E0,2.263685316E-2,1.649827063E-1,3.355580568E-2
1.374029635E0,2.157158963E-2,1.596563905E-1,3.355580568E-2
1.376517343E0,2.050632425E-2,1.532648057E-1,3.142527863E-2
1.379005104E0,1.837579720E-2,1.458079666E-1,2.929474972E-2
1.381492864E0,1.624527015E-2,1.372858584E-1,2.503369562E-2
1.383980625E0,1.411474310E-2,1.298290044E-1,1.970737800E-2
1.386468385E0,1.304947957E-2,1.213068962E-1,1.331579592E-2
1.388956146E0,1.198421605E-2,1.138500497E-1,6.924213842E-3
1.391443906E0,1.091895252E-2,1.085237339E-1,1.597895520E-3
1.393931666E0,9.853689000E-3,1.031974182E-1,-4.793686327E-3
1.396419427E0,8.788425475E-3,1.000016257E-1,-9.054740891E-3
1.398907187E0,8.788425475E-3,9.893636405E-2,-1.331579592E-2
1.401394948E0,7.723161485E-3,9.893636405E-2,-1.651158556E-2
1.403882708E0,7.723161485E-3,1.021321490E-1,-1.864211448E-2
1.406370468E0,7.723161485E-3,1.074584723E-1,-1.970737800E-2
1.408858229E0,8.788425475E-3,1.149153188E-1,-1.970737800E-2
1.411345989E0,7.723161485E-3,1.234374270E-1,-1.757685095E-2
1.413833750E0,7.723161485E-3,1.351553202E-1,-1.438105945E-2
1.416321510E0,9.853689000E-3,1.479384899E-1,-9.054740891E-3
1.418809271E0,1.091895252E-2,1.639174372E-1,-1.597895520E-3
1.421297031E0,1.198421605E-2,1.788311303E-1,6.924213842E-3
1.423784791E0,1.198421605E-2,1.958753467E-1,1.757685095E-2
1.426272552E0,1.304947957E-2,2.118543088E-1,2.929474972E-2
1.428760312E0,1.304947957E-2,2.278332561E-1,4.207791388E-2
1.431248073E0,1.304947957E-2,2.416816950E-1,5.592634156E-2
1.433735833E0,1.198421605E-2,2.533995807E-1,6.870950758E-2
1.436223593E0,1.304947957E-2,2.629869580E-1,8.149266988E-2
1.438711354E0,1.304947957E-2,2.693785429E-1,9.321057051E-2
1.441199114E0,1.518000662E-2,2.725743353E-1,1.038632020E-1
1.443686875E0,1.624527015E-2,2.736395895E-1,1.113200486E-1
1.446174635E0,1.944106072E-2,2.725743353E-1,1.166463718E-1
1.448662396E0,2.263685316E-2,2.683132887E-1,1.198421568E-1
1.451150156E0,2.476738021E-2,2.619217038E-1,1.198421568E-1
1.453637916E0,2.796317078E-2,2.523343265E-1,1.177116334E-1
1.456125677E0,2.902843431E-2,2.406164259E-1,1.123853177E-1
1.458613437E0,3.222422674E-2,2.257027328E-1,1.038632020E-1
1.461101198E0,3.222422674E-2,2.086585164E-1,9.321057051E-2
1.463588958E0,3.328948840E-2,1.884185076E-1,8.042740822E-2
1.466076718E0,3.435475379E-2,1.671132296E-1,6.657897681E-2
1.468564479E0,3.542001545E-2,1.458079666E-1,5.166528746E-2
1.471052239E0,3.755054250E-2,1.245026886E-1,3.675159439E-2
1.473540000E0,3.861580789E-2,1.053279415E-1,2.396843210E-2
1.476027760E0,3.968106955E-2,8.721846342E-2,1.225053146E-2
1.478515521E0,4.181159660E-2,7.123950869E-2,5.326318205E-4
1.481003281E0,4.500738904E-2,5.845634267E-2,-9.054740891E-3
1.483491041E0,4.607265070E-2,4.780370742E-2,-1.757685095E-2
1.485978802E0,4.820318148E-2,4.034686089E-2,-2.503369562E-2
1.488466562E0,4.926844314E-2,3.608580679E-2,-3.249054030E-2
1.490954323E0,5.033370852E-2,3.395527974E-2,-3.781685978E-2
1.493442083E0,5.139897019E-2,3.502054140E-2,-4.207791388E-2
1.495929843E0,5.246423557E-2,3.821633384E-2,-4.420844093E-2
1.498417604E0,5.246423557E-2,4.460791498E-2,-4.633896798E-2
1.500905364E0,5.352949724E-2,5.206476152E-2,-4.633896798E-2
1.503393125E0,5.246423557E-2,6.378266215E-2,-4.420844093E-2
1.505880885E0,5.246423557E-2,7.656582445E-2,-4.101264849E-2
1.508368646E0,5.139897019E-2,9.147951752E-2,-3.568633273E-2
1.510856406E0,5.246423557E-2,1.085237339E-1,-3.036001325E-2
1.513344166E0,5.352949724E-2,1.276984811E-1,-2.290316857E-2
1.515831927E0,5.352949724E-2,1.458079666E-1,-1.438105945E-2
1.518319687E0,5.566002429E-2,1.649827063E-1,-5.858949851E-3
1.520807448E0,5.672528967E-2,1.809616536E-1,2.663159044E-3
1.523295208E0,5.885581672E-2,1.937448233E-1,1.118526794E-2
1.525782968E0,5.992107838E-2,2.033322006E-1,1.757685095E-2
1.528270729E0,6.098634377E-2,2.086585164E-1,2.183790505E-2
1.530758489E0,6.311687082E-2,2.086585164E-1,2.396843210E-2
1.533246250E0,6.524740160E-2,2.043974549E-1,2.503369562E-2
1.535734010E0,6.631266326E-2,1.958753467E-1,2.396843210E-2
1.538221771E0,6.844318658E-2,1.830921918E-1,2.077264152E-2
1.540709531E0,7.057371736E-2,1.692437679E-1,1.544632297E-2
1.543197239E0,7.057371736E-2,1.532648057E-1,9.054740891E-3
1.545684948E0,7.057371736E-2,1.362205893E-1,1.597895520E-3
1.548172656E0,7.057371736E-2,1.202416345E-1,-5.858949851E-3
1.550660364E0,6.950845569E-2,1.031974182E-1,-1.438105945E-2
1.553148073E0,6.844318658E-2,8.721846342E-2,-2.396843210E-2
1.555635781E0,6.737792492E-2,7.230477035E-2,-3.249054030E-2
1.558123489E0,6.631266326E-2,5.845634267E-2,-3.994738683E-2
1.560611198E0,6.631266326E-2,4.673844203E-2,-4.740423337E-2
1.563098906E0,6.631266326E-2,3.608580679E-2,-5.273054913E-2
1.565586614E0,6.524740160E-2,2.649843320E-2,-5.805686861E-2
1.568074323E0,6.631266326E-2,1.904158667E-2,-6.231792271E-2
1.570562031E0,6.737792492E-2,1.371526904E-2,-6.551371515E-2
1.573049739E0,6.737792492E-2,1.158474199E-2,-6.870950758E-2
1.575537448E0,6.844318658E-2,1.051947847E-2,-7.084003091E-2
1.578025156E0,6.950845569E-2,1.158474199E-2,-7.190529257E-2
1.580512864E0,6.950845569E-2,1.478053257E-2,-7.190529257E-2
1.583000573E0,6.950845569E-2,1.904158667E-2,-7.297056168E-2
1.585488281E0,6.844318658E-2,2.436790615E-2,-7.297056168E-2
1.587975989E0,6.844318658E-2,2.969422378E-2,-7.190529257E-2
1.590463698E0,6.737792492E-2,3.821633384E-2,-6.870950758E-2
1.592951406E0,6.524740160E-2,4.780370742E-2,-6.657897681E-2
1.595439114E0,6.524740160E-2,5.739107728E-2,-6.231792271E-2
1.597926823E0,6.418213248E-2,6.697845459E-2,-5.805686861E-2
1.600414531E0,6.418213248E-2,7.763108611E-2,-5.273054913E-2
1.602902239E0,6.418213248E-2,8.721846342E-2,-4.633896798E-2
1.605389948E0,6.205160543E-2,9.574057162E-2,-3.994738683E-2
1.607877656E0,6.098634377E-2,1.031974182E-1,-3.462106735E-2
1.610365364E0,5.885581672E-2,1.095889956E-1,-2.822948620E-2
1.612853073E0,5.672528967E-2,1.127847880E-1,-2.396843210E-2
1.615340781E0,5.459476262E-2,1.149153188E-1,-1.864211448E-2
1.617828489E0,5.246423557E-2,1.149153188E-1,-1.438105945E-2
1.620316198E0,5.139897019E-2,1.138500497E-1,-1.118526794E-2
1.622803906E0,5.033370852E-2,1.127847880E-1,-7.989477366E-3
1.625291614E0,4.926844314E-2,1.106542572E-1,-4.793686327E-3
1.627779323E0,4.926844314E-2,1.074584723E-1,-3.728422802E-3
1.630267031E0,4.926844314E-2,1.053279415E-1,-2.663159044E-3
1.632754739E0,5.033370852E-2,1.021321490E-1,-3.728422802E-3
1.635242448E0,5.033370852E-2,1.000016257E-1,-6.924213842E-3
1.637730208E0,5.139897019E-2,9.680583328E-2,-1.012000442E-2
1.640217968E0,5.246423557E-2,9.361004084E-2,-1.438105945E-2
1.642705729E0,5.246423557E-2,8.934898674E-2,-1.970737800E-2
1.645193489E0,5.246423557E-2,8.508793265E-2,-2.503369562E-2
1.647681250E0,5.246423557E-2,7.976161689E-2,-3.036001325E-2
1.650169010E0,5.246423557E-2,7.230477035E-2,-3.568633273E-2
1.652656771E0,5.246423557E-2,6.591318548E-2,-4.101264849E-2
1.655144531E0,5.139897019E-2,5.739107728E-2,-4.527370632E-2
1.657632291E0,5.139897019E-2,4.993423447E-2,-4.953476042E-2
1.660120052E0,5.139897019E-2,4.247738793E-2,-5.273054913E-2
1.662607812E0,5.246423557E-2,3.608580679E-2,-5.592634156E-2
1.665095573E0,5.459476262E-2,3.075948730E-2,-5.912213027E-2
1.667583333E0,5.459476262E-2,2.649843320E-2,-6.125266105E-2
1.670071093E0,5.566002429E-2,2.436790615E-2,-6.444845349E-2
1.672558854E0,5.566002429E-2,2.223737910E-2,-6.657897681E-2
1.675046614E0,5.459476262E-2,2.223737910E-2,-6.764423847E-2
1.677534375E0,5.459476262E-2,2.117211558E-2,-6.977476925E-2
1.680022135E0,5.459476262E-2,2.117211558E-2,-6.977476925E-2
1.682509896E0,5.459476262E-2,2.117211558E-2,-7.084003091E-2
1.684997656E0,5.459476262E-2,2.010685205E-2,-7.190529257E-2
1.687485416E0,5.459476262E-2,2.010685205E-2,-7.190529257E-2
1.689973177E0,5.459476262E-2,2.010685205E-2,-7.190529257E-2
1.692460937E0,5.352949724E-2,2.117211558E-2,-7.190529257E-2
1.694948698E0,5.246423557E-2,2.223737910E-2,-7.190529257E-2
1.697436458E0,5.139897019E-2,2.436790615E-2,-7.084003091E-2
1.699924218E0,4.926844314E-2,2.649843320E-2,-6.977476925E-2
1.702411979E0,4.713791609E-2,2.862896025E-2,-6.977476925E-2
1.704899739E0,4.607265070E-2,3.075948730E-2,-6.764423847E-2
1.707387500E0,4.394212365E-2,3.182475269E-2,-6.657897681E-2
1.709875260E0,4.287686199E-2,3.182475269E-2,-6.338318437E-2
1.712363021E0,4.181159660E-2,3.182475269E-2,-6.125266105E-2
1.714850781E0,4.074633494E-2,3.075948730E-2,-5.912213027E-2
1.717338541E0,3.968106955E-2,2.969422378E-2,-5.592634156E-2
1.719826302E0,3.755054250E-2,2.756369673E-2,-5.166528746E-2
1.722314062E0,3.648528084E-2,2.543316968E-2,-4.846949503E-2
1.724801823E0,3.542001545E-2,2.436790615E-2,-4.527370632E-2
1.727289583E0,3.542001545E-2,2.330264263E-2,-4.314317927E-2
1.729777343E0,3.435475379E-2,2.117211558E-2,-4.207791388E-2
1.732265104E0,3.328948840E-2,1.797632314E-2,-3.994738683E-2
1.734752864E0,3.222422674E-2,1.584579609E-2,-3.888212144E-2
1.737240625E0,3.222422674E-2,1.158474199E-2,-3.781685978E-2
1.739728385E0,3.115896136E-2,8.388951421E-3,-3.675159439E-2
1.742216146E0,3.222422674E-2,4.127896391E-3,-3.568633273E-2
1.744703906E0,3.222422674E-2,-1.331579551E-4,-3.568633273E-2
1.747191666E0,3.115896136E-2,-5.459476262E-3,-3.462106735E-2
1.749679427E0,3.222422674E-2,-1.078579482E-2,-3.462106735E-2
1.752167187E0,3.115896136E-2,-1.611211337E-2,-3.568633273E-2
1.754654948E0,3.115896136E-2,-2.250369452E-2,-3.462106735E-2
1.757142708E0,3.009369783E-2,-2.889527567E-2,-3.462106735E-2
1.759630468E0,2.902843431E-2,-3.422159329E-2,-3.568633273E-2
1.762118229E0,2.689790726E-2,-3.954791278E-2,-3.675159439E-2
1.764605989E0,2.583264373E-2,-4.380896688E-2,-3.781685978E-2
1.767093750E0,2.370211668E-2,-4.593949392E-2,-3.781685978E-2
1.769581510E0,2.157158963E-2,-4.593949392E-2,-3.888212144E-2
1.772069271E0,1.944106072E-2,-4.487423226E-2,-3.888212144E-2
1.774557031E0,1.837579720E-2,-4.167843983E-2,-3.888212144E-2
1.777044791E0,1.624527015E-2,-3.528685868E-2,-3.675159439E-2
1.779532552E0,1.624527015E-2,-2.889527567E-2,-3.675159439E-2
1.782020312E0,1.518000662E-2,-2.143843099E-2,-3.568633273E-2
1.784508073E0,1.304947957E-2,-1.398158539E-2,-3.462106735E-2
1.786995833E0,1.198421605E-2,-7.590003312E-3,-3.462106735E-2
1.789483593E0,9.853689000E-3,-2.263685223E-3,-3.462106735E-2
1.791971354E0,8.788425475E-3,9.321057005E-4,-3.568633273E-2
1.794459114E0,7.723161485E-3,3.062632866E-3,-3.568633273E-2
1.796946875E0,6.657897960E-3,4.127896391E-3,-3.568633273E-2
1.799434635E0,5.592633970E-3,4.127896391E-3,-3.568633273E-2
1.801922396E0,4.527370445E-3,3.062632866E-3,-3.568633273E-2
1.804410156E0,4.527370445E-3,1.997369342E-3,-3.568633273E-2
1.806897916E0,3.462106921E-3,1.997369342E-3,-3.462106735E-2
1.809385625E0,3.462106921E-3,3.062632866E-3,-3.355580568E-2
1.811873333E0,3.462106921E-3,3.062632866E-3,-3.142527863E-2
1.814361041E0,3.462106921E-3,4.127896391E-3,-2.822948620E-2
1.816848750E0,4.527370445E-3,5.193160381E-3,-2.609895915E-2
1.819336458E0,5.592633970E-3,5.193160381E-3,-2.396843210E-2
1.821824166E0,6.657897960E-3,7.323687430E-3,-2.077264152E-2
1.824311875E0,7.723161485E-3,8.388951421E-3,-1.970737800E-2
1.826799583E0,8.788425475E-3,9.454214945E-3,-1.757685095E-2
1.829287291E0,9.853689000E-3,1.051947847E-2,-1.438105945E-2
1.831775000E0,1.198421605E-2,1.158474199E-2,-1.225053146E-2
1.834262708E0,1.304947957E-2,1.158474199E-2,-1.118526794E-2
1.836750416E0,1.411474310E-2,1.051947847E-2,-1.118526794E-2
1.839238125E0,1.411474310E-2,9.454214945E-3,-1.118526794E-2
1.841725833E0,1.518000662E-2,6.258423906E-3,-1.225053146E-2
1.844213541E0,1.624527015E-2,1.997369342E-3,-1.331579592E-2
1.846701250E0,1.731053367E-2,-1.198421582E-3,-1.331579592E-2
1.849188958E0,1.837579720E-2,-6.524739787E-3,-1.544632297E-2
1.851676666E0,1.837579720E-2,-9.720530361E-3,-1.544632297E-2
1.854164375E0,1.837579720E-2,-1.398158539E-2,-1.651158556E-2
1.856652083E0,1.837579720E-2,-1.717737690E-2,-1.757685095E-2
1.859139791E0,1.837579720E-2,-2.250369452E-2,-1.864211448E-2
1.861627500E0,1.731053367E-2,-2.569948509E-2,-1.970737800E-2
1.864115208E0,1.624527015E-2,-2.996053919E-2,-2.183790505E-2
1.866602916E0,1.624527015E-2,-3.315633163E-2,-2.183790505E-2
1.869090625E0,1.624527015E-2,-3.741738573E-2,-2.290316857E-2
1.871578333E0,1.518000662E-2,-4.061317816E-2,-2.503369562E-2
1.874066041E0,1.518000662E-2,-4.274370521E-2,-2.609895915E-2
1.876553750E0,1.518000662E-2,-4.593949392E-2,-2.609895915E-2
1.879041458E0,1.518000662E-2,-4.807002097E-2,-2.716422267E-2
1.881529166E0,1.518000662E-2,-4.913528636E-2,-2.716422267E-2
1.884016875E0,1.518000662E-2,-5.126581341E-2,-2.609895915E-2
1.886504583E0,1.411474310E-2,-5.339634046E-2,-2.716422267E-2
1.888992291E0,1.304947957E-2,-5.552686751E-2,-2.609895915E-2
1.891480000E0,1.304947957E-2,-5.659212917E-2,-2.609895915E-2
1.893967708E0,1.198421605E-2,-5.872265995E-2,-2.609895915E-2
1.896455416E0,1.198421605E-2,-6.085318699E-2,-2.503369562E-2
1.898943125E0,1.091895252E-2,-6.404897571E-2,-2.503369562E-2
1.901430833E0,1.091895252E-2,-6.511423737E-2,-2.396843210E-2
1.903918593E0,1.091895252E-2,-6.617950648E-2,-2.290316857E-2
1.906406354E0,1.198421605E-2,-6.724476814E-2,-2.077264152E-2
1.908894114E0,1.198421605E-2,-6.724476814E-2,-1.864211448E-2
1.911381875E0,1.304947957E-2,-6.724476814E-2,-1.651158556E-2
1.913869635E0,1.304947957E-2,-6.831002980E-2,-1.438105945E-2
1.916357396E0,1.304947957E-2,-6.937529147E-2,-1.118526794E-2
1.918845156E0,1.304947957E-2,-7.044056058E-2,-9.054740891E-3
1.921332916E0,1.304947957E-2,-7.257108390E-2,-6.924213842E-3
1.923820677E0,1.304947957E-2,-7.470161468E-2,-3.728422802E-3
1.926308437E0,1.304947957E-2,-7.789740711E-2,-5.326318205E-4
1.928796198E0,1.304947957E-2,-8.002793044E-2,2.663159044E-3
1.931283958E0,1.411474310E-2,-8.215846121E-2,5.858949851E-3
1.933771718E0,1.411474310E-2,-8.428898454E-2,1.012000442E-2
1.936259479E0,1.304947957E-2,-8.535424620E-2,1.331579592E-2
1.938747239E0,1.518000662E-2,-8.748477697E-2,1.651158556E-2
1.941235000E0,1.518000662E-2,-9.068056941E-2,1.757685095E-2
1.943722760E0,1.624527015E-2,-9.387636185E-2,2.077264152E-2
1.946210521E0,1.731053367E-2,-9.813741595E-2,2.290316857E-2
1.948698281E0,1.837579720E-2,-1.023984700E-1,2.396843210E-2
1.951186041E0,1.944106072E-2,-1.066595241E-1,2.503369562E-2
1.953673802E0,1.944106072E-2,-1.119858399E-1,2.609895915E-2
1.956161562E0,1.944106072E-2,-1.183774248E-1,2.609895915E-2
1.958649323E0,1.837579720E-2,-1.237037405E-1,2.609895915E-2
1.961137083E0,1.731053367E-2,-1.300953180E-1,2.503369562E-2
1.963624843E0,1.731053367E-2,-1.364869028E-1,2.290316857E-2
1.966112604E0,1.624527015E-2,-1.418132186E-1,2.183790505E-2
1.968600364E0,1.518000662E-2,-1.482048035E-1,1.864211448E-2
1.971088125E0,1.518000662E-2,-1.524658650E-1,1.757685095E-2
1.973575885E0,1.411474310E-2,-1.556616426E-1,1.544632297E-2
1.976063646E0,1.304947957E-2,-1.588574350E-1,1.438105945E-2
1.978551406E0,1.304947957E-2,-1.599227041E-1,1.331579592E-2
1.981039166E0,1.304947957E-2,-1.588574350E-1,1.225053146E-2
1.983526927E0,1.304947957E-2,-1.577921808E-1,1.225053146E-2
1.986014687E0,1.198421605E-2,-1.556616426E-1,1.331579592E-2
1.988502448E0,1.091895252E-2,-1.524658650E-1,1.438105945E-2
1.990990208E0,9.853689000E-3,-1.482048035E-1,1.438105945E-2
1.993477968E0,7.723161485E-3,-1.450090110E-1,1.544632297E-2
1.995965729E0,5.592633970E-3,-1.396826953E-1,1.757685095E-2
1.998453489E0,2.396843163E-3,-1.332911104E-1,1.864211448E-2
2.000941250E0,2.663159103E-4,-1.268995255E-1,2.077264152E-2
2.003429010E0,-1.864211401E-3,-1.194426864E-1,2.396843210E-2
2.005916771E0,-2.929474926E-3,-1.119858399E-1,2.716422267E-2
2.008404531E0,-3.994738683E-3,-1.045289934E-1,3.036001325E-2
2.010892291E0,-3.994738683E-3,-9.600688517E-2,3.355580568E-2
2.013380052E0,-3.994738683E-3,-8.855003864E-2,3.675159439E-2
2.015867812E0,-5.060002208E-3,-8.002793044E-2,3.994738683E-2
2.018355573E0,-6.125265732E-3,-7.363634557E-2,4.420844093E-2
2.020843333E0,-7.190529723E-3,-6.937529147E-2,4.633896798E-2
2.023331093E0,-8.255792782E-3,-6.511423737E-2,4.953476042E-2
2.025818854E0,-9.321057238E-3,-6.404897571E-2,5.166528746E-2
2.028306614E0,-9.321057238E-3,-6.085318699E-2,5.486107618E-2
2.030794375E0,-8.255792782E-3,-5.978792161E-2,5.805686861E-2
2.033282135E0,-7.190529723E-3,-5.659212917E-2,6.338318437E-2
2.035769896E0,-7.190529723E-3,-5.339634046E-2,6.551371515E-2
2.038257656E0,-6.125265732E-3,-5.020054802E-2,6.870950758E-2
2.040745416E0,-5.060002208E-3,-4.593949392E-2,7.190529257E-2
2.043233177E0,-3.994738683E-3,-4.061317816E-2,7.403582335E-2
2.045720937E0,-2.929474926E-3,-3.635212034E-2,7.723161578E-2
2.048208698E0,-1.864211401E-3,-3.209106624E-2,7.829687744E-2
2.050696458E0,-1.864211401E-3,-2.996053919E-2,7.936213911E-2
2.053184218E0,-1.864211401E-3,-2.783001214E-2,7.936213911E-2
2.055671979E0,-1.864211401E-3,-2.783001214E-2,8.042740822E-2
2.058159739E0,-2.929474926E-3,-2.889527567E-2,8.149266988E-2
2.060647500E0,-2.929474926E-3,-2.996053919E-2,8.149266988E-2
2.063135260E0,-1.864211401E-3,-3.422159329E-2,8.255793154E-2
2.065623021E0,-1.864211401E-3,-3.741738573E-2,8.468846232E-2
2.068110781E0,-1.864211401E-3,-4.167843983E-2,8.575372398E-2
2.070598541E0,-7.989477599E-4,-4.593949392E-2,8.788424730E-2
2.073086302E0,2.663159103E-4,-5.126581341E-2,8.894951642E-2
2.075574062E0,2.396843163E-3,-5.765739456E-2,9.108003974E-2
2.078061823E0,4.527370445E-3,-6.298371404E-2,9.321057051E-2
2.080549583E0,6.657897960E-3,-6.831002980E-2,9.534109384E-2
2.083037343E0,9.853689000E-3,-7.257108390E-2,9.640636295E-2
2.085525104E0,1.198421605E-2,-7.683213800E-2,9.747162461E-2
2.088012812E0,1.304947957E-2,-7.896266878E-2,9.747162461E-2
2.090500521E0,1.518000662E-2,-8.109319210E-2,9.640636295E-2
2.092988229E0,1.731053367E-2,-8.322372288E-2,9.427583218E-2
2.095475937E0,1.944106072E-2,-8.322372288E-2,9.214530140E-2
2.097963646E0,2.157158963E-2,-8.428898454E-2,8.894951642E-2
2.100451354E0,2.370211668E-2,-8.322372288E-2,8.468846232E-2
2.102939062E0,2.689790726E-2,-8.322372288E-2,8.149266988E-2
2.105426771E0,3.009369783E-2,-8.322372288E-2,7.616634667E-2
2.107914479E0,3.435475379E-2,-8.215846121E-2,7.190529257E-2
2.110402187E0,3.755054250E-2,-8.109319210E-2,6.870950758E-2
2.112889896E0,4.181159660E-2,-8.002793044E-2,6.551371515E-2
2.115377604E0,4.607265070E-2,-7.789740711E-2,6.231792271E-2
2.117865312E0,5.033370852E-2,-7.576687634E-2,5.912213027E-2
2.120353021E0,5.459476262E-2,-7.470161468E-2,5.592634156E-2
2.122840729E0,5.992107838E-2,-7.470161468E-2,5.379581451E-2
2.125328437E0,6.418213248E-2,-7.470161468E-2,4.953476042E-2
2.127816146E0,6.844318658E-2,-7.789740711E-2,4.633896798E-2
2.130303854E0,7.270424068E-2,-8.215846121E-2,4.101264849E-2
2.132791562E0,7.696529478E-2,-8.855003864E-2,3.568633273E-2
2.135279271E0,8.122635633E-2,-9.707214683E-2,2.822948620E-2
2.137766979E0,8.548741043E-2,-1.066595241E-1,2.077264152E-2
2.140254687E0,8.868319541E-2,-1.151816323E-1,1.331579592E-2
2.142742396E0,9.294424951E-2,-1.258342713E-1,4.793686327E-3
2.145230104E0,9.720530361E-2,-1.354216337E-1,-4.793686327E-3
2.147717812E0,1.004010960E-1,-1.439437568E-1,-1.331579592E-2
2.150205521E0,1.035968885E-1,-1.524658650E-1,-2.183790505E-2
2.152693229E0,1.067926809E-1,-1.588574350E-1,-3.036001325E-2
2.155180937E0,1.110537350E-1,-1.663142890E-1,-3.888212144E-2
2.157668646E0,1.142495275E-1,-1.727058738E-1,-4.740423337E-2
2.160156354E0,1.185105816E-1,-1.790974438E-1,-5.379581451E-2
2.162644062E0,1.217063740E-1,-1.854890287E-1,-6.125266105E-2
2.165131771E0,1.249021590E-1,-1.918806136E-1,-6.764423847E-2
2.167619479E0,1.291632205E-1,-1.982721984E-1,-7.297056168E-2
2.170107187E0,1.323590130E-1,-2.025332451E-1,-7.829687744E-2
2.172594896E0,1.344895363E-1,-2.078595608E-1,-8.362319320E-2
2.175082604E0,1.376853287E-1,-2.099900991E-1,-8.681898564E-2
2.177570312E0,1.398158520E-1,-2.131858915E-1,-8.894951642E-2
2.180058073E0,1.430116445E-1,-2.142511457E-1,-9.108003974E-2
2.182545833E0,1.451421678E-1,-2.153164148E-1,-9.108003974E-2
2.185033593E0,1.483379602E-1,-2.142511457E-1,-9.108003974E-2
2.187521354E0,1.504684836E-1,-2.131858915E-1,-8.894951642E-2
2.190009114E0,1.525990218E-1,-2.121206224E-1,-8.788424730E-2
2.192496875E0,1.547295451E-1,-2.099900991E-1,-8.468846232E-2
2.194984635E0,1.568600684E-1,-2.089248300E-1,-8.149266988E-2
2.197472396E0,1.589905918E-1,-2.067943066E-1,-7.829687744E-2
2.199960156E0,1.600558609E-1,-2.035985142E-1,-7.510108501E-2
2.202447916E0,1.621863842E-1,-2.004027218E-1,-7.084003091E-2
2.204935677E0,1.632516533E-1,-1.961416751E-1,-6.764423847E-2
2.207423437E0,1.643169224E-1,-1.908153445E-1,-6.444845349E-2
2.209911198E0,1.643169224E-1,-1.854890287E-1,-6.125266105E-2
2.212398958E0,1.653821766E-1,-1.790974438E-1,-5.805686861E-2
2.214886718E0,1.653821766E-1,-1.727058738E-1,-5.486107618E-2
2.217374479E0,1.664474458E-1,-1.663142890E-1,-5.273054913E-2
2.219862239E0,1.675127149E-1,-1.599227041E-1,-4.953476042E-2
2.222350000E0,1.685779691E-1,-1.545963883E-1,-4.740423337E-2
2.224837760E0,1.696432382E-1,-1.503353268E-1,-4.527370632E-2
2.227325521E0,1.696432382E-1,-1.460742801E-1,-4.420844093E-2
2.229813281E0,1.696432382E-1,-1.428784877E-1,-4.314317927E-2
2.232301041E0,1.685779691E-1,-1.386174262E-1,-4.101264849E-2
2.234788802E0,1.685779691E-1,-1.343563795E-1,-3.994738683E-2
2.237276562E0,1.675127149E-1,-1.290300637E-1,-3.888212144E-2
2.239764323E0,1.664474458E-1,-1.215732098E-1,-3.781685978E-2
2.242252083E0,1.653821766E-1,-1.141163707E-1,-3.675159439E-2
2.244739843E0,1.632516533E-1,-1.045289934E-1,-3.568633273E-2
2.247227604E0,1.621863842E-1,-9.281109273E-2,-3.355580568E-2
2.249715364E0,1.611211300E-1,-7.896266878E-2,-3.142527863E-2
2.252203125E0,1.589905918E-1,-6.511423737E-2,-2.929474972E-2
2.254690885E0,1.568600684E-1,-4.913528636E-2,-2.609895915E-2
2.257178646E0,1.547295451E-1,-3.102580272E-2,-2.183790505E-2
2.259666406E0,1.536642760E-1,-1.185105834E-2,-1.651158556E-2
2.262154166E0,1.515337527E-1,8.388951421E-3,-1.118526794E-2
2.264641927E0,1.494032294E-1,2.969422378E-2,-4.793686327E-3
2.267129687E0,1.483379602E-1,5.313002318E-2,1.597895520E-3
2.269617448E0,1.472726911E-1,7.763108611E-2,7.989477366E-3
2.272105208E0,1.462074369E-1,1.021321490E-1,1.438105945E-2
2.274592968E0,1.451421678E-1,1.276984811E-1,1.970737800E-2
2.277080729E0,1.451421678E-1,1.532648057E-1,2.503369562E-2
2.279568489E0,1.451421678E-1,1.788311303E-1,2.929474972E-2
2.282056250E0,1.451421678E-1,2.022669315E-1,3.355580568E-2
2.284544010E0,1.451421678E-1,2.225069404E-1,3.675159439E-2
2.287031771E0,1.451421678E-1,2.406164259E-1,3.888212144E-2
2.289519531E0,1.462074369E-1,2.533995807E-1,3.994738683E-2
2.292007291E0,1.483379602E-1,2.629869580E-1,4.101264849E-2
2.294495052E0,1.515337527E-1,2.672480047E-1,4.207791388E-2
2.296982812E0,1.568600684E-1,2.672480047E-1,4.207791388E-2
2.299470573E0,1.632516533E-1,2.619217038E-1,4.314317927E-2
2.301958333E0,1.707084924E-1,2.523343265E-1,4.420844093E-2
2.304446093E0,1.781653464E-1,2.374206334E-1,4.420844093E-2
2.306933854E0,1.866874546E-1,2.193111479E-1,4.314317927E-2
2.309421614E0,1.952095628E-1,1.969406158E-1,4.314317927E-2
2.311909375E0,2.037316710E-1,1.724395454E-1,4.101264849E-2
2.314397135E0,2.122537792E-1,1.458079666E-1,3.675159439E-2
2.316884896E0,2.229064107E-1,1.191763729E-1,3.142527863E-2
2.319372656E0,2.314285189E-1,9.041424841E-2,2.609895915E-2
2.321860416E0,2.420811653E-1,6.271740049E-2,1.864211448E-2
2.324348177E0,2.506032586E-1,3.608580679E-2,1.118526794E-2
2.326835937E0,2.601906359E-1,1.265000552E-2,2.663159044E-3
2.329323698E0,2.687127590E-1,-8.655266836E-3,-5.858949851E-3
2.331811458E0,2.751043439E-1,-2.676474862E-2,-1.225053146E-2
2.334299218E0,2.825611830E-1,-4.380896688E-2,-1.864211448E-2
2.336786979E0,2.868222296E-1,-5.765739456E-2,-2.396843210E-2
2.339274739E0,2.921485603E-1,-6.937529147E-2,-2.716422267E-2
2.341762500E0,2.953443527E-1,-8.002793044E-2,-2.822948620E-2
2.344250260E0,2.974748611E-1,-8.748477697E-2,-2.822948620E-2
2.346738021E0,2.996053994E-1,-9.281109273E-2,-2.503369562E-2
2.349225781E0,3.006706536E-1,-9.600688517E-2,-2.077264152E-2
2.351713541E0,3.017359376E-1,-9.600688517E-2,-1.544632297E-2
2.354201302E0,3.038664460E-1,-9.281109273E-2,-9.054740891E-3
2.356689062E0,3.049317300E-1,-8.641951531E-2,-3.728422802E-3
2.359176823E0,3.059969842E-1,-7.683213800E-2,3.728422802E-3
2.361664583E0,3.070622385E-1,-6.298371404E-2,1.012000442E-2
2.364152343E0,3.070622385E-1,-4.593949392E-2,1.757685095E-2
2.366640104E0,3.070622385E-1,-2.463422157E-2,2.396843210E-2
2.369127864E0,3.059969842E-1,-1.198421582E-3,3.249054030E-2
2.371615573E0,3.059969842E-1,2.436790615E-2,3.888212144E-2
2.374103281E0,3.049317300E-1,5.313002318E-2,4.527370632E-2
2.376590989E0,3.049317300E-1,8.402267098E-2,5.273054913E-2
2.379078698E0,3.049317300E-1,1.149153188E-1,6.018739566E-2
2.381566406E0,3.059969842E-1,1.468732208E-1,6.870950758E-2
2.384054114E0,3.081275225E-1,1.798963994E-1,7.616634667E-2
2.386541823E0,3.102580309E-1,2.107890397E-1,8.362319320E-2
2.389029531E0,3.123885691E-1,2.406164259E-1,9.108003974E-2
2.391517239E0,3.145190775E-1,2.693785429E-1,9.853688627E-2
2.394004948E0,3.155843616E-1,2.938795984E-1,1.038632020E-1
2.396492656E0,3.177148700E-1,3.151848912E-1,1.081242561E-1
2.398980364E0,3.198454082E-1,3.332943618E-1,1.134505793E-1
2.401468073E0,3.219759464E-1,3.482080400E-1,1.166463718E-1
2.403955781E0,3.251717389E-1,3.599259555E-1,1.198421568E-1
2.406443489E0,3.273022473E-1,3.673827946E-1,1.219726875E-1
2.408931198E0,3.304980397E-1,3.716438413E-1,1.230379492E-1
2.411418906E0,3.347590864E-1,3.716438413E-1,1.251684725E-1
2.413906614E0,3.379548788E-1,3.695133328E-1,1.241032109E-1
2.416394323E0,3.411506712E-1,3.641870022E-1,1.241032109E-1
2.418882031E0,3.475422561E-1,3.556649089E-1,1.219726875E-1
2.421369739E0,3.539338410E-1,3.428817391E-1,1.209074259E-1
2.423857448E0,3.581948876E-1,3.279680312E-1,1.177116334E-1
2.426345156E0,3.645864725E-1,3.087933064E-1,1.134505793E-1
2.428832864E0,3.699128032E-1,2.874880135E-1,1.081242561E-1
2.431320573E0,3.731085956E-1,2.619217038E-1,1.027979404E-1
2.433808281E0,3.773696423E-1,2.363553643E-1,9.747162461E-2
2.436295989E0,3.805654347E-1,2.097237855E-1,9.214530140E-2
2.438783698E0,3.848264813E-1,1.852227151E-1,8.575372398E-2
2.441271406E0,3.890875578E-1,1.617869139E-1,8.042740822E-2
2.443759114E0,3.933486044E-1,1.404816359E-1,7.723161578E-2
2.446246823E0,3.976096511E-1,1.223721579E-1,7.403582335E-2
2.448734531E0,4.040012360E-1,1.053279415E-1,7.190529257E-2
2.451222239E0,4.103928208E-1,9.041424841E-2,6.977476925E-2
2.453709948E0,4.157191217E-1,7.656582445E-2,6.764423847E-2
2.456197656E0,4.221107066E-1,6.165213138E-2,6.657897681E-2
2.458685416E0,4.285022914E-1,4.673844203E-2,6.551371515E-2
2.461173177E0,4.348938763E-1,3.289001435E-2,6.551371515E-2
2.463660937E0,4.412854612E-1,1.797632314E-2,6.551371515E-2
2.466148698E0,4.476770461E-1,5.193160381E-3,6.551371515E-2
2.468636458E0,4.540686309E-1,-6.524739787E-3,6.657897681E-2
2.471124218E0,4.615254700E-1,-1.611211337E-2,6.870950758E-2
2.473611979E0,4.679170549E-1,-2.356895804E-2,7.084003091E-2
2.476099739E0,4.753738940E-1,-2.676474862E-2,7.297056168E-2
2.478587500E0,4.817654788E-1,-2.676474862E-2,7.616634667E-2
2.481075260E0,4.881570637E-1,-2.250369452E-2,8.042740822E-2
2.483563021E0,4.956139028E-1,-1.611211337E-2,8.255793154E-2
2.486050781E0,5.009402037E-1,-7.590003312E-3,8.468846232E-2
2.488538541E0,5.073317885E-1,9.321057005E-4,8.788424730E-2
2.491026302E0,5.126581192E-1,8.388951421E-3,8.894951642E-2
2.493514062E0,5.179844499E-1,1.584579609E-2,9.108003974E-2
2.496001823E0,5.243760347E-1,2.223737910E-2,9.108003974E-2
2.498489583E0,5.307676196E-1,2.543316968E-2,9.214530140E-2
2.500977343E0,5.371592045E-1,2.862896025E-2,9.214530140E-2
2.503465104E0,5.435507894E-1,2.862896025E-2,9.214530140E-2
2.505952864E0,5.499423742E-1,2.756369673E-2,9.214530140E-2
2.508440625E0,5.573992133E-1,2.543316968E-2,9.108003974E-2
2.510928385E0,5.648560524E-1,2.330264263E-2,9.108003974E-2
2.513416146E0,5.733781457E-1,1.797632314E-2,9.108003974E-2
2.515903906E0,5.808349848E-1,1.371526904E-2,9.001477808E-2
2.518391666E0,5.882918239E-1,7.323687430E-3,8.788424730E-2
2.520879427E0,5.957486629E-1,1.997369342E-3,8.575372398E-2
2.523367187E0,6.021402478E-1,-4.394212738E-3,8.255793154E-2
2.525854948E0,6.095971465E-1,-1.185105834E-2,7.829687744E-2
2.528342708E0,6.159886718E-1,-1.824264042E-2,7.403582335E-2
2.530830468E0,6.223802567E-1,-2.569948509E-2,6.870950758E-2
2.533318229E0,6.287718415E-1,-3.315633163E-2,6.231792271E-2
2.535805989E0,6.340981722E-1,-4.061317816E-2,5.592634156E-2
2.538293750E0,6.394245028E-1,-4.807002097E-2,4.953476042E-2
2.540781510E0,6.447508335E-1,-5.552686751E-2,4.207791388E-2
2.543269271E0,6.511424184E-1,-6.191844866E-2,3.568633273E-2
2.545757031E0,6.554034352E-1,-6.831002980E-2,2.929474972E-2
2.548244791E0,6.617950201E-1,-7.470161468E-2,2.183790505E-2
2.550732552E0,6.660560966E-1,-8.109319210E-2,1.651158556E-2
2.553220312E0,6.692518592E-1,-8.535424620E-2,1.225053146E-2
2.555708073E0,6.735129356E-1,-8.961530030E-2,7.989477366E-3
2.558195833E0,6.767086983E-1,-9.281109273E-2,4.793686327E-3
2.560683593E0,6.777740121E-1,-9.494162351E-2,2.663159044E-3
2.563171354E0,6.799045205E-1,-9.600688517E-2,5.326318205E-4
2.565659114E0,6.809697747E-1,-9.813741595E-2,-1.597895520E-3
2.568146875E0,6.809697747E-1,-9.920267761E-2,-4.793686327E-3
2.570634635E0,6.809697747E-1,-1.023984700E-1,-6.924213842E-3
2.573122396E0,6.809697747E-1,-1.045289934E-1,-7.989477366E-3
2.575610156E0,6.809697747E-1,-1.066595241E-1,-1.012000442E-2
2.578097916E0,6.820350289E-1,-1.077247858E-1,-1.012000442E-2
2.580585677E0,6.831002831E-1,-1.066595241E-1,-1.012000442E-2
2.583073437E0,6.841655970E-1,-1.055942550E-1,-9.054740891E-3
2.585561198E0,6.841655970E-1,-1.023984700E-1,-6.924213842E-3
2.588048958E0,6.841655970E-1,-9.707214683E-2,-3.728422802E-3
2.590536718E0,6.841655970E-1,-9.174583107E-2,-5.326318205E-4
2.593024479E0,6.841655970E-1,-8.535424620E-2,3.728422802E-3
2.595512239E0,6.841655970E-1,-8.002793044E-2,7.989477366E-3
2.598000000E0,6.841655970E-1,-7.470161468E-2,1.225053146E-2
2.600487760E0,6.852308512E-1,-6.937529147E-2,1.757685095E-2
2.602975521E0,6.862961054E-1,-6.617950648E-2,2.183790505E-2
2.605463281E0,6.862961054E-1,-6.298371404E-2,2.716422267E-2
2.607951041E0,6.884266138E-1,-6.085318699E-2,3.249054030E-2
2.610438802E0,6.905571818E-1,-5.978792161E-2,3.675159439E-2
2.612926562E0,6.926876903E-1,-6.085318699E-2,4.314317927E-2
2.615414323E0,6.948181987E-1,-6.404897571E-2,4.846949503E-2
2.617902083E0,6.969487667E-1,-6.831002980E-2,5.166528746E-2
2.620389843E0,6.990792751E-1,-7.363634557E-2,5.592634156E-2
2.622877604E0,7.012097836E-1,-8.215846121E-2,5.912213027E-2
2.625365364E0,7.033402920E-1,-9.281109273E-2,6.018739566E-2
2.627853125E0,7.054708600E-1,-1.055942550E-1,6.231792271E-2
2.630340885E0,7.076013684E-1,-1.183774248E-1,6.444845349E-2
2.632828646E0,7.086666226E-1,-1.311605871E-1,6.657897681E-2
2.635316406E0,7.118624449E-1,-1.439437568E-1,6.764423847E-2
2.637804166E0,7.118624449E-1,-1.556616426E-1,6.870950758E-2
2.640291927E0,7.118624449E-1,-1.641837656E-1,7.084003091E-2
2.642779687E0,7.107971907E-1,-1.716406047E-1,7.403582335E-2
2.645267448E0,7.097318769E-1,-1.759016514E-1,7.723161578E-2
2.647755208E0,7.086666226E-1,-1.759016514E-1,8.255793154E-2
2.650242968E0,7.076013684E-1,-1.716406047E-1,8.681898564E-2
2.652730729E0,7.065361142E-1,-1.641837656E-1,9.108003974E-2
2.655218437E0,7.044056058E-1,-1.535311192E-1,9.640636295E-2
2.657706146E0,7.022750378E-1,-1.407479644E-1,1.006674170E-1
2.660193854E0,7.001445293E-1,-1.237037405E-1,1.049284711E-1
2.662681562E0,6.969487667E-1,-1.077247858E-1,1.102547869E-1
2.665169271E0,6.937529445E-1,-8.855003864E-2,1.134505793E-1
2.667656979E0,6.905571818E-1,-6.831002980E-2,1.166463718E-1
2.670144687E0,6.862961054E-1,-4.700475931E-2,1.198421568E-1
2.672632396E0,6.831002831E-1,-2.250369452E-2,1.241032109E-1
2.675120104E0,6.788392663E-1,5.193160381E-3,1.272990108E-1
2.677607812E0,6.756434441E-1,3.502054140E-2,1.315600574E-1
2.680095521E0,6.713824272E-1,6.804371625E-2,1.347558498E-1
2.682583229E0,6.681866050E-1,1.021321490E-1,1.368863732E-1
2.685070937E0,6.660560966E-1,1.351553202E-1,1.390169114E-1
2.687558646E0,6.628602743E-1,1.649827063E-1,1.411474347E-1
2.690046354E0,6.607297659E-1,1.894837767E-1,1.411474347E-1
2.692534062E0,6.575340033E-1,2.065279931E-1,1.422126889E-1
2.695021771E0,6.554034352E-1,2.161153555E-1,1.411474347E-1
2.697509479E0,6.532729268E-1,2.171806246E-1,1.400821656E-1
2.699997187E0,6.511424184E-1,2.118543088E-1,1.379516423E-1
2.702484896E0,6.500771642E-1,2.012016773E-1,1.347558498E-1
2.704972604E0,6.490118504E-1,1.852227151E-1,1.326253265E-1
2.707460312E0,6.500771642E-1,1.671132296E-1,1.294295341E-1
2.709948021E0,6.511424184E-1,1.468732208E-1,1.262337416E-1
2.712435729E0,6.522076726E-1,1.276984811E-1,1.219726875E-1
2.714923437E0,6.532729268E-1,1.095889956E-1,1.177116334E-1
2.717411146E0,6.532729268E-1,9.254477918E-2,1.123853177E-1
2.719898854E0,6.554034352E-1,7.763108611E-2,1.070589945E-1
2.722386562E0,6.554034352E-1,6.591318548E-2,1.006674170E-1
2.724874271E0,6.575340033E-1,5.632581562E-2,9.321057051E-2
2.727361979E0,6.585992575E-1,4.886896908E-2,8.575372398E-2
2.729849687E0,6.585992575E-1,4.247738793E-2,7.936213911E-2
2.732337396E0,6.575340033E-1,3.608580679E-2,7.297056168E-2
2.734825104E0,6.564686894E-1,2.862896025E-2,6.551371515E-2
2.737312812E0,6.564686894E-1,2.117211558E-2,5.912213027E-2
2.739800521E0,6.543381810E-1,1.158474199E-2,5.273054913E-2
2.742288281E0,6.532729268E-1,-1.198421582E-3,4.740423337E-2
2.744776041E0,6.522076726E-1,-1.717737690E-2,4.207791388E-2
2.747263802E0,6.511424184E-1,-3.635212034E-2,3.675159439E-2
2.749751562E0,6.479465961E-1,-5.872265995E-2,3.355580568E-2
2.752239323E0,6.458160877E-1,-8.428898454E-2,3.142527863E-2
2.754727083E0,6.436855793E-1,-1.119858399E-1,2.929474972E-2
2.757214843E0,6.394245028E-1,-1.407479644E-1,2.822948620E-2
2.759702604E0,6.362286806E-1,-1.684448123E-1,2.929474972E-2
2.762190364E0,6.330329180E-1,-1.929458827E-1,3.036001325E-2
2.764678125E0,6.287718415E-1,-2.142511457E-1,3.355580568E-2
2.767165885E0,6.245108247E-1,-2.312953621E-1,3.675159439E-2
2.769653646E0,6.181192398E-1,-2.408827394E-1,4.101264849E-2
2.772141406E0,6.095971465E-1,-2.440785319E-1,4.527370632E-2
2.774629166E0,6.010749936E-1,-2.398174703E-1,5.060002208E-2
2.777116927E0,5.904223919E-1,-2.291648388E-1,5.699160323E-2
2.779604687E0,5.776392221E-1,-2.110553533E-1,6.338318437E-2
2.782092448E0,5.637907982E-1,-1.886848211E-1,6.977476925E-2
2.784580208E0,5.478118062E-1,-1.641837656E-1,7.723161578E-2
2.787067968E0,5.297023654E-1,-1.364869028E-1,8.575372398E-2
2.789555729E0,5.105276108E-1,-1.098553166E-1,9.534109384E-2
2.792043489E0,4.892223179E-1,-8.215846121E-2,1.059937328E-1
2.794531250E0,4.668518007E-1,-5.659212917E-2,1.155811027E-1
2.797019010E0,4.466117918E-1,-3.209106624E-2,1.272990108E-1
2.799506771E0,4.253064990E-1,-9.720530361E-3,1.390169114E-1
2.801994531E0,4.071970284E-1,1.158474199E-2,1.518000662E-1
2.804482291E0,3.901528120E-1,3.182475269E-2,1.656484902E-1
2.806970052E0,3.741738498E-1,5.099949613E-2,1.805621833E-1
2.809457812E0,3.603254259E-1,7.123950869E-2,1.954758763E-1
2.811945573E0,3.464770019E-1,9.147951752E-2,2.114548385E-1
2.814433333E0,3.336938322E-1,1.127847880E-1,2.284990549E-1
2.816921093E0,3.209106624E-1,1.330247968E-1,2.455432713E-1
2.819408854E0,3.070622385E-1,1.532648057E-1,2.636527419E-1
2.821896614E0,2.942790687E-1,1.713742912E-1,2.817622423E-1
2.824384375E0,2.814959288E-1,1.873532385E-1,3.009369671E-1
2.826872135E0,2.676474750E-1,1.990711391E-1,3.190464675E-1
2.829359896E0,2.537990510E-1,2.075932473E-1,3.382211924E-1
2.831847656E0,2.410158962E-1,2.107890397E-1,3.573959470E-1
2.834335416E0,2.271674722E-1,2.097237855E-1,3.755054474E-1
2.836823177E0,2.143843025E-1,2.022669315E-1,3.936149180E-1
2.839310937E0,2.026664019E-1,1.905490309E-1,4.095938802E-1
2.841798698E0,1.909485012E-1,1.745700836E-1,4.266380966E-1
2.844286458E0,1.781653464E-1,1.564605981E-1,4.415517747E-1
2.846774218E0,1.675127149E-1,1.383511126E-1,4.554001987E-1
2.849261979E0,1.547295451E-1,1.213068962E-1,4.681833684E-1
2.851749739E0,1.430116445E-1,1.053279415E-1,4.788360000E-1
2.854237500E0,1.280979514E-1,9.254477918E-2,4.894886315E-1
2.856725260E0,1.131842583E-1,8.402267098E-2,4.969455004E-1
2.859213021E0,9.720530361E-2,8.082687855E-2,5.044023395E-1
2.861700781E0,8.016108721E-2,8.402267098E-2,5.107939243E-1
2.864188541E0,6.311687082E-2,9.467530251E-2,5.171855092E-1
2.866676302E0,4.394212365E-2,1.117195264E-1,5.225118399E-1
2.869164062E0,2.370211668E-2,1.351553202E-1,5.289034247E-1
2.871651823E0,1.331579522E-3,1.649827063E-1,5.352949500E-1
2.874139583E0,-2.210422046E-2,1.969406158E-1,5.416865349E-1
2.876627343E0,-4.873581231E-2,2.310290486E-1,5.491434336E-1
2.879115104E0,-7.536740601E-2,2.640522122E-1,5.566002727E-1
2.881602864E0,-1.030642539E-1,2.938795984E-1,5.651223660E-1
2.884090625E0,-1.296958476E-1,3.183806837E-1,5.747097135E-1
2.886578385E0,-1.541969180E-1,3.375554085E-1,5.842971206E-1
2.889066146E0,-1.776327193E-1,3.482080400E-1,5.949497223E-1
2.891553906E0,-1.989379823E-1,3.492733240E-1,6.056023836E-1
2.894041666E0,-2.170474678E-1,3.407512009E-1,6.162550449E-1
2.896529427E0,-2.330264151E-1,3.205111921E-1,6.247771382E-1
2.899017187E0,-2.447443157E-1,2.906838059E-1,6.322339773E-1
2.901504948E0,-2.543317080E-1,2.523343265E-1,6.375603080E-1
2.903992708E0,-2.617885470E-1,2.065279931E-1,6.407560706E-1
2.906480468E0,-2.671148479E-1,1.521995366E-1,6.407560706E-1
2.908968229E0,-2.713759243E-1,9.467530251E-2,6.386255622E-1
2.911455989E0,-2.735064328E-1,3.608580679E-2,6.322339773E-1
2.913943750E0,-2.745717168E-1,-2.250369452E-2,6.226465702E-1
2.916431510E0,-2.756369710E-1,-7.896266878E-2,6.098634601E-1
2.918919271E0,-2.756369710E-1,-1.300953180E-1,5.949497223E-1
2.921407031E0,-2.745717168E-1,-1.769669205E-1,5.789707899E-1
2.923894791E0,-2.735064328E-1,-2.163816839E-1,5.608612895E-1
2.926382552E0,-2.724411786E-1,-2.494048476E-1,5.416865349E-1
2.928870312E0,-2.713759243E-1,-2.771016955E-1,5.203812718E-1
2.931358073E0,-2.724411786E-1,-3.016027808E-1,5.012065172E-1
2.933845833E0,-2.745717168E-1,-3.197122514E-1,4.809665382E-1
2.936333593E0,-2.767022252E-1,-3.335606754E-1,4.617917836E-1
2.938821354E0,-2.809632719E-1,-3.420827985E-1,4.436823130E-1
2.941309114E0,-2.873548567E-1,-3.474090993E-1,4.266380966E-1
2.943796875E0,-2.937464416E-1,-3.463438451E-1,4.117243886E-1
2.946284635E0,-3.022685647E-1,-3.399522603E-1,3.989412189E-1
2.948772396E0,-3.107906580E-1,-3.292996287E-1,3.872233331E-1
2.951260156E0,-3.214432895E-1,-3.154512048E-1,3.765707016E-1
2.953747864E0,-3.331612051E-1,-2.973417044E-1,3.691138625E-1
2.956235573E0,-3.459443748E-1,-2.760364413E-1,3.627222776E-1
2.958723281E0,-3.597927988E-1,-2.536658943E-1,3.563306928E-1
2.961210989E0,-3.747064769E-1,-2.291648388E-1,3.520696461E-1
2.963698698E0,-3.896201849E-1,-2.035985142E-1,3.478085697E-1
2.966186406E0,-4.024033546E-1,-1.769669205E-1,3.435475230E-1
2.968674114E0,-4.162517786E-1,-1.524658650E-1,3.403517306E-1
2.971161823E0,-4.279696643E-1,-1.279647946E-1,3.360906839E-1
2.973649531E0,-4.386222959E-1,-1.066595241E-1,3.318296373E-1
2.976137239E0,-4.482096732E-1,-8.855003864E-2,3.275685608E-1
2.978624948E0,-4.577970505E-1,-7.470161468E-2,3.233075142E-1
2.981112656E0,-4.673844278E-1,-6.511423737E-2,3.190464675E-1
2.983600364E0,-4.769718051E-1,-5.872265995E-2,3.158506751E-1
2.986088073E0,-4.854938984E-1,-5.552686751E-2,3.115896285E-1
2.988575781E0,-4.940160215E-1,-5.552686751E-2,3.062632978E-1
2.991063489E0,-5.014728308E-1,-5.552686751E-2,3.030675054E-1
2.993551198E0,-5.078644156E-1,-5.659212917E-2,3.009369671E-1
2.996038906E0,-5.121254921E-1,-5.765739456E-2,2.988064587E-1
2.998526614E0,-5.142560005E-1,-5.978792161E-2,2.977411747E-1
3.001014323E0,-5.163865685E-1,-6.191844866E-2,2.956106663E-1
3.003502031E0,-5.163865685E-1,-6.511423737E-2,2.934801280E-1
3.005989739E0,-5.142560005E-1,-6.831002980E-2,2.902843356E-1
3.008477448E0,-5.121254921E-1,-7.363634557E-2,2.849580348E-1
3.010965156E0,-5.099949837E-1,-7.789740711E-2,2.806969583E-1
3.013452864E0,-5.046686530E-1,-8.322372288E-2,2.743053734E-1
3.015940573E0,-4.993423223E-1,-8.855003864E-2,2.657832801E-1
3.018428281E0,-4.918854833E-1,-9.494162351E-2,2.561959028E-1
3.020915989E0,-4.822981060E-1,-1.023984700E-1,2.455432713E-1
3.023403698E0,-4.727107286E-1,-1.119858399E-1,2.338253707E-1
3.025891406E0,-4.599275887E-1,-1.247690022E-1,2.210422009E-1
3.028379114E0,-4.460791349E-1,-1.407479644E-1,2.050632536E-1
3.030866823E0,-4.322307110E-1,-1.599227041E-1,1.890842915E-1
3.033354531E0,-4.183822870E-1,-1.812279820E-1,1.699095517E-1
3.035842239E0,-4.024033546E-1,-2.067943066E-1,1.507348120E-1
3.038330000E0,-3.864243925E-1,-2.334259003E-1,1.283642650E-1
3.040817760E0,-3.715106845E-1,-2.589922249E-1,1.059937328E-1
3.043305521E0,-3.565970063E-1,-2.824280262E-1,8.255793154E-2
3.045793281E0,-3.427485824E-1,-3.016027808E-1,5.912213027E-2
3.048281041E0,-3.310306668E-1,-3.154512048E-1,3.462106735E-2
3.050768802E0,-3.203780353E-1,-3.229080439E-1,1.118526794E-2
3.053256562E0,-3.118559420E-1,-3.261038363E-1,-1.118526794E-2
3.055744323E0,-3.033338189E-1,-3.239732981E-1,-3.142527863E-2
3.058232083E0,-2.969422340E-1,-3.175817132E-1,-5.166528746E-2
3.060719843E0,-2.916159332E-1,-3.079943359E-1,-6.870950758E-2
3.063207604E0,-2.873548567E-1,-2.973417044E-1,-8.468846232E-2
3.065695364E0,-2.852243483E-1,-2.866890728E-1,-9.960214794E-2
3.068183125E0,-2.830938101E-1,-2.760364413E-1,-1.113200486E-1
3.070670885E0,-2.820285559E-1,-2.685796022E-1,-1.209074259E-1
3.073158646E0,-2.809632719E-1,-2.632532716E-1,-1.283642650E-1
3.075646406E0,-2.798980176E-1,-2.611227632E-1,-1.347558498E-1
3.078134166E0,-2.777675092E-1,-2.621880174E-1,-1.379516423E-1
3.080621927E0,-2.767022252E-1,-2.653838098E-1,-1.400821656E-1
3.083109687E0,-2.745717168E-1,-2.707101107E-1,-1.390169114E-1
3.085597448E0,-2.713759243E-1,-2.760364413E-1,-1.368863732E-1
3.088085208E0,-2.681801319E-1,-2.802974880E-1,-1.326253265E-1
3.090572968E0,-2.649843395E-1,-2.824280262E-1,-1.262337416E-1
3.093060729E0,-2.628538013E-1,-2.845585644E-1,-1.177116334E-1
3.095548489E0,-2.607232630E-1,-2.845585644E-1,-1.102547869E-1
3.098036250E0,-2.585927546E-1,-2.834932804E-1,-1.006674170E-1
3.100524010E0,-2.564622164E-1,-2.802974880E-1,-9.001477808E-2
3.103011771E0,-2.543317080E-1,-2.771016955E-1,-7.936213911E-2
3.105499531E0,-2.532664239E-1,-2.728406489E-1,-6.764423847E-2
3.107987291E0,-2.522011697E-1,-2.685796022E-1,-5.592634156E-2
3.110475052E0,-2.522011697E-1,-2.643185556E-1,-4.420844093E-2
3.112962812E0,-2.511359155E-1,-2.589922249E-1,-3.249054030E-2
3.115450573E0,-2.522011697E-1,-2.536658943E-1,-2.077264152E-2
3.117938333E0,-2.522011697E-1,-2.472743243E-1,-1.012000442E-2
3.120426093E0,-2.522011697E-1,-2.387522161E-1,-5.326318205E-4
3.122913854E0,-2.522011697E-1,-2.291648388E-1,9.054740891E-3
3.125401614E0,-2.511359155E-1,-2.185122073E-1,1.757685095E-2
3.127889375E0,-2.500706315E-1,-2.078595608E-1,2.503369562E-2
3.130377135E0,-2.468748540E-1,-1.982721984E-1,3.142527863E-2
3.132864896E0,-2.447443157E-1,-1.897500902E-1,3.462106735E-2
3.135352656E0,-2.404832691E-1,-1.833585054E-1,3.781685978E-2
3.137840416E0,-2.362222075E-1,-1.801627129E-1,3.781685978E-2
3.140328177E0,-2.308958918E-1,-1.812279820E-1,3.781685978E-2
3.142815937E0,-2.245043069E-1,-1.854890287E-1,3.462106735E-2
3.145303698E0,-2.170474678E-1,-1.940111369E-1,2.929474972E-2
3.147791458E0,-2.095906287E-1,-2.035985142E-1,2.503369562E-2
3.150279218E0,-2.010685056E-1,-2.153164148E-1,1.864211448E-2
3.152766979E0,-1.914811432E-1,-2.280995846E-1,1.012000442E-2
3.155254739E0,-1.818937659E-1,-2.430132627E-1,1.597895520E-3
3.157742500E0,-1.701758653E-1,-2.579269707E-1,-7.989477366E-3
3.160230260E0,-1.584579647E-1,-2.739059031E-1,-1.757685095E-2
3.162718021E0,-1.478053331E-1,-2.877543271E-1,-2.822948620E-2
3.165205781E0,-1.382179558E-1,-3.005374968E-1,-3.888212144E-2
3.167693541E0,-1.286305785E-1,-3.101248741E-1,-4.953476042E-2
3.170181302E0,-1.211737394E-1,-3.175817132E-1,-5.912213027E-2
3.172669062E0,-1.158474237E-1,-3.197122514E-1,-6.764423847E-2
3.175156823E0,-1.094558388E-1,-3.186469972E-1,-7.403582335E-2
3.177644583E0,-1.041295230E-1,-3.133206666E-1,-7.936213911E-2
3.180132343E0,-9.986846894E-2,-3.058638275E-1,-8.362319320E-2
3.182620104E0,-9.560741484E-2,-2.952111959E-1,-8.575372398E-2
3.185107864E0,-9.028109163E-2,-2.856238186E-1,-8.575372398E-2
3.187595625E0,-8.602003753E-2,-2.749711871E-1,-8.468846232E-2
3.190083385E0,-8.175898343E-2,-2.664490640E-1,-8.149266988E-2
3.192571146E0,-7.643266767E-2,-2.611227632E-1,-7.829687744E-2
3.195058906E0,-7.110634446E-2,-2.568616867E-1,-7.403582335E-2
3.197546666E0,-6.471476704E-2,-2.547311783E-1,-6.977476925E-2
3.200034427E0,-5.938844755E-2,-2.557964325E-1,-6.444845349E-2
3.202522187E0,-5.299686641E-2,-2.600574791E-1,-5.912213027E-2
3.205009948E0,-4.767054692E-2,-2.643185556E-1,-5.486107618E-2
3.207497708E0,-4.340949282E-2,-2.717753947E-1,-5.166528746E-2
3.209985468E0,-3.914843872E-2,-2.792322338E-1,-4.953476042E-2
3.212473229E0,-3.488738462E-2,-2.866890728E-1,-4.740423337E-2
3.214960989E0,-3.275685757E-2,-2.930806577E-1,-4.740423337E-2
3.217448750E0,-3.062633052E-2,-2.994722426E-1,-4.740423337E-2
3.219936510E0,-2.849580161E-2,-3.037332892E-1,-4.846949503E-2
3.222424271E0,-2.636527456E-2,-3.058638275E-1,-5.060002208E-2
3.224912031E0,-2.423474751E-2,-3.079943359E-1,-5.166528746E-2
3.227399791E0,-2.210422046E-2,-3.069290817E-1,-5.486107618E-2
3.229887552E0,-2.103895694E-2,-3.069290817E-1,-5.699160323E-2
3.232375312E0,-1.997369342E-2,-3.079943359E-1,-5.912213027E-2
3.234863073E0,-1.890842989E-2,-3.090596199E-1,-6.018739566E-2
3.237350833E0,-1.890842989E-2,-3.122554123E-1,-6.125266105E-2
3.239838593E0,-1.997369342E-2,-3.154512048E-1,-6.018739566E-2
3.242326354E0,-2.210422046E-2,-3.175817132E-1,-5.805686861E-2
3.244814114E0,-2.423474751E-2,-3.175817132E-1,-5.486107618E-2
3.247301875E0,-2.743053809E-2,-3.154512048E-1,-5.060002208E-2
3.249789635E0,-3.062633052E-2,-3.111901283E-1,-4.420844093E-2
3.252277396E0,-3.275685757E-2,-3.047985733E-1,-3.781685978E-2
3.254765156E0,-3.595264629E-2,-2.962764502E-1,-2.929474972E-2
3.257252916E0,-3.808317333E-2,-2.866890728E-1,-2.077264152E-2
3.259740677E0,-3.701791167E-2,-2.781669796E-1,-1.225053146E-2
3.262228437E0,-3.808317333E-2,-2.696448565E-1,-3.728422802E-3
3.264716146E0,-3.808317333E-2,-2.643185556E-1,2.663159044E-3
3.267203854E0,-3.701791167E-2,-2.611227632E-1,9.054740891E-3
3.269691562E0,-3.701791167E-2,-2.600574791E-1,1.438105945E-2
3.272179271E0,-3.488738462E-2,-2.621880174E-1,1.864211448E-2
3.274666979E0,-3.382211924E-2,-2.643185556E-1,2.290316857E-2
3.277154687E0,-3.275685757E-2,-2.685796022E-1,2.503369562E-2
3.279642396E0,-3.062633052E-2,-2.728406489E-1,2.716422267E-2
3.282130104E0,-2.849580161E-2,-2.760364413E-1,2.822948620E-2
3.284617812E0,-2.530001104E-2,-2.792322338E-1,2.822948620E-2
3.287105521E0,-2.316948399E-2,-2.792322338E-1,2.929474972E-2
3.289593229E0,-2.103895694E-2,-2.792322338E-1,2.929474972E-2
3.292080937E0,-1.997369342E-2,-2.771016955E-1,2.822948620E-2
3.294568646E0,-1.890842989E-2,-2.739059031E-1,2.822948620E-2
3.297056354E0,-1.784316637E-2,-2.707101107E-1,2.716422267E-2
3.299544062E0,-1.784316637E-2,-2.685796022E-1,2.716422267E-2
3.302031771E0,-1.677790284E-2,-2.675143182E-1,2.716422267E-2
3.304519479E0,-1.677790284E-2,-2.685796022E-1,2.716422267E-2
3.307007187E0,-1.571263932E-2,-2.728406489E-1,2.716422267E-2
3.309494896E0,-1.464737486E-2,-2.792322338E-1,2.716422267E-2
3.311982604E0,-1.358211134E-2,-2.856238186E-1,2.716422267E-2
3.314470312E0,-1.251684781E-2,-2.941459119E-1,2.716422267E-2
3.316958021E0,-1.145158429E-2,-3.016027808E-1,2.609895915E-2
3.319445729E0,-1.038632076E-2,-3.079943359E-1,2.396843210E-2
3.321933437E0,-9.321057238E-3,-3.133206666E-1,2.183790505E-2
3.324421146E0,-9.321057238E-3,-3.154512048E-1,1.970737800E-2
3.326908854E0,-9.321057238E-3,-3.143859208E-1,1.757685095E-2
3.329396562E0,-1.038632076E-2,-3.122554123E-1,1.331579592E-2
3.331884271E0,-1.251684781E-2,-3.069290817E-1,1.012000442E-2
3.334371979E0,-1.358211134E-2,-2.984069884E-1,6.924213842E-3
3.336859687E0,-1.571263932E-2,-2.888196111E-1,2.663159044E-3
3.339347396E0,-1.677790284E-2,-2.781669796E-1,-5.326318205E-4
3.341835104E0,-1.571263932E-2,-2.675143182E-1,-2.663159044E-3
3.344322812E0,-1.677790284E-2,-2.557964325E-1,-4.793686327E-3
3.346810573E0,-1.571263932E-2,-2.451438010E-1,-6.924213842E-3
3.349298333E0,-1.571263932E-2,-2.344911546E-1,-7.989477366E-3
3.351786093E0,-1.464737486E-2,-2.238385230E-1,-7.989477366E-3
3.354273854E0,-1.464737486E-2,-2.142511457E-1,-7.989477366E-3
3.356761614E0,-1.358211134E-2,-2.067943066E-1,-7.989477366E-3
3.359249375E0,-1.358211134E-2,-2.004027218E-1,-6.924213842E-3
3.361737135E0,-1.358211134E-2,-1.972069293E-1,-6.924213842E-3
3.364224896E0,-1.358211134E-2,-1.940111369E-1,-5.858949851E-3
3.366712656E0,-1.358211134E-2,-1.929458827E-1,-4.793686327E-3
3.369200416E0,-1.358211134E-2,-1.940111369E-1,-3.728422802E-3
3.371688177E0,-1.358211134E-2,-1.961416751E-1,-2.663159044E-3
3.374175937E0,-1.358211134E-2,-1.993374527E-1,-2.663159044E-3
3.376663698E0,-1.358211134E-2,-2.014679909E-1,-1.597895520E-3
3.379151458E0,-1.358211134E-2,-2.035985142E-1,-1.597895520E-3
3.381639218E0,-1.358211134E-2,-2.057290375E-1,-1.597895520E-3
3.384126979E0,-1.358211134E-2,-2.035985142E-1,-1.597895520E-3
3.386614739E0,-1.464737486E-2,-2.004027218E-1,-5.326318205E-4
3.389102500E0,-1.677790284E-2,-1.950764060E-1,-1.597895520E-3
3.391590260E0,-1.997369342E-2,-1.865542978E-1,-2.663159044E-3
3.394078021E0,-2.316948399E-2,-1.748363972E-1,-3.728422802E-3
3.396565781E0,-2.636527456E-2,-1.609879732E-1,-3.728422802E-3
3.399053541E0,-2.956106514E-2,-1.450090110E-1,-2.663159044E-3
3.401541302E0,-3.275685757E-2,-1.268995255E-1,-1.597895520E-3
3.404029062E0,-3.595264629E-2,-1.098553166E-1,5.326318205E-4
3.406516823E0,-3.808317333E-2,-9.174583107E-2,2.663159044E-3
3.409004583E0,-4.021370411E-2,-7.470161468E-2,5.858949851E-3
3.411492343E0,-4.127896577E-2,-5.872265995E-2,7.989477366E-3
3.413980104E0,-4.340949282E-2,-4.487423226E-2,1.118526794E-2
3.416467864E0,-4.340949282E-2,-3.528685868E-2,1.544632297E-2
3.418955625E0,-4.447475821E-2,-2.676474862E-2,1.757685095E-2
3.421443385E0,-4.554001987E-2,-2.037316747E-2,1.970737800E-2
3.423931146E0,-4.554001987E-2,-1.504684892E-2,2.077264152E-2
3.426418906E0,-4.554001987E-2,-1.185105834E-2,2.183790505E-2
3.428906666E0,-4.767054692E-2,-8.655266836E-3,2.290316857E-2
3.431394427E0,-4.767054692E-2,-5.459476262E-3,2.396843210E-2
3.433882187E0,-4.980107397E-2,-3.328948980E-3,2.503369562E-2
3.436369948E0,-5.086633936E-2,-1.331579551E-4,2.503369562E-2
3.438857708E0,-5.193160102E-2,1.997369342E-3,2.396843210E-2
3.441345468E0,-5.193160102E-2,4.127896391E-3,2.396843210E-2
3.443833229E0,-5.193160102E-2,4.127896391E-3,2.503369562E-2
3.446320989E0,-5.299686641E-2,4.127896391E-3,2.503369562E-2
3.448808750E0,-5.406212807E-2,3.062632866E-3,2.716422267E-2
3.451296510E0,-5.406212807E-2,-1.331579551E-4,2.716422267E-2
3.453784271E0,-5.512739345E-2,-4.394212738E-3,2.929474972E-2
3.456272031E0,-5.619265884E-2,-7.590003312E-3,3.142527863E-2
3.458759791E0,-5.619265884E-2,-1.185105834E-2,3.355580568E-2
3.461247552E0,-5.619265884E-2,-1.504684892E-2,3.675159439E-2
3.463735312E0,-5.619265884E-2,-1.824264042E-2,3.888212144E-2
3.466223073E0,-5.619265884E-2,-2.037316747E-2,4.101264849E-2
3.468710833E0,-5.512739345E-2,-2.356895804E-2,4.314317927E-2
3.471198593E0,-5.512739345E-2,-2.569948509E-2,4.527370632E-2
3.473686354E0,-5.406212807E-2,-2.783001214E-2,4.527370632E-2
3.476174114E0,-5.299686641E-2,-2.996053919E-2,4.527370632E-2
3.478661875E0,-5.299686641E-2,-3.209106624E-2,4.527370632E-2
3.481149635E0,-5.086633936E-2,-3.422159329E-2,4.420844093E-2
3.483637396E0,-4.980107397E-2,-3.528685868E-2,4.314317927E-2
3.486125156E0,-4.873581231E-2,-3.635212034E-2,4.207791388E-2
3.488612916E0,-4.660528526E-2,-3.528685868E-2,3.994738683E-2
3.491100677E0,-4.554001987E-2,-3.315633163E-2,3.888212144E-2
3.493588437E0,-4.447475821E-2,-3.102580272E-2,3.675159439E-2
3.496076198E0,-4.340949282E-2,-2.676474862E-2,3.568633273E-2
3.498563958E0,-4.234423116E-2,-2.250369452E-2,3.462106735E-2
3.501051718E0,-4.234423116E-2,-1.717737690E-2,3.462106735E-2
3.503539479E0,-4.127896577E-2,-1.078579482E-2,3.462106735E-2
3.506027239E0,-4.021370411E-2,-3.328948980E-3,3.462106735E-2
3.508515000E0,-3.914843872E-2,4.127896391E-3,3.462106735E-2
3.511002760E0,-3.808317333E-2,1.158474199E-2,3.568633273E-2
3.513490521E0,-3.701791167E-2,1.797632314E-2,3.568633273E-2
3.515978281E0,-3.701791167E-2,2.436790615E-2,3.568633273E-2
3.518466041E0,-3.701791167E-2,2.969422378E-2,3.675159439E-2
3.520953802E0,-3.808317333E-2,3.502054140E-2,3.781685978E-2
3.523441562E0,-3.808317333E-2,3.928159550E-2,3.781685978E-2
3.525929323E0,-3.914843872E-2,4.460791498E-2,3.994738683E-2
3.528417083E0,-3.808317333E-2,4.886896908E-2,4.207791388E-2
3.530904843E0,-3.701791167E-2,5.206476152E-2,4.420844093E-2
3.533392604E0,-3.488738462E-2,5.419528857E-2,4.527370632E-2
3.535880364E0,-3.169159219E-2,5.526055023E-2,4.633896798E-2
3.538368125E0,-2.849580161E-2,5.419528857E-2,4.633896798E-2
3.540855885E0,-2.423474751E-2,4.993423447E-2,4.633896798E-2
3.543343646E0,-2.210422046E-2,4.460791498E-2,4.633896798E-2
3.545831406E0,-1.784316637E-2,3.715106845E-2,4.527370632E-2
3.548319166E0,-1.571263932E-2,2.969422378E-2,4.420844093E-2
3.550806927E0,-1.358211134E-2,2.010685205E-2,4.207791388E-2
3.553294687E0,-1.038632076E-2,1.158474199E-2,4.101264849E-2
3.555782448E0,-8.255792782E-3,3.062632866E-3,3.994738683E-2
3.558270208E0,-3.994738683E-3,-4.394212738E-3,3.888212144E-2
3.560757968E0,-7.989477599E-4,-1.078579482E-2,3.781685978E-2
3.563245729E0,2.396843163E-3,-1.611211337E-2,3.781685978E-2
3.565733489E0,6.657897960E-3,-2.037316747E-2,3.781685978E-2
3.568221250E0,9.853689000E-3,-2.569948509E-2,3.781685978E-2
3.570709010E0,1.304947957E-2,-2.889527567E-2,3.675159439E-2
3.573196771E0,1.624527015E-2,-3.315633163E-2,3.568633273E-2
3.575684531E0,1.837579720E-2,-3.635212034E-2,3.568633273E-2
3.578172291E0,2.157158963E-2,-3.848264739E-2,3.462106735E-2
3.580660052E0,2.370211668E-2,-3.954791278E-2,3.462106735E-2
3.583147812E0,2.583264373E-2,-3.848264739E-2,3.355580568E-2
3.585635573E0,2.796317078E-2,-3.635212034E-2,3.249054030E-2
3.588123281E0,3.009369783E-2,-3.209106624E-2,3.142527863E-2
3.590610989E0,3.222422674E-2,-2.783001214E-2,3.142527863E-2
3.593098698E0,3.222422674E-2,-2.143843099E-2,3.036001325E-2
3.595586406E0,3.328948840E-2,-1.504684892E-2,2.929474972E-2
3.598074114E0,3.435475379E-2,-9.720530361E-3,2.822948620E-2
3.600561823E0,3.542001545E-2,-5.459476262E-3,2.716422267E-2
3.603049531E0,3.542001545E-2,-2.263685223E-3,2.609895915E-2
3.605537239E0,3.648528084E-2,9.321057005E-4,2.503369562E-2
3.608024948E0,3.755054250E-2,9.321057005E-4,2.503369562E-2
3.610512656E0,3.861580789E-2,9.321057005E-4,2.396843210E-2
3.613000364E0,3.861580789E-2,9.321057005E-4,2.503369562E-2
3.615488073E0,3.968106955E-2,9.321057005E-4,2.503369562E-2
3.617975781E0,4.074633494E-2,-1.331579551E-4,2.716422267E-2
3.620463489E0,4.074633494E-2,9.321057005E-4,2.822948620E-2
3.622951198E0,4.181159660E-2,9.321057005E-4,3.036001325E-2
3.625438906E0,4.181159660E-2,1.997369342E-3,3.142527863E-2
3.627926614E0,4.287686199E-2,4.127896391E-3,3.249054030E-2
3.630414323E0,4.394212365E-2,5.193160381E-3,3.355580568E-2
3.632902031E0,4.394212365E-2,5.193160381E-3,3.462106735E-2
3.635389739E0,4.500738904E-2,7.323687430E-3,3.568633273E-2
3.637877448E0,4.500738904E-2,8.388951421E-3,3.675159439E-2
3.640365156E0,4.500738904E-2,9.454214945E-3,3.675159439E-2
3.642852864E0,4.500738904E-2,1.265000552E-2,3.781685978E-2
3.645340573E0,4.607265070E-2,1.584579609E-2,3.888212144E-2
3.647828281E0,4.713791609E-2,1.797632314E-2,3.888212144E-2
3.650315989E0,4.607265070E-2,2.223737910E-2,3.888212144E-2
3.652803698E0,4.607265070E-2,2.543316968E-2,3.994738683E-2
3.655291406E0,4.607265070E-2,2.969422378E-2,3.994738683E-2
3.657779114E0,4.607265070E-2,3.395527974E-2,3.994738683E-2
3.660266823E0,4.607265070E-2,3.821633384E-2,3.994738683E-2
3.662754531E0,4.713791609E-2,4.034686089E-2,3.994738683E-2
3.665242239E0,4.820318148E-2,4.247738793E-2,3.994738683E-2
3.667729948E0,4.926844314E-2,4.460791498E-2,3.888212144E-2
3.670217708E0,4.820318148E-2,4.460791498E-2,3.888212144E-2
3.672705468E0,4.926844314E-2,4.460791498E-2,3.888212144E-2
3.675193229E0,4.926844314E-2,4.460791498E-2,3.781685978E-2
3.677680989E0,4.926844314E-2,4.460791498E-2,3.675159439E-2
3.680168750E0,4.926844314E-2,4.567318037E-2,3.568633273E-2
3.682656510E0,4.926844314E-2,4.567318037E-2,3.355580568E-2
3.685144271E0,4.926844314E-2,4.780370742E-2,3.142527863E-2
3.687632031E0,4.820318148E-2,4.993423447E-2,2.822948620E-2
3.690119791E0,4.713791609E-2,5.313002318E-2,2.503369562E-2
3.692607552E0,4.607265070E-2,5.632581562E-2,2.183790505E-2
3.695095312E0,4.394212365E-2,6.058686972E-2,1.864211448E-2
3.697583073E0,4.181159660E-2,6.484792382E-2,1.438105945E-2
3.700070833E0,3.968106955E-2,6.804371625E-2,1.118526794E-2
3.702558593E0,3.648528084E-2,7.230477035E-2,7.989477366E-3
3.705046354E0,3.435475379E-2,7.550056279E-2,4.793686327E-3
3.707534114E0,3.328948840E-2,7.763108611E-2,1.597895520E-3
3.710021875E0,3.115896136E-2,7.976161689E-2,-5.326318205E-4
3.712509635E0,3.009369783E-2,8.082687855E-2,-2.663159044E-3
3.714997396E0,2.902843431E-2,8.082687855E-2,-3.728422802E-3
3.717485156E0,2.796317078E-2,8.189214021E-2,-3.728422802E-3
3.719972916E0,2.689790726E-2,8.402267098E-2,-4.793686327E-3
3.722460677E0,2.689790726E-2,8.615319431E-2,-4.793686327E-3
3.724948437E0,2.583264373E-2,8.828372508E-2,-3.728422802E-3
3.727436198E0,2.583264373E-2,9.147951752E-2,-2.663159044E-3
3.729923958E0,2.476738021E-2,9.574057162E-2,-1.597895520E-3
3.732411718E0,2.476738021E-2,1.000016257E-1,5.326318205E-4
3.734899479E0,2.476738021E-2,1.042626798E-1,5.326318205E-4
3.737387239E0,2.476738021E-2,1.085237339E-1,5.326318205E-4
3.739875000E0,2.476738021E-2,1.117195264E-1,5.326318205E-4
3.742362760E0,2.476738021E-2,1.149153188E-1,5.326318205E-4
3.744850521E0,2.476738021E-2,1.181111038E-1,-5.326318205E-4
3.747338281E0,2.476738021E-2,1.213068962E-1,-1.597895520E-3
3.749826041E0,2.476738021E-2,1.234374270E-1,-3.728422802E-3
3.752313802E0,2.476738021E-2,1.234374270E-1,-5.858949851E-3
3.754801562E0,2.583264373E-2,1.245026886E-1,-7.989477366E-3
3.757289323E0,2.476738021E-2,1.245026886E-1,-1.012000442E-2
3.759777083E0,2.476738021E-2,1.234374270E-1,-1.118526794E-2
3.762264843E0,2.370211668E-2,1.191763729E-1,-1.331579592E-2
3.764752604E0,2.370211668E-2,1.159805804E-1,-1.438105945E-2
3.767240364E0,2.263685316E-2,1.106542572E-1,-1.651158556E-2
3.769728125E0,2.263685316E-2,1.053279415E-1,-1.864211448E-2
3.772215885E0,2.157158963E-2,1.000016257E-1,-2.077264152E-2
3.774703646E0,2.157158963E-2,9.467530251E-2,-2.290316857E-2
3.777191406E0,2.157158963E-2,9.254477918E-2,-2.503369562E-2
3.779679166E0,2.157158963E-2,9.147951752E-2,-2.822948620E-2
3.782166927E0,2.157158963E-2,9.147951752E-2,-3.142527863E-2
3.784654687E0,2.050632425E-2,9.467530251E-2,-3.462106735E-2
3.787142448E0,1.944106072E-2,9.893636405E-2,-3.675159439E-2
3.789630208E0,1.837579720E-2,1.042626798E-1,-3.888212144E-2
3.792117968E0,1.731053367E-2,1.095889956E-1,-4.101264849E-2
3.794605729E0,1.624527015E-2,1.159805804E-1,-4.314317927E-2
3.797093489E0,1.518000662E-2,1.202416345E-1,-4.420844093E-2
3.799581250E0,1.304947957E-2,1.255679578E-1,-4.633896798E-2
3.802069010E0,1.198421605E-2,1.287637353E-1,-4.740423337E-2
3.804556771E0,1.091895252E-2,1.330247968E-1,-4.846949503E-2
3.807044531E0,8.788425475E-3,1.362205893E-1,-4.740423337E-2
3.809532291E0,7.723161485E-3,1.404816359E-1,-4.633896798E-2
3.812020052E0,6.657897960E-3,1.436774284E-1,-4.420844093E-2
3.814507812E0,6.657897960E-3,1.468732208E-1,-4.207791388E-2
3.816995573E0,5.592633970E-3,1.521995366E-1,-3.994738683E-2
3.819483333E0,5.592633970E-3,1.553953290E-1,-3.781685978E-2
3.821971093E0,4.527370445E-3,1.585911214E-1,-3.568633273E-2
3.824458854E0,3.462106921E-3,1.596563905E-1,-3.355580568E-2
3.826946614E0,1.331579522E-3,1.607216448E-1,-3.142527863E-2
3.829434375E0,2.663159103E-4,1.617869139E-1,-3.036001325E-2
3.831922135E0,-7.989477599E-4,1.617869139E-1,-2.929474972E-2
3.834409896E0,-7.989477599E-4,1.628521830E-1,-2.716422267E-2
3.836897656E0,-1.864211401E-3,1.628521830E-1,-2.716422267E-2
3.839385416E0,-1.864211401E-3,1.649827063E-1,-2.716422267E-2
3.841873177E0,-1.864211401E-3,1.671132296E-1,-2.716422267E-2
3.844360937E0,-2.929474926E-3,1.724395454E-1,-2.716422267E-2
3.846848698E0,-3.994738683E-3,1.798963994E-1,-2.716422267E-2
3.849336458E0,-5.060002208E-3,1.884185076E-1,-2.822948620E-2
3.851824218E0,-7.190529723E-3,1.969406158E-1,-2.822948620E-2
3.854311979E0,-8.255792782E-3,2.065279931E-1,-2.929474972E-2
3.856799739E0,-1.145158429E-2,2.171806246E-1,-2.822948620E-2
3.859287500E0,-1.251684781E-2,2.267680019E-1,-2.822948620E-2
3.861775260E0,-1.464737486E-2,2.352901101E-1,-2.822948620E-2
3.864263021E0,-1.464737486E-2,2.427469492E-1,-2.822948620E-2
3.866750781E0,-1.464737486E-2,2.512690723E-1,-2.822948620E-2
3.869238541E0,-1.571263932E-2,2.576606572E-1,-2.609895915E-2
3.871726302E0,-1.571263932E-2,2.629869580E-1,-2.609895915E-2
3.874214062E0,-1.677790284E-2,2.672480047E-1,-2.396843210E-2
3.876701823E0,-1.677790284E-2,2.715090811E-1,-2.290316857E-2
3.879189583E0,-1.677790284E-2,2.747048736E-1,-2.183790505E-2
3.881677343E0,-1.784316637E-2,2.757701278E-1,-2.077264152E-2
3.884165104E0,-1.890842989E-2,2.747048736E-1,-1.864211448E-2
3.886652864E0,-2.103895694E-2,2.715090811E-1,-1.864211448E-2
3.889140625E0,-2.103895694E-2,2.651174963E-1,-1.757685095E-2
3.891628385E0,-2.210422046E-2,2.576606572E-1,-1.651158556E-2
3.894116146E0,-1.997369342E-2,2.480732650E-1,-1.544632297E-2
3.896603906E0,-1.890842989E-2,2.374206334E-1,-1.438105945E-2
3.899091666E0,-1.784316637E-2,2.257027328E-1,-1.438105945E-2
3.901579427E0,-1.784316637E-2,2.139848322E-1,-1.331579592E-2
3.904067187E0,-1.677790284E-2,2.022669315E-1,-1.225053146E-2
3.906554948E0,-1.677790284E-2,1.905490309E-1,-1.225053146E-2
3.909042708E0,-1.571263932E-2,1.788311303E-1,-1.012000442E-2
3.911530468E0,-1.464737486E-2,1.681784987E-1,-9.054740891E-3
3.914018229E0,-1.358211134E-2,1.575258672E-1,-9.054740891E-3
3.916505989E0,-1.145158429E-2,1.490037590E-1,-1.012000442E-2
3.918993750E0,-9.321057238E-3,1.415469050E-1,-1.012000442E-2
3.921481510E0,-7.190529723E-3,1.362205893E-1,-1.118526794E-2
3.923969271E0,-3.994738683E-3,1.308942735E-1,-1.225053146E-2
3.926457031E0,-1.864211401E-3,1.276984811E-1,-1.438105945E-2
3.928944791E0,-7.989477599E-4,1.255679578E-1,-1.544632297E-2
3.931432552E0,2.663159103E-4,1.245026886E-1,-1.757685095E-2
3.933920260E0,1.331579522E-3,1.234374270E-1,-1.970737800E-2
3.936407968E0,2.396843163E-3,1.234374270E-1,-2.077264152E-2
3.938895677E0,3.462106921E-3,1.245026886E-1,-2.290316857E-2
3.941383385E0,3.462106921E-3,1.266332120E-1,-2.290316857E-2
3.943871093E0,3.462106921E-3,1.287637353E-1,-2.396843210E-2
3.946358802E0,2.396843163E-3,1.330247968E-1,-2.396843210E-2
3.948846510E0,1.331579522E-3,1.383511126E-1,-2.396843210E-2
3.951334218E0,1.331579522E-3,1.436774284E-1,-2.290316857E-2
3.953821927E0,1.331579522E-3,1.490037590E-1,-2.183790505E-2
3.956309635E0,2.663159103E-4,1.543300748E-1,-1.970737800E-2
3.958797343E0,2.663159103E-4,1.575258672E-1,-1.970737800E-2
3.961285052E0,2.663159103E-4,1.596563905E-1,-1.757685095E-2
3.963772760E0,2.663159103E-4,1.617869139E-1,-1.544632297E-2
3.966260468E0,2.663159103E-4,1.617869139E-1,-1.438105945E-2
3.968748177E0,2.663159103E-4,1.596563905E-1,-1.331579592E-2
3.971235885E0,2.663159103E-4,1.564605981E-1,-1.118526794E-2
3.973723593E0,1.331579522E-3,1.521995366E-1,-9.054740891E-3
3.976211302E0,2.396843163E-3,1.468732208E-1,-6.924213842E-3
3.978699010E0,2.396843163E-3,1.404816359E-1,-4.793686327E-3
3.981186718E0,3.462106921E-3,1.340900660E-1,-3.728422802E-3
3.983674427E0,2.396843163E-3,1.266332120E-1,-5.326318205E-4
3.986162135E0,3.462106921E-3,1.191763729E-1,5.326318205E-4
3.988649843E0,4.527370445E-3,1.117195264E-1,2.663159044E-3
3.991137552E0,5.592633970E-3,1.042626798E-1,3.728422802E-3
3.993625260E0,7.723161485E-3,9.680583328E-2,4.793686327E-3
3.996112968E0,7.723161485E-3,8.934898674E-2,5.858949851E-3
3.998600677E0,9.853689000E-3,8.295740932E-2,5.858949851E-3
4.001088385E0,1.091895252E-2,7.550056279E-2,5.858949851E-3
4.003576093E0,1.198421605E-2,6.910897791E-2,4.793686327E-3
4.006063802E0,1.198421605E-2,6.165213138E-2,3.728422802E-3
4.008551510E0,1.091895252E-2,5.526055023E-2,2.663159044E-3
4.011039218E0,9.853689000E-3,4.673844203E-2,1.597895520E-3
4.013526979E0,8.788425475E-3,3.928159550E-2,5.326318205E-4
4.016014739E0,7.723161485E-3,3.182475269E-2,-5.326318205E-4
4.018502500E0,7.723161485E-3,2.436790615E-2,-1.597895520E-3
4.020990260E0,6.657897960E-3,2.010685205E-2,-1.597895520E-3
4.023478021E0,6.657897960E-3,1.584579609E-2,-2.663159044E-3
4.025965781E0,7.723161485E-3,1.265000552E-2,-2.663159044E-3
4.028453541E0,7.723161485E-3,1.051947847E-2,-4.793686327E-3
4.030941302E0,8.788425475E-3,8.388951421E-3,-5.858949851E-3
4.033429062E0,1.091895252E-2,8.388951421E-3,-6.924213842E-3
4.035916823E0,1.091895252E-2,8.388951421E-3,-9.054740891E-3
4.038404583E0,1.091895252E-2,8.388951421E-3,-1.118526794E-2
4.040892343E0,9.853689000E-3,1.051947847E-2,-1.225053146E-2
4.043380104E0,8.788425475E-3,1.158474199E-2,-1.331579592E-2
4.045867864E0,6.657897960E-3,1.371526904E-2,-1.438105945E-2
4.048355625E0,6.657897960E-3,1.584579609E-2,-1.544632297E-2
4.050843385E0,4.527370445E-3,1.904158667E-2,-1.544632297E-2
4.053331146E0,3.462106921E-3,2.223737910E-2,-1.544632297E-2
4.055818906E0,4.527370445E-3,2.649843320E-2,-1.438105945E-2
4.058306666E0,5.592633970E-3,3.075948730E-2,-1.331579592E-2
4.060794427E0,6.657897960E-3,3.608580679E-2,-1.438105945E-2
4.063282187E0,6.657897960E-3,4.034686089E-2,-1.225053146E-2
4.065769948E0,7.723161485E-3,4.567318037E-2,-1.012000442E-2
4.068257708E0,7.723161485E-3,5.099949613E-2,-1.012000442E-2
4.070745468E0,7.723161485E-3,5.419528857E-2,-7.989477366E-3
4.073233229E0,6.657897960E-3,5.739107728E-2,-6.924213842E-3
4.075720989E0,6.657897960E-3,6.058686972E-2,-6.924213842E-3
4.078208750E0,6.657897960E-3,6.058686972E-2,-5.858949851E-3
4.080696510E0,6.657897960E-3,6.165213138E-2,-6.924213842E-3
4.083184271E0,7.723161485E-3,6.058686972E-2,-7.989477366E-3
4.085672031E0,7.723161485E-3,5.952160433E-2,-9.054740891E-3
4.088159791E0,7.723161485E-3,5.739107728E-2,-1.012000442E-2
4.090647552E0,7.723161485E-3,5.526055023E-2,-1.118526794E-2
4.093135312E0,8.788425475E-3,5.206476152E-2,-1.331579592E-2
4.095623073E0,8.788425475E-3,4.780370742E-2,-1.651158556E-2
4.098110833E0,8.788425475E-3,4.247738793E-2,-1.970737800E-2
4.100598593E0,8.788425475E-3,3.608580679E-2,-2.290316857E-2
4.103086354E0,7.723161485E-3,2.969422378E-2,-2.609895915E-2
4.105574114E0,6.657897960E-3,2.117211558E-2,-2.929474972E-2
4.108061875E0,5.592633970E-3,1.265000552E-2,-3.249054030E-2
4.110549635E0,4.527370445E-3,3.062632866E-3,-3.675159439E-2
4.113037396E0,3.462106921E-3,-7.590003312E-3,-3.888212144E-2
4.115525156E0,2.396843163E-3,-1.824264042E-2,-4.314317927E-2
4.118012916E0,2.396843163E-3,-2.783001214E-2,-4.633896798E-2
4.120500677E0,1.331579522E-3,-3.741738573E-2,-4.846949503E-2
4.122988437E0,1.331579522E-3,-4.593949392E-2,-5.060002208E-2
4.125476198E0,1.331579522E-3,-5.339634046E-2,-5.273054913E-2
4.127963958E0,2.663159103E-4,-5.872265995E-2,-5.379581451E-2
4.130451718E0,-7.989477599E-4,-6.191844866E-2,-5.486107618E-2
4.132939479E0,-2.929474926E-3,-6.298371404E-2,-5.486107618E-2
4.135427239E0,-5.060002208E-3,-6.191844866E-2,-5.486107618E-2
4.137915000E0,-9.321057238E-3,-5.765739456E-2,-5.486107618E-2
4.140402760E0,-1.251684781E-2,-5.020054802E-2,-5.379581451E-2
4.142890521E0,-1.784316637E-2,-3.848264739E-2,-5.379581451E-2
4.145378281E0,-2.316948399E-2,-2.569948509E-2,-5.379581451E-2
4.147866041E0,-2.956106514E-2,-9.720530361E-3,-5.273054913E-2
4.150353802E0,-3.382211924E-2,8.388951421E-3,-5.060002208E-2
4.152841562E0,-3.914843872E-2,2.649843320E-2,-4.846949503E-2
4.155329323E0,-4.340949282E-2,4.460791498E-2,-4.633896798E-2
4.157817083E0,-4.767054692E-2,6.165213138E-2,-4.420844093E-2
4.160304843E0,-5.193160102E-2,7.656582445E-2,-4.207791388E-2
4.162792604E0,-5.512739345E-2,8.828372508E-2,-3.994738683E-2
4.165280364E0,-5.938844755E-2,9.893636405E-2,-3.675159439E-2
4.167768125E0,-6.258423626E-2,1.063932031E-1,-3.462106735E-2
4.170255885E0,-6.684529036E-2,1.127847880E-1,-3.249054030E-2
4.172743646E0,-7.110634446E-2,1.159805804E-1,-3.142527863E-2
4.175231406E0,-7.430213690E-2,1.191763729E-1,-2.929474972E-2
4.177719166E0,-7.749792933E-2,1.202416345E-1,-2.929474972E-2
4.180206927E0,-8.069372177E-2,1.202416345E-1,-2.929474972E-2
4.182694687E0,-8.388951421E-2,1.191763729E-1,-3.142527863E-2
4.185182448E0,-8.708529919E-2,1.159805804E-1,-3.355580568E-2
4.187670208E0,-9.028109163E-2,1.127847880E-1,-3.568633273E-2
4.190157968E0,-9.241162241E-2,1.085237339E-1,-3.888212144E-2
4.192645729E0,-9.454214573E-2,1.042626798E-1,-4.314317927E-2
4.195133489E0,-9.773793817E-2,1.000016257E-1,-4.633896798E-2
4.197621250E0,-1.009337306E-1,9.574057162E-2,-5.060002208E-2
4.200109010E0,-1.041295230E-1,9.361004084E-2,-5.486107618E-2
4.202596771E0,-1.073253155E-1,9.041424841E-2,-5.805686861E-2
4.205084531E0,-1.115863696E-1,8.828372508E-2,-6.125266105E-2
4.207572291E0,-1.158474237E-1,8.721846342E-2,-6.444845349E-2
4.210060052E0,-1.201084778E-1,8.721846342E-2,-6.657897681E-2
4.212547812E0,-1.254348010E-1,8.615319431E-2,-6.870950758E-2
4.215035573E0,-1.286305785E-1,8.721846342E-2,-6.870950758E-2
4.217523333E0,-1.328916401E-1,8.934898674E-2,-6.870950758E-2
4.220011093E0,-1.392832249E-1,9.041424841E-2,-6.977476925E-2
4.222498854E0,-1.446095407E-1,9.361004084E-2,-6.977476925E-2
4.224986614E0,-1.510011256E-1,9.574057162E-2,-6.764423847E-2
4.227474375E0,-1.573926955E-1,9.893636405E-2,-6.657897681E-2
4.229962135E0,-1.637842804E-1,1.021321490E-1,-6.657897681E-2
4.232449896E0,-1.691105962E-1,1.053279415E-1,-6.444845349E-2
4.234937656E0,-1.744369268E-1,1.085237339E-1,-6.444845349E-2
4.237425416E0,-1.786979735E-1,1.106542572E-1,-6.444845349E-2
4.239913177E0,-1.850895584E-1,1.127847880E-1,-6.444845349E-2
4.242400937E0,-1.893506050E-1,1.149153188E-1,-6.551371515E-2
4.244888698E0,-1.946769357E-1,1.149153188E-1,-6.764423847E-2
4.247376458E0,-1.989379823E-1,1.170458421E-1,-6.764423847E-2
4.249864218E0,-2.031990439E-1,1.181111038E-1,-6.870950758E-2
4.252351979E0,-2.074600905E-1,1.202416345E-1,-6.977476925E-2
4.254839739E0,-2.127864063E-1,1.223721579E-1,-7.190529257E-2
4.257327500E0,-2.170474678E-1,1.245026886E-1,-7.297056168E-2
4.259815260E0,-2.223737836E-1,1.255679578E-1,-7.403582335E-2
4.262303021E0,-2.266348451E-1,1.266332120E-1,-7.403582335E-2
4.264790781E0,-2.308958918E-1,1.266332120E-1,-7.510108501E-2
4.267278541E0,-2.351569533E-1,1.266332120E-1,-7.723161578E-2
4.269766302E0,-2.394180000E-1,1.255679578E-1,-7.723161578E-2
4.272254062E0,-2.436790615E-1,1.245026886E-1,-7.723161578E-2
4.274741823E0,-2.490053773E-1,1.223721579E-1,-7.616634667E-2
4.277229583E0,-2.532664239E-1,1.191763729E-1,-7.616634667E-2
4.279717343E0,-2.585927546E-1,1.159805804E-1,-7.616634667E-2
4.282205104E0,-2.628538013E-1,1.117195264E-1,-7.403582335E-2
4.284692864E0,-2.671148479E-1,1.063932031E-1,-7.297056168E-2
4.287180625E0,-2.713759243E-1,1.021321490E-1,-7.190529257E-2
4.289668385E0,-2.756369710E-1,9.680583328E-2,-7.084003091E-2
4.292156093E0,-2.777675092E-1,9.147951752E-2,-6.977476925E-2
4.294643802E0,-2.798980176E-1,8.615319431E-2,-6.870950758E-2
4.297131510E0,-2.820285559E-1,7.976161689E-2,-6.870950758E-2
4.299619218E0,-2.841590643E-1,7.550056279E-2,-6.870950758E-2
4.302106927E0,-2.852243483E-1,7.017423958E-2,-6.977476925E-2
4.304594635E0,-2.884201407E-1,6.591318548E-2,-7.084003091E-2
4.307082343E0,-2.905506492E-1,6.271740049E-2,-7.190529257E-2
4.309570052E0,-2.926811874E-1,6.165213138E-2,-7.510108501E-2
4.312057760E0,-2.948117256E-1,5.952160433E-2,-7.723161578E-2
4.314545468E0,-2.958769798E-1,5.952160433E-2,-7.936213911E-2
4.317033177E0,-2.980075181E-1,5.952160433E-2,-8.149266988E-2
4.319520885E0,-3.001380265E-1,5.845634267E-2,-8.468846232E-2
4.322008593E0,-3.022685647E-1,5.739107728E-2,-8.788424730E-2
4.324496302E0,-3.054643571E-1,5.632581562E-2,-9.108003974E-2
4.326984010E0,-3.065296113E-1,5.313002318E-2,-9.534109384E-2
4.329471718E0,-3.075948656E-1,4.780370742E-2,-9.960214794E-2
4.331959427E0,-3.075948656E-1,4.247738793E-2,-1.027979404E-1
4.334447135E0,-3.065296113E-1,3.608580679E-2,-1.070589945E-1
4.336934843E0,-3.054643571E-1,2.862896025E-2,-1.113200486E-1
4.339422552E0,-3.043990731E-1,2.010685205E-2,-1.155811027E-1
4.341910260E0,-3.033338189E-1,1.265000552E-2,-1.198421568E-1
4.344397968E0,-3.022685647E-1,4.127896391E-3,-1.241032109E-1
4.346885677E0,-3.022685647E-1,-2.263685223E-3,-1.283642650E-1
4.349373385E0,-3.022685647E-1,-9.720530361E-3,-1.336905807E-1
4.351861093E0,-3.012032807E-1,-1.291632187E-2,-1.358211190E-1
4.354348802E0,-3.012032807E-1,-1.717737690E-2,-1.400821656E-1
4.356836510E0,-3.012032807E-1,-1.930790395E-2,-1.422126889E-1
4.359324218E0,-3.001380265E-1,-2.037316747E-2,-1.443432271E-1
4.361811927E0,-2.990727723E-1,-2.037316747E-2,-1.464737505E-1
4.364299635E0,-2.969422340E-1,-2.143843099E-2,-1.496695429E-1
4.366787343E0,-2.958769798E-1,-2.143843099E-2,-1.507348120E-1
4.369275104E0,-2.937464416E-1,-2.356895804E-2,-1.539305896E-1
4.371762864E0,-2.916159332E-1,-2.783001214E-2,-1.560611278E-1
4.374250625E0,-2.884201407E-1,-3.102580272E-2,-1.581916511E-1
4.376738385E0,-2.873548567E-1,-3.635212034E-2,-1.592569202E-1
4.379226146E0,-2.862896025E-1,-4.274370521E-2,-1.613874435E-1
4.381713906E0,-2.852243483E-1,-5.020054802E-2,-1.613874435E-1
4.384201666E0,-2.852243483E-1,-5.765739456E-2,-1.613874435E-1
4.386689427E0,-2.852243483E-1,-6.617950648E-2,-1.624527127E-1
4.389177187E0,-2.852243483E-1,-7.257108390E-2,-1.613874435E-1
4.391664948E0,-2.862896025E-1,-7.789740711E-2,-1.603221744E-1
4.394152708E0,-2.873548567E-1,-8.002793044E-2,-1.581916511E-1
4.396640468E0,-2.873548567E-1,-8.002793044E-2,-1.560611278E-1
4.399128229E0,-2.884201407E-1,-7.576687634E-2,-1.549958587E-1
4.401615989E0,-2.884201407E-1,-6.831002980E-2,-1.528653353E-1
4.404103750E0,-2.894853950E-1,-5.872265995E-2,-1.507348120E-1
4.406591510E0,-2.905506492E-1,-4.593949392E-2,-1.486042738E-1
4.409079271E0,-2.916159332E-1,-3.209106624E-2,-1.464737505E-1
4.411567031E0,-2.937464416E-1,-1.717737690E-2,-1.443432271E-1
4.414054791E0,-2.948117256E-1,-1.198421582E-3,-1.422126889E-1
4.416542552E0,-2.969422340E-1,1.371526904E-2,-1.400821656E-1
4.419030312E0,-2.990727723E-1,2.756369673E-2,-1.379516423E-1
4.421518073E0,-3.012032807E-1,3.928159550E-2,-1.358211190E-1
4.424005833E0,-3.022685647E-1,5.099949613E-2,-1.336905807E-1
4.426493593E0,-3.022685647E-1,5.952160433E-2,-1.315600574E-1
4.428981354E0,-3.022685647E-1,6.591318548E-2,-1.294295341E-1
4.431469114E0,-3.001380265E-1,7.230477035E-2,-1.283642650E-1
4.433956875E0,-2.980075181E-1,7.763108611E-2,-1.262337416E-1
4.436444635E0,-2.969422340E-1,7.976161689E-2,-1.241032109E-1
4.438932396E0,-2.958769798E-1,8.082687855E-2,-1.219726875E-1
4.441420156E0,-2.958769798E-1,8.082687855E-2,-1.209074259E-1
4.443907916E0,-2.948117256E-1,7.869634777E-2,-1.187768951E-1
4.446395677E0,-2.948117256E-1,7.656582445E-2,-1.177116334E-1
4.448883437E0,-2.948117256E-1,7.337003201E-2,-1.145158410E-1
4.451371198E0,-2.958769798E-1,7.123950869E-2,-1.134505793E-1
4.453858958E0,-2.958769798E-1,7.017423958E-2,-1.102547869E-1
4.456346718E0,-2.958769798E-1,7.017423958E-2,-1.091895252E-1
4.458834479E0,-2.958769798E-1,6.910897791E-2,-1.070589945E-1
4.461322239E0,-2.948117256E-1,6.804371625E-2,-1.059937328E-1
4.463810000E0,-2.948117256E-1,6.804371625E-2,-1.049284711E-1
4.466297760E0,-2.937464416E-1,6.697845459E-2,-1.027979404E-1
4.468785521E0,-2.948117256E-1,6.697845459E-2,-1.027979404E-1
4.471273281E0,-2.958769798E-1,6.591318548E-2,-1.017326787E-1
4.473761041E0,-2.948117256E-1,6.378266215E-2,-9.960214794E-2
4.476248802E0,-2.948117256E-1,6.271740049E-2,-9.960214794E-2
4.478736562E0,-2.937464416E-1,6.271740049E-2,-9.960214794E-2
4.481224323E0,-2.926811874E-1,6.165213138E-2,-9.960214794E-2
4.483712083E0,-2.916159332E-1,6.058686972E-2,-9.960214794E-2
4.486199843E0,-2.916159332E-1,5.952160433E-2,-1.006674170E-1
4.488687604E0,-2.905506492E-1,5.952160433E-2,-1.027979404E-1
4.491175364E0,-2.905506492E-1,6.058686972E-2,-1.059937328E-1
4.493663125E0,-2.894853950E-1,6.271740049E-2,-1.102547869E-1
4.496150885E0,-2.894853950E-1,6.484792382E-2,-1.145158410E-1
4.498638646E0,-2.905506492E-1,6.910897791E-2,-1.198421568E-1
4.501126406E0,-2.916159332E-1,7.337003201E-2,-1.251684725E-1
4.503614166E0,-2.926811874E-1,7.869634777E-2,-1.315600574E-1
4.506101927E0,-2.926811874E-1,8.295740932E-2,-1.390169114E-1
4.508589687E0,-2.916159332E-1,8.721846342E-2,-1.464737505E-1
4.511077448E0,-2.905506492E-1,9.147951752E-2,-1.518000662E-1
4.513565208E0,-2.873548567E-1,9.574057162E-2,-1.581916511E-1
4.516052968E0,-2.862896025E-1,9.893636405E-2,-1.645832360E-1
4.518540729E0,-2.830938101E-1,1.010668874E-1,-1.699095517E-1
4.521028489E0,-2.798980176E-1,1.010668874E-1,-1.752358675E-1
4.523516250E0,-2.777675092E-1,1.000016257E-1,-1.816274524E-1
4.526004010E0,-2.756369710E-1,9.574057162E-2,-1.869537681E-1
4.528491771E0,-2.735064328E-1,8.934898674E-2,-1.912148297E-1
4.530979531E0,-2.703106403E-1,7.976161689E-2,-1.954758763E-1
4.533467291E0,-2.660495937E-1,6.910897791E-2,-2.008021921E-1
4.535955052E0,-2.639190555E-1,5.739107728E-2,-2.050632536E-1
4.538442812E0,-2.596580088E-1,4.567318037E-2,-2.093243003E-1
4.540930573E0,-2.564622164E-1,3.502054140E-2,-2.146506310E-1
4.543418333E0,-2.532664239E-1,2.330264263E-2,-2.189116776E-1
4.545906093E0,-2.511359155E-1,1.371526904E-2,-2.231727391E-1
4.548393854E0,-2.479401082E-1,5.193160381E-3,-2.263685167E-1
4.550881614E0,-2.468748540E-1,-2.263685223E-3,-2.295643091E-1
4.553369375E0,-2.468748540E-1,-6.524739787E-3,-2.316948473E-1
4.555857135E0,-2.479401082E-1,-8.655266836E-3,-2.327601016E-1
4.558344896E0,-2.500706315E-1,-6.524739787E-3,-2.327601016E-1
4.560832656E0,-2.532664239E-1,-3.328948980E-3,-2.327601016E-1
4.563320416E0,-2.564622164E-1,1.997369342E-3,-2.306295782E-1
4.565808177E0,-2.585927546E-1,1.051947847E-2,-2.274337858E-1
4.568295937E0,-2.607232630E-1,2.117211558E-2,-2.221074700E-1
4.570783698E0,-2.639190555E-1,3.182475269E-2,-2.157158852E-1
4.573271458E0,-2.649843395E-1,4.567318037E-2,-2.093243003E-1
4.575759218E0,-2.671148479E-1,6.058686972E-2,-2.008021921E-1
4.578246979E0,-2.671148479E-1,7.763108611E-2,-1.933453530E-1
4.580734739E0,-2.681801319E-1,9.361004084E-2,-1.858884990E-1
4.583222500E0,-2.692453861E-1,1.095889956E-1,-1.784316599E-1
4.585710260E0,-2.692453861E-1,1.255679578E-1,-1.709748209E-1
4.588198021E0,-2.692453861E-1,1.394163817E-1,-1.635179669E-1
4.590685781E0,-2.703106403E-1,1.511342824E-1,-1.571263820E-1
4.593173541E0,-2.713759243E-1,1.607216448E-1,-1.518000662E-1
4.595661302E0,-2.724411786E-1,1.692437679E-1,-1.464737505E-1
4.598149062E0,-2.713759243E-1,1.745700836E-1,-1.411474347E-1
4.600636823E0,-2.703106403E-1,1.788311303E-1,-1.368863732E-1
4.603124583E0,-2.681801319E-1,1.820269227E-1,-1.315600574E-1
4.605612343E0,-2.639190555E-1,1.841574460E-1,-1.272990108E-1
4.608100104E0,-2.617885470E-1,1.852227151E-1,-1.230379492E-1
4.610587864E0,-2.575274706E-1,1.852227151E-1,-1.209074259E-1
4.613075625E0,-2.543317080E-1,1.830921918E-1,-1.187768951E-1
4.615563385E0,-2.511359155E-1,1.798963994E-1,-1.177116334E-1
4.618051146E0,-2.479401082E-1,1.745700836E-1,-1.166463718E-1
4.620538906E0,-2.426137924E-1,1.671132296E-1,-1.177116334E-1
4.623026666E0,-2.394180000E-1,1.575258672E-1,-1.187768951E-1
4.625514427E0,-2.351569533E-1,1.458079666E-1,-1.209074259E-1
4.628002187E0,-2.308958918E-1,1.330247968E-1,-1.230379492E-1
4.630489948E0,-2.277000993E-1,1.191763729E-1,-1.251684725E-1
4.632977708E0,-2.245043069E-1,1.042626798E-1,-1.272990108E-1
4.635465468E0,-2.213085145E-1,8.934898674E-2,-1.304948032E-1
4.637953229E0,-2.181127369E-1,7.443529367E-2,-1.336905807E-1
4.640440989E0,-2.149169445E-1,6.058686972E-2,-1.368863732E-1
4.642928750E0,-2.117211521E-1,4.780370742E-2,-1.400821656E-1
4.645416510E0,-2.085253596E-1,3.821633384E-2,-1.422126889E-1
4.647904271E0,-2.042642981E-1,2.969422378E-2,-1.454084814E-1
4.650392031E0,-2.021337748E-1,2.330264263E-2,-1.475390196E-1
4.652879791E0,-1.989379823E-1,1.904158667E-2,-1.496695429E-1
4.655367552E0,-1.968074590E-1,1.797632314E-2,-1.518000662E-1
4.657855312E0,-1.936116666E-1,1.904158667E-2,-1.528653353E-1
4.660343021E0,-1.914811432E-1,2.223737910E-2,-1.549958587E-1
4.662830729E0,-1.904158741E-1,2.756369673E-2,-1.581916511E-1
4.665318437E0,-1.882853508E-1,3.502054140E-2,-1.592569202E-1
4.667806146E0,-1.872200817E-1,4.460791498E-2,-1.613874435E-1
4.670293854E0,-1.861548275E-1,5.632581562E-2,-1.635179669E-1
4.672781562E0,-1.872200817E-1,6.804371625E-2,-1.645832360E-1
4.675269271E0,-1.882853508E-1,8.295740932E-2,-1.667137593E-1
4.677756979E0,-1.893506050E-1,9.787109494E-2,-1.667137593E-1
4.680244687E0,-1.893506050E-1,1.127847880E-1,-1.667137593E-1
4.682732396E0,-1.914811432E-1,1.255679578E-1,-1.656484902E-1
4.685220104E0,-1.914811432E-1,1.394163817E-1,-1.635179669E-1
4.687707812E0,-1.914811432E-1,1.500690132E-1,-1.613874435E-1
4.690195521E0,-1.893506050E-1,1.607216448E-1,-1.592569202E-1
4.692683229E0,-1.872200817E-1,1.703090221E-1,-1.549958587E-1
4.695170937E0,-1.840242893E-1,1.777658761E-1,-1.507348120E-1
4.697658646E0,-1.797632426E-1,1.830921918E-1,-1.475390196E-1
4.700146354E0,-1.755021811E-1,1.884185076E-1,-1.443432271E-1
4.702634062E0,-1.712411344E-1,1.905490309E-1,-1.422126889E-1
4.705121771E0,-1.680453420E-1,1.905490309E-1,-1.400821656E-1
4.707609479E0,-1.627190262E-1,1.884185076E-1,-1.400821656E-1
4.710097187E0,-1.595232338E-1,1.841574460E-1,-1.379516423E-1
4.712584896E0,-1.552621722E-1,1.788311303E-1,-1.379516423E-1
4.715072604E0,-1.510011256E-1,1.703090221E-1,-1.390169114E-1
4.717560312E0,-1.467400640E-1,1.617869139E-1,-1.379516423E-1
4.720048021E0,-1.424790174E-1,1.521995366E-1,-1.390169114E-1
4.722535729E0,-1.392832249E-1,1.415469050E-1,-1.390169114E-1
4.725023437E0,-1.371526867E-1,1.298290044E-1,-1.379516423E-1
4.727511146E0,-1.350221634E-1,1.149153188E-1,-1.368863732E-1
4.729998854E0,-1.328916401E-1,9.787109494E-2,-1.358211190E-1
4.732486562E0,-1.307611167E-1,7.976161689E-2,-1.336905807E-1
4.734974323E0,-1.296958476E-1,5.952160433E-2,-1.315600574E-1
4.737462083E0,-1.296958476E-1,3.715106845E-2,-1.283642650E-1
4.739949843E0,-1.286305785E-1,1.478053257E-2,-1.262337416E-1
4.742437604E0,-1.275653243E-1,-9.720530361E-3,-1.230379492E-1
4.744925364E0,-1.275653243E-1,-3.315633163E-2,-1.209074259E-1
4.747413125E0,-1.275653243E-1,-5.765739456E-2,-1.187768951E-1
4.749900885E0,-1.275653243E-1,-8.109319210E-2,-1.166463718E-1
4.752388646E0,-1.286305785E-1,-1.034637317E-1,-1.145158410E-1
4.754876406E0,-1.296958476E-1,-1.237037405E-1,-1.134505793E-1
4.757364166E0,-1.328916401E-1,-1.407479644E-1,-1.134505793E-1
4.759851927E0,-1.350221634E-1,-1.545963883E-1,-1.134505793E-1
4.762339687E0,-1.392832249E-1,-1.641837656E-1,-1.155811027E-1
4.764827448E0,-1.424790174E-1,-1.673795432E-1,-1.155811027E-1
4.767315208E0,-1.467400640E-1,-1.663142890E-1,-1.145158410E-1
4.769802968E0,-1.499358565E-1,-1.599227041E-1,-1.145158410E-1
4.772290729E0,-1.531316489E-1,-1.482048035E-1,-1.145158410E-1
4.774778489E0,-1.573926955E-1,-1.311605871E-1,-1.134505793E-1
4.777266250E0,-1.605884880E-1,-1.109205782E-1,-1.102547869E-1
4.779754010E0,-1.637842804E-1,-8.641951531E-2,-1.070589945E-1
4.782241771E0,-1.680453420E-1,-5.978792161E-2,-1.038632020E-1
4.784729531E0,-1.723063886E-1,-3.102580272E-2,-9.960214794E-2
4.787217291E0,-1.765674502E-1,-1.198421582E-3,-9.427583218E-2
4.789705052E0,-1.818937659E-1,2.862896025E-2,-8.788424730E-2
4.792192812E0,-1.861548275E-1,5.845634267E-2,-8.149266988E-2
4.794680573E0,-1.904158741E-1,8.828372508E-2,-7.510108501E-2
4.797168333E0,-1.946769357E-1,1.181111038E-1,-6.657897681E-2
4.799656093E0,-1.989379823E-1,1.458079666E-1,-5.912213027E-2
4.802143854E0,-2.021337748E-1,1.724395454E-1,-5.060002208E-2
4.804631614E0,-2.042642981E-1,1.948100924E-1,-4.314317927E-2
4.807119375E0,-2.063948363E-1,2.139848322E-1,-3.675159439E-2
4.809607135E0,-2.074600905E-1,2.288985252E-1,-3.036001325E-2
4.812094896E0,-2.085253596E-1,2.406164259E-1,-2.609895915E-2
4.814582656E0,-2.085253596E-1,2.470080107E-1,-2.290316857E-2
4.817070416E0,-2.074600905E-1,2.491385341E-1,-1.970737800E-2
4.819558177E0,-2.063948363E-1,2.470080107E-1,-1.864211448E-2
4.822045937E0,-2.042642981E-1,2.395511568E-1,-1.970737800E-2
4.824533698E0,-2.021337748E-1,2.278332561E-1,-2.290316857E-2
4.827021458E0,-2.010685056E-1,2.118543088E-1,-2.716422267E-2
4.829509218E0,-2.000032514E-1,1.916143000E-1,-3.249054030E-2
4.831996979E0,-1.989379823E-1,1.660479754E-1,-3.994738683E-2
4.834484739E0,-1.978727281E-1,1.372858584E-1,-4.846949503E-2
4.836972500E0,-1.978727281E-1,1.053279415E-1,-5.805686861E-2
4.839460260E0,-1.978727281E-1,7.123950869E-2,-6.764423847E-2
4.841948021E0,-1.978727281E-1,3.715106845E-2,-7.829687744E-2
4.844435781E0,-1.989379823E-1,3.062632866E-3,-8.894951642E-2
4.846923541E0,-2.010685056E-1,-2.783001214E-2,-9.853688627E-2
4.849411302E0,-2.031990439E-1,-5.659212917E-2,-1.081242561E-1
4.851899062E0,-2.063948363E-1,-8.215846121E-2,-1.166463718E-1
4.854386823E0,-2.106558830E-1,-1.023984700E-1,-1.251684725E-1
4.856874583E0,-2.138516754E-1,-1.162468940E-1,-1.326253265E-1
4.859362343E0,-2.191779912E-1,-1.237037405E-1,-1.400821656E-1
4.861850104E0,-2.223737836E-1,-1.237037405E-1,-1.475390196E-1
4.864337864E0,-2.255695760E-1,-1.173121557E-1,-1.528653353E-1
4.866825625E0,-2.298306376E-1,-1.034637317E-1,-1.560611278E-1
4.869313385E0,-2.319611609E-1,-8.428898454E-2,-1.581916511E-1
4.871801146E0,-2.351569533E-1,-6.191844866E-2,-1.581916511E-1
4.874288906E0,-2.383527458E-1,-3.422159329E-2,-1.560611278E-1
4.876776666E0,-2.426137924E-1,-5.459476262E-3,-1.528653353E-1
4.879264427E0,-2.458095849E-1,2.330264263E-2,-1.486042738E-1
4.881752187E0,-2.490053773E-1,5.099949613E-2,-1.422126889E-1
4.884239948E0,-2.511359155E-1,7.656582445E-2,-1.336905807E-1
4.886727708E0,-2.532664239E-1,1.021321490E-1,-1.251684725E-1
4.889215468E0,-2.543317080E-1,1.245026886E-1,-1.155811027E-1
4.891703229E0,-2.543317080E-1,1.458079666E-1,-1.038632020E-1
4.894190989E0,-2.543317080E-1,1.649827063E-1,-9.214530140E-2
4.896678750E0,-2.532664239E-1,1.830921918E-1,-7.936213911E-2
4.899166510E0,-2.522011697E-1,1.980058849E-1,-6.338318437E-2
4.901654271E0,-2.500706315E-1,2.107890397E-1,-4.846949503E-2
4.904142031E0,-2.490053773E-1,2.214416862E-1,-3.249054030E-2
4.906629791E0,-2.479401082E-1,2.299637944E-1,-1.651158556E-2
4.909117552E0,-2.490053773E-1,2.331595868E-1,-1.597895520E-3
4.911605312E0,-2.511359155E-1,2.331595868E-1,1.225053146E-2
4.914093073E0,-2.522011697E-1,2.278332561E-1,2.396843210E-2
4.916580833E0,-2.532664239E-1,2.193111479E-1,3.355580568E-2
4.919068593E0,-2.532664239E-1,2.075932473E-1,4.101264849E-2
4.921556354E0,-2.522011697E-1,1.937448233E-1,4.633896798E-2
4.924044114E0,-2.511359155E-1,1.777658761E-1,4.740423337E-2
4.926531875E0,-2.490053773E-1,1.628521830E-1,4.633896798E-2
4.929019635E0,-2.468748540E-1,1.479384899E-1,4.420844093E-2
4.931507396E0,-2.447443157E-1,1.308942735E-1,3.994738683E-2
4.933995156E0,-2.415485233E-1,1.149153188E-1,3.462106735E-2
4.936482916E0,-2.394180000E-1,9.787109494E-2,2.822948620E-2
4.938970677E0,-2.372874767E-1,8.082687855E-2,2.183790505E-2
4.941458437E0,-2.372874767E-1,6.165213138E-2,1.438105945E-2
4.943946198E0,-2.362222075E-1,4.247738793E-2,6.924213842E-3
4.946433958E0,-2.351569533E-1,2.223737910E-2,-1.597895520E-3
4.948921718E0,-2.340916842E-1,3.062632866E-3,-9.054740891E-3
4.951409479E0,-2.319611609E-1,-1.611211337E-2,-1.651158556E-2
4.953897239E0,-2.308958918E-1,-3.422159329E-2,-2.503369562E-2
4.956385000E0,-2.277000993E-1,-4.807002097E-2,-3.142527863E-2
4.958872760E0,-2.255695760E-1,-5.765739456E-2,-3.781685978E-2
4.961360521E0,-2.234390527E-1,-6.404897571E-2,-4.314317927E-2
4.963848281E0,-2.202432603E-1,-6.511423737E-2,-4.846949503E-2
4.966336041E0,-2.170474678E-1,-6.511423737E-2,-5.379581451E-2
4.968823802E0,-2.138516754E-1,-6.085318699E-2,-5.699160323E-2
4.971311562E0,-2.106558830E-1,-5.446160212E-2,-5.912213027E-2
4.973799323E0,-2.085253596E-1,-4.593949392E-2,-6.125266105E-2
4.976287083E0,-2.074600905E-1,-3.635212034E-2,-6.231792271E-2
4.978774843E0,-2.053295672E-1,-2.783001214E-2,-6.338318437E-2
4.981262604E0,-2.031990439E-1,-1.717737690E-2,-6.338318437E-2
4.983750364E0,-2.021337748E-1,-7.590003312E-3,-6.231792271E-2
4.986238125E0,-2.010685056E-1,1.997369342E-3,-6.125266105E-2
4.988725885E0,-2.000032514E-1,1.158474199E-2,-5.699160323E-2
4.991213646E0,-2.010685056E-1,2.010685205E-2,-5.166528746E-2
4.993701406E0,-2.010685056E-1,2.862896025E-2,-4.527370632E-2
4.996189166E0,-2.010685056E-1,3.821633384E-2,-3.781685978E-2
4.998676927E0,-2.031990439E-1,4.780370742E-2,-3.036001325E-2
5.001164687E0,-2.031990439E-1,5.632581562E-2,-2.290316857E-2
5.003652448E0,-2.031990439E-1,6.484792382E-2,-1.438105945E-2
5.006140208E0,-2.031990439E-1,7.230477035E-2,-7.989477366E-3
5.008627968E0,-2.010685056E-1,7.763108611E-2,-1.597895520E-3
5.011115729E0,-2.000032514E-1,8.189214021E-2,3.728422802E-3
5.013603489E0,-1.978727281E-1,8.402267098E-2,7.989477366E-3
5.016091250E0,-1.957421899E-1,8.402267098E-2,1.012000442E-2
5.018579010E0,-1.936116666E-1,8.402267098E-2,1.225053146E-2
5.021066771E0,-1.914811432E-1,8.295740932E-2,1.225053146E-2
