"Time (s)","Acceleration x (m/s^2)","Acceleration y (m/s^2)","Acceleration z (m/s^2)"
3.167808200E-2,1.447294950E0,1.191055489E1,3.977367640E0
3.417490500E-2,1.461660147E0,1.185788250E1,3.857657433E0
3.667172800E-2,1.150413871E0,1.188182449E1,3.795408249E0
3.916855000E-2,8.535329103E-1,1.193449688E1,3.819350243E0
4.166537300E-2,6.428431273E-1,1.199674606E1,3.948637247E0
4.416219600E-2,5.710170865E-1,1.206378365E1,4.140173435E0
4.665901900E-2,6.045359373E-1,1.210687923E1,4.298190594E0
4.915584200E-2,6.572083831E-1,1.216434002E1,4.422688961E0
5.165261300E-2,6.859387755E-1,1.220743561E1,4.542399406E0
5.414912300E-2,6.907271743E-1,1.221222401E1,4.566341400E0
5.664558200E-2,6.619967818E-1,1.219307041E1,4.475361347E0
5.914204000E-2,5.997475386E-1,1.215955162E1,4.427477360E0
6.163849800E-2,5.183446407E-1,1.215476322E1,4.408323765E0
6.413495700E-2,4.273650050E-1,1.218828201E1,4.374804974E0
6.663099800E-2,4.225766063E-1,1.221222401E1,4.374804974E0
6.912704000E-2,4.896142483E-1,1.224095440E1,4.365228176E0
7.162308200E-2,6.189011335E-1,1.221222401E1,4.317344189E0
7.411912300E-2,7.912836671E-1,1.218349361E1,4.245518208E0
7.661516500E-2,9.684545994E-1,1.213082123E1,4.164115429E0
7.911761300E-2,1.121683478E0,1.211166763E1,4.106654644E0
8.156761300E-2,1.222239971E0,1.211645603E1,4.173692226E0
8.401761300E-2,1.303642869E0,1.213082123E1,4.317344189E0
8.647303000E-2,1.318008065E0,1.217870522E1,4.437054157E0
8.893532100E-2,1.308431268E0,1.221701241E1,4.504091740E0
9.140563400E-2,1.274912357E0,1.224095440E1,4.508880138E0
9.388469600E-2,1.193509579E0,1.224574280E1,4.480149746E0
9.637287300E-2,1.064222693E0,1.223616600E1,4.451419353E0
9.887000900E-2,9.205705523E-1,1.221701241E1,4.417900562E0
1.013753730E-1,7.769184709E-1,1.215476322E1,4.422688961E0
1.038879250E-1,7.050924301E-1,1.210209084E1,4.537611008E0
1.064064150E-1,6.907271743E-1,1.205899525E1,4.738723755E0
1.089293840E-1,7.050924301E-1,1.203026485E1,4.901529312E0
1.114552170E-1,7.242460251E-1,1.202547646E1,4.915894508E0
1.139822480E-1,7.386112213E-1,1.200153446E1,4.800972939E0
1.164999050E-1,6.859387755E-1,1.197759247E1,4.614225388E0
1.189875090E-1,6.189011335E-1,1.200153446E1,4.350862980E0
1.214751130E-1,5.710170865E-1,1.202068806E1,4.101866245E0
1.239627170E-1,5.470750928E-1,1.205899525E1,3.919906616E0
1.264503210E-1,5.566518903E-1,1.206857204E1,3.804985046E0
1.289379250E-1,5.518634915E-1,1.203505325E1,3.838503838E0
1.314255300E-1,5.470750928E-1,1.199195766E1,3.967790842E0
1.339131340E-1,4.991910458E-1,1.196801567E1,4.149750233E0
1.364007380E-1,4.034229815E-1,1.196801567E1,4.379593372E0
1.388883420E-1,3.124433160E-1,1.197280407E1,4.566341400E0
1.413759460E-1,2.262520641E-1,1.194407368E1,4.580706596E0
1.438635500E-1,1.592144072E-1,1.187224770E1,4.504091740E0
1.463511550E-1,1.161187813E-1,1.176211452E1,4.398746967E0
1.488387590E-1,4.429273307E-2,1.167113495E1,4.322132587E0
1.513263630E-1,-1.795651205E-2,1.161846256E1,4.312555790E0
1.538139670E-1,-7.062894851E-2,1.162325096E1,4.331709385E0
1.563015710E-1,-5.626374111E-2,1.163761616E1,4.360439777E0
1.587891750E-1,-8.379706182E-3,1.163761616E1,4.374804974E0
1.612767800E-1,4.908113554E-2,1.165198135E1,4.350862980E0
1.637643840E-1,6.823474914E-2,1.169028854E1,4.355651379E0
1.662519880E-1,6.823474914E-2,1.169028854E1,4.413112164E0
1.687395920E-1,9.696517140E-2,1.173817253E1,4.341286182E0
1.712271960E-1,1.544260085E-1,1.174296093E1,4.240729809E0
1.737148000E-1,1.927332431E-1,1.176690292E1,3.963002443E0
1.762024050E-1,1.879448295E-1,1.179084492E1,3.967790842E0
1.786900090E-1,8.259996027E-2,1.183872890E1,3.895964622E0
1.811776130E-1,-7.541735470E-2,1.191055489E1,4.130596638E0
1.836652170E-1,-2.286462635E-1,1.197759247E1,4.245518208E0
1.861528210E-1,-3.579331636E-1,1.193928528E1,4.599860191E0
1.886404780E-1,-5.063736439E-1,1.188661289E1,4.690839767E0
1.911281340E-1,-6.787561774E-1,1.181957531E1,4.810549736E0
1.936157900E-1,-8.224082589E-1,1.174774933E1,4.575918198E0
1.961034460E-1,-9.373299479E-1,1.165676975E1,4.413112164E0
1.985911030E-1,-9.900023937E-1,1.159452057E1,4.068347454E0
2.010787590E-1,-9.947907925E-1,1.151311779E1,4.006097794E0
2.035664150E-1,-9.564836025E-1,1.149396420E1,3.867234230E0
2.060540710E-1,-9.085995555E-1,1.152269459E1,3.986944437E0
2.085417280E-1,-8.128314614E-1,1.161367416E1,4.039616585E0
2.110293840E-1,-6.883329749E-1,1.169986534E1,4.264671803E0
2.135170400E-1,-5.494692922E-1,1.177647972E1,4.322132587E0
2.160046960E-1,-4.201824069E-1,1.180521011E1,4.422688961E0
2.184923530E-1,-2.717418969E-1,1.183394051E1,4.331709385E0
2.209800090E-1,-1.616086215E-1,1.180999851E1,4.264671803E0
2.234676650E-1,-1.795651205E-2,1.176690292E1,4.116231441E0
2.259553210E-1,9.696517140E-2,1.172859573E1,3.910329819E0
2.284429780E-1,1.927332431E-1,1.168071175E1,3.709217072E0
2.309306340E-1,2.070984542E-1,1.158973217E1,3.536834478E0
2.334182900E-1,1.975216419E-1,1.152748299E1,3.465008497E0
2.359059460E-1,1.448491961E-1,1.149875259E1,3.512892485E0
2.383936030E-1,8.738835901E-2,1.149396420E1,3.670909643E0
2.408812590E-1,2.035071515E-2,1.149875259E1,3.766677856E0
2.433689150E-1,2.035071515E-2,1.147002220E1,3.881599426E0
2.458565710E-1,5.386953801E-2,1.144129181E1,3.857657433E0
2.483442280E-1,5.386953801E-2,1.142692661E1,3.824138641E0
2.508318840E-1,2.513911761E-2,1.143171501E1,3.651756048E0
2.533195400E-1,1.556231081E-2,1.140298462E1,3.608660460E0
2.558071960E-1,1.197100850E-3,1.137904167E1,3.460220098E0
2.582948530E-1,2.992752194E-2,1.133115768E1,3.484162092E0
2.607825090E-1,5.865794048E-2,1.128327370E1,3.388393879E0
2.632701650E-1,1.209071875E-1,1.117792892E1,3.465008497E0
2.657578210E-1,1.831564307E-1,1.107258415E1,3.393182278E0
2.682454780E-1,2.741360962E-1,1.092893219E1,3.594295263E0
2.707331340E-1,2.789244950E-1,1.079964542E1,3.690063477E0
2.732207900E-1,2.454056740E-1,1.067035866E1,3.872022629E0
2.757084460E-1,1.544260085E-1,1.064162827E1,3.728370667E0
2.781961030E-1,6.344634295E-2,1.060810947E1,3.704428673E0
2.806837590E-1,2.513911761E-2,1.058895588E1,3.388393879E0
2.831714150E-1,5.865794048E-2,1.052191830E1,3.345298290E0
2.856590710E-1,1.592144072E-1,1.046924591E1,3.125031710E0
2.881467280E-1,3.315969408E-1,1.042136192E1,3.139396906E0
2.906343840E-1,6.572083831E-1,1.039263058E1,2.933495522E0
2.931220400E-1,1.083376288E0,1.030643940E1,3.029263735E0
2.956096960E-1,1.217451572E0,1.033995819E1,2.933495522E0
2.980973530E-1,8.583213091E-1,1.046924591E1,3.057994127E0
3.005850090E-1,5.614402890E-1,1.053149509E1,2.971802950E0
3.030726650E-1,5.087678432E-1,1.044051552E1,3.062782526E0
3.055603210E-1,5.614402890E-1,1.027770901E1,2.986168146E0
3.080479780E-1,5.853823423E-1,1.013884544E1,3.048417330E0
3.105356340E-1,4.944026470E-1,1.015321064E1,2.876034737E0
3.130232900E-1,3.172317147E-1,1.022503662E1,2.885611534E0
3.155109460E-1,1.017535701E-1,1.031122780E1,2.880823135E0
3.179986030E-1,-1.137245819E-1,1.033038139E1,3.077147722E0
3.204862590E-1,-2.573766708E-1,1.031601620E1,3.120243311E0
3.229739150E-1,-3.435679376E-1,1.024419022E1,3.158550501E0
3.254615710E-1,-2.717418969E-1,1.011969185E1,3.077147722E0
3.279492280E-1,-1.424549967E-1,9.980828285E0,3.129820108E0
3.304368840E-1,-4.189852998E-2,9.889848709E0,3.201646328E0
3.329245400E-1,5.985504016E-3,9.885060310E0,3.196857929E0
3.354121960E-1,1.077390742E-2,9.875483513E0,3.201646328E0
3.378998530E-1,2.513911761E-2,9.779715538E0,3.287837505E0
3.403875090E-1,5.865794048E-2,9.693524361E0,3.450643301E0
3.428751650E-1,4.908113554E-2,9.640851974E0,3.402759075E0
3.453628210E-1,1.304839998E-1,9.578602791E0,3.369240284E0
3.478504780E-1,2.070984542E-1,9.516353607E0,3.306991100E0
3.503381340E-1,2.358288616E-1,9.473258018E0,3.426701069E0
3.528257900E-1,2.406172752E-1,9.458892822E0,3.340509892E0
3.553134460E-1,3.172317147E-1,9.411007881E0,3.359663486E0
3.578011030E-1,4.129997790E-1,9.329605103E0,3.311779499E0
3.602887590E-1,5.231330991E-1,9.262567520E0,3.421912670E0
3.627764150E-1,6.045359373E-1,9.281721115E0,3.273472309E0
3.652640710E-1,7.003039718E-1,9.300874710E0,3.268683910E0
3.677517280E-1,7.673416734E-1,9.353547096E0,3.091512918E0
3.702393840E-1,8.008604646E-1,9.406219482E0,3.148973703E0
3.727270400E-1,7.721300721E-1,9.487623215E0,3.010110140E0
3.752146960E-1,6.907271743E-1,9.559449196E0,3.101089716E0
3.777023530E-1,5.949591398E-1,9.597756386E0,3.024475336E0
3.801900090E-1,5.135562420E-1,9.516353607E0,3.239953518E0
3.826776650E-1,4.608838260E-1,9.420584679E0,3.225588322E0
3.851653210E-1,4.560954273E-1,9.281721115E0,3.397970676E0
3.876529780E-1,4.608838260E-1,9.152434349E0,3.335721493E0
3.901406340E-1,4.896142483E-1,9.013570786E0,3.498527288E0
3.926282900E-1,4.944026470E-1,8.956110001E0,3.460220098E0
3.951159460E-1,4.417302012E-1,8.936956406E0,3.541622877E0
3.976036030E-1,3.746925592E-1,8.994417191E0,3.393182278E0
4.000912590E-1,3.076549172E-1,9.013570786E0,3.488950491E0
4.025789150E-1,2.693476975E-1,9.051877975E0,3.426701069E0
4.050665710E-1,2.693476975E-1,9.042301178E0,3.589506865E0
4.075542280E-1,2.837128937E-1,9.075819969E0,3.527257681E0
4.100418840E-1,3.268085420E-1,9.104550362E0,3.570353270E0
4.125295400E-1,3.938461840E-1,9.085396767E0,3.421912670E0
4.150171960E-1,4.656722248E-1,9.023147583E0,3.340509892E0
4.175048530E-1,5.805938840E-1,8.913014412E0,3.139396906E0
4.199925090E-1,7.003039718E-1,8.731055260E0,3.081936121E0
4.224801650E-1,8.295909166E-1,8.592191696E0,2.962226152E0
4.249678210E-1,9.349357486E-1,8.496423721E0,2.962226152E0
4.274554780E-1,1.021126986E0,8.506000519E0,2.928707123E0
4.299431340E-1,1.035492182E0,8.620922089E0,2.794631958E0
4.324307900E-1,1.102529883E0,8.711901665E0,2.722805977E0
4.349184460E-1,1.145625472E0,8.735843658E0,2.775478363E0
4.374061030E-1,1.174355984E0,8.731055260E0,2.808997154E0
4.398937590E-1,1.193509579E0,8.702324867E0,2.756324768E0
4.423814150E-1,1.231816769E0,8.596980095E0,2.732382774E0
4.448690710E-1,1.241393566E0,8.462904930E0,2.579153776E0
4.473567280E-1,1.260547161E0,8.338405609E0,2.473809004E0
4.498443840E-1,1.174355984E0,8.204330444E0,2.354098797E0
4.523320400E-1,1.011550188E0,8.103774071E0,2.440289974E0
4.548196960E-1,7.721300721E-1,8.051101685E0,2.473809004E0
4.573073530E-1,5.518634915E-1,8.012794495E0,2.746747971E0
4.597950090E-1,3.746925592E-1,7.998429298E0,2.804208755E0
4.622826650E-1,3.268085420E-1,7.984064102E0,2.832939148E0
4.647703210E-1,3.699041605E-1,7.950545311E0,2.665344954E0
4.672579780E-1,4.752490520E-1,7.840412140E0,2.694075346E0
4.697456340E-1,5.662286878E-1,7.730278969E0,2.473809004E0
4.722332900E-1,6.524199843E-1,7.644087315E0,2.378040791E0
4.747209460E-1,7.003039718E-1,7.605780125E0,2.105101824E0
4.772086030E-1,7.481880188E-1,7.600991726E0,2.095525026E0
4.796962590E-1,7.625532150E-1,7.691971302E0,1.813009262E0
4.821839150E-1,8.056488633E-1,7.797316551E0,1.846528053E0
4.846715710E-1,8.918401599E-1,7.979275703E0,1.750759959E0
4.871592280E-1,1.025915384E0,8.146869659E0,1.908777356E0
4.896468840E-1,1.236605167E0,8.338405609E0,1.832162857E0
4.921345400E-1,1.499967337E0,8.391077995E0,2.081159830E0
4.946221960E-1,1.811213613E0,8.391077995E0,2.109890223E0
4.971098530E-1,2.136825085E0,8.343194008E0,2.311003208E0
4.995975090E-1,2.400187254E0,8.247426033E0,2.229600430E0
5.020851650E-1,2.534262419E0,8.127716064E0,2.363675594E0
5.045728210E-1,2.524685621E0,8.027159691E0,2.287061214E0
5.070604780E-1,2.333149672E0,8.003217697E0,2.349310398E0
5.095481340E-1,2.050633669E0,8.079832077E0,2.205658197E0
5.120357900E-1,1.782483220E0,8.132504463E0,2.291849613E0
5.145234460E-1,1.562216640E0,8.204330444E0,2.272696018E0
5.170111030E-1,1.442506552E0,8.209118843E0,2.401982784E0
5.194987590E-1,1.452083349E0,8.175600052E0,2.406771183E0
5.219864150E-1,1.499967337E0,8.065466881E0,2.473809004E0
5.244740710E-1,1.624465823E0,7.950545311E0,2.416347980E0
5.269617280E-1,1.715445518E0,7.821258545E0,2.397194386E0
5.294493840E-1,1.763329506E0,7.792528152E0,2.200869799E0
5.319370400E-1,1.729810715E0,7.782951355E0,1.990180135E0
5.344246960E-1,1.710657120E0,7.739855766E0,1.937507749E0
5.369123530E-1,1.657984734E0,7.672817707E0,2.004545450E0
5.394000090E-1,1.653196216E0,7.572261333E0,2.052429438E0
5.418876650E-1,1.586158633E0,7.486070156E0,2.028487444E0
5.443753210E-1,1.480813742E0,7.390302181E0,1.999756932E0
5.468629780E-1,1.337161660E0,7.308899403E0,1.856104851E0
5.493506340E-1,1.222239971E0,7.179612160E0,1.841739655E0
5.518382900E-1,1.078587890E0,7.007229805E0,1.654991984E0
5.543259460E-1,9.876081944E-1,6.806117058E0,1.492186189E0
5.568136030E-1,8.822633028E-1,6.657676220E0,1.152209520E0
5.593012590E-1,8.535329103E-1,6.499659061E0,1.013345838E0
5.617889150E-1,8.774749041E-1,6.375160694E0,8.313865662E-1
5.642765710E-1,9.636662006E-1,6.284181118E0,8.409633636E-1
5.667642280E-1,1.088164687E0,6.197989464E0,6.542156339E-1
5.692518840E-1,1.298854470E0,6.054337502E0,6.637924314E-1
5.717395400E-1,1.519120932E0,5.881955147E0,4.961982965E-1
5.742271960E-1,1.744175911E0,5.671265125E0,5.680243373E-1
5.767148530E-1,1.959654093E0,5.441421986E0,4.770447016E-1
5.792025090E-1,2.146401882E0,5.206789970E0,6.829460263E-1
5.816901650E-1,2.280477047E0,5.091868401E0,7.116764784E-1
5.841778210E-1,2.404975653E0,5.034407616E0,9.654618502E-1
5.866654780E-1,2.467224836E0,5.115810394E0,9.654618502E-1
5.891531340E-1,2.486378431E0,5.259462357E0,1.176151633E0
5.916407900E-1,2.481590033E0,5.484517574E0,1.070806742E0
5.941284460E-1,2.457648039E0,5.671265125E0,1.147421122E0
5.966161030E-1,2.404975653E0,5.814917564E0,1.094748735E0
5.991037590E-1,2.337938070E0,5.819705963E0,1.214458823E0
6.015914150E-1,2.256535053E0,5.781398773E0,1.061229944E0
6.040790710E-1,2.141613483E0,5.656899929E0,1.099537134E0
6.065667280E-1,2.007538080E0,5.518036366E0,9.223662019E-1
6.090543840E-1,1.868674397E0,5.355230808E0,9.846154451E-1
6.115420400E-1,1.729810715E0,5.245097160E0,9.654618502E-1
6.140296960E-1,1.590947032E0,5.182847977E0,1.099537134E0
6.165173530E-1,1.523909330E0,5.206789970E0,1.032499433E0
6.190050090E-1,1.552639842E0,5.206789970E0,9.894038439E-1
6.214926650E-1,1.701080322E0,5.187636375E0,7.404068708E-1
6.239803210E-1,1.911770105E0,5.111021996E0,5.584475398E-1
6.264679780E-1,2.165555477E0,5.034407616E0,2.950853705E-1
6.289556340E-1,2.357091665E0,4.909909248E0,1.705868691E-1
6.314432900E-1,2.424129248E0,4.842871666E0,7.960720360E-2
6.339309460E-1,2.342726469E0,4.842871666E0,4.608838260E-2
6.364186030E-1,2.136825085E0,4.900332451E0,1.035492271E-1
6.389062590E-1,1.820790410E0,4.981735229E0,2.807201445E-1
6.413939150E-1,1.466448545E0,5.077503204E0,5.584475398E-1
6.438815710E-1,1.126471877E0,5.187636375E0,8.170213103E-1
6.463692280E-1,8.631097078E-1,5.278616428E0,9.319429994E-1
6.488568840E-1,6.667851806E-1,5.288193226E0,9.415197968E-1
6.513445400E-1,6.189011335E-1,5.182847977E0,1.032499433E0
6.538321960E-1,5.087678432E-1,5.087080002E0,9.463081956E-1
6.563198530E-1,2.885012925E-1,5.053561211E0,9.223662019E-1
6.588075090E-1,2.513911761E-2,5.053561211E0,7.930793166E-1
6.612951650E-1,-1.233013868E-1,5.043984413E0,8.792705536E-1
6.637828210E-1,-1.520318091E-1,5.024830818E0,8.840589523E-1
6.662704780E-1,-4.189852998E-2,5.010465622E0,1.037287831E0
6.687581340E-1,1.352723986E-1,5.067926407E0,9.750386477E-1
6.712457900E-1,3.890577853E-1,5.173271179E0,9.510966539E-1
6.737334460E-1,6.236895323E-1,5.292981625E0,9.846154451E-1
6.762211030E-1,8.248024583E-1,5.470152378E0,1.085171938E0
6.787087590E-1,9.636662006E-1,5.676053524E0,1.113902330E0
6.811964150E-1,1.069011092E0,5.881955147E0,1.123479128E0
6.836840710E-1,1.155202270E0,6.083067894E0,1.200093627E0
6.861717280E-1,1.274912357E0,6.245873451E0,1.319803715E0
6.886593840E-1,1.418564558E0,6.308123112E0,1.463455796E0
6.911470400E-1,1.643619418E0,6.255450726E0,1.683722377E0
6.936346960E-1,1.902193308E0,6.576273441E0,7.643488646E-1
6.961223530E-1,2.079364061E0,6.839635849E0,4.195838571E-1
6.986100090E-1,2.112883091E0,6.887519836E0,1.066018343E0
7.010976650E-1,2.127248287E0,7.126939774E0,1.042076349E0
7.035853210E-1,2.261323452E0,7.265803814E0,8.553285599E-1
7.060729780E-1,2.562992811E0,7.146093369E0,1.066018343E0
7.085606340E-1,2.946065187E0,7.016806602E0,1.089960337E0
7.110482900E-1,3.357867956E0,6.983287811E0,9.510966539E-1
7.135359460E-1,3.764882088E0,6.968922615E0,1.022922635E0
7.160236030E-1,4.056974888E0,7.045536995E0,1.276708007E0
7.185112590E-1,4.248510838E0,7.241861820E0,1.358110905E0
7.209989150E-1,4.368220806E0,7.428609371E0,1.353322506E0
7.234865710E-1,4.401739597E0,7.538742542E0,1.501762986E0
7.259742280E-1,4.358644009E0,7.600991726E0,1.669357181E0
7.284618840E-1,4.234145641E0,7.653664112E0,1.736394763E0
7.309495400E-1,3.970783472E0,7.711124897E0,1.745971560E0
7.334371960E-1,3.640383720E0,7.739855766E0,1.774701953E0
7.359248530E-1,3.252522945E0,7.759009361E0,1.712452769E0
7.384125090E-1,2.931699991E0,7.739855766E0,1.501762986E0
7.409001650E-1,2.697068214E0,7.648875713E0,1.338957310E0
7.433878210E-1,2.596511841E0,7.553107738E0,1.171363235E0
7.458754780E-1,2.596511841E0,7.442974567E0,1.113902330E0
7.483631340E-1,2.577358246E0,7.399878979E0,1.166574836E0
7.508507900E-1,2.491166830E0,7.423820972E0,1.247977614E0
7.533384460E-1,2.385822058E0,7.495646954E0,1.386841297E0
7.558261030E-1,2.261323452E0,7.605780125E0,1.535281897E0
7.583137590E-1,2.122459888E0,7.735067368E0,1.626261473E0
7.608014150E-1,1.997961283E0,7.864354134E0,1.635838270E0
7.632890710E-1,1.959654093E0,7.974487305E0,1.554435492E0
7.657767280E-1,2.021903276E0,8.075043678E0,1.367687702E0
7.682643840E-1,2.179920673E0,8.146869659E0,1.128267527E0
7.707520400E-1,2.457648039E0,8.180388451E0,8.888474107E-1
7.732396960E-1,2.826355219E0,8.189965248E0,7.068880796E-1
7.757273530E-1,3.223792553E0,8.252214432E0,5.776011348E-1
7.782150090E-1,3.602076530E0,8.338405609E0,4.914098978E-1
7.807026650E-1,3.927687883E0,8.462904930E0,4.243722558E-1
7.831903210E-1,4.205415249E0,8.611345291E0,3.381809890E-1
7.856779780E-1,4.473566055E0,8.716690063E0,2.519897223E-1
7.881656340E-1,4.736927986E0,8.764574051E0,1.131260321E-1
7.906532900E-1,5.000290394E0,8.740632057E0,8.439560980E-2
7.931409460E-1,5.287594318E0,8.687959671E0,1.753752679E-1
7.956286030E-1,5.531803131E0,8.649652481E0,2.615665495E-1
7.981162590E-1,5.742492676E0,8.606556892E0,3.764882088E-1
8.006039150E-1,5.862202644E0,8.558672905E0,5.536591411E-1
8.030915710E-1,5.866991043E0,8.525154114E0,7.978677154E-1
8.055792280E-1,5.790376663E0,8.515577316E0,1.032499433E0
8.080668840E-1,5.579687119E0,8.529942513E0,1.180940032E0
8.105545400E-1,5.234921932E0,8.592191696E0,1.281496406E0
8.130421960E-1,4.794388771E0,8.702324867E0,1.295861721E0
8.155298530E-1,4.310760021E0,8.865130424E0,1.267131209E0
8.180175090E-1,3.822343111E0,9.018359184E0,1.286284804E0
8.205051650E-1,3.444059134E0,9.123703957E0,1.377264500E0
8.229928210E-1,3.204638958E0,9.176376343E0,1.420360208E0
8.254804780E-1,3.080140591E0,9.133280754E0,1.415571809E0
8.279681340E-1,3.056198359E0,9.032724380E0,1.281496406E0
8.304557900E-1,3.099294186E0,8.936956406E0,1.089960337E0
8.329434460E-1,3.132812977E0,8.822034836E0,9.750386477E-1
8.354311030E-1,3.137601376E0,8.788516045E0,9.127894044E-1
8.379187590E-1,3.113659382E0,8.822034836E0,9.032126069E-1
8.404064150E-1,3.104082584E0,8.893860817E0,9.463081956E-1
8.428940710E-1,3.156754971E0,8.989628792E0,9.989806414E-1
8.453817280E-1,3.271676540E0,9.061454773E0,1.003769040E0
8.478693840E-1,3.434482336E0,9.032724380E0,9.654618502E-1
8.503570400E-1,3.602076530E0,8.927379608E0,8.792705536E-1
8.528446960E-1,3.760093689E0,8.778939247E0,7.882909179E-1
8.553323530E-1,3.894169092E0,8.644864082E0,6.877344251E-1
8.578200090E-1,3.999513865E0,8.558672905E0,5.967547894E-1
8.603076650E-1,4.095282078E0,8.506000519E0,5.297171474E-1
8.627953210E-1,4.186261654E0,8.525154114E0,4.866214991E-1
8.652829780E-1,4.267664433E0,8.620922089E0,4.578910768E-1
8.677706340E-1,4.339490414E0,8.769362450E0,4.578910768E-1
8.702582380E-1,4.396951199E0,8.917802811E0,4.866214991E-1
8.727458420E-1,4.392162800E0,9.071031570E0,5.297171474E-1
8.752334460E-1,4.286818027E0,9.229048729E0,5.536591411E-1
8.777210500E-1,4.133589268E0,9.353547096E0,5.584475398E-1
8.802086550E-1,3.894169092E0,9.377489090E0,6.111199856E-1
8.826962590E-1,3.654748917E0,9.367912292E0,6.446388364E-1
8.851838630E-1,3.415328741E0,9.324816704E0,6.637924314E-1
8.876714670E-1,3.214215755E0,9.291297913E0,7.260416746E-1
8.901590710E-1,3.094505787E0,9.267355919E0,8.313865662E-1
8.926466750E-1,3.003525972E0,9.248202324E0,9.606734514E-1
8.951342800E-1,2.965218782E0,9.286509514E0,1.080383539E0
8.976218840E-1,2.950853586E0,9.377489090E0,1.185728431E0
9.001094880E-1,2.970007181E0,9.473258018E0,1.295861721E0
9.025970920E-1,3.046621561E0,9.540295601E0,1.401206493E0
9.050846960E-1,3.132812977E0,9.535507202E0,1.487397790E0
9.075723000E-1,3.247734547E0,9.506776810E0,1.410783410E0
9.100599050E-1,3.309983969E0,9.430161476E0,1.348534107E0
9.125475090E-1,3.362656355E0,9.348758698E0,1.310226917E0
9.150351130E-1,3.372233152E0,9.315239906E0,1.262342811E0
9.175227170E-1,3.400963545E0,9.320028305E0,1.204882026E0
9.200103210E-1,3.444059134E0,9.367912292E0,1.104325533E0
9.224979250E-1,3.530250311E0,9.420584679E0,1.051653147E0
9.249855300E-1,3.635595322E0,9.501988411E0,9.941922426E-1
9.274731340E-1,3.736151695E0,9.554660797E0,9.032126069E-1
9.299607380E-1,3.846285105E0,9.578602791E0,8.409633636E-1
9.324483420E-1,3.884592295E0,9.559449196E0,8.601169586E-1
9.349359980E-1,3.865438700E0,9.559449196E0,9.415197968E-1
9.374236550E-1,3.760093689E0,9.592967987E0,9.750386477E-1
9.399113110E-1,3.630806923E0,9.640851974E0,9.415197968E-1
9.423989670E-1,3.520673513E0,9.683947563E0,8.505401611E-1
9.448866230E-1,3.472789526E0,9.683947563E0,6.302735806E-1
9.473742800E-1,3.506308317E0,9.626486778E0,4.243722558E-1
9.498619360E-1,3.645172119E0,9.525930405E0,2.807201445E-1
9.523495920E-1,3.798400879E0,9.367912292E0,2.615665495E-1
9.548372480E-1,3.937264681E0,9.200318336E0,3.142389655E-1
9.573249050E-1,4.023456097E0,9.128492355E0,3.764882088E-1
9.598125610E-1,4.076128483E0,9.162011147E0,4.243722558E-1
9.623002170E-1,4.100070477E0,9.224260330E0,4.722562730E-1
9.647878730E-1,4.085705280E0,9.334393501E0,4.531026781E-1
9.672755300E-1,4.080916882E0,9.415796280E0,4.052186310E-1
9.697631860E-1,4.109647274E0,9.463681221E0,3.716998100E-1
9.722508420E-1,4.162319660E0,9.425373077E0,3.238157928E-1
9.747384980E-1,4.234145641E0,9.305663109E0,2.807201445E-1
9.772261550E-1,4.334702015E0,9.128492355E0,3.238157928E-1
9.797138110E-1,4.377797604E0,8.970475197E0,3.764882088E-1
9.822014670E-1,4.363432407E0,8.874707222E0,3.716998100E-1
9.846891230E-1,4.286818027E0,8.850765228E0,4.291606545E-1
9.871767800E-1,4.214992046E0,8.879495621E0,4.961982965E-1
9.896644360E-1,4.124012470E0,8.970475197E0,5.105634928E-1
9.921520920E-1,4.018667698E0,9.080608368E0,4.531026781E-1
9.946397480E-1,3.932476282E0,9.133280754E0,4.818331003E-1
9.971274050E-1,3.879803896E0,9.166799545E0,5.632359385E-1
9.996150610E-1,3.812766314E0,9.133280754E0,6.494272351E-1
1.002102717E0,3.760093689E0,9.071031570E0,7.164648771E-1
1.004590373E0,3.702632904E0,8.999205589E0,8.505401611E-1
1.007078030E0,3.616441727E0,8.951321602E0,1.018134236E0
1.009565686E0,3.535038710E0,8.965686798E0,1.046864748E0
1.012053342E0,3.472789526E0,8.994417191E0,9.606734514E-1
1.014540998E0,3.448847532E0,9.042301178E0,9.223662019E-1
1.017028655E0,3.477577925E0,9.104550362E0,8.601169586E-1
1.019516311E0,3.563769341E0,9.118915558E0,7.835025191E-1
1.022003967E0,3.707421303E0,9.114127159E0,7.643488646E-1
1.024491623E0,3.879803896E0,9.075819969E0,7.787141204E-1
1.026979280E0,4.061763287E0,9.042301178E0,8.026561141E-1
1.029466936E0,4.234145641E0,9.003993988E0,8.265981078E-1
1.031954592E0,4.373009205E0,8.980051994E0,7.930793166E-1
1.034442248E0,4.502296448E0,8.956110001E0,7.356184721E-1
1.036929905E0,4.588487625E0,8.913014412E0,7.212532759E-1
1.039417561E0,4.631583214E0,8.908226013E0,6.829460263E-1
1.041905217E0,4.684255600E0,8.922591209E0,6.494272351E-1
1.044392873E0,4.727351189E0,8.893860817E0,6.111199856E-1
1.046880530E0,4.770446777E0,8.865130424E0,5.440823436E-1
1.049368186E0,4.799177170E0,8.841188431E0,5.009866953E-1
1.051855842E0,4.775235176E0,8.812458038E0,5.105634928E-1
1.054343498E0,4.703409195E0,8.841188431E0,5.728127360E-1
1.056831155E0,4.559757233E0,8.869918823E0,6.494272351E-1
1.059318811E0,4.373009205E0,8.936956406E0,7.547720671E-1
1.061806467E0,4.147954464E0,9.027935982E0,9.032126069E-1
1.064294123E0,3.922899485E0,9.114127159E0,9.941922426E-1
1.066781780E0,3.750516891E0,9.157222748E0,1.085171938E0
1.069269436E0,3.602076530E0,9.142857552E0,1.166574836E0
1.071757092E0,3.506308317E0,9.099761963E0,1.219247222E0
1.074244748E0,3.448847532E0,9.003993988E0,1.267131209E0
1.076732405E0,3.415328741E0,8.898649216E0,1.310226917E0
1.079220061E0,3.372233152E0,8.783727646E0,1.329380512E0
1.081707717E0,3.305195332E0,8.707113266E0,1.343745708E0
1.084195373E0,3.219004154E0,8.702324867E0,1.353322506E0
1.086683030E0,3.156754971E0,8.726266861E0,1.343745708E0
1.089170686E0,3.171120167E0,8.759785652E0,1.334168911E0
1.091658342E0,3.257311344E0,8.774150848E0,1.338957310E0
1.094145998E0,3.362656355E0,8.783727646E0,1.358110905E0
1.096633655E0,3.468001127E0,8.783727646E0,1.305438519E0
1.099121311E0,3.582922935E0,8.778939247E0,1.219247222E0
1.101608967E0,3.712209702E0,8.731055260E0,1.209670424E0
1.104096623E0,3.831919909E0,8.644864082E0,1.200093627E0
1.106584280E0,3.999513865E0,8.616133690E0,1.204882026E0
1.109071936E0,4.171896458E0,8.558672905E0,1.209670424E0
1.111559592E0,4.315548420E0,8.534730911E0,1.238400817E0
1.114047248E0,4.435258865E0,8.534730911E0,1.214458823E0
1.116534905E0,4.483142853E0,8.582614899E0,1.133055925E0
1.119022561E0,4.497508049E0,8.659229279E0,1.070806742E0
1.121510217E0,4.526238441E0,8.683171272E0,1.008557439E0
1.123997873E0,4.554968834E0,8.702324867E0,9.463081956E-1
1.126485530E0,4.602852821E0,8.692748070E0,9.319429994E-1
1.128973186E0,4.636371613E0,8.635287285E0,1.022922635E0
1.131460842E0,4.598064423E0,8.573038101E0,1.195305228E0
1.133948498E0,4.492719650E0,8.568249702E0,1.348534107E0
1.136436155E0,4.315548420E0,8.582614899E0,1.425148606E0
1.138923811E0,4.090493679E0,8.577826500E0,1.444302201E0
1.141411467E0,3.870227098E0,8.592191696E0,1.453878999E0
1.143899123E0,3.664325714E0,8.577826500E0,1.434725404E0
1.146386780E0,3.515885115E0,8.544307709E0,1.382052898E0
1.148874436E0,3.439270735E0,8.501212120E0,1.329380512E0
1.151362092E0,3.410540342E0,8.491635323E0,1.291073322E0
1.153849748E0,3.400963545E0,8.520365715E0,1.267131209E0
1.156337405E0,3.381809950E0,8.568249702E0,1.247977614E0
1.158825061E0,3.410540342E0,8.620922089E0,1.257554412E0
1.161312717E0,3.439270735E0,8.654440880E0,1.233612418E0
1.163800373E0,3.496731520E0,8.668806076E0,1.190516829E0
1.166288030E0,3.582922935E0,8.687959671E0,1.156997919E0
1.168775686E0,3.702632904E0,8.687959671E0,1.133055925E0
1.171263342E0,3.841496706E0,8.668806076E0,1.061229944E0
1.173750998E0,4.009090900E0,8.697536469E0,9.702502489E-1
1.176238655E0,4.138377666E0,8.740632057E0,9.223662019E-1
1.178726311E0,4.262876034E0,8.793304443E0,8.984242082E-1
1.181213967E0,4.358644009E0,8.831611633E0,8.696937561E-1
1.183701623E0,4.473566055E0,8.860342026E0,8.744821548E-1
1.186189280E0,4.593276024E0,8.869918823E0,9.989806414E-1
1.188676936E0,4.689043999E0,8.860342026E0,1.176151633E0
1.191164592E0,4.775235176E0,8.879495621E0,1.315015316E0
1.193652248E0,4.789600372E0,8.879495621E0,1.329380512E0
1.196139905E0,4.736927986E0,8.874707222E0,1.362899303E0
1.198627561E0,4.617218018E0,8.889072418E0,1.439513803E0
1.201115217E0,4.435258865E0,8.936956406E0,1.501762986E0
1.203602873E0,4.267664433E0,8.980051994E0,1.511339784E0
1.206090530E0,4.171896458E0,8.984840393E0,1.554435492E0
1.208578186E0,4.133589268E0,8.980051994E0,1.597531080E0
1.211065842E0,4.100070477E0,8.980051994E0,1.592742682E0
1.213553498E0,4.052186489E0,9.018359184E0,1.492186189E0
1.216041155E0,3.937264681E0,9.080608368E0,1.405994892E0
1.218528811E0,3.788824081E0,9.123703957E0,1.338957310E0
1.221016467E0,3.659537315E0,9.185953140E0,1.267131209E0
1.223504123E0,3.640383720E0,9.248202324E0,1.267131209E0
1.225991780E0,3.688267708E0,9.276932716E0,1.276708007E0
1.228479436E0,3.841496706E0,9.276932716E0,1.281496406E0
1.230967092E0,4.004302502E0,9.233837128E0,1.252766013E0
1.233454748E0,4.100070477E0,9.185953140E0,1.185728431E0
1.235942405E0,4.124012470E0,9.123703957E0,1.085171938E0
1.238430061E0,4.076128483E0,9.051877975E0,1.022922635E0
1.240917717E0,4.018667698E0,8.951321602E0,1.008557439E0
1.243405373E0,3.980360270E0,8.865130424E0,1.008557439E0
1.245893030E0,3.951629877E0,8.754997253E0,1.018134236E0
1.248380686E0,3.970783472E0,8.692748070E0,1.046864748E0
1.250868342E0,3.951629877E0,8.673594475E0,1.046864748E0
1.253355998E0,3.932476282E0,8.707113266E0,1.051653147E0
1.255843655E0,3.879803896E0,8.774150848E0,1.037287831E0
1.258331311E0,3.865438700E0,8.841188431E0,9.654618502E-1
1.260818967E0,3.908534288E0,8.879495621E0,8.984242082E-1
1.263306623E0,3.970783472E0,8.869918823E0,8.744821548E-1
1.265794280E0,4.085705280E0,8.836400032E0,8.601169586E-1
1.268281936E0,4.195838451E0,8.783727646E0,8.792705536E-1
1.270769592E0,4.286818027E0,8.731055260E0,9.223662019E-1
1.273257248E0,4.349067211E0,8.692748070E0,9.510966539E-1
1.275744905E0,4.358644009E0,8.673594475E0,1.042076349E0
1.278232561E0,4.344278812E0,8.649652481E0,1.109113932E0
1.280720217E0,4.262876034E0,8.697536469E0,1.166574836E0
1.283207873E0,4.176684856E0,8.764574051E0,1.209670424E0
1.285695530E0,4.119224072E0,8.826823235E0,1.243189216E0
1.288183186E0,4.071340084E0,8.893860817E0,1.238400817E0
1.290670842E0,4.013879299E0,8.965686798E0,1.233612418E0
1.293158498E0,3.932476282E0,8.994417191E0,1.219247222E0
1.295646155E0,3.884592295E0,8.994417191E0,1.228824019E0
1.298133811E0,3.836708307E0,8.941744804E0,1.267131209E0
1.300621467E0,3.788824081E0,8.855553627E0,1.315015316E0
1.303109123E0,3.769670486E0,8.778939247E0,1.324592113E0
1.305596780E0,3.769670486E0,8.721478462E0,1.315015316E0
1.308084436E0,3.750516891E0,8.673594475E0,1.295861721E0
1.310572092E0,3.736151695E0,8.664017677E0,1.281496406E0
1.313059748E0,3.726574898E0,8.692748070E0,1.247977614E0
1.315547405E0,3.726574898E0,8.721478462E0,1.185728431E0
1.318035061E0,3.745728493E0,8.721478462E0,1.104325533E0
1.320522717E0,3.750516891E0,8.735843658E0,1.051653147E0
1.323010373E0,3.779247284E0,8.721478462E0,9.941922426E-1
1.325498030E0,3.798400879E0,8.654440880E0,9.606734514E-1
1.327985686E0,3.817554712E0,8.592191696E0,9.463081956E-1
1.330473342E0,3.812766314E0,8.544307709E0,9.558850527E-1
1.332960998E0,3.784035683E0,8.520365715E0,9.510966539E-1
1.335448655E0,3.774458885E0,8.486846924E0,9.463081956E-1
1.337936311E0,3.769670486E0,8.477270126E0,9.415197968E-1
1.340423967E0,3.784035683E0,8.434173584E0,9.319429994E-1
1.342911623E0,3.788824081E0,8.391077995E0,9.510966539E-1
1.345399280E0,3.788824081E0,8.347982407E0,9.415197968E-1
1.347886936E0,3.793612480E0,8.314463615E0,9.463081956E-1
1.350374592E0,3.793612480E0,8.280944824E0,9.463081956E-1
1.352862248E0,3.788824081E0,8.309675217E0,9.415197968E-1
1.355349905E0,3.788824081E0,8.338405609E0,9.510966539E-1
1.357837561E0,3.807977915E0,8.347982407E0,9.798270464E-1
1.360325217E0,3.812766314E0,8.352770805E0,1.003769040E0
1.362812873E0,3.836708307E0,8.314463615E0,1.037287831E0
1.365300530E0,3.846285105E0,8.257002831E0,1.037287831E0
1.367788186E0,3.846285105E0,8.223484039E0,1.066018343E0
1.370275842E0,3.836708307E0,8.185176849E0,1.051653147E0
1.372763498E0,3.812766314E0,8.194753647E0,9.941922426E-1
1.375251155E0,3.793612480E0,8.213907242E0,9.463081956E-1
1.377738811E0,3.750516891E0,8.247426033E0,9.510966539E-1
1.380226467E0,3.716998100E0,8.276156425E0,9.654618502E-1
1.382714123E0,3.688267708E0,8.276156425E0,9.846154451E-1
1.385201780E0,3.659537315E0,8.266579628E0,1.037287831E0
1.387689436E0,3.630806923E0,8.242637634E0,1.128267527E0
1.390177092E0,3.587711334E0,8.175600052E0,1.214458823E0
1.392664748E0,3.554192305E0,8.132504463E0,1.238400817E0
1.395152405E0,3.468001127E0,8.089408875E0,1.224035621E0
1.397640061E0,3.396175146E0,8.051101685E0,1.185728431E0
1.400127717E0,3.343502760E0,8.017582893E0,1.137844324E0
1.402615373E0,3.309983969E0,7.998429298E0,1.137844324E0
1.405103030E0,3.314772367E0,7.964910507E0,1.118690729E0
1.407590686E0,3.329137564E0,7.969698906E0,1.109113932E0
1.410078342E0,3.362656355E0,7.974487305E0,1.133055925E0
1.412565998E0,3.405751944E0,7.988852501E0,1.147421122E0
1.415053655E0,3.477577925E0,7.988852501E0,1.166574836E0
1.417541311E0,3.530250311E0,7.945756912E0,1.180940032E0
1.420028967E0,3.573346138E0,7.897872925E0,1.166574836E0
1.422516623E0,3.582922935E0,7.873930931E0,1.089960337E0
1.425004280E0,3.535038710E0,7.849988937E0,1.085171938E0
1.427491936E0,3.448847532E0,7.821258545E0,1.128267527E0
1.429979592E0,3.348291159E0,7.802104950E0,1.166574836E0
1.432467248E0,3.252522945E0,7.768586159E0,1.185728431E0
1.434954905E0,3.180696964E0,7.763797760E0,1.204882026E0
1.437442561E0,3.094505787E0,7.735067368E0,1.214458823E0
1.439930217E0,3.060986757E0,7.711124897E0,1.204882026E0
1.442417873E0,3.022679567E0,7.672817707E0,1.219247222E0
1.444905530E0,3.022679567E0,7.677606106E0,1.252766013E0
1.447393186E0,3.008314371E0,7.691971302E0,1.281496406E0
1.449880842E0,2.984372377E0,7.739855766E0,1.315015316E0
1.452368498E0,2.960430384E0,7.797316551E0,1.315015316E0
1.454856155E0,2.984372377E0,7.821258545E0,1.291073322E0
1.457343811E0,3.027467966E0,7.802104950E0,1.252766013E0
1.459831467E0,3.108870983E0,7.730278969E0,1.224035621E0
1.462319123E0,3.171120167E0,7.639298916E0,1.209670424E0
1.464806780E0,3.185485363E0,7.553107738E0,1.190516829E0
1.467294436E0,3.166331768E0,7.548319340E0,1.247977614E0
1.469782092E0,3.123236179E0,7.615356922E0,1.310226917E0
1.472269748E0,3.070563793E0,7.730278969E0,1.386841297E0
1.474757405E0,3.056198359E0,7.811681747E0,1.516128182E0
1.477245061E0,3.080140591E0,7.854777336E0,1.477820992E0
1.479732717E0,3.128024578E0,7.840412140E0,1.382052898E0
1.482220373E0,3.156754971E0,7.773374557E0,1.300650120E0
1.484708030E0,3.190273762E0,7.687182903E0,1.180940032E0
1.487195686E0,3.185485363E0,7.596203327E0,1.161786318E0
1.489683342E0,3.118447781E0,7.548319340E0,1.204882026E0
1.492170998E0,3.017891169E0,7.543530941E0,1.334168911E0
1.494658655E0,2.917334795E0,7.615356922E0,1.473032594E0
1.497146311E0,2.797624588E0,7.687182903E0,1.540070295E0
1.499633967E0,2.725798607E0,7.720701694E0,1.597531080E0
1.502121623E0,2.682703018E0,7.730278969E0,1.669357181E0
1.504609280E0,2.639607430E0,7.691971302E0,1.626261473E0
1.507096936E0,2.591723442E0,7.639298916E0,1.520916581E0
1.509584592E0,2.539050817E0,7.596203327E0,1.405994892E0
1.512072248E0,2.491166830E0,7.586626530E0,1.286284804E0
1.514559905E0,2.472013235E0,7.610568523E0,1.228824019E0
1.517047561E0,2.476801634E0,7.634510517E0,1.190516829E0
1.519535217E0,2.524685621E0,7.644087315E0,1.185728431E0
1.522022873E0,2.610877037E0,7.629722118E0,1.214458823E0
1.524510530E0,2.744952202E0,7.610568523E0,1.276708007E0
1.526998186E0,2.831143618E0,7.634510517E0,1.305438519E0
1.529485842E0,2.898181200E0,7.701548100E0,1.281496406E0
1.531973498E0,2.950853586E0,7.778162956E0,1.286284804E0
1.534461155E0,2.989160776E0,7.854777336E0,1.324592113E0
1.536948811E0,3.046621561E0,7.950545311E0,1.338957310E0
1.539436467E0,3.104082584E0,8.027159691E0,1.329380512E0
1.541924123E0,3.199850559E0,8.022371292E0,1.319803715E0
1.544411780E0,3.271676540E0,7.969698906E0,1.315015316E0
1.546899436E0,3.295618534E0,7.878719330E0,1.271919608E0
1.549387092E0,3.276464939E0,7.773374557E0,1.209670424E0
1.551874748E0,3.175908566E0,7.663240910E0,1.238400817E0
1.554362405E0,3.032256365E0,7.629722118E0,1.334168911E0
1.556850061E0,2.821566820E0,7.701548100E0,1.348534107E0
1.559337717E0,2.639607430E0,7.849988937E0,1.362899303E0
1.561825373E0,2.543839216E0,8.008006096E0,1.487397790E0
1.564313030E0,2.519897223E0,8.103774071E0,1.602319479E0
1.566800686E0,2.548627615E0,8.189965248E0,1.621473074E0
1.569288342E0,2.620453835E0,8.199542046E0,1.626261473E0
1.571775998E0,2.711433411E0,8.118139267E0,1.583165884E0
1.574263655E0,2.797624588E0,8.027159691E0,1.511339784E0
1.576751311E0,2.888604403E0,7.921814919E0,1.501762986E0
1.579238967E0,2.936488390E0,7.840412140E0,1.544858694E0
1.581726623E0,2.931699991E0,7.802104950E0,1.583165884E0
1.584214280E0,2.864662409E0,7.821258545E0,1.626261473E0
1.586701936E0,2.788047791E0,7.888296127E0,1.654991984E0
1.589189592E0,2.692279816E0,7.993640900E0,1.717241168E0
1.591677248E0,2.596511841E0,8.156446457E0,1.765125155E0
1.594164905E0,2.562992811E0,8.285733223E0,1.841739655E0
1.596652561E0,2.529474020E0,8.367136002E0,1.990180135E0
1.599140217E0,2.510320425E0,8.491635323E0,2.062006235E0
1.601627873E0,2.467224836E0,8.649652481E0,2.081159830E0
1.604115530E0,2.452859640E0,8.783727646E0,2.095525026E0
1.606603186E0,2.452859640E0,8.874707222E0,2.172139406E0
1.609090842E0,2.452859640E0,8.970475197E0,2.282272816E0
1.611578498E0,2.476801634E0,9.027935982E0,2.358887196E0
1.614066155E0,2.519897223E0,9.066243172E0,2.435501575E0
1.616553811E0,2.606088638E0,9.080608368E0,2.507327795E0
1.619041467E0,2.701856613E0,9.075819969E0,2.521692991E0
1.621529123E0,2.797624588E0,9.109338760E0,2.459443808E0
1.624016780E0,2.874239206E0,9.147645950E0,2.449866772E0
1.626504436E0,2.893392801E0,9.243413925E0,2.411559582E0
1.628992092E0,2.912546396E0,9.401431084E0,2.401982784E0
1.631479748E0,2.907757998E0,9.578602791E0,2.387617588E0
1.633967405E0,2.926911592E0,9.746196747E0,2.382829189E0
1.636455061E0,2.950853586E0,9.841964722E0,2.449866772E0
1.638942717E0,2.984372377E0,9.865906715E0,2.579153776E0
1.641430373E0,2.993949175E0,9.818022728E0,2.703652382E0
1.643918030E0,2.970007181E0,9.736619949E0,2.856881142E0
1.646405686E0,2.888604403E0,9.636063576E0,2.957437754E0
1.648893342E0,2.783259392E0,9.583391190E0,2.995744944E0
1.651380998E0,2.663549423E0,9.573814392E0,3.019686937E0
1.653868655E0,2.572569609E0,9.616909981E0,2.990956545E0
1.656356311E0,2.548627615E0,9.698312759E0,2.928707123E0
1.658843967E0,2.620453835E0,9.750985146E0,2.876034737E0
1.661331623E0,2.759317398E0,9.722254753E0,2.861669540E0
1.663819280E0,2.970007181E0,9.602544785E0,2.861669540E0
1.666306936E0,3.219004154E0,9.391854286E0,2.928707123E0
1.668794592E0,3.444059134E0,9.128492355E0,3.000533342E0
1.671282248E0,3.592499733E0,8.860342026E0,3.019686937E0
1.673769905E0,3.683479309E0,8.644864082E0,2.914341927E0
1.676257561E0,3.693056107E0,8.486846924E0,2.746747971E0
1.678745217E0,3.640383720E0,8.405443192E0,2.598307371E0
1.681232873E0,3.525461912E0,8.381501198E0,2.483385801E0
1.683720530E0,3.381809950E0,8.462904930E0,2.358887196E0
1.686208186E0,3.233369350E0,8.592191696E0,2.311003208E0
1.688695842E0,3.151966572E0,8.707113266E0,2.354098797E0
1.691183498E0,3.118447781E0,8.807669640E0,2.378040791E0
1.693671155E0,3.113659382E0,8.812458038E0,2.406771183E0
1.696158811E0,3.108870983E0,8.716690063E0,2.440289974E0
1.698646467E0,3.094505787E0,8.568249702E0,2.416347980E0
1.701134123E0,3.046621561E0,8.429385185E0,2.320580006E0
1.703621780E0,2.955641985E0,8.328828812E0,2.186504602E0
1.706109436E0,2.802412987E0,8.343194008E0,2.042852640E0
1.708597092E0,2.653972626E0,8.467693329E0,1.980603337E0
1.711084748E0,2.472013235E0,8.697536469E0,2.042852640E0
1.713572405E0,2.337938070E0,9.003993988E0,2.066794634E0
1.716060061E0,2.270900249E0,9.291297913E0,2.090736628E0
1.718547717E0,2.304419041E0,9.487623215E0,2.133832216E0
1.721035373E0,2.472013235E0,9.516353607E0,2.215235233E0
1.723523030E0,2.706645012E0,9.411007881E0,2.368463993E0
1.726010686E0,2.970007181E0,9.214683533E0,2.507327795E0
1.728498342E0,3.190273762E0,9.013570786E0,2.627037764E0
1.730985998E0,3.329137564E0,8.869918823E0,2.741959572E0
1.733473655E0,3.372233152E0,8.793304443E0,2.842515945E0
1.735961311E0,3.324349165E0,8.778939247E0,2.895188332E0
1.738448967E0,3.223792553E0,8.793304443E0,2.943072557E0
1.740936623E0,3.104082584E0,8.860342026E0,2.990956545E0
1.743424280E0,3.008314371E0,8.932168007E0,3.019686937E0
1.745911936E0,2.974795580E0,8.946533203E0,3.105878115E0
1.748399592E0,2.998737574E0,8.941744804E0,3.201646328E0
1.750887248E0,3.065775394E0,8.936956406E0,3.125031710E0
1.753374905E0,3.147178173E0,8.903437614E0,3.091512918E0
1.755862561E0,3.223792553E0,8.764574051E0,3.091512918E0
1.758350217E0,3.257311344E0,8.640075684E0,3.034052134E0
1.760837873E0,3.252522945E0,8.549096107E0,2.871246338E0
1.763325530E0,3.195062160E0,8.501212120E0,2.708440781E0
1.765813186E0,3.113659382E0,8.467693329E0,2.536058187E0
1.768300842E0,3.013102770E0,8.482058525E0,2.401982784E0
1.770788498E0,2.888604403E0,8.496423721E0,2.363675594E0
1.773276155E0,2.778470993E0,8.491635323E0,2.382829189E0
1.775763811E0,2.701856613E0,8.467693329E0,2.440289974E0
1.778251467E0,2.639607430E0,8.429385185E0,2.483385801E0
1.780739123E0,2.586935043E0,8.357559204E0,2.516904593E0
1.783226780E0,2.529474020E0,8.276156425E0,2.483385801E0
1.785714436E0,2.491166830E0,8.218695641E0,2.449866772E0
1.788202092E0,2.414552450E0,8.213907242E0,2.358887196E0
1.790689748E0,2.318784237E0,8.319252014E0,2.243965626E0
1.793177405E0,2.242169857E0,8.477270126E0,2.157774210E0
1.795665061E0,2.223016262E0,8.673594475E0,2.129043818E0
1.798152717E0,2.246958256E0,8.822034836E0,2.186504602E0
1.800640373E0,2.328361034E0,8.927379608E0,2.354098797E0
1.803128030E0,2.438494444E0,8.970475197E0,2.550423384E0
1.805615686E0,2.543839216E0,8.994417191E0,2.689286947E0
1.808103342E0,2.630030632E0,9.023147583E0,2.756324768E0
1.810590998E0,2.639607430E0,9.032724380E0,2.722805977E0
1.813078655E0,2.630030632E0,9.056666374E0,2.636614561E0
1.815566311E0,2.596511841E0,9.037512779E0,2.593518972E0
1.818053967E0,2.586935043E0,9.018359184E0,2.622249365E0
1.820541623E0,2.630030632E0,8.946533203E0,2.756324768E0
1.823029280E0,2.716221809E0,8.893860817E0,2.895188332E0
1.825516936E0,2.835932016E0,8.879495621E0,3.019686937E0
1.828004592E0,2.946065187E0,8.889072418E0,3.081936121E0
1.830492248E0,3.003525972E0,8.898649216E0,3.101089716E0
1.832979905E0,3.027467966E0,8.889072418E0,3.057994127E0
1.835467561E0,3.008314371E0,8.860342026E0,2.990956545E0
1.837955217E0,2.960430384E0,8.869918823E0,2.871246338E0
1.840442873E0,2.883816004E0,8.860342026E0,2.674921751E0
1.842930530E0,2.797624588E0,8.841188431E0,2.464232206E0
1.845418186E0,2.697068214E0,8.826823235E0,2.253542423E0
1.847905842E0,2.582146645E0,8.769362450E0,2.085948229E0
1.850393498E0,2.476801634E0,8.721478462E0,1.985391736E0
1.852881155E0,2.395398855E0,8.668806076E0,1.908777356E0
1.855368811E0,2.352303267E0,8.596980095E0,1.927930951E0
1.857856467E0,2.313995838E0,8.520365715E0,1.918354154E0
1.860344123E0,2.246958256E0,8.472481728E0,1.918354154E0
1.862831780E0,2.160767078E0,8.424596786E0,1.966238141E0
1.865319436E0,2.045845270E0,8.453327179E0,2.052429438E0
1.867807092E0,1.902193308E0,8.515577316E0,2.148197412E0
1.870294748E0,1.768117905E0,8.606556892E0,2.243965626E0
1.872782405E0,1.701080322E0,8.692748070E0,2.272696018E0
1.875270061E0,1.715445518E0,8.750208855E0,2.210446835E0
1.877757717E0,1.796848416E0,8.769362450E0,2.062006235E0
1.880245373E0,1.935712099E0,8.764574051E0,1.836951256E0
1.882733030E0,2.108094692E0,8.731055260E0,1.674145579E0
1.885220686E0,2.280477047E0,8.740632057E0,1.640626669E0
1.887708342E0,2.404975653E0,8.831611633E0,1.760336757E0
1.890195998E0,2.476801634E0,8.975263596E0,1.975814939E0
1.892683655E0,2.500743628E0,9.233837128E0,2.143409014E0
1.895171311E0,2.553416014E0,9.501988411E0,2.291849613E0
1.897658967E0,2.606088638E0,9.674370766E0,2.483385801E0
1.900146623E0,2.673126221E0,9.755773544E0,2.660556555E0
1.902634280E0,2.725798607E0,9.784503937E0,2.880823135E0
1.905121936E0,2.783259392E0,9.746196747E0,2.990956545E0
1.907609592E0,2.835932016E0,9.683947563E0,2.967014551E0
1.910097248E0,2.869450808E0,9.583391190E0,2.914341927E0
1.912584905E0,2.859874010E0,9.506776810E0,2.880823135E0
1.915072561E0,2.797624588E0,9.468469620E0,2.880823135E0
1.917560217E0,2.687491417E0,9.497200012E0,2.895188332E0
1.920047873E0,2.572569609E0,9.559449196E0,2.938283920E0
1.922535530E0,2.472013235E0,9.645640373E0,2.943072557E0
1.925023186E0,2.357091665E0,9.703101158E0,2.899976730E0
1.927510842E0,2.261323452E0,9.746196747E0,2.856881142E0
1.929998498E0,2.194285870E0,9.803657532E0,2.799420357E0
1.932486155E0,2.132036686E0,9.827599525E0,2.718017578E0
1.934973811E0,2.103306293E0,9.784503937E0,2.636614561E0
1.937461467E0,2.060210466E0,9.727043152E0,2.507327795E0
1.939949123E0,2.017114878E0,9.636063576E0,2.397194386E0
1.942436780E0,1.940500498E0,9.535507202E0,2.344521999E0
1.944924436E0,1.839944005E0,9.444527626E0,2.354098797E0
1.947412092E0,1.758541107E0,9.334393501E0,2.406771183E0
1.949899748E0,1.667561531E0,9.243413925E0,2.531269789E0
1.952387405E0,1.576581836E0,9.200318336E0,2.612672567E0
1.954875061E0,1.466448545E0,9.171587944E0,2.588730574E0
1.957362717E0,1.341950059E0,9.205106735E0,2.521692991E0
1.959850373E0,1.265335560E0,9.233837128E0,2.536058187E0
1.962338030E0,1.203086376E0,9.276932716E0,2.531269789E0
1.964825686E0,1.203086376E0,9.353547096E0,2.478597403E0
1.967313342E0,1.274912357E0,9.434949875E0,2.449866772E0
1.969800998E0,1.399410844E0,9.525930405E0,2.478597403E0
1.972288655E0,1.595735431E0,9.597756386E0,2.646191359E0
1.974776311E0,1.763329506E0,9.674370766E0,2.976591349E0
1.977263967E0,1.868674397E0,9.837176323E0,3.249530315E0
1.979751623E0,1.921346903E0,1.002871227E1,3.378817081E0
1.982239280E0,1.916558504E0,1.019151783E1,3.498527288E0
1.984726936E0,1.930923700E0,1.028728580E1,3.594295263E0
1.987214592E0,1.921346903E0,1.029207420E1,3.656544447E0
1.989702248E0,1.921346903E0,1.021545982E1,3.642179251E0
1.992189905E0,1.911770105E0,1.010532665E1,3.546411276E0
1.994677561E0,1.892616391E0,9.966463089E0,3.383605480E0
1.997165217E0,1.935712099E0,9.837176323E0,3.235165119E0
1.999652873E0,1.988384485E0,9.717466354E0,3.172915697E0
2.002140530E0,1.997961283E0,9.650428772E0,3.153762102E0
2.004628186E0,1.993172884E0,9.660005569E0,3.172915697E0
2.007115842E0,1.978807688E0,9.707889557E0,3.192069530E0
2.009603498E0,1.930923700E0,9.818022728E0,3.187281132E0
2.012091155E0,1.849520802E0,9.976039886E0,3.086724520E0
2.014578811E0,1.734599113E0,1.015799904E1,2.895188332E0
2.017066467E0,1.600523829E0,1.032080460E1,2.746747971E0
2.019554123E0,1.466448545E0,1.044051552E1,2.732382774E0
2.022041780E0,1.337161660E0,1.047882271E1,2.794631958E0
2.024529436E0,1.222239971E0,1.047882271E1,2.899976730E0
2.027017092E0,1.116895080E0,1.045009232E1,2.986168146E0
2.029504748E0,1.025915384E0,1.033995819E1,3.048417330E0
2.031992405E0,9.157821536E-1,1.017715263E1,3.105878115E0
2.034480061E0,8.056488633E-1,9.990405083E0,3.067570925E0
2.036967717E0,7.003039718E-1,9.813234329E0,2.952649355E0
2.039455373E0,5.853823423E-1,9.712677956E0,2.813785553E0
2.041943030E0,4.704606235E-1,9.660005569E0,2.775478363E0
2.044430686E0,3.842693865E-1,9.703101158E0,2.823362350E0
2.046918342E0,3.363853395E-1,9.770138741E0,2.842515945E0
2.049405998E0,3.651157618E-1,9.837176323E0,2.866457939E0
2.051893655E0,4.848258495E-1,9.827599525E0,2.899976730E0
2.054381311E0,6.763619781E-1,9.755773544E0,2.895188332E0
2.056868967E0,9.014169574E-1,9.655217171E0,2.832939148E0
2.059356623E0,1.150413871E0,9.573814392E0,2.722805977E0
2.061844280E0,1.322796464E0,9.439739227E0,2.708440781E0
2.064331936E0,1.461660147E0,9.358335495E0,2.789843559E0
2.066819592E0,1.523909330E0,9.320028305E0,2.847304344E0
2.069307248E0,1.528697729E0,9.343970299E0,2.780266762E0
2.071794905E0,1.523909330E0,9.367912292E0,2.670133352E0
2.074282561E0,1.519120932E0,9.372700691E0,2.545634985E0
2.076770217E0,1.543063045E0,9.396642685E0,2.301426411E0
2.079257873E0,1.581370234E0,9.411007881E0,2.042852640E0
2.081745530E0,1.638831019E0,9.463681221E0,1.813009262E0
2.084233186E0,1.729810715E0,9.525930405E0,1.669357181E0
2.086720842E0,1.825578809E0,9.631275177E0,1.645415068E0
2.089208498E0,1.916558504E0,9.707889557E0,1.798644066E0
2.091696155E0,1.954865694E0,9.746196747E0,2.076371431E0
2.094183811E0,1.935712099E0,9.784503937E0,2.339733601E0
2.096671467E0,1.854309201E0,9.841964722E0,2.593518972E0
2.099159123E0,1.739387512E0,9.846753120E0,2.794631958E0
2.101646780E0,1.543063045E0,9.818022728E0,2.947860956E0
2.104134436E0,1.313219666E0,9.789292336E0,3.024475336E0
2.106622092E0,1.030703783E0,9.755773544E0,3.072359324E0
2.109109748E0,7.817068696E-1,9.693524361E0,3.129820108E0
2.111597405E0,5.853823423E-1,9.636063576E0,3.057994127E0
2.114085061E0,4.608838260E-1,9.588179588E0,2.914341927E0
2.116572717E0,3.794809580E-1,9.549872398E0,2.813785553E0
2.119060373E0,3.890577853E-1,9.516353607E0,2.789843559E0
2.121548030E0,4.800374508E-1,9.449316025E0,2.909553528E0
2.124035686E0,6.045359373E-1,9.411007881E0,3.091512918E0
2.126523342E0,7.721300721E-1,9.449316025E0,2.990956545E0
2.129010998E0,9.493009448E-1,9.497200012E0,2.813785553E0
2.131498655E0,1.126471877E0,9.492411613E0,2.770689964E0
2.133986311E0,1.260547161E0,9.473258018E0,2.775478363E0
2.136473967E0,1.303642869E0,9.492411613E0,2.727594376E0
2.138961623E0,1.284489155E0,9.545084000E0,2.655768156E0
2.141449280E0,1.241393566E0,9.607333183E0,2.627037764E0
2.143936936E0,1.198297977E0,9.645640373E0,2.708440781E0
2.146424592E0,1.159990668E0,9.669582367E0,2.828150749E0
2.148912248E0,1.145625472E0,9.660005569E0,2.923918724E0
2.151399905E0,1.174355984E0,9.612121582E0,2.957437754E0
2.153887561E0,1.227028370E0,9.540295601E0,2.909553528E0
2.156375217E0,1.255758762E0,9.482834816E0,2.818573952E0
2.158862873E0,1.236605167E0,9.458892822E0,2.770689964E0
2.161350530E0,1.203086376E0,9.478046417E0,2.780266762E0
2.163838186E0,1.159990668E0,9.535507202E0,2.837727547E0
2.166325842E0,1.155202270E0,9.573814392E0,2.971802950E0
2.168813498E0,1.169567585E0,9.650428772E0,3.091512918E0
2.171301207E0,1.236605167E0,9.693524361E0,3.139396906E0
2.173788915E0,1.337161660E0,9.688735962E0,3.168127298E0
2.176276623E0,1.447294950E0,9.640851974E0,3.235165119E0
2.178764332E0,1.557428241E0,9.559449196E0,3.235165119E0
2.181252040E0,1.638831019E0,9.473258018E0,3.163338900E0
2.183739748E0,1.696291924E0,9.406219482E0,3.091512918E0
2.186227457E0,1.734599113E0,9.353547096E0,2.990956545E0
2.188715165E0,1.734599113E0,9.358335495E0,2.899976730E0
2.191202873E0,1.734599113E0,9.382277489E0,2.828150749E0
2.193690582E0,1.734599113E0,9.425373077E0,2.804208755E0
2.196178290E0,1.768117905E0,9.463681221E0,2.842515945E0
2.198665998E0,1.820790410E0,9.501988411E0,2.904765129E0
2.201153707E0,1.911770105E0,9.501988411E0,3.005321741E0
2.203641415E0,2.026691675E0,9.482834816E0,3.091512918E0
2.206129123E0,2.122459888E0,9.439739227E0,3.125031710E0
2.208616832E0,2.160767078E0,9.420584679E0,3.067570925E0
2.211104540E0,2.112883091E0,9.396642685E0,2.938283920E0
2.213592248E0,2.007538080E0,9.396642685E0,2.828150749E0
2.216079957E0,1.863885999E0,9.363123894E0,2.727594376E0
2.218567665E0,1.729810715E0,9.329605103E0,2.665344954E0
2.221055373E0,1.605312228E0,9.334393501E0,2.631826162E0
2.223543082E0,1.567005038E0,9.358335495E0,2.627037764E0
2.226030790E0,1.562216640E0,9.367912292E0,2.727594376E0
2.228518498E0,1.557428241E0,9.406219482E0,2.856881142E0
2.231006207E0,1.571793437E0,9.420584679E0,3.034052134E0
2.233493915E0,1.562216640E0,9.463681221E0,3.153762102E0
2.235981571E0,1.562216640E0,9.478046417E0,3.216011524E0
2.238469228E0,1.581370234E0,9.434949875E0,3.216011524E0
2.240956884E0,1.624465823E0,9.367912292E0,3.091512918E0
2.243444540E0,1.691503525E0,9.286509514E0,2.876034737E0
2.245932196E0,1.787271619E0,9.243413925E0,2.641402960E0
2.248419853E0,1.930923700E0,9.209895134E0,2.435501575E0
2.250907509E0,2.055422068E0,9.229048729E0,2.277484417E0
2.253395165E0,2.160767078E0,9.296086311E0,2.205658197E0
2.255882821E0,2.251746655E0,9.391854286E0,2.243965626E0
2.258370478E0,2.318784237E0,9.506776810E0,2.406771183E0
2.260858134E0,2.333149672E0,9.597756386E0,2.603095770E0
2.263345790E0,2.328361034E0,9.669582367E0,2.799420357E0
2.265833446E0,2.285265446E0,9.712677956E0,2.904765129E0
2.268321103E0,2.208651066E0,9.741408348E0,2.899976730E0
2.270808759E0,2.122459888E0,9.717466354E0,2.856881142E0
2.273296415E0,2.055422068E0,9.650428772E0,2.775478363E0
2.275784071E0,2.021903276E0,9.597756386E0,2.646191359E0
2.278271728E0,1.988384485E0,9.545084000E0,2.531269789E0
2.280759384E0,2.012326479E0,9.516353607E0,2.473809004E0
2.283247040E0,2.079364061E0,9.511565208E0,2.430713177E0
2.285734696E0,2.160767078E0,9.506776810E0,2.464232206E0
2.288222353E0,2.261323452E0,9.521142006E0,2.521692991E0
2.290710009E0,2.323572636E0,9.545084000E0,2.622249365E0
2.293197665E0,2.328361034E0,9.564237595E0,2.785055161E0
2.295685321E0,2.266111851E0,9.578602791E0,2.952649355E0
2.298172978E0,2.175132275E0,9.631275177E0,2.990956545E0
2.300660634E0,2.055422068E0,9.660005569E0,2.976591349E0
2.303148290E0,1.945288897E0,9.660005569E0,2.938283920E0
2.305635946E0,1.887827992E0,9.616909981E0,2.832939148E0
2.308123603E0,1.859097600E0,9.597756386E0,2.703652382E0
2.310611259E0,1.906981707E0,9.578602791E0,2.526481390E0
2.313098915E0,1.969230890E0,9.535507202E0,2.368463993E0
2.315586571E0,2.064998865E0,9.516353607E0,2.315791607E0
2.318074228E0,2.132036686E0,9.482834816E0,2.354098797E0
2.320561884E0,2.155978680E0,9.449316025E0,2.449866772E0
2.323049540E0,2.136825085E0,9.430161476E0,2.550423384E0
2.325537196E0,2.088941097E0,9.420584679E0,2.631826162E0
2.328024853E0,2.050633669E0,9.411007881E0,2.689286947E0
2.330512509E0,1.983596087E0,9.406219482E0,2.756324768E0
2.333000165E0,1.950077295E0,9.415796280E0,2.732382774E0
2.335487821E0,1.978807688E0,9.497200012E0,2.583942175E0
2.337975478E0,2.045845270E0,9.588179588E0,2.397194386E0
2.340463134E0,2.151190281E0,9.650428772E0,2.267907619E0
2.342950790E0,2.251746655E0,9.698312759E0,2.224812031E0
2.345438446E0,2.313995838E0,9.750985146E0,2.277484417E0
2.347926103E0,2.361880064E0,9.741408348E0,2.449866772E0
2.350413759E0,2.376245260E0,9.731831551E0,2.713229179E0
2.352901415E0,2.381033659E0,9.731831551E0,2.943072557E0
2.355389071E0,2.347514868E0,9.727043152E0,3.062782526E0
2.357876728E0,2.299630642E0,9.736619949E0,3.019686937E0
2.360364384E0,2.261323452E0,9.784503937E0,2.880823135E0
2.362852040E0,2.246958256E0,9.846753120E0,2.722805977E0
2.365339696E0,2.270900249E0,9.909002304E0,2.603095770E0
2.367827353E0,2.337938070E0,9.995193481E0,2.574365377E0
2.370315009E0,2.443282843E0,1.004307747E1,2.674921751E0
2.372802665E0,2.606088638E0,1.003350067E1,2.770689964E0
2.375290321E0,2.725798607E0,1.011969185E1,2.914341927E0
2.377777978E0,2.831143618E0,1.019630623E1,3.091512918E0
2.380265634E0,2.869450808E0,1.025376701E1,3.206434727E0
2.382753290E0,2.874239206E0,1.023940182E1,3.268683910E0
2.385240946E0,2.864662409E0,1.020109463E1,3.335721493E0
2.387728603E0,2.802412987E0,1.015321064E1,3.354875088E0
2.390216259E0,2.730587006E0,1.017715263E1,3.287837505E0
2.392703915E0,2.677914619E0,1.021545982E1,3.182492495E0
2.395191571E0,2.644395828E0,1.028249741E1,3.120243311E0
2.397679228E0,2.677914619E0,1.033038139E1,3.086724520E0
2.400166884E0,2.716221809E0,1.035911179E1,3.115454912E0
2.402654540E0,2.754528999E0,1.039263058E1,3.187281132E0
2.405142196E0,2.807201385E0,1.038305378E1,3.292625904E0
2.407629853E0,2.811989784E0,1.032080460E1,3.397970676E0
2.410117509E0,2.783259392E0,1.027770901E1,3.484162092E0
2.412605165E0,2.706645012E0,1.022503662E1,3.493738890E0
2.415092821E0,2.620453835E0,1.017236423E1,3.436278105E0
2.417580478E0,2.534262419E0,1.013405704E1,3.321356297E0
2.420068134E0,2.515108824E0,1.013405704E1,3.211223125E0
2.422555790E0,2.524685621E0,1.016757584E1,3.134608507E0
2.425043446E0,2.582146645E0,1.022982502E1,3.120243311E0
2.427531103E0,2.673126221E0,1.027292061E1,3.182492495E0
2.430018759E0,2.754528999E0,1.033038139E1,3.287837505E0
2.432506415E0,2.773682594E0,1.040699577E1,3.393182278E0
2.434994071E0,2.764105797E0,1.047403431E1,3.436278105E0
2.437481728E0,2.716221809E0,1.049797630E1,3.484162092E0
2.439969384E0,2.658761024E0,1.052670670E1,3.479373693E0
2.442457040E0,2.615665436E0,1.051712990E1,3.474585295E0
2.444944696E0,2.601300240E0,1.046924591E1,3.460220098E0
2.447432353E0,2.596511841E0,1.045488071E1,3.431489468E0
2.449920009E0,2.630030632E0,1.045966911E1,3.345298290E0
2.452407665E0,2.653972626E0,1.045488071E1,3.192069530E0
2.454895321E0,2.706645012E0,1.044530392E1,3.101089716E0
2.457382978E0,2.744952202E0,1.043572712E1,3.081936121E0
2.459870634E0,2.764105797E0,1.042615032E1,3.077147722E0
2.462358290E0,2.759317398E0,1.041657257E1,3.081936121E0
2.464845946E0,2.744952202E0,1.041178417E1,3.120243311E0
2.467333603E0,2.725798607E0,1.039263058E1,3.158550501E0
2.469821259E0,2.721010208E0,1.040699577E1,3.182492495E0
2.472308915E0,2.706645012E0,1.040220737E1,3.206434727E0
2.474796571E0,2.706645012E0,1.037826538E1,3.225588322E0
2.477284228E0,2.701856613E0,1.035432339E1,3.206434727E0
2.479771884E0,2.735375404E0,1.035432339E1,3.163338900E0
2.482259540E0,2.778470993E0,1.032559299E1,3.129820108E0
2.484747196E0,2.807201385E0,1.028249741E1,3.139396906E0
2.487234853E0,2.855085611E0,1.023461342E1,3.168127298E0
2.489722509E0,2.869450808E0,1.020109463E1,3.211223125E0
2.492210165E0,2.864662409E0,1.018194103E1,3.182492495E0
2.494697821E0,2.859874010E0,1.020109463E1,3.163338900E0
2.497185478E0,2.840720415E0,1.018672943E1,3.177704096E0
2.499673134E0,2.792836189E0,1.019151783E1,3.225588322E0
2.502160790E0,2.716221809E0,1.017715263E1,3.244741917E0
2.504648446E0,2.620453835E0,1.015799904E1,3.216011524E0
2.507136103E0,2.534262419E0,1.015321064E1,3.172915697E0
2.509623759E0,2.481590033E0,1.012448025E1,3.201646328E0
2.512111415E0,2.433706045E0,1.009574986E1,3.268683910E0
2.514599071E0,2.404975653E0,1.010053825E1,3.292625904E0
2.517086728E0,2.357091665E0,1.012926865E1,3.259107113E0
2.519574384E0,2.328361034E0,1.013405704E1,3.249530315E0
2.522062040E0,2.266111851E0,1.014363384E1,3.268683910E0
2.524549696E0,2.199074268E0,1.013884544E1,3.259107113E0
2.527037353E0,2.108094692E0,1.016278744E1,3.244741917E0
2.529525009E0,2.045845270E0,1.015321064E1,3.287837505E0
2.532012665E0,1.988384485E0,1.012448025E1,3.402759075E0
2.534500321E0,1.911770105E0,1.011490345E1,3.460220098E0
2.536987978E0,1.839944005E0,1.011969185E1,3.450643301E0
2.539475634E0,1.782483220E0,1.013884544E1,3.407547474E0
2.541963290E0,1.739387512E0,1.016757584E1,3.302202702E0
2.544450946E0,1.720233917E0,1.016757584E1,3.201646328E0
2.546938603E0,1.715445518E0,1.016757584E1,3.101089716E0
2.549426259E0,1.748964310E0,1.016278744E1,3.053205729E0
2.551913915E0,1.768117905E0,1.013884544E1,3.053205729E0
2.554401571E0,1.768117905E0,1.012448025E1,3.091512918E0
2.556889228E0,1.748964310E0,1.013884544E1,3.101089716E0
2.559376884E0,1.677138329E0,1.016278744E1,3.120243311E0
2.561864540E0,1.600523829E0,1.017715263E1,3.144185305E0
2.564352196E0,1.538274646E0,1.022024822E1,3.163338900E0
2.566839853E0,1.461660147E0,1.022982502E1,3.105878115E0
2.569327509E0,1.423352957E0,1.025855541E1,3.019686937E0
2.571815165E0,1.428141356E0,1.022982502E1,2.976591349E0
2.574302821E0,1.442506552E0,1.021067142E1,2.962226152E0
2.576790478E0,1.485602140E0,1.015321064E1,2.967014551E0
2.579278134E0,1.504755735E0,1.015321064E1,2.962226152E0
2.581765790E0,1.547851443E0,1.017236423E1,2.947860956E0
2.584253446E0,1.600523829E0,1.018194103E1,2.995744944E0
2.586741103E0,1.614889026E0,1.021545982E1,3.115454912E0
2.589228759E0,1.614889026E0,1.025376701E1,3.283049107E0
2.591716415E0,1.600523829E0,1.029686260E1,3.417124271E0
2.594204071E0,1.543063045E0,1.037826538E1,3.465008497E0
2.596691728E0,1.466448545E0,1.045009232E1,3.441066504E0
2.599179384E0,1.432929754E0,1.052191830E1,3.407547474E0
2.601667040E0,1.375468850E0,1.053149509E1,3.407547474E0
2.604154696E0,1.380257249E0,1.054586029E1,3.412335873E0
2.606642353E0,1.418564558E0,1.054107189E1,3.460220098E0
2.609130009E0,1.432929754E0,1.052670670E1,3.536834478E0
2.611617665E0,1.408987641E0,1.053628349E1,3.623025656E0
2.614105321E0,1.385045648E0,1.054586029E1,3.723582268E0
2.616592978E0,1.370680451E0,1.058416748E1,3.785831451E0
2.619080634E0,1.332373261E0,1.063683987E1,3.800196648E0
2.621568290E0,1.318008065E0,1.063683987E1,3.757101059E0
2.624055946E0,1.332373261E0,1.064641666E1,3.699640274E0
2.626543603E0,1.394622445E0,1.063683987E1,3.642179251E0
2.629031259E0,1.480813742E0,1.061768627E1,3.560776472E0
2.631518915E0,1.586158633E0,1.060810947E1,3.512892485E0
2.634006571E0,1.653196216E0,1.060810947E1,3.522469282E0
2.636494228E0,1.710657120E0,1.061289787E1,3.536834478E0
2.638981884E0,1.725022316E0,1.063683987E1,3.541622877E0
2.641469540E0,1.691503525E0,1.066078186E1,3.532046080E0
2.643957196E0,1.634042621E0,1.068472385E1,3.536834478E0
2.646444853E0,1.571793437E0,1.069908905E1,3.555988073E0
2.648932509E0,1.514332533E0,1.066557026E1,3.603872061E0
2.651420165E0,1.495178938E0,1.062247467E1,3.637390852E0
2.653907821E0,1.490390539E0,1.054586029E1,3.623025656E0
2.656395478E0,1.514332533E0,1.044530392E1,3.589506865E0
2.658883134E0,1.547851443E0,1.036390018E1,3.498527288E0
2.661370790E0,1.590947032E0,1.029686260E1,3.421912670E0
2.663858446E0,1.638831019E0,1.022982502E1,3.378817081E0
2.666346103E0,1.672349930E0,1.019151783E1,3.326144695E0
2.668833759E0,1.657984734E0,1.017715263E1,3.287837505E0
2.671321415E0,1.653196216E0,1.015799904E1,3.273472309E0
2.673809071E0,1.653196216E0,1.015321064E1,3.302202702E0
2.676296728E0,1.657984734E0,1.013405704E1,3.364451885E0
2.678784384E0,1.662773132E0,1.011011505E1,3.450643301E0
2.681272040E0,1.710657120E0,1.005265427E1,3.536834478E0
2.683759696E0,1.739387512E0,9.999981880E0,3.608660460E0
2.686247353E0,1.777694821E0,9.956886292E0,3.666121244E0
2.688735009E0,1.777694821E0,9.918579102E0,3.670909643E0
2.691222665E0,1.748964310E0,9.870695114E0,3.675698042E0
2.693710321E0,1.681926727E0,9.808445930E0,3.637390852E0
2.696197978E0,1.643619418E0,9.755773544E0,3.584718466E0
2.698685634E0,1.614889026E0,9.693524361E0,3.560776472E0
2.701173290E0,1.634042621E0,9.621698380E0,3.536834478E0
2.703660946E0,1.681926727E0,9.583391190E0,3.527257681E0
2.706148603E0,1.744175911E0,9.516353607E0,3.546411276E0
2.708636259E0,1.806425214E0,9.482834816E0,3.527257681E0
2.711123915E0,1.863885999E0,9.473258018E0,3.474585295E0
2.713611571E0,1.916558504E0,9.468469620E0,3.479373693E0
2.716099228E0,1.959654093E0,9.463681221E0,3.508104086E0
2.718586884E0,1.969230890E0,9.473258018E0,3.546411276E0
2.721074540E0,1.978807688E0,9.444527626E0,3.613448858E0
2.723562196E0,1.969230890E0,9.401431084E0,3.718793869E0
2.726049853E0,1.945288897E0,9.343970299E0,3.800196648E0
2.728537509E0,1.916558504E0,9.310451508E0,3.843292236E0
2.731025165E0,1.878251195E0,9.276932716E0,3.891176224E0
2.733512821E0,1.816002011E0,9.267355919E0,3.828927040E0
2.736000478E0,1.768117905E0,9.257779121E0,3.752312660E0
2.738488134E0,1.715445518E0,9.224260330E0,3.761889458E0
2.740975790E0,1.643619418E0,9.185953140E0,3.781043053E0
2.743463446E0,1.581370234E0,9.157222748E0,3.757101059E0
2.745951103E0,1.499967337E0,9.133280754E0,3.742735863E0
2.748438759E0,1.428141356E0,9.071031570E0,3.704428673E0
2.750926415E0,1.385045648E0,9.018359184E0,3.709217072E0
2.753414071E0,1.361103654E0,8.965686798E0,3.714005470E0
2.755901728E0,1.327584863E0,8.927379608E0,3.747524261E0
2.758389384E0,1.322796464E0,8.884284019E0,3.733159065E0
2.760877040E0,1.318008065E0,8.826823235E0,3.733159065E0
2.763364696E0,1.308431268E0,8.793304443E0,3.728370667E0
2.765852353E0,1.313219666E0,8.740632057E0,3.723582268E0
2.768340009E0,1.313219666E0,8.697536469E0,3.757101059E0
2.770827665E0,1.341950059E0,8.654440880E0,3.824138641E0
2.773315321E0,1.365892053E0,8.654440880E0,3.781043053E0
2.775802978E0,1.380257249E0,8.678382874E0,3.646967649E0
2.778290634E0,1.389834046E0,8.668806076E0,3.632602453E0
2.780778290E0,1.394622445E0,8.649652481E0,3.661332846E0
2.783265946E0,1.389834046E0,8.664017677E0,3.637390852E0
2.785753603E0,1.380257249E0,8.673594475E0,3.618237257E0
2.788241259E0,1.365892053E0,8.654440880E0,3.589506865E0
2.790728915E0,1.337161660E0,8.654440880E0,3.565564871E0
2.793216571E0,1.322796464E0,8.635287285E0,3.541622877E0
2.795704228E0,1.318008065E0,8.596980095E0,3.508104086E0
2.798191884E0,1.308431268E0,8.573038101E0,3.508104086E0
2.800679540E0,1.313219666E0,8.549096107E0,3.508104086E0
2.803167196E0,1.337161660E0,8.534730911E0,3.488950491E0
2.805654853E0,1.356315255E0,8.520365715E0,3.431489468E0
2.808142509E0,1.408987641E0,8.506000519E0,3.364451885E0
2.810630165E0,1.437718153E0,8.515577316E0,3.326144695E0
2.813117821E0,1.452083349E0,8.520365715E0,3.283049107E0
2.815605478E0,1.456871748E0,8.539519310E0,3.259107113E0
2.818093134E0,1.466448545E0,8.573038101E0,3.268683910E0
2.820580790E0,1.442506552E0,8.587403297E0,3.311779499E0
2.823068446E0,1.408987641E0,8.611345291E0,3.388393879E0
2.825556103E0,1.389834046E0,8.664017677E0,3.445854902E0
2.828043759E0,1.361103654E0,8.726266861E0,3.460220098E0
2.830531415E0,1.332373261E0,8.798092842E0,3.421912670E0
2.833019071E0,1.313219666E0,8.884284019E0,3.402759075E0
2.835506728E0,1.294066072E0,8.908226013E0,3.393182278E0
2.837994384E0,1.294066072E0,8.941744804E0,3.388393879E0
2.840482040E0,1.289277673E0,8.970475197E0,3.354875088E0
2.842969696E0,1.294066072E0,8.980051994E0,3.278260708E0
2.845457353E0,1.298854470E0,8.984840393E0,3.235165119E0
2.847945009E0,1.308431268E0,8.970475197E0,3.220799923E0
2.850432665E0,1.303642869E0,8.975263596E0,3.177704096E0
2.852920321E0,1.294066072E0,8.980051994E0,3.182492495E0
2.855407978E0,1.298854470E0,8.980051994E0,3.211223125E0
2.857895634E0,1.318008065E0,8.984840393E0,3.254318714E0
2.860383290E0,1.318008065E0,8.984840393E0,3.249530315E0
2.862870946E0,1.308431268E0,9.008782387E0,3.249530315E0
2.865358603E0,1.318008065E0,9.042301178E0,3.244741917E0
2.867846259E0,1.327584863E0,9.085396767E0,3.201646328E0
2.870333915E0,1.375468850E0,9.099761963E0,3.120243311E0
2.872821571E0,1.404199243E0,9.138069153E0,3.053205729E0
2.875309228E0,1.423352957E0,9.181164742E0,2.981379747E0
2.877796884E0,1.442506552E0,9.205106735E0,2.923918724E0
2.880284540E0,1.447294950E0,9.219471931E0,2.947860956E0
2.882772196E0,1.480813742E0,9.219471931E0,2.938283920E0
2.885259853E0,1.461660147E0,9.267355919E0,2.957437754E0
2.887747509E0,1.471236944E0,9.276932716E0,2.952649355E0
2.890235165E0,1.490390539E0,9.272144318E0,2.976591349E0
2.892722821E0,1.519120932E0,9.272144318E0,2.986168146E0
2.895210478E0,1.523909330E0,9.257779121E0,3.010110140E0
2.897698134E0,1.552639842E0,9.262567520E0,2.995744944E0
2.900185790E0,1.576581836E0,9.272144318E0,2.957437754E0
2.902673446E0,1.586158633E0,9.272144318E0,2.904765129E0
2.905161103E0,1.586158633E0,9.291297913E0,2.885611534E0
2.907648759E0,1.614889026E0,9.310451508E0,2.885611534E0
2.910136415E0,1.624465823E0,9.348758698E0,2.890399933E0
2.912624071E0,1.629254222E0,9.391854286E0,2.928707123E0
2.915111728E0,1.610100627E0,9.430161476E0,2.962226152E0
2.917599384E0,1.595735431E0,9.473258018E0,3.010110140E0
2.920087040E0,1.605312228E0,9.521142006E0,3.062782526E0
2.922574696E0,1.619677424E0,9.554660797E0,3.096301317E0
2.925062353E0,1.638831019E0,9.554660797E0,3.125031710E0
2.927550009E0,1.677138329E0,9.549872398E0,3.168127298E0
2.930037665E0,1.705868721E0,9.545084000E0,3.220799923E0
2.932525321E0,1.715445518E0,9.549872398E0,3.249530315E0
2.935012978E0,1.691503525E0,9.554660797E0,3.259107113E0
2.937500634E0,1.662773132E0,9.573814392E0,3.278260708E0
2.939988290E0,1.605312228E0,9.583391190E0,3.292625904E0
2.942475946E0,1.543063045E0,9.607333183E0,3.278260708E0
2.944963603E0,1.509544134E0,9.621698380E0,3.283049107E0
2.947451259E0,1.485602140E0,9.655217171E0,3.259107113E0
2.949938915E0,1.480813742E0,9.655217171E0,3.230376720E0
2.952426571E0,1.499967337E0,9.655217171E0,3.230376720E0
2.954914228E0,1.528697729E0,9.616909981E0,3.225588322E0
2.957401884E0,1.557428241E0,9.573814392E0,3.259107113E0
2.959889540E0,1.581370234E0,9.564237595E0,3.287837505E0
2.962377196E0,1.590947032E0,9.554660797E0,3.287837505E0
2.964864853E0,1.586158633E0,9.535507202E0,3.263895512E0
2.967352509E0,1.567005038E0,9.535507202E0,3.235165119E0
2.969840165E0,1.552639842E0,9.501988411E0,3.225588322E0
2.972327821E0,1.523909330E0,9.497200012E0,3.230376720E0
2.974815478E0,1.523909330E0,9.487623215E0,3.235165119E0
2.977303134E0,1.519120932E0,9.482834816E0,3.249530315E0
2.979790790E0,1.519120932E0,9.473258018E0,3.273472309E0
2.982278446E0,1.543063045E0,9.463681221E0,3.297414303E0
2.984766103E0,1.562216640E0,9.487623215E0,3.316567898E0
2.987253759E0,1.581370234E0,9.501988411E0,3.321356297E0
2.989741415E0,1.595735431E0,9.506776810E0,3.335721493E0
2.992229071E0,1.638831019E0,9.497200012E0,3.350086689E0
2.994716728E0,1.667561531E0,9.492411613E0,3.345298290E0
2.997204384E0,1.696291924E0,9.501988411E0,3.340509892E0
2.999692040E0,1.725022316E0,9.492411613E0,3.306991100E0
3.002179696E0,1.753752708E0,9.482834816E0,3.283049107E0
3.004667353E0,1.796848416E0,9.478046417E0,3.292625904E0
3.007155009E0,1.825578809E0,9.501988411E0,3.249530315E0
3.009642665E0,1.830367208E0,9.506776810E0,3.211223125E0
3.012130321E0,1.863885999E0,9.511565208E0,3.206434727E0
3.014617978E0,1.873462796E0,9.506776810E0,3.244741917E0
3.017105634E0,1.859097600E0,9.492411613E0,3.278260708E0
3.019593290E0,1.844732404E0,9.487623215E0,3.321356297E0
3.022080946E0,1.835155606E0,9.487623215E0,3.364451885E0
3.024568603E0,1.811213613E0,9.487623215E0,3.397970676E0
3.027056259E0,1.777694821E0,9.478046417E0,3.397970676E0
3.029543915E0,1.777694821E0,9.482834816E0,3.374028683E0
3.032031571E0,1.792060018E0,9.506776810E0,3.326144695E0
3.034519228E0,1.777694821E0,9.497200012E0,3.354875088E0
3.037006884E0,1.758541107E0,9.487623215E0,3.364451885E0
3.039494540E0,1.753752708E0,9.492411613E0,3.374028683E0
3.041982196E0,1.753752708E0,9.497200012E0,3.369240284E0
3.044469853E0,1.734599113E0,9.492411613E0,3.393182278E0
3.046957509E0,1.725022316E0,9.482834816E0,3.417124271E0
3.049445165E0,1.744175911E0,9.468469620E0,3.417124271E0
3.051932821E0,1.748964310E0,9.444527626E0,3.445854902E0
3.054420478E0,1.748964310E0,9.411007881E0,3.460220098E0
3.056908134E0,1.753752708E0,9.406219482E0,3.407547474E0
3.059395790E0,1.758541107E0,9.434949875E0,3.326144695E0
3.061883446E0,1.787271619E0,9.415796280E0,3.311779499E0
3.064371103E0,1.820790410E0,9.406219482E0,3.302202702E0
3.066858759E0,1.849520802E0,9.391854286E0,3.283049107E0
3.069346415E0,1.887827992E0,9.401431084E0,3.259107113E0
3.071834071E0,1.887827992E0,9.420584679E0,3.225588322E0
3.074321728E0,1.892616391E0,9.439739227E0,3.201646328E0
3.076809384E0,1.868674397E0,9.444527626E0,3.182492495E0
3.079297040E0,1.830367208E0,9.463681221E0,3.196857929E0
3.081784696E0,1.801636815E0,9.463681221E0,3.187281132E0
3.084272353E0,1.792060018E0,9.468469620E0,3.187281132E0
3.086760009E0,1.772906303E0,9.454104424E0,3.182492495E0
3.089247665E0,1.768117905E0,9.444527626E0,3.182492495E0
3.091735321E0,1.768117905E0,9.444527626E0,3.158550501E0
3.094223030E0,1.744175911E0,9.420584679E0,3.125031710E0
3.096710738E0,1.720233917E0,9.434949875E0,3.072359324E0
3.099198446E0,1.701080322E0,9.434949875E0,3.053205729E0
3.101686155E0,1.691503525E0,9.425373077E0,3.043628931E0
3.104173863E0,1.662773132E0,9.430161476E0,3.067570925E0
3.106661571E0,1.657984734E0,9.430161476E0,3.057994127E0
3.109149280E0,1.638831019E0,9.420584679E0,3.043628931E0
3.111636988E0,1.638831019E0,9.425373077E0,3.067570925E0
3.114124696E0,1.643619418E0,9.439739227E0,3.081936121E0
3.116612405E0,1.657984734E0,9.458892822E0,3.091512918E0
3.119100113E0,1.653196216E0,9.478046417E0,3.120243311E0
3.121587821E0,1.648407817E0,9.501988411E0,3.110666513E0
3.124075530E0,1.619677424E0,9.535507202E0,3.096301317E0
3.126563238E0,1.595735431E0,9.564237595E0,3.091512918E0
3.129050946E0,1.586158633E0,9.569025993E0,3.096301317E0
3.131538655E0,1.567005038E0,9.549872398E0,3.101089716E0
3.134026363E0,1.562216640E0,9.511565208E0,3.091512918E0
3.136514071E0,1.562216640E0,9.516353607E0,3.067570925E0
3.139001780E0,1.567005038E0,9.521142006E0,3.048417330E0
3.141489488E0,1.571793437E0,9.501988411E0,3.019686937E0
3.143977196E0,1.557428241E0,9.511565208E0,2.995744944E0
3.146464905E0,1.571793437E0,9.521142006E0,2.928707123E0
3.148952613E0,1.547851443E0,9.521142006E0,2.847304344E0
3.151440321E0,1.538274646E0,9.525930405E0,2.823362350E0
3.153928030E0,1.504755735E0,9.535507202E0,2.799420357E0
3.156415738E0,1.480813742E0,9.530718803E0,2.794631958E0
3.158903446E0,1.442506552E0,9.521142006E0,2.818573952E0
3.161391103E0,1.399410844E0,9.535507202E0,2.832939148E0
3.163878759E0,1.365892053E0,9.545084000E0,2.808997154E0
3.166366415E0,1.308431268E0,9.554660797E0,2.794631958E0
3.168854071E0,1.270123959E0,9.564237595E0,2.804208755E0
3.171341728E0,1.246181965E0,9.564237595E0,2.852092743E0
3.173829384E0,1.222239971E0,9.569025993E0,2.861669540E0
3.176317040E0,1.179144382E0,9.592967987E0,2.856881142E0
3.178804696E0,1.150413871E0,9.607333183E0,2.861669540E0
3.181292353E0,1.126471877E0,9.631275177E0,2.876034737E0
3.183780009E0,1.136048675E0,9.631275177E0,2.880823135E0
3.186267665E0,1.140837073E0,9.650428772E0,2.847304344E0
3.188755321E0,1.183932781E0,9.612121582E0,2.804208755E0
3.191242978E0,1.236605167E0,9.583391190E0,2.770689964E0
3.193730634E0,1.303642869E0,9.564237595E0,2.761113167E0
3.196218290E0,1.356315255E0,9.540295601E0,2.765901566E0
3.198705946E0,1.375468850E0,9.530718803E0,2.780266762E0
3.201193603E0,1.394622445E0,9.516353607E0,2.761113167E0
3.203681259E0,1.389834046E0,9.530718803E0,2.746747971E0
3.206168915E0,1.380257249E0,9.564237595E0,2.698863983E0
3.208656571E0,1.356315255E0,9.583391190E0,2.655768156E0
3.211144228E0,1.318008065E0,9.602544785E0,2.655768156E0
3.213631884E0,1.274912357E0,9.607333183E0,2.670133352E0
3.216119540E0,1.241393566E0,9.626486778E0,2.674921751E0
3.218607196E0,1.212663174E0,9.602544785E0,2.670133352E0
3.221094853E0,1.183932781E0,9.607333183E0,2.674921751E0
3.223582509E0,1.164779186E0,9.602544785E0,2.655768156E0
3.226070165E0,1.169567585E0,9.592967987E0,2.612672567E0
3.228557821E0,1.188721180E0,9.583391190E0,2.598307371E0
3.231045478E0,1.212663174E0,9.588179588E0,2.583942175E0
3.233533134E0,1.193509579E0,9.588179588E0,2.560000181E0
3.236020790E0,1.150413871E0,9.597756386E0,2.560000181E0
3.238508446E0,1.121683478E0,9.597756386E0,2.550423384E0
3.240996103E0,1.069011092E0,9.592967987E0,2.555211782E0
3.243483759E0,1.016338587E0,9.583391190E0,2.564788580E0
3.245971415E0,9.923965931E-1,9.554660797E0,2.579153776E0
3.248459071E0,9.732429981E-1,9.530718803E0,2.588730574E0
3.250946728E0,9.971849918E-1,9.501988411E0,2.593518972E0
3.253434384E0,1.040280581E0,9.468469620E0,2.588730574E0
3.255922040E0,1.073799491E0,9.430161476E0,2.583942175E0
3.258409696E0,1.107318282E0,9.406219482E0,2.593518972E0
3.260897353E0,1.150413871E0,9.411007881E0,2.560000181E0
3.263385009E0,1.203086376E0,9.401431084E0,2.545634985E0
3.265872665E0,1.227028370E0,9.387065887E0,2.521692991E0
3.268360321E0,1.236605167E0,9.396642685E0,2.512116194E0
3.270847978E0,1.250970364E0,9.387065887E0,2.516904593E0
3.273335634E0,1.294066072E0,9.391854286E0,2.531269789E0
3.275823290E0,1.313219666E0,9.406219482E0,2.560000181E0
3.278310946E0,1.351526856E0,9.396642685E0,2.588730574E0
3.280798603E0,1.380257249E0,9.406219482E0,2.579153776E0
3.283286259E0,1.399410844E0,9.387065887E0,2.593518972E0
3.285773915E0,1.423352957E0,9.363123894E0,2.617460966E0
3.288261571E0,1.423352957E0,9.320028305E0,2.650979757E0
3.290749228E0,1.394622445E0,9.300874710E0,2.641402960E0
3.293236884E0,1.365892053E0,9.286509514E0,2.617460966E0
3.295724540E0,1.337161660E0,9.267355919E0,2.622249365E0
3.298212196E0,1.303642869E0,9.262567520E0,2.631826162E0
3.300699853E0,1.274912357E0,9.248202324E0,2.641402960E0
3.303187509E0,1.236605167E0,9.219471931E0,2.636614561E0
3.305675165E0,1.203086376E0,9.190741539E0,2.631826162E0
3.308162821E0,1.188721180E0,9.181164742E0,2.655768156E0
3.310650478E0,1.179144382E0,9.162011147E0,2.665344954E0
3.313138134E0,1.164779186E0,9.152434349E0,2.665344954E0
3.315625790E0,1.169567585E0,9.138069153E0,2.679710150E0
3.318113446E0,1.174355984E0,9.109338760E0,2.698863983E0
3.320601103E0,1.169567585E0,9.094973564E0,2.718017578E0
3.323088759E0,1.174355984E0,9.090185165E0,2.741959572E0
3.325576415E0,1.183932781E0,9.099761963E0,2.770689964E0
3.328064071E0,1.179144382E0,9.118915558E0,2.794631958E0
3.330551728E0,1.183932781E0,9.138069153E0,2.808997154E0
3.333039384E0,1.193509579E0,9.152434349E0,2.804208755E0
3.335527040E0,1.212663174E0,9.142857552E0,2.785055161E0
3.338014696E0,1.241393566E0,9.128492355E0,2.770689964E0
3.340502353E0,1.246181965E0,9.090185165E0,2.765901566E0
3.342990009E0,1.250970364E0,9.056666374E0,2.756324768E0
3.345477665E0,1.260547161E0,9.032724380E0,2.761113167E0
3.347965321E0,1.279700756E0,9.003993988E0,2.761113167E0
3.350452978E0,1.284489155E0,8.970475197E0,2.765901566E0
3.352940634E0,1.289277673E0,8.960898399E0,2.751536369E0
3.355428290E0,1.274912357E0,8.941744804E0,2.722805977E0
3.357915946E0,1.279700756E0,8.927379608E0,2.732382774E0
3.360403603E0,1.279700756E0,8.927379608E0,2.746747971E0
3.362891259E0,1.274912357E0,8.932168007E0,2.761113167E0
3.365378915E0,1.265335560E0,8.960898399E0,2.751536369E0
3.367866571E0,1.260547161E0,8.989628792E0,2.761113167E0
3.370354228E0,1.255758762E0,9.008782387E0,2.761113167E0
3.372841884E0,1.255758762E0,9.018359184E0,2.751536369E0
3.375329540E0,1.260547161E0,9.023147583E0,2.727594376E0
3.377817196E0,1.246181965E0,9.032724380E0,2.703652382E0
3.380304853E0,1.222239971E0,9.027935982E0,2.694075346E0
3.382792509E0,1.198297977E0,9.018359184E0,2.708440781E0
3.385280165E0,1.193509579E0,8.989628792E0,2.679710150E0
3.387767821E0,1.183932781E0,8.975263596E0,2.689286947E0
3.390255478E0,1.198297977E0,8.956110001E0,2.660556555E0
3.392743134E0,1.203086376E0,8.932168007E0,2.636614561E0
3.395230790E0,1.217451572E0,8.922591209E0,2.607884169E0
3.397718446E0,1.227028370E0,8.913014412E0,2.593518972E0
3.400206103E0,1.212663174E0,8.903437614E0,2.579153776E0
3.402693759E0,1.236605167E0,8.898649216E0,2.588730574E0
3.405181415E0,1.255758762E0,8.903437614E0,2.631826162E0
3.407669071E0,1.265335560E0,8.898649216E0,2.674921751E0
3.410156728E0,1.298854470E0,8.893860817E0,2.713229179E0
3.412644384E0,1.289277673E0,8.922591209E0,2.732382774E0
3.415132040E0,1.318008065E0,8.946533203E0,2.737171173E0
3.417619696E0,1.356315255E0,8.984840393E0,2.741959572E0
3.420107353E0,1.404199243E0,8.994417191E0,2.732382774E0
3.422595009E0,1.418564558E0,9.008782387E0,2.718017578E0
3.425082665E0,1.442506552E0,9.037512779E0,2.718017578E0
3.427570321E0,1.466448545E0,9.061454773E0,2.722805977E0
3.430057978E0,1.461660147E0,9.104550362E0,2.718017578E0
3.432545634E0,1.442506552E0,9.138069153E0,2.722805977E0
3.435033290E0,1.428141356E0,9.157222748E0,2.756324768E0
3.437520946E0,1.418564558E0,9.171587944E0,2.751536369E0
3.440008603E0,1.365892053E0,9.176376343E0,2.770689964E0
3.442496259E0,1.332373261E0,9.181164742E0,2.756324768E0
3.444983915E0,1.308431268E0,9.181164742E0,2.761113167E0
3.447471571E0,1.279700756E0,9.176376343E0,2.751536369E0
3.449959228E0,1.255758762E0,9.185953140E0,2.737171173E0
3.452446884E0,1.212663174E0,9.190741539E0,2.727594376E0
3.454934540E0,1.169567585E0,9.205106735E0,2.746747971E0
3.457422196E0,1.136048675E0,9.205106735E0,2.780266762E0
3.459909853E0,1.102529883E0,9.233837128E0,2.785055161E0
3.462397509E0,1.112106681E0,9.252990723E0,2.804208755E0
3.464885165E0,1.116895080E0,9.281721115E0,2.789843559E0
3.467372821E0,1.140837073E0,9.324816704E0,2.775478363E0
3.469860478E0,1.150413871E0,9.363123894E0,2.789843559E0
3.472348134E0,1.188721180E0,9.387065887E0,2.823362350E0
3.474835790E0,1.217451572E0,9.425373077E0,2.837727547E0
3.477323446E0,1.212663174E0,9.463681221E0,2.856881142E0
3.479811103E0,1.236605167E0,9.487623215E0,2.847304344E0
3.482298759E0,1.260547161E0,9.497200012E0,2.837727547E0
3.484786415E0,1.260547161E0,9.487623215E0,2.847304344E0
3.487274071E0,1.284489155E0,9.487623215E0,2.852092743E0
3.489761728E0,1.298854470E0,9.478046417E0,2.842515945E0
3.492249384E0,1.308431268E0,9.473258018E0,2.808997154E0
3.494737040E0,1.337161660E0,9.468469620E0,2.751536369E0
3.497224696E0,1.356315255E0,9.463681221E0,2.698863983E0
3.499712353E0,1.365892053E0,9.468469620E0,2.670133352E0
3.502200009E0,1.408987641E0,9.478046417E0,2.641402960E0
3.504687665E0,1.442506552E0,9.492411613E0,2.641402960E0
3.507175321E0,1.471236944E0,9.511565208E0,2.646191359E0
3.509662978E0,1.499967337E0,9.535507202E0,2.627037764E0
3.512150634E0,1.509544134E0,9.588179588E0,2.641402960E0
3.514638290E0,1.499967337E0,9.621698380E0,2.684498549E0
3.517125946E0,1.476025343E0,9.660005569E0,2.689286947E0
3.519613603E0,1.452083349E0,9.679159164E0,2.698863983E0
3.522101259E0,1.428141356E0,9.664793968E0,2.732382774E0
3.524588915E0,1.385045648E0,9.645640373E0,2.751536369E0
3.527076571E0,1.341950059E0,9.621698380E0,2.732382774E0
3.529564228E0,1.318008065E0,9.602544785E0,2.708440781E0
3.532051884E0,1.313219666E0,9.588179588E0,2.708440781E0
3.534539540E0,1.308431268E0,9.583391190E0,2.684498549E0
3.537027196E0,1.313219666E0,9.602544785E0,2.655768156E0
3.539514853E0,1.327584863E0,9.621698380E0,2.612672567E0
3.542002509E0,1.370680451E0,9.631275177E0,2.641402960E0
3.544490165E0,1.404199243E0,9.655217171E0,2.650979757E0
3.546977821E0,1.437718153E0,9.660005569E0,2.650979757E0
3.549465478E0,1.466448545E0,9.679159164E0,2.674921751E0
3.551953134E0,1.504755735E0,9.707889557E0,2.689286947E0
3.554440790E0,1.519120932E0,9.741408348E0,2.660556555E0
3.556928446E0,1.528697729E0,9.774927139E0,2.650979757E0
3.559416103E0,1.533486247E0,9.798869133E0,2.627037764E0
3.561903759E0,1.557428241E0,9.808445930E0,2.636614561E0
3.564391415E0,1.552639842E0,9.784503937E0,2.636614561E0
3.566879071E0,1.567005038E0,9.750985146E0,2.641402960E0
3.569366728E0,1.581370234E0,9.746196747E0,2.636614561E0
3.571854384E0,1.581370234E0,9.727043152E0,2.627037764E0
3.574342040E0,1.567005038E0,9.703101158E0,2.631826162E0
3.576829696E0,1.552639842E0,9.717466354E0,2.631826162E0
3.579317353E0,1.547851443E0,9.707889557E0,2.631826162E0
3.581805009E0,1.567005038E0,9.717466354E0,2.631826162E0
3.584292665E0,1.595735431E0,9.736619949E0,2.612672567E0
3.586780321E0,1.657984734E0,9.741408348E0,2.631826162E0
3.589267978E0,1.710657120E0,9.741408348E0,2.650979757E0
3.591755634E0,1.753752708E0,9.741408348E0,2.650979757E0
3.594243290E0,1.758541107E0,9.736619949E0,2.641402960E0
3.596730946E0,1.753752708E0,9.727043152E0,2.660556555E0
3.599218603E0,1.720233917E0,9.736619949E0,2.641402960E0
3.601706259E0,1.701080322E0,9.722254753E0,2.670133352E0
3.604193915E0,1.677138329E0,9.712677956E0,2.698863983E0
3.606681571E0,1.662773132E0,9.722254753E0,2.713229179E0
3.609169228E0,1.629254222E0,9.731831551E0,2.698863983E0
3.611656884E0,1.629254222E0,9.731831551E0,2.684498549E0
3.614144540E0,1.634042621E0,9.750985146E0,2.718017578E0
3.616632196E0,1.648407817E0,9.736619949E0,2.708440781E0
3.619119853E0,1.662773132E0,9.741408348E0,2.727594376E0
3.621607509E0,1.657984734E0,9.731831551E0,2.737171173E0
3.624095165E0,1.667561531E0,9.688735962E0,2.746747971E0
3.626582821E0,1.681926727E0,9.669582367E0,2.722805977E0
3.629070478E0,1.672349930E0,9.636063576E0,2.732382774E0
3.631558134E0,1.681926727E0,9.636063576E0,2.741959572E0
3.634045790E0,1.701080322E0,9.612121582E0,2.737171173E0
3.636533446E0,1.734599113E0,9.607333183E0,2.703652382E0
3.639021103E0,1.768117905E0,9.612121582E0,2.694075346E0
3.641508759E0,1.811213613E0,9.631275177E0,2.670133352E0
3.643996415E0,1.825578809E0,9.660005569E0,2.665344954E0
3.646484071E0,1.830367208E0,9.640851974E0,2.670133352E0
3.648971728E0,1.825578809E0,9.640851974E0,2.670133352E0
3.651459384E0,1.839944005E0,9.645640373E0,2.665344954E0
3.653947040E0,1.849520802E0,9.626486778E0,2.646191359E0
3.656434696E0,1.844732404E0,9.626486778E0,2.627037764E0
3.658922353E0,1.844732404E0,9.612121582E0,2.617460966E0
3.661410009E0,1.863885999E0,9.597756386E0,2.617460966E0
3.663897665E0,1.873462796E0,9.592967987E0,2.631826162E0
3.666385321E0,1.873462796E0,9.583391190E0,2.631826162E0
3.668872978E0,1.859097600E0,9.578602791E0,2.636614561E0
3.671360634E0,1.839944005E0,9.569025993E0,2.612672567E0
3.673848290E0,1.825578809E0,9.564237595E0,2.588730574E0
3.676335946E0,1.820790410E0,9.535507202E0,2.569576979E0
3.678823603E0,1.825578809E0,9.516353607E0,2.564788580E0
3.681311259E0,1.835155606E0,9.511565208E0,2.555211782E0
3.683798915E0,1.854309201E0,9.473258018E0,2.536058187E0
3.686286571E0,1.854309201E0,9.444527626E0,2.536058187E0
3.688774228E0,1.854309201E0,9.434949875E0,2.536058187E0
3.691261936E0,1.849520802E0,9.411007881E0,2.526481390E0
3.693749644E0,1.873462796E0,9.411007881E0,2.512116194E0
3.696237353E0,1.859097600E0,9.420584679E0,2.502539396E0
3.698725061E0,1.859097600E0,9.420584679E0,2.488174200E0
3.701212769E0,1.873462796E0,9.415796280E0,2.459443808E0
3.703700478E0,1.906981707E0,9.406219482E0,2.430713177E0
3.706188186E0,1.930923700E0,9.396642685E0,2.430713177E0
3.708675894E0,1.954865694E0,9.372700691E0,2.464232206E0
3.711163603E0,1.954865694E0,9.358335495E0,2.473809004E0
3.713651311E0,1.954865694E0,9.339181900E0,2.488174200E0
3.716139019E0,1.930923700E0,9.348758698E0,2.478597403E0
3.718626728E0,1.916558504E0,9.348758698E0,2.473809004E0
3.721114436E0,1.887827992E0,9.329605103E0,2.478597403E0
3.723602144E0,1.868674397E0,9.320028305E0,2.469020605E0
3.726089853E0,1.868674397E0,9.296086311E0,2.469020605E0
3.728577561E0,1.868674397E0,9.296086311E0,2.435501575E0
3.731065269E0,1.873462796E0,9.272144318E0,2.425924778E0
3.733552978E0,1.859097600E0,9.262567520E0,2.425924778E0
3.736040686E0,1.849520802E0,9.243413925E0,2.416347980E0
3.738528394E0,1.844732404E0,9.243413925E0,2.425924778E0
3.741016103E0,1.830367208E0,9.229048729E0,2.435501575E0
3.743503811E0,1.830367208E0,9.229048729E0,2.425924778E0
3.745991519E0,1.811213613E0,9.219471931E0,2.425924778E0
3.748479228E0,1.806425214E0,9.219471931E0,2.430713177E0
3.750966936E0,1.801636815E0,9.224260330E0,2.469020605E0
3.753454644E0,1.787271619E0,9.209895134E0,2.502539396E0
3.755942353E0,1.772906303E0,9.209895134E0,2.488174200E0
3.758430061E0,1.782483220E0,9.205106735E0,2.449866772E0
3.760917717E0,1.811213613E0,9.214683533E0,2.397194386E0
3.763405373E0,1.830367208E0,9.171587944E0,2.363675594E0
3.765893030E0,1.844732404E0,9.152434349E0,2.349310398E0
3.768380686E0,1.859097600E0,9.152434349E0,2.306214809E0
3.770868342E0,1.839944005E0,9.171587944E0,2.296638012E0
3.773355998E0,1.830367208E0,9.181164742E0,2.282272816E0
3.775843655E0,1.816002011E0,9.195529938E0,2.253542423E0
3.778331311E0,1.811213613E0,9.200318336E0,2.243965626E0
3.780818967E0,1.816002011E0,9.209895134E0,2.258330822E0
3.783306623E0,1.816002011E0,9.209895134E0,2.277484417E0
3.785794280E0,1.816002011E0,9.224260330E0,2.311003208E0
3.788281936E0,1.816002011E0,9.200318336E0,2.339733601E0
3.790769592E0,1.825578809E0,9.209895134E0,2.354098797E0
3.793257248E0,1.835155606E0,9.195529938E0,2.339733601E0
3.795744905E0,1.830367208E0,9.176376343E0,2.339733601E0
3.798232561E0,1.820790410E0,9.185953140E0,2.344521999E0
3.800720217E0,1.801636815E0,9.195529938E0,2.334945202E0
3.803207873E0,1.772906303E0,9.200318336E0,2.344521999E0
3.805695530E0,1.763329506E0,9.209895134E0,2.330156803E0
3.808183186E0,1.748964310E0,9.229048729E0,2.325368404E0
3.810670842E0,1.720233917E0,9.252990723E0,2.311003208E0
3.813158498E0,1.701080322E0,9.238625526E0,2.320580006E0
3.815646155E0,1.662773132E0,9.229048729E0,2.330156803E0
3.818133811E0,1.653196216E0,9.214683533E0,2.339733601E0
3.820621467E0,1.653196216E0,9.200318336E0,2.330156803E0
3.823109123E0,1.662773132E0,9.195529938E0,2.306214809E0
3.825596780E0,1.653196216E0,9.181164742E0,2.296638012E0
3.828084436E0,1.662773132E0,9.176376343E0,2.263119221E0
3.830572092E0,1.677138329E0,9.181164742E0,2.234388828E0
3.833059748E0,1.681926727E0,9.200318336E0,2.191293001E0
3.835547405E0,1.686715126E0,9.229048729E0,2.176927805E0
3.838035061E0,1.677138329E0,9.233837128E0,2.162562609E0
3.840522717E0,1.681926727E0,9.257779121E0,2.143409014E0
3.843010373E0,1.710657120E0,9.286509514E0,2.148197412E0
3.845498030E0,1.720233917E0,9.272144318E0,2.167351007E0
3.847985686E0,1.710657120E0,9.262567520E0,2.205658197E0
3.850473342E0,1.696291924E0,9.267355919E0,2.215235233E0
3.852960998E0,1.696291924E0,9.276932716E0,2.191293001E0
3.855448655E0,1.720233917E0,9.286509514E0,2.157774210E0
3.857936311E0,1.710657120E0,9.300874710E0,2.133832216E0
3.860423967E0,1.710657120E0,9.300874710E0,2.119467020E0
3.862911623E0,1.691503525E0,9.300874710E0,2.124255419E0
3.865399280E0,1.686715126E0,9.324816704E0,2.119467020E0
3.867886936E0,1.686715126E0,9.353547096E0,2.133832216E0
3.870374592E0,1.667561531E0,9.367912292E0,2.138620615E0
3.872862248E0,1.677138329E0,9.382277489E0,2.162562609E0
3.875349905E0,1.648407817E0,9.406219482E0,2.176927805E0
3.877837561E0,1.629254222E0,9.439739227E0,2.186504602E0
3.880325217E0,1.614889026E0,9.454104424E0,2.215235233E0
3.882812873E0,1.610100627E0,9.463681221E0,2.243965626E0
3.885300530E0,1.590947032E0,9.478046417E0,2.263119221E0
3.887788186E0,1.590947032E0,9.501988411E0,2.263119221E0
3.890275842E0,1.590947032E0,9.497200012E0,2.248754025E0
3.892763498E0,1.614889026E0,9.497200012E0,2.234388828E0
3.895251155E0,1.634042621E0,9.525930405E0,2.248754025E0
3.897738811E0,1.667561531E0,9.511565208E0,2.267907619E0
3.900226467E0,1.696291924E0,9.516353607E0,2.311003208E0
3.902714123E0,1.725022316E0,9.549872398E0,2.358887196E0
3.905201780E0,1.705868721E0,9.616909981E0,2.344521999E0
3.907689436E0,1.705868721E0,9.669582367E0,2.339733601E0
3.910177092E0,1.725022316E0,9.693524361E0,2.387617588E0
3.912664748E0,1.725022316E0,9.717466354E0,2.435501575E0
3.915152405E0,1.734599113E0,9.736619949E0,2.478597403E0
3.917640061E0,1.720233917E0,9.755773544E0,2.521692991E0
3.920127717E0,1.734599113E0,9.750985146E0,2.531269789E0
3.922615373E0,1.715445518E0,9.765350342E0,2.536058187E0
3.925103030E0,1.705868721E0,9.765350342E0,2.512116194E0
3.927590686E0,1.715445518E0,9.765350342E0,2.502539396E0
3.930078342E0,1.729810715E0,9.774927139E0,2.521692991E0
3.932565998E0,1.734599113E0,9.770138741E0,2.536058187E0
3.935053655E0,1.753752708E0,9.798869133E0,2.521692991E0
3.937541311E0,1.763329506E0,9.837176323E0,2.531269789E0
3.940028967E0,1.758541107E0,9.865906715E0,2.550423384E0
3.942516623E0,1.739387512E0,9.894637108E0,2.607884169E0
3.945004280E0,1.725022316E0,9.937732697E0,2.660556555E0
3.947491936E0,1.705868721E0,9.985616684E0,2.684498549E0
3.949979592E0,1.701080322E0,1.001913548E1,2.722805977E0
3.952467248E0,1.686715126E0,1.002392387E1,2.727594376E0
3.954954905E0,1.696291924E0,1.003828907E1,2.713229179E0
3.957442561E0,1.686715126E0,1.003828907E1,2.713229179E0
3.959930217E0,1.696291924E0,1.003828907E1,2.703652382E0
3.962417873E0,1.696291924E0,1.004307747E1,2.684498549E0
3.964905530E0,1.696291924E0,1.003828907E1,2.694075346E0
3.967393186E0,1.705868721E0,1.005265427E1,2.727594376E0
3.969880842E0,1.710657120E0,1.005744267E1,2.741959572E0
3.972368498E0,1.739387512E0,1.004786587E1,2.780266762E0
3.974856155E0,1.763329506E0,1.004307747E1,2.818573952E0
3.977343811E0,1.787271619E0,1.006701946E1,2.842515945E0
3.979831467E0,1.811213613E0,1.008138466E1,2.856881142E0
3.982319123E0,1.849520802E0,1.011969185E1,2.847304344E0
3.984806780E0,1.883039594E0,1.017236423E1,2.847304344E0
3.987294436E0,1.906981707E0,1.019630623E1,2.823362350E0
3.989782092E0,1.950077295E0,1.022503662E1,2.837727547E0
3.992269748E0,1.997961283E0,1.024419022E1,2.895188332E0
3.994757405E0,2.045845270E0,1.024897861E1,2.938283920E0
3.997245061E0,2.093729496E0,1.025855541E1,2.990956545E0
3.999732717E0,2.146401882E0,1.027292061E1,3.019686937E0
4.002220373E0,2.175132275E0,1.028728580E1,3.029263735E0
4.004708030E0,2.155978680E0,1.031122780E1,3.024475336E0
4.007195686E0,2.146401882E0,1.034474659E1,3.010110140E0
4.009683342E0,2.103306293E0,1.036868858E1,2.976591349E0
4.012170998E0,2.088941097E0,1.038305378E1,2.947860956E0
4.014658655E0,2.036268473E0,1.041178417E1,2.943072557E0
4.017146311E0,2.012326479E0,1.044051552E1,2.967014551E0
4.019633967E0,1.997961283E0,1.045009232E1,3.024475336E0
4.022121623E0,1.993172884E0,1.048361111E1,3.077147722E0
4.024609280E0,2.007538080E0,1.052670670E1,3.125031710E0
4.027096936E0,2.012326479E0,1.054586029E1,3.211223125E0
4.029584592E0,2.017114878E0,1.056980228E1,3.287837505E0
4.032072248E0,2.017114878E0,1.059853268E1,3.350086689E0
4.034559905E0,2.007538080E0,1.060810947E1,3.326144695E0
4.037047561E0,1.964442492E0,1.063683987E1,3.297414303E0
4.039535217E0,1.926135302E0,1.065599346E1,3.249530315E0
4.042022873E0,1.892616391E0,1.068472385E1,3.196857929E0
4.044510530E0,1.878251195E0,1.072781944E1,3.148973703E0
4.046998186E0,1.859097600E0,1.076133823E1,3.134608507E0
4.049485842E0,1.844732404E0,1.081401062E1,3.134608507E0
4.051973498E0,1.868674397E0,1.087147141E1,3.163338900E0
4.054461155E0,1.897404790E0,1.096245098E1,3.216011524E0
4.056948811E0,1.897404790E0,1.105343056E1,3.244741917E0
4.059436467E0,1.902193308E0,1.114441013E1,3.278260708E0
4.061924123E0,1.878251195E0,1.122581291E1,3.359663486E0
4.064411780E0,1.849520802E0,1.129285049E1,3.421912670E0
4.066899436E0,1.816002011E0,1.135988808E1,3.488950491E0
4.069387092E0,1.796848416E0,1.141734982E1,3.555988073E0
4.071874748E0,1.787271619E0,1.147002220E1,3.613448858E0
4.074362405E0,1.792060018E0,1.147959900E1,3.690063477E0
4.076850061E0,1.792060018E0,1.149396420E1,3.747524261E0
4.079337717E0,1.768117905E0,1.150832939E1,3.785831451E0
4.081825373E0,1.729810715E0,1.151311779E1,3.838503838E0
4.084313030E0,1.681926727E0,1.153705978E1,3.886387825E0
4.086800686E0,1.629254222E0,1.158494377E1,3.852869034E0
4.089288342E0,1.629254222E0,1.164240456E1,3.795408249E0
4.091775998E0,1.657984734E0,1.170465374E1,3.742735863E0
4.094263655E0,1.753752708E0,1.176690292E1,3.694851875E0
4.096751311E0,1.878251195E0,1.183394051E1,3.699640274E0
4.099238967E0,1.993172884E0,1.190576649E1,3.709217072E0
4.101726623E0,2.084152699E0,1.193449688E1,3.747524261E0
4.104214280E0,2.151190281E0,1.194886208E1,3.790619850E0
4.106701936E0,2.175132275E0,1.197759247E1,3.824138641E0
4.109189592E0,2.151190281E0,1.199674606E1,3.862445831E0
4.111677248E0,2.103306293E0,1.197759247E1,3.867234230E0
4.114164905E0,2.002749681E0,1.196801567E1,3.814561844E0
4.116652561E0,1.878251195E0,1.196322727E1,3.757101059E0
4.119140217E0,1.763329506E0,1.197759247E1,3.771466255E0
4.121627873E0,1.653196216E0,1.202068806E1,3.809773445E0
4.124115530E0,1.595735431E0,1.206378365E1,3.886387825E0
4.126603186E0,1.590947032E0,1.209251404E1,4.030039787E0
4.129090842E0,1.605312228E0,1.213082123E1,4.144961834E0
4.131578498E0,1.657984734E0,1.213560963E1,4.259883404E0
4.134066155E0,1.691503525E0,1.211645603E1,4.350862980E0
4.136553811E0,1.686715126E0,1.207814884E1,4.408323765E0
4.139041467E0,1.643619418E0,1.205899525E1,4.441842556E0
4.141529123E0,1.567005038E0,1.204941845E1,4.427477360E0
4.144016780E0,1.485602140E0,1.204463005E1,4.398746967E0
4.146504436E0,1.385045648E0,1.207814884E1,4.259883404E0
4.148992092E0,1.313219666E0,1.210687923E1,4.121019840E0
4.151479748E0,1.260547161E0,1.215476322E1,4.001309395E0
4.153967405E0,1.217451572E0,1.219307041E1,3.967790842E0
4.156455061E0,1.222239971E0,1.220264721E1,4.015674591E0
4.158942717E0,1.265335560E0,1.218828201E1,4.178480625E0
4.161430373E0,1.289277673E0,1.216434002E1,4.322132587E0
4.163918030E0,1.332373261E0,1.213082123E1,4.365228176E0
4.166405686E0,1.380257249E0,1.207814884E1,4.317344189E0
4.168893342E0,1.346738458E0,1.205420685E1,4.106654644E0
4.171380998E0,1.284489155E0,1.206857204E1,3.795408249E0
4.173868655E0,1.207874775E0,1.212124443E1,3.488950491E0
4.176356363E0,1.140837073E0,1.214997482E1,3.254318714E0
4.178844071E0,1.159990668E0,1.215955162E1,3.129820108E0
4.181331780E0,1.212663174E0,1.211645603E1,3.120243311E0
4.183819488E0,1.294066072E0,1.207814884E1,3.225588322E0
4.186307196E0,1.365892053E0,1.202068806E1,3.407547474E0
4.188794905E0,1.432929754E0,1.196801567E1,3.560776472E0
4.191282613E0,1.471236944E0,1.192492008E1,3.680486679E0
4.193770321E0,1.495178938E0,1.188661289E1,3.742735863E0
4.196258030E0,1.476025343E0,1.188182449E1,3.761889458E0
4.198745738E0,1.423352957E0,1.188182449E1,3.804985046E0
4.201233446E0,1.385045648E0,1.186745930E1,3.814561844E0
4.203721155E0,1.351526856E0,1.188182449E1,3.809773445E0
4.206208863E0,1.351526856E0,1.188661289E1,3.814561844E0
4.208696571E0,1.404199243E0,1.189618969E1,3.804985046E0
4.211184280E0,1.456871748E0,1.187224770E1,3.814561844E0
4.213671988E0,1.499967337E0,1.182915211E1,3.876811028E0
4.216159696E0,1.514332533E0,1.178605652E1,3.977367640E0
4.218647405E0,1.476025343E0,1.174296093E1,4.053982258E0
4.221135113E0,1.408987641E0,1.170944214E1,4.058770657E0
4.223622821E0,1.298854470E0,1.169507694E1,3.895964622E0
4.226110530E0,1.198297977E0,1.164719296E1,3.685275078E0
4.228598238E0,1.116895080E0,1.159930897E1,3.479373693E0
4.231085946E0,1.045069098E0,1.158015537E1,3.283049107E0
4.233573655E0,9.923965931E-1,1.158494377E1,3.125031710E0
4.236061363E0,9.588778019E-1,1.156100178E1,3.067570925E0
4.238549071E0,9.588778019E-1,1.153227139E1,3.091512918E0
4.241036780E0,9.445125461E-1,1.152269459E1,3.105878115E0
4.243524488E0,8.966285586E-1,1.152269459E1,3.125031710E0
4.246012196E0,8.583213091E-1,1.152748299E1,3.120243311E0
4.248499853E0,8.152256608E-1,1.151790619E1,3.091512918E0
4.250987509E0,7.864952683E-1,1.147959900E1,3.014898539E0
4.253475165E0,7.769184709E-1,1.142692661E1,2.919130325E0
4.255962821E0,7.625532150E-1,1.138383007E1,2.880823135E0
4.258450478E0,8.343793154E-1,1.134073448E1,2.890399933E0
4.260938134E0,9.253589511E-1,1.129763889E1,2.880823135E0
4.263425790E0,1.040280581E0,1.124496651E1,2.890399933E0
4.265913446E0,1.150413871E0,1.120187092E1,2.919130325E0
4.268401103E0,1.222239971E0,1.114919853E1,3.029263735E0
4.270888759E0,1.260547161E0,1.108694935E1,3.206434727E0
4.273376415E0,1.231816769E0,1.103906536E1,3.369240284E0
4.275864071E0,1.179144382E0,1.101512337E1,3.498527288E0
4.278351728E0,1.131260276E0,1.099118137E1,3.637390852E0
4.280839384E0,1.121683478E0,1.093850899E1,3.728370667E0
4.283327040E0,1.169567585E0,1.087147141E1,3.699640274E0
4.285814696E0,1.270123959E0,1.081879902E1,3.613448858E0
4.288302353E0,1.380257249E0,1.074697304E1,3.474585295E0
4.290790009E0,1.490390539E0,1.064641666E1,3.335721493E0
4.293277665E0,1.595735431E0,1.054586029E1,3.254318714E0
4.295765321E0,1.653196216E0,1.049318790E1,3.235165119E0
4.298252978E0,1.643619418E0,1.051234150E1,3.254318714E0
4.300740634E0,1.576581836E0,1.058895588E1,3.259107113E0
4.303228290E0,1.480813742E0,1.070387745E1,3.254318714E0
4.305715946E0,1.346738458E0,1.081879902E1,3.244741917E0
4.308203603E0,1.198297977E0,1.090020180E1,3.259107113E0
4.310691259E0,1.035492182E0,1.093372059E1,3.321356297E0
4.313178915E0,9.062053561E-1,1.090020180E1,3.388393879E0
4.315666571E0,7.864952683E-1,1.082837582E1,3.421912670E0
4.318154228E0,6.763619781E-1,1.076612663E1,3.417124271E0
4.320641884E0,5.566518903E-1,1.070866585E1,3.378817081E0
4.323129540E0,4.417302012E-1,1.069908905E1,3.268683910E0
4.325617196E0,3.363853395E-1,1.068472385E1,3.201646328E0
4.328104853E0,2.166752517E-1,1.069430065E1,3.101089716E0
4.330592509E0,2.513911761E-2,1.074218464E1,2.952649355E0
4.333080165E0,-1.089361757E-1,1.079485703E1,2.904765129E0
4.335567821E0,-1.903390288E-1,1.083316422E1,2.971802950E0
4.338055478E0,-2.669534981E-1,1.087147141E1,3.014898539E0
4.340543134E0,-2.669534981E-1,1.091935539E1,3.043628931E0
4.343030790E0,-2.094926536E-1,1.090977859E1,3.129820108E0
4.345518446E0,-8.499415964E-2,1.090977859E1,3.158550501E0
4.348006103E0,5.865794048E-2,1.086189461E1,3.148973703E0
4.350493759E0,2.023100406E-1,1.081879902E1,3.125031710E0
4.352981415E0,3.220201433E-1,1.077091503E1,3.091512918E0
4.355469071E0,3.842693865E-1,1.075176144E1,3.029263735E0
4.357956728E0,4.417302012E-1,1.077570343E1,2.976591349E0
4.360444384E0,4.944026470E-1,1.079964542E1,2.981379747E0
4.362932040E0,5.901707411E-1,1.079964542E1,3.034052134E0
4.365419696E0,7.194576263E-1,1.075654984E1,3.067570925E0
4.367907353E0,9.109937549E-1,1.067514706E1,3.129820108E0
4.370395009E0,1.092953086E0,1.056022549E1,3.244741917E0
4.372882665E0,1.255758762E0,1.045966911E1,3.326144695E0
4.375370321E0,1.341950059E0,1.044051552E1,3.374028683E0
4.377857978E0,1.337161660E0,1.048839951E1,3.316567898E0
4.380345634E0,1.222239971E0,1.058416748E1,3.187281132E0
4.382833290E0,1.064222693E0,1.066078186E1,3.038840532E0
4.385320946E0,9.349357486E-1,1.068472385E1,2.938283920E0
4.387808603E0,8.391677141E-1,1.067993546E1,2.933495522E0
4.390296259E0,7.386112213E-1,1.063205147E1,3.024475336E0
4.392783915E0,6.619967818E-1,1.059853268E1,3.153762102E0
4.395271571E0,5.901707411E-1,1.060332108E1,3.273472309E0
4.397759228E0,5.470750928E-1,1.063683987E1,3.306991100E0
4.400246884E0,4.944026470E-1,1.065120506E1,3.263895512E0
4.402734540E0,4.321534038E-1,1.064162827E1,3.292625904E0
4.405222196E0,3.507505357E-1,1.061768627E1,3.311779499E0
4.407709853E0,2.358288616E-1,1.061289787E1,3.263895512E0
4.410197509E0,1.256955862E-1,1.060810947E1,3.148973703E0
4.412685165E0,5.386953801E-2,1.061289787E1,3.053205729E0
4.415172821E0,-1.795651205E-2,1.056980228E1,3.048417330E0
4.417660478E0,-7.062894851E-2,1.055064869E1,2.976591349E0
4.420148134E0,-1.795651205E-2,1.055064869E1,2.899976730E0
4.422635790E0,1.017535701E-1,1.048839951E1,2.899976730E0
4.425123446E0,2.980781198E-1,1.046445751E1,2.914341927E0
4.427611103E0,4.800374508E-1,1.043093872E1,2.914341927E0
4.430098759E0,6.428431273E-1,1.037826538E1,2.895188332E0
4.432586415E0,7.050924301E-1,1.033516979E1,2.943072557E0
4.435074071E0,6.428431273E-1,1.031601620E1,2.976591349E0
4.437561728E0,5.087678432E-1,1.036868858E1,3.019686937E0
4.440049384E0,3.651157618E-1,1.045009232E1,3.086724520E0
4.442537040E0,2.262520641E-1,1.054107189E1,3.187281132E0
4.445024696E0,2.118868530E-1,1.060332108E1,3.306991100E0
4.447512353E0,3.172317147E-1,1.061289787E1,3.431489468E0
4.450000009E0,5.135562420E-1,1.056980228E1,3.484162092E0
4.452487665E0,7.481880188E-1,1.045966911E1,3.426701069E0
4.454975321E0,9.540894032E-1,1.032080460E1,3.292625904E0
4.457462978E0,9.876081944E-1,1.022024822E1,3.259107113E0
4.459950634E0,9.349357486E-1,1.014363384E1,3.273472309E0
4.462438290E0,7.960720658E-1,1.013405704E1,3.359663486E0
4.464925946E0,5.997475386E-1,1.017236423E1,3.412335873E0
4.467413603E0,4.465186298E-1,1.023940182E1,3.417124271E0
4.469901259E0,3.555389643E-1,1.027292061E1,3.431489468E0
4.472388915E0,3.268085420E-1,1.024419022E1,3.479373693E0
4.474876571E0,3.938461840E-1,1.019630623E1,3.469796896E0
4.477364228E0,4.944026470E-1,1.015799904E1,3.297414303E0
4.479851884E0,6.284779310E-1,1.008617306E1,2.981379747E0
4.482339540E0,7.769184709E-1,1.003350067E1,2.698863983E0
4.484827196E0,8.678981066E-1,9.966463089E0,2.545634985E0
4.487314853E0,8.870517015E-1,9.937732697E0,2.473809004E0
4.489802509E0,8.918401599E-1,9.918579102E0,2.473809004E0
4.492290165E0,8.822633028E-1,9.904213905E0,2.607884169E0
4.494777821E0,8.391677141E-1,9.889848709E0,2.813785553E0
4.497265478E0,8.104372621E-1,9.841964722E0,3.014898539E0
4.499753134E0,7.960720658E-1,9.794080734E0,3.134608507E0
4.502240790E0,7.529764175E-1,9.741408348E0,3.125031710E0
4.504728446E0,7.481880188E-1,9.607333183E0,3.043628931E0
4.507216103E0,7.625532150E-1,9.411007881E0,2.947860956E0
4.509703759E0,7.673416734E-1,9.229048729E0,2.852092743E0
4.512191415E0,7.290344238E-1,9.099761963E0,2.785055161E0
4.514679071E0,7.098808289E-1,9.037512779E0,2.813785553E0
4.517166728E0,6.811503768E-1,9.018359184E0,2.890399933E0
4.519654384E0,6.763619781E-1,9.090185165E0,2.852092743E0
4.522142040E0,7.146692276E-1,9.138069153E0,2.737171173E0
4.524629696E0,8.104372621E-1,9.162011147E0,2.612672567E0
4.527117353E0,9.540894032E-1,9.147645950E0,2.492962599E0
4.529605009E0,1.083376288E0,9.123703957E0,2.354098797E0
4.532092665E0,1.217451572E0,9.066243172E0,2.354098797E0
4.534580321E0,1.356315255E0,8.989628792E0,2.492962599E0
4.537067978E0,1.456871748E0,8.946533203E0,2.660556555E0
4.539555634E0,1.504755735E0,8.946533203E0,2.852092743E0
4.542043290E0,1.495178938E0,8.970475197E0,3.101089716E0
4.544530946E0,1.428141356E0,9.071031570E0,3.254318714E0
4.547018603E0,1.274912357E0,9.195529938E0,3.302202702E0
4.549506259E0,1.073799491E0,9.267355919E0,3.369240284E0
4.551993915E0,8.487445116E-1,9.291297913E0,3.345298290E0
4.554481571E0,6.476315856E-1,9.320028305E0,3.134608507E0
4.556969228E0,5.614402890E-1,9.291297913E0,2.880823135E0
4.559456884E0,5.997475386E-1,9.181164742E0,2.732382774E0
4.561944540E0,7.433996201E-1,9.056666374E0,2.603095770E0
4.564432196E0,9.540894032E-1,8.936956406E0,2.440289974E0
4.566919853E0,1.179144382E0,8.845976830E0,2.378040791E0
4.569407509E0,1.356315255E0,8.788516045E0,2.449866772E0
4.571895165E0,1.471236944E0,8.774150848E0,2.670133352E0
4.574382821E0,1.456871748E0,8.812458038E0,2.904765129E0
4.576870478E0,1.341950059E0,8.884284019E0,3.005321741E0
4.579358134E0,1.183932781E0,8.970475197E0,2.962226152E0
4.581845790E0,9.923965931E-1,9.037512779E0,2.832939148E0
4.584333446E0,7.864952683E-1,9.042301178E0,2.660556555E0
4.586821103E0,6.093243361E-1,9.003993988E0,2.473809004E0
4.589308759E0,5.231330991E-1,8.865130424E0,2.363675594E0
4.591796415E0,5.183446407E-1,8.692748070E0,2.373252392E0
4.594284071E0,5.662286878E-1,8.491635323E0,2.401982784E0
4.596771728E0,6.811503768E-1,8.324040413E0,2.301426411E0
4.599259384E0,8.248024583E-1,8.199542046E0,2.186504602E0
4.601747092E0,9.588778019E-1,8.079832077E0,2.186504602E0
4.604234800E0,1.064222693E0,8.022371292E0,2.124255419E0
4.606722509E0,1.112106681E0,8.036736488E0,2.018910646E0
4.609210217E0,1.112106681E0,8.055890083E0,1.932719350E0
4.611697925E0,1.102529883E0,8.036736488E0,1.985391736E0
4.614185634E0,1.097741485E0,7.998429298E0,2.133832216E0
4.616673342E0,1.092953086E0,7.950545311E0,2.339733601E0
4.619161050E0,1.136048675E0,7.926603317E0,2.622249365E0
4.621648759E0,1.179144382E0,7.979275703E0,2.856881142E0
4.624136467E0,1.212663174E0,8.108562469E0,2.823362350E0
4.626624175E0,1.274912357E0,8.252214432E0,2.607884169E0
4.629111884E0,1.327584863E0,8.347982407E0,2.449866772E0
4.631599592E0,1.365892053E0,8.395866394E0,2.378040791E0
4.634087300E0,1.389834046E0,8.381501198E0,2.330156803E0
4.636575009E0,1.404199243E0,8.367136002E0,2.272696018E0
4.639062717E0,1.447294950E0,8.352770805E0,2.210446835E0
4.641550425E0,1.490390539E0,8.338405609E0,2.263119221E0
4.644038134E0,1.514332533E0,8.347982407E0,2.291849613E0
4.646525842E0,1.523909330E0,8.443750381E0,2.162562609E0
4.649013550E0,1.528697729E0,8.563461304E0,2.004545450E0
4.651501259E0,1.552639842E0,8.654440880E0,1.971026540E0
4.653988967E0,1.614889026E0,8.644864082E0,2.143409014E0
4.656476675E0,1.725022316E0,8.539519310E0,2.382829189E0
4.658964384E0,1.859097600E0,8.376712799E0,2.579153776E0
4.661452092E0,1.978807688E0,8.199542046E0,2.770689964E0
4.663939800E0,2.036268473E0,8.046313286E0,2.866457939E0
4.666427509E0,1.983596087E0,7.960122108E0,2.780266762E0
4.668915217E0,1.844732404E0,7.960122108E0,2.593518972E0
4.671402925E0,1.672349930E0,7.969698906E0,2.440289974E0
4.673890634E0,1.543063045E0,7.969698906E0,2.354098797E0
4.676378290E0,1.471236944E0,7.964910507E0,2.243965626E0
4.678865946E0,1.485602140E0,7.917026520E0,2.239177227E0
4.681353603E0,1.552639842E0,7.840412140E0,2.215235233E0
4.683841259E0,1.643619418E0,7.773374557E0,2.119467020E0
4.686328915E0,1.748964310E0,7.653664112E0,2.114678621E0
4.688816571E0,1.801636815E0,7.548319340E0,2.205658197E0
4.691304228E0,1.748964310E0,7.500435352E0,2.181716204E0
4.693791884E0,1.619677424E0,7.548319340E0,1.990180135E0
4.696279540E0,1.495178938E0,7.615356922E0,1.774701953E0
4.698767196E0,1.413776159E0,7.687182903E0,1.607107878E0
4.701254853E0,1.428141356E0,7.715913296E0,1.410783410E0
4.703742509E0,1.571793437E0,7.682394505E0,1.209670424E0
4.706230165E0,1.787271619E0,7.600991726E0,9.989806414E-1
4.708717821E0,2.074575663E0,7.395090580E0,8.361749649E-1
4.711205478E0,2.400187254E0,7.184400558E0,8.457517624E-1
4.713693134E0,2.692279816E0,6.925827026E0,1.018134236E0
4.716180790E0,2.922123194E0,6.743867874E0,1.238400817E0
4.718668446E0,2.989160776E0,6.681618214E0,1.343745708E0
4.721156103E0,2.960430384E0,6.700771809E0,1.420360208E0
4.723643759E0,2.869450808E0,6.767809868E0,1.506551385E0
4.726131415E0,2.768894196E0,6.858789444E0,1.501762986E0
4.728619071E0,2.721010208E0,6.901885033E0,1.420360208E0
4.731106728E0,2.716221809E0,6.849212646E0,1.362899303E0
4.733594384E0,2.792836189E0,6.700771809E0,1.295861721E0
4.736082040E0,2.902969599E0,6.470928669E0,1.214458823E0
4.738569696E0,2.998737574E0,6.169259071E0,1.147421122E0
4.741057353E0,3.003525972E0,5.891531944E0,1.113902330E0
4.743545009E0,2.898181200E0,5.661688328E0,1.094748735E0
4.746032665E0,2.682703018E0,5.503671169E0,1.080383539E0
4.748520321E0,2.357091665E0,5.398326397E0,1.118690729E0
4.751007978E0,2.036268473E0,5.350442410E0,1.137844324E0
4.753495634E0,1.753752708E0,5.345654011E0,1.200093627E0
4.755983290E0,1.567005038E0,5.331288815E0,1.228824019E0
4.758470946E0,1.509544134E0,5.312135220E0,1.147421122E0
4.760958603E0,1.533486247E0,5.230731964E0,1.061229944E0
4.763446259E0,1.638831019E0,5.091868401E0,9.941922426E-1
4.765933915E0,1.734599113E0,4.957793236E0,9.654618502E-1
4.768421571E0,1.796848416E0,4.852448463E0,9.606734514E-1
4.770909228E0,1.811213613E0,4.823718071E0,9.319429994E-1
4.773396884E0,1.811213613E0,4.852448463E0,8.505401611E-1
4.775884540E0,1.787271619E0,4.962581635E0,7.404068708E-1
4.778372196E0,1.748964310E0,5.077503204E0,6.494272351E-1
4.780859853E0,1.744175911E0,5.216366768E0,6.446388364E-1
4.783347509E0,1.739387512E0,5.355230808E0,5.536591411E-1
4.785835165E0,1.768117905E0,5.489305973E0,3.621230125E-1
4.788322821E0,1.902193308E0,5.527613163E0,2.472013235E-1
4.790810478E0,2.050633669E0,5.455787182E0,3.046621680E-1
4.793298134E0,2.208651066E0,5.345654011E0,4.291606545E-1
4.795785790E0,2.352303267E0,5.216366768E0,6.111199856E-1
4.798273446E0,2.438494444E0,5.101445198E0,7.787141204E-1
4.800761103E0,2.467224836E0,5.067926407E0,8.218097091E-1
4.803248759E0,2.452859640E0,5.125387192E0,7.308300734E-1
4.805736415E0,2.385822058E0,5.230731964E0,5.919663906E-1
4.808224071E0,2.294842243E0,5.340865612E0,5.967547894E-1
4.810711728E0,2.194285870E0,5.431845188E0,7.164648771E-1
4.813199384E0,2.155978680E0,5.518036366E0,7.739257216E-1
4.815687040E0,2.208651066E0,5.570708752E0,7.739257216E-1
4.818174696E0,2.280477047E0,5.532401562E0,8.601169586E-1
4.820662353E0,2.385822058E0,5.422268391E0,1.070806742E0
4.823150009E0,2.476801634E0,5.307346821E0,1.300650120E0
4.825637665E0,2.472013235E0,5.249885559E0,1.415571809E0
4.828125321E0,2.371456861E0,5.249885559E0,1.477820992E0
4.830612978E0,2.160767078E0,5.302558422E0,1.520916581E0
4.833100634E0,1.897404790E0,5.422268391E0,1.573589087E0
4.835588290E0,1.657984734E0,5.575497150E0,1.559223890E0
4.838075946E0,1.547851443E0,5.886743546E0,1.022922635E0
4.840563603E0,1.480813742E0,6.154893875E0,7.787141204E-1
4.843051259E0,1.519120932E0,6.265027523E0,1.080383539E0
4.845538915E0,1.648407817E0,6.293757915E0,1.190516829E0
4.848026571E0,1.878251195E0,6.265027523E0,1.252766013E0
4.850514228E0,2.132036686E0,6.130951881E0,1.540070295E0
4.853001884E0,2.323572636E0,6.063914299E0,1.817797661E0
4.855489540E0,2.409764051E0,6.130951881E0,1.932719350E0
4.857977196E0,2.400187254E0,6.293757915E0,1.990180135E0
4.860464853E0,2.347514868E0,6.523601055E0,1.990180135E0
4.862952509E0,2.280477047E0,6.748656273E0,1.918354154E0
4.865440165E0,2.242169857E0,6.954557419E0,1.745971560E0
4.867927821E0,2.309207439E0,7.074267387E0,1.434725404E0
4.870415478E0,2.519897223E0,7.045536995E0,1.214458823E0
4.872903134E0,2.816778183E0,6.930615425E0,1.113902330E0
4.875390790E0,3.132812977E0,6.854001045E0,1.046864748E0
4.877878446E0,3.396175146E0,6.806117058E0,1.094748735E0
4.880366103E0,3.515885115E0,6.892308235E0,1.128267527E0
4.882853759E0,3.468001127E0,7.131728172E0,1.080383539E0
4.885341415E0,3.300406933E0,7.442974567E0,1.113902330E0
4.887829071E0,3.104082584E0,7.778162956E0,1.156997919E0
4.890316728E0,2.970007181E0,8.055890083E0,1.051653147E0
4.892804384E0,2.950853586E0,8.233060837E0,8.888474107E-1
4.895292040E0,3.037044764E0,8.228272438E0,8.792705536E-1
4.897779696E0,3.166331768E0,8.156446457E0,9.367313981E-1
4.900267353E0,3.247734547E0,8.070255280E0,1.008557439E0
4.902755009E0,3.271676540E0,7.993640900E0,1.109113932E0
4.905242665E0,3.219004154E0,7.984064102E0,1.295861721E0
4.907730321E0,3.108870983E0,8.060678482E0,1.463455796E0
4.910217978E0,3.022679567E0,8.170811653E0,1.583165884E0
4.912705634E0,2.946065187E0,8.252214432E0,1.645415068E0
4.915193290E0,2.888604403E0,8.285733223E0,1.640626669E0
4.917680946E0,2.845508814E0,8.280944824E0,1.611896276E0
4.920168603E0,2.835932016E0,8.237849236E0,1.597531080E0
4.922656259E0,2.845508814E0,8.218695641E0,1.592742682E0
4.925143915E0,2.864662409E0,8.237849236E0,1.554435492E0
4.927631571E0,2.883816004E0,8.314463615E0,1.482609391E0
4.930119228E0,2.941276789E0,8.462904930E0,1.315015316E0
4.932606884E0,2.993949175E0,8.544307709E0,1.176151633E0
4.935094540E0,3.137601376E0,8.534730911E0,1.013345838E0
4.937582196E0,3.314772367E0,8.486846924E0,8.792705536E-1
4.940069853E0,3.511096716E0,8.367136002E0,8.553285599E-1
4.942557509E0,3.697844505E0,8.266579628E0,8.218097091E-1
4.945045165E0,3.831919909E0,8.194753647E0,7.595604658E-1
4.947532821E0,3.870227098E0,8.180388451E0,6.685808301E-1
4.950020478E0,3.827131510E0,8.261791229E0,5.057750940E-1
4.952508134E0,3.740940094E0,8.395866394E0,2.855085433E-1
4.954995790E0,3.673902512E0,8.539519310E0,1.227028370E-1
4.957483446E0,3.654748917E0,8.673594475E0,1.735796221E-2
4.959971103E0,3.712209702E0,8.798092842E0,2.214636654E-2
4.962458759E0,3.807977915E0,8.903437614E0,9.876082093E-2
4.964946415E0,3.889380693E0,9.013570786E0,1.849520802E-1
4.967434071E0,3.946841478E0,9.123703957E0,2.232593149E-1
4.969921728E0,3.975571871E0,9.171587944E0,2.041056901E-1
4.972409384E0,3.989937067E0,9.209895134E0,1.083376259E-1
4.974897040E0,4.004302502E0,9.214683533E0,5.087678507E-2
4.977384696E0,4.047398090E0,9.185953140E0,7.481880486E-2
4.979872353E0,4.119224072E0,9.200318336E0,1.705868691E-1
4.982360061E0,4.181473255E0,9.205106735E0,2.567781210E-1
4.984847769E0,4.258087635E0,9.214683533E0,3.621230125E-1
4.987335478E0,4.339490414E0,9.214683533E0,5.201402903E-1
4.989823186E0,4.387374401E0,9.224260330E0,6.781576276E-1
4.992310894E0,4.411316395E0,9.281721115E0,7.404068708E-1
4.994798603E0,4.420893669E0,9.324816704E0,7.404068708E-1
4.997286311E0,4.463989258E0,9.367912292E0,6.829460263E-1
4.999774019E0,4.526238441E0,9.382277489E0,5.440823436E-1
5.002261728E0,4.598064423E0,9.382277489E0,3.333925903E-1
5.004749436E0,4.660313606E0,9.391854286E0,1.705868691E-1
5.007237144E0,4.698620796E0,9.372700691E0,1.035492271E-1
5.009724853E0,4.689043999E0,9.401431084E0,3.651157767E-2
5.012212561E0,4.669890404E0,9.411007881E0,-1.137245819E-2
5.014700269E0,4.588487625E0,9.396642685E0,-1.137245819E-2
5.017187978E0,4.468777657E0,9.334393501E0,5.566519126E-2
5.019675686E0,4.301183224E0,9.243413925E0,2.041056901E-1
5.022163394E0,4.138377666E0,9.176376343E0,3.908534348E-1
5.024651103E0,3.985148668E0,9.138069153E0,4.722562730E-1
5.027138811E0,3.841496706E0,9.094973564E0,5.201402903E-1
5.029626519E0,3.736151695E0,9.080608368E0,5.297171474E-1
5.032114228E0,3.654748917E0,9.094973564E0,4.483142793E-1
5.034601936E0,3.606864929E0,9.128492355E0,3.190273643E-1
5.037089644E0,3.597288132E0,9.142857552E0,1.993172914E-1
5.039577353E0,3.630806923E0,9.219471931E0,1.801636815E-1
5.042065061E0,3.664325714E0,9.286509514E0,2.136825025E-1
5.044552769E0,3.712209702E0,9.329605103E0,3.094505668E-1
5.047040478E0,3.788824081E0,9.363123894E0,4.770447016E-1
5.049528186E0,3.870227098E0,9.334393501E0,7.068880796E-1
5.052015894E0,3.903745890E0,9.291297913E0,1.008557439E0
5.054503603E0,3.903745890E0,9.291297913E0,1.247977614E0
5.056991311E0,3.879803896E0,9.329605103E0,1.343745708E0
5.059478967E0,3.855861902E0,9.401431084E0,1.348534107E0
5.061966623E0,3.865438700E0,9.482834816E0,1.209670424E0
5.064454280E0,3.898957491E0,9.501988411E0,9.606734514E-1
5.066941936E0,3.970783472E0,9.478046417E0,7.547720671E-1
5.069429592E0,4.047398090E0,9.411007881E0,6.015431881E-1
5.071917248E0,4.090493679E0,9.348758698E0,4.435258508E-1
5.074404905E0,4.114435673E0,9.324816704E0,3.956418335E-1
5.076892561E0,4.085705280E0,9.329605103E0,4.052186310E-1
5.079380217E0,4.009090900E0,9.387065887E0,4.195838571E-1
5.081867873E0,3.894169092E0,9.468469620E0,4.004302323E-1
5.084355530E0,3.750516891E0,9.497200012E0,4.100070298E-1
5.086843186E0,3.582922935E0,9.463681221E0,4.818331003E-1
5.089330842E0,3.434482336E0,9.391854286E0,5.488707423E-1
5.091818498E0,3.281253338E0,9.315239906E0,5.967547894E-1
5.094306155E0,3.185485363E0,9.224260330E0,6.925228238E-1
5.096793811E0,3.099294186E0,9.147645950E0,7.164648771E-1
5.099281467E0,3.027467966E0,9.090185165E0,6.925228238E-1
5.101769123E0,2.965218782E0,9.080608368E0,6.925228238E-1
5.104256780E0,2.912546396E0,9.090185165E0,7.356184721E-1
5.106744436E0,2.835932016E0,9.133280754E0,8.409633636E-1
5.109232092E0,2.788047791E0,9.185953140E0,1.008557439E0
5.111719748E0,2.773682594E0,9.252990723E0,1.176151633E0
5.114207405E0,2.735375404E0,9.286509514E0,1.224035621E0
5.116695061E0,2.744952202E0,9.238625526E0,1.257554412E0
5.119182717E0,2.778470993E0,9.152434349E0,1.319803715E0
5.121670373E0,2.802412987E0,9.051877975E0,1.329380512E0
5.124158030E0,2.811989784E0,8.970475197E0,1.362899303E0
5.126645686E0,2.859874010E0,8.917802811E0,1.434725404E0
5.129133342E0,2.864662409E0,8.936956406E0,1.496974587E0
5.131620998E0,2.869450808E0,9.023147583E0,1.501762986E0
5.134108655E0,2.869450808E0,9.094973564E0,1.501762986E0
5.136596311E0,2.893392801E0,9.176376343E0,1.420360208E0
5.139083967E0,2.965218782E0,9.267355919E0,1.238400817E0
5.141571623E0,3.089717388E0,9.334393501E0,1.051653147E0
5.144059280E0,3.266888142E0,9.358335495E0,8.601169586E-1
5.146546936E0,3.515885115E0,9.334393501E0,6.542156339E-1
5.149034592E0,3.803189516E0,9.286509514E0,5.728127360E-1
5.151522248E0,4.066551685E0,9.233837128E0,6.446388364E-1
5.154009905E0,4.291606426E0,9.185953140E0,7.451952696E-1
5.156497561E0,4.440047264E0,9.138069153E0,8.074445128E-1
5.158985217E0,4.516661644E0,9.162011147E0,8.074445128E-1
5.161472873E0,4.516661644E0,9.219471931E0,7.308300734E-1
5.163960530E0,4.483142853E0,9.276932716E0,6.398503780E-1
5.166448186E0,4.440047264E0,9.296086311E0,6.111199856E-1
5.168935842E0,4.420893669E0,9.281721115E0,6.398503780E-1
5.171423498E0,4.396951199E0,9.224260330E0,6.877344251E-1
5.173911155E0,4.373009205E0,9.147645950E0,7.643488646E-1
5.176398811E0,4.310760021E0,9.042301178E0,9.271546006E-1
5.178886467E0,4.234145641E0,8.984840393E0,1.118690729E0
5.181374123E0,4.109647274E0,8.956110001E0,1.257554412E0
5.183861780E0,3.918111086E0,8.970475197E0,1.391629696E0
5.186349436E0,3.659537315E0,9.042301178E0,1.473032594E0
5.188837092E0,3.420117140E0,9.152434349E0,1.405994892E0
5.191324748E0,3.228580952E0,9.238625526E0,1.396418095E0
5.193812405E0,3.075352192E0,9.267355919E0,1.429937005E0
5.196300061E0,2.993949175E0,9.272144318E0,1.396418095E0
5.198787717E0,2.960430384E0,9.248202324E0,1.391629696E0
5.201275373E0,2.950853586E0,9.181164742E0,1.439513803E0
5.203763030E0,2.922123194E0,9.138069153E0,1.473032594E0
5.206250686E0,2.879027605E0,9.094973564E0,1.525704980E0
5.208738342E0,2.840720415E0,9.075819969E0,1.564012289E0
5.211225998E0,2.821566820E0,9.008782387E0,1.626261473E0
5.213713655E0,2.840720415E0,8.975263596E0,1.726817966E0
5.216201311E0,2.902969599E0,8.946533203E0,1.731606364E0
5.218688967E0,3.003525972E0,8.975263596E0,1.645415068E0
5.221176623E0,3.151966572E0,9.032724380E0,1.516128182E0
5.223664280E0,3.324349165E0,9.094973564E0,1.367687702E0
5.226151936E0,3.525461912E0,9.142857552E0,1.243189216E0
5.228639592E0,3.726574898E0,9.162011147E0,1.123479128E0
5.231127248E0,3.956418276E0,9.162011147E0,9.846154451E-1
5.233614905E0,4.191050053E0,9.142857552E0,8.505401611E-1
5.236102561E0,4.396951199E0,9.075819969E0,8.265981078E-1
5.238590217E0,4.535815239E0,8.989628792E0,8.792705536E-1
5.241077873E0,4.583699226E0,8.970475197E0,9.941922426E-1
5.243565530E0,4.521450043E0,9.056666374E0,1.109113932E0
5.246053186E0,4.339490414E0,9.229048729E0,1.219247222E0
5.248540842E0,4.085705280E0,9.463681221E0,1.300650120E0
5.251028498E0,3.851073503E0,9.727043152E0,1.214458823E0
5.253516155E0,3.697844505E0,9.928155899E0,1.070806742E0
5.256003811E0,3.606864929E0,9.932944298E0,1.042076349E0
5.258491467E0,3.568557739E0,9.822811127E0,1.137844324E0
5.260979123E0,3.501519918E0,9.650428772E0,1.319803715E0
5.263466780E0,3.429693937E0,9.492411613E0,1.525704980E0
5.265954436E0,3.276464939E0,9.415796280E0,1.693299174E0
5.268442092E0,3.060986757E0,9.396642685E0,1.808220863E0
5.270929748E0,2.826355219E0,9.454104424E0,1.903988957E0
5.273417405E0,2.634819031E0,9.549872398E0,1.937507749E0
5.275905061E0,2.539050817E0,9.573814392E0,1.966238141E0
5.278392717E0,2.524685621E0,9.554660797E0,1.956661344E0
5.280880373E0,2.620453835E0,9.516353607E0,1.918354154E0
5.283368030E0,2.740163803E0,9.449316025E0,1.856104851E0
5.285855686E0,2.883816004E0,9.415796280E0,1.817797661E0
5.288343342E0,3.017891169E0,9.387065887E0,1.774701953E0
5.290830998E0,3.166331768E0,9.348758698E0,1.793855667E0
5.293318655E0,3.324349165E0,9.320028305E0,1.808220863E0
5.295806311E0,3.506308317E0,9.267355919E0,1.899200439E0
5.298293967E0,3.659537315E0,9.209895134E0,1.975814939E0
5.300781623E0,3.774458885E0,9.123703957E0,2.033275843E0
5.303269280E0,3.831919909E0,9.047089577E0,2.052429438E0
5.305756936E0,3.865438700E0,8.960898399E0,2.023699045E0
5.308244592E0,3.889380693E0,8.893860817E0,1.956661344E0
5.310732248E0,3.922899485E0,8.826823235E0,1.865681648E0
