"Time (s)","Gyroscope x (rad/s)","Gyroscope y (rad/s)","Gyroscope z (rad/s)"
7.584526200E-2,7.723161485E-3,-4.394212738E-3,1.970737800E-2
7.833291800E-2,6.657897960E-3,-6.524739787E-3,1.651158556E-2
8.082057400E-2,6.657897960E-3,-9.720530361E-3,1.225053146E-2
8.330823100E-2,6.657897960E-3,-1.398158539E-2,9.054740891E-3
8.579588700E-2,7.723161485E-3,-1.930790395E-2,3.728422802E-3
8.828354300E-2,7.723161485E-3,-2.569948509E-2,5.326318205E-4
9.077119900E-2,9.853689000E-3,-3.315633163E-2,-3.728422802E-3
9.325885600E-2,1.198421605E-2,-4.167843983E-2,-6.924213842E-3
9.574651200E-2,1.411474310E-2,-5.233107507E-2,-1.012000442E-2
9.823416800E-2,1.518000662E-2,-6.298371404E-2,-1.225053146E-2
1.007218240E-1,1.624527015E-2,-7.470161468E-2,-1.438105945E-2
1.032094810E-1,1.624527015E-2,-8.641951531E-2,-1.651158556E-2
1.056971370E-1,1.518000662E-2,-9.600688517E-2,-1.864211448E-2
1.081847930E-1,1.304947957E-2,-1.045289934E-1,-2.183790505E-2
1.106724490E-1,1.091895252E-2,-1.109205782E-1,-2.396843210E-2
1.131601060E-1,9.853689000E-3,-1.130511016E-1,-2.822948620E-2
1.156477620E-1,7.723161485E-3,-1.130511016E-1,-3.142527863E-2
1.181354180E-1,5.592633970E-3,-1.098553166E-1,-3.355580568E-2
1.206230740E-1,3.462106921E-3,-1.055942550E-1,-3.568633273E-2
1.231107310E-1,2.663159103E-4,-9.920267761E-2,-3.781685978E-2
1.255983870E-1,-2.929474926E-3,-9.174583107E-2,-3.994738683E-2
1.280860430E-1,-6.125265732E-3,-8.428898454E-2,-4.101264849E-2
1.305736990E-1,-9.321057238E-3,-7.789740711E-2,-4.314317927E-2
1.330613560E-1,-1.251684781E-2,-7.150582224E-2,-4.314317927E-2
1.355490120E-1,-1.571263932E-2,-6.617950648E-2,-4.314317927E-2
1.380366680E-1,-1.890842989E-2,-6.085318699E-2,-4.101264849E-2
1.405243240E-1,-2.210422046E-2,-5.659212917E-2,-4.101264849E-2
1.430119810E-1,-2.530001104E-2,-5.233107507E-2,-3.888212144E-2
1.454996370E-1,-2.956106514E-2,-4.700475931E-2,-3.675159439E-2
1.479872930E-1,-3.275685757E-2,-3.954791278E-2,-3.462106735E-2
1.504749490E-1,-3.595264629E-2,-3.102580272E-2,-3.249054030E-2
1.529626060E-1,-3.914843872E-2,-2.250369452E-2,-2.929474972E-2
1.554502620E-1,-4.234423116E-2,-1.291632187E-2,-2.822948620E-2
1.579379180E-1,-4.660528526E-2,-3.328948980E-3,-2.716422267E-2
1.604255740E-1,-4.980107397E-2,5.193160381E-3,-2.503369562E-2
1.629132310E-1,-5.299686641E-2,1.478053257E-2,-2.503369562E-2
1.654008870E-1,-5.619265884E-2,2.330264263E-2,-2.503369562E-2
1.678885430E-1,-5.832318589E-2,3.075948730E-2,-2.396843210E-2
1.703761990E-1,-6.045371294E-2,3.821633384E-2,-2.396843210E-2
1.728638560E-1,-6.151897460E-2,4.460791498E-2,-2.396843210E-2
1.753515120E-1,-6.364950538E-2,4.993423447E-2,-2.396843210E-2
1.778391680E-1,-6.471476704E-2,5.526055023E-2,-2.396843210E-2
1.803268240E-1,-6.578002870E-2,5.952160433E-2,-2.396843210E-2
1.828144810E-1,-6.684529036E-2,6.271740049E-2,-2.396843210E-2
1.853021370E-1,-6.684529036E-2,6.484792382E-2,-2.503369562E-2
1.877897930E-1,-6.684529036E-2,6.591318548E-2,-2.503369562E-2
1.902774490E-1,-6.578002870E-2,6.591318548E-2,-2.503369562E-2
1.927651060E-1,-6.578002870E-2,6.378266215E-2,-2.503369562E-2
1.952527620E-1,-6.364950538E-2,6.165213138E-2,-2.609895915E-2
1.977404180E-1,-6.364950538E-2,5.739107728E-2,-2.716422267E-2
2.002280740E-1,-6.258423626E-2,5.099949613E-2,-2.929474972E-2
2.027157310E-1,-6.364950538E-2,4.460791498E-2,-3.142527863E-2
2.052033870E-1,-6.258423626E-2,3.502054140E-2,-3.568633273E-2
2.076910430E-1,-6.258423626E-2,2.649843320E-2,-3.994738683E-2
2.101786990E-1,-6.258423626E-2,1.797632314E-2,-4.527370632E-2
2.126663560E-1,-6.364950538E-2,9.454214945E-3,-4.953476042E-2
2.151540120E-1,-6.364950538E-2,3.062632866E-3,-5.273054913E-2
2.176416680E-1,-6.471476704E-2,-3.328948980E-3,-5.592634156E-2
2.201293240E-1,-6.684529036E-2,-7.590003312E-3,-5.805686861E-2
2.226169810E-1,-6.791055948E-2,-9.720530361E-3,-6.018739566E-2
2.251046370E-1,-6.791055948E-2,-1.078579482E-2,-6.125266105E-2
2.275922930E-1,-7.004108280E-2,-9.720530361E-3,-6.125266105E-2
2.300799490E-1,-7.110634446E-2,-8.655266836E-3,-6.018739566E-2
2.325676060E-1,-7.323687524E-2,-5.459476262E-3,-5.912213027E-2
2.350552620E-1,-7.430213690E-2,-2.263685223E-3,-5.699160323E-2
2.375429180E-1,-7.536740601E-2,1.997369342E-3,-5.486107618E-2
2.400305740E-1,-7.643266767E-2,8.388951421E-3,-5.166528746E-2
2.425182310E-1,-7.856319100E-2,1.478053257E-2,-4.846949503E-2
2.450058870E-1,-7.962846011E-2,2.223737910E-2,-4.420844093E-2
2.474935430E-1,-8.175898343E-2,2.969422378E-2,-3.994738683E-2
2.499811990E-1,-8.282424510E-2,3.715106845E-2,-3.462106735E-2
2.524688560E-1,-8.282424510E-2,4.460791498E-2,-2.929474972E-2
2.549565120E-1,-8.282424510E-2,5.099949613E-2,-2.290316857E-2
2.574441680E-1,-8.282424510E-2,5.632581562E-2,-1.544632297E-2
2.599318240E-1,-8.282424510E-2,5.952160433E-2,-6.924213842E-3
2.624194810E-1,-8.282424510E-2,5.952160433E-2,2.663159044E-3
2.649071370E-1,-8.282424510E-2,5.845634267E-2,1.225053146E-2
2.673947930E-1,-8.282424510E-2,5.632581562E-2,1.970737800E-2
2.698824490E-1,-8.175898343E-2,5.313002318E-2,2.716422267E-2
2.723701060E-1,-8.175898343E-2,4.780370742E-2,3.249054030E-2
2.748577620E-1,-8.069372177E-2,4.247738793E-2,3.675159439E-2
2.773454180E-1,-7.962846011E-2,3.821633384E-2,3.994738683E-2
2.798330740E-1,-7.749792933E-2,3.395527974E-2,4.101264849E-2
2.823207310E-1,-7.536740601E-2,3.075948730E-2,3.994738683E-2
2.848083870E-1,-7.217161357E-2,2.756369673E-2,3.781685978E-2
2.872960430E-1,-6.897582114E-2,2.543316968E-2,3.462106735E-2
2.897836990E-1,-6.684529036E-2,2.330264263E-2,3.036001325E-2
2.922713560E-1,-6.364950538E-2,2.223737910E-2,2.503369562E-2
2.947590120E-1,-6.151897460E-2,2.223737910E-2,1.864211448E-2
2.972466680E-1,-6.045371294E-2,2.117211558E-2,1.225053146E-2
2.997343240E-1,-5.938844755E-2,2.117211558E-2,6.924213842E-3
3.022219810E-1,-5.832318589E-2,2.117211558E-2,5.326318205E-4
3.047096370E-1,-5.832318589E-2,2.223737910E-2,-4.793686327E-3
3.071972930E-1,-5.725792050E-2,2.436790615E-2,-9.054740891E-3
3.096849490E-1,-5.725792050E-2,2.862896025E-2,-1.331579592E-2
3.121726060E-1,-5.725792050E-2,3.182475269E-2,-1.651158556E-2
3.146602620E-1,-5.725792050E-2,3.821633384E-2,-1.970737800E-2
3.171479180E-1,-5.725792050E-2,4.460791498E-2,-2.290316857E-2
3.196355740E-1,-5.938844755E-2,5.099949613E-2,-2.503369562E-2
3.221232310E-1,-6.045371294E-2,5.845634267E-2,-2.716422267E-2
3.246108870E-1,-6.151897460E-2,6.591318548E-2,-2.822948620E-2
3.270985430E-1,-6.258423626E-2,7.123950869E-2,-3.036001325E-2
3.295861990E-1,-6.364950538E-2,7.656582445E-2,-3.142527863E-2
3.320738560E-1,-6.364950538E-2,8.082687855E-2,-3.355580568E-2
3.345615120E-1,-6.364950538E-2,8.295740932E-2,-3.462106735E-2
3.370491680E-1,-6.258423626E-2,8.508793265E-2,-3.675159439E-2
3.395368240E-1,-6.258423626E-2,8.721846342E-2,-3.781685978E-2
3.420244810E-1,-6.258423626E-2,8.828372508E-2,-3.888212144E-2
3.445121370E-1,-6.258423626E-2,8.934898674E-2,-3.888212144E-2
3.469997930E-1,-6.258423626E-2,8.828372508E-2,-3.888212144E-2
3.494874490E-1,-6.151897460E-2,8.615319431E-2,-3.994738683E-2
3.519751060E-1,-6.045371294E-2,8.295740932E-2,-3.888212144E-2
3.544627620E-1,-6.045371294E-2,7.763108611E-2,-3.781685978E-2
3.569504180E-1,-5.938844755E-2,6.910897791E-2,-3.568633273E-2
3.594381260E-1,-5.619265884E-2,5.845634267E-2,-3.249054030E-2
3.619258350E-1,-5.193160102E-2,4.780370742E-2,-2.929474972E-2
3.644135430E-1,-4.767054692E-2,3.608580679E-2,-2.609895915E-2
3.669012510E-1,-4.340949282E-2,2.543316968E-2,-2.183790505E-2
3.693889600E-1,-3.914843872E-2,1.584579609E-2,-1.864211448E-2
3.718766680E-1,-3.382211924E-2,8.388951421E-3,-1.544632297E-2
3.743643760E-1,-2.956106514E-2,3.062632866E-3,-1.331579592E-2
3.768520850E-1,-2.530001104E-2,-2.263685223E-3,-1.118526794E-2
3.793397930E-1,-1.997369342E-2,-5.459476262E-3,-1.012000442E-2
3.818275010E-1,-1.571263932E-2,-7.590003312E-3,-7.989477366E-3
3.843152100E-1,-1.145158429E-2,-7.590003312E-3,-6.924213842E-3
3.868029180E-1,-6.125265732E-3,-7.590003312E-3,-4.793686327E-3
3.892906260E-1,-7.989477599E-4,-4.394212738E-3,-5.326318205E-4
3.917783350E-1,2.396843163E-3,-1.331579551E-4,3.728422802E-3
3.942660430E-1,6.657897960E-3,7.323687430E-3,1.012000442E-2
3.967537510E-1,8.788425475E-3,1.584579609E-2,1.651158556E-2
3.992414600E-1,1.304947957E-2,2.436790615E-2,2.503369562E-2
4.017291680E-1,1.518000662E-2,3.502054140E-2,3.355580568E-2
4.042168760E-1,1.731053367E-2,4.460791498E-2,4.207791388E-2
4.067045850E-1,1.837579720E-2,5.526055023E-2,5.060002208E-2
4.091922930E-1,1.944106072E-2,6.591318548E-2,5.912213027E-2
4.116800010E-1,1.944106072E-2,7.763108611E-2,6.764423847E-2
4.141677100E-1,1.944106072E-2,8.934898674E-2,7.510108501E-2
4.166554180E-1,1.731053367E-2,1.010668874E-1,8.149266988E-2
4.191431260E-1,1.731053367E-2,1.117195264E-1,8.681898564E-2
4.216308350E-1,1.624527015E-2,1.202416345E-1,9.214530140E-2
4.241185430E-1,1.518000662E-2,1.298290044E-1,9.534109384E-2
4.266062510E-1,1.518000662E-2,1.394163817E-1,9.640636295E-2
4.290939600E-1,1.518000662E-2,1.500690132E-1,9.747162461E-2
4.315816680E-1,1.411474310E-2,1.628521830E-1,9.534109384E-2
4.340694810E-1,1.304947957E-2,1.767006069E-1,9.321057051E-2
4.365570330E-1,1.198421605E-2,1.905490309E-1,8.788424730E-2
4.390445850E-1,8.788425475E-3,2.033322006E-1,8.255793154E-2
4.415321370E-1,6.657897960E-3,2.129195631E-1,7.723161578E-2
4.440196890E-1,5.592633970E-3,2.203764170E-1,7.190529257E-2
4.465072410E-1,5.592633970E-3,2.235722095E-1,6.657897681E-2
4.489947930E-1,5.592633970E-3,2.235722095E-1,6.231792271E-2
4.514823450E-1,7.723161485E-3,2.182458937E-1,5.699160323E-2
4.539698970E-1,9.853689000E-3,2.107890397E-1,5.273054913E-2
4.564574490E-1,1.304947957E-2,1.980058849E-1,4.953476042E-2
4.589450010E-1,1.624527015E-2,1.830921918E-1,4.527370632E-2
4.614325530E-1,1.837579720E-2,1.671132296E-1,3.994738683E-2
4.639201580E-1,2.157158963E-2,1.521995366E-1,3.249054030E-2
4.664078140E-1,2.476738021E-2,1.404816359E-1,2.396843210E-2
4.688954700E-1,2.902843431E-2,1.319595277E-1,1.118526794E-2
4.713831260E-1,3.435475379E-2,1.287637353E-1,-4.793686327E-3
4.738708350E-1,4.287686199E-2,1.287637353E-1,-2.290316857E-2
4.763585430E-1,5.246423557E-2,1.308942735E-1,-4.527370632E-2
4.788462510E-1,6.524740160E-2,1.340900660E-1,-6.977476925E-2
4.813339600E-1,8.122635633E-2,1.340900660E-1,-9.853688627E-2
4.838216680E-1,9.827057272E-2,1.298290044E-1,-1.315600574E-1
4.863093760E-1,1.174453199E-1,1.191763729E-1,-1.677790284E-1
4.887970850E-1,1.398158520E-1,9.787109494E-2,-2.071937770E-1
4.912847930E-1,1.632516533E-1,6.697845459E-2,-2.487390637E-1
4.937726060E-1,1.909485012E-1,2.436790615E-2,-2.934801280E-1
4.962604180E-1,2.218411565E-1,-2.676474862E-2,-3.382211924E-1
4.987482310E-1,2.559295893E-1,-8.428898454E-2,-3.850927949E-1
5.012360430E-1,2.932138145E-1,-1.439437568E-1,-4.308991432E-1
5.037238560E-1,3.358243704E-1,-2.035985142E-1,-4.745749533E-1
5.062116680E-1,3.805654347E-1,-2.568616867E-1,-5.161202550E-1
5.086994280E-1,4.285022914E-1,-3.005374968E-1,-5.555350184E-1
5.111870850E-1,4.764391780E-1,-3.324954212E-1,-5.917539597E-1
5.136747410E-1,5.243760347E-1,-3.506048918E-1,-6.258423924E-1
5.161623970E-1,5.712476373E-1,-3.569964767E-1,-6.578003168E-1
5.186500530E-1,6.181192398E-1,-3.516701460E-1,-6.886929274E-1
5.211377100E-1,6.617950201E-1,-3.378217220E-1,-7.153245211E-1
5.236253660E-1,7.033402920E-1,-3.154512048E-1,-7.408908606E-1
5.261130220E-1,7.406245470E-1,-2.877543271E-1,-7.621961236E-1
5.286006780E-1,7.747129798E-1,-2.557964325E-1,-7.813708782E-1
5.310883350E-1,8.045403361E-1,-2.227732539E-1,-7.973498106E-1
5.335759910E-1,8.311719298E-1,-1.886848211E-1,-8.090677261E-1
5.360636470E-1,8.556730151E-1,-1.535311192E-1,-8.197203875E-1
5.385513030E-1,8.780435324E-1,-1.215732098E-1,-8.271772265E-1
5.410389600E-1,8.972182870E-1,-9.068056941E-2,-8.335688114E-1
5.435266160E-1,9.153277874E-1,-6.298371404E-2,-8.399603963E-1
5.460142720E-1,9.302414656E-1,-3.635212034E-2,-8.463519812E-1
5.485019280E-1,9.419593811E-1,-1.504684892E-2,-8.548740745E-1
5.509895850E-1,9.494162202E-1,4.127896391E-3,-8.644614220E-1
5.534772410E-1,9.547425508E-1,1.904158667E-2,-8.772445917E-1
5.559648970E-1,9.579383135E-1,2.969422378E-2,-8.921582699E-1
5.584525530E-1,9.579383135E-1,3.502054140E-2,-9.081372619E-1
5.609402100E-1,9.579383135E-1,3.928159550E-2,-9.262467623E-1
5.634278660E-1,9.558078051E-1,3.928159550E-2,-9.443562031E-1
5.659155220E-1,9.536772966E-1,3.608580679E-2,-9.624657035E-1
5.684031780E-1,9.504814744E-1,3.182475269E-2,-9.805752039E-1
5.708908350E-1,9.462204576E-1,2.436790615E-2,-9.965541363E-1
5.733784910E-1,9.430246353E-1,1.584579609E-2,-1.013598323E0
5.758661470E-1,9.408941269E-1,5.193160381E-3,-1.028512001E0
5.783538030E-1,9.387635589E-1,-7.590003312E-3,-1.042360425E0
5.808414600E-1,9.376983047E-1,-1.824264042E-2,-1.054078341E0
5.833291160E-1,9.376983047E-1,-2.783001214E-2,-1.063665748E0
5.858167720E-1,9.376983047E-1,-3.528685868E-2,-1.070057273E0
5.883044280E-1,9.366330504E-1,-3.954791278E-2,-1.074318409E0
5.907920850E-1,9.345025420E-1,-4.167843983E-2,-1.074318409E0
5.932797410E-1,9.323719740E-1,-3.848264739E-2,-1.071122646E0
5.957673970E-1,9.281109571E-1,-3.102580272E-2,-1.062600493E0
5.982550530E-1,9.238498807E-1,-1.824264042E-2,-1.049817324E0
6.007427100E-1,9.217193723E-1,-1.331579551E-4,-1.030642629E0
6.032303660E-1,9.174582958E-1,2.330264263E-2,-1.008272052E0
6.057180220E-1,9.131972790E-1,4.886896908E-2,-9.805752039E-1
6.082056780E-1,9.078709483E-1,7.763108611E-2,-9.496825337E-1
6.106933350E-1,9.046751261E-1,1.085237339E-1,-9.177246094E-1
6.131809910E-1,9.036098719E-1,1.404816359E-1,-8.836361766E-1
6.156686470E-1,9.057404399E-1,1.735048145E-1,-8.484824896E-1
6.181563030E-1,9.100014567E-1,2.054627240E-1,-8.143940568E-1
6.206439600E-1,9.185235500E-1,2.384859025E-1,-7.813708782E-1
6.231316160E-1,9.302414656E-1,2.715090811E-1,-7.515435219E-1
6.256192720E-1,9.430246353E-1,3.034669757E-1,-7.249119282E-1
6.281069280E-1,9.579383135E-1,3.311638236E-1,-7.036066055E-1
6.305945850E-1,9.717867374E-1,3.577954173E-1,-6.865624189E-1
6.330822410E-1,9.845699072E-1,3.780354261E-1,-6.748445034E-1
6.355698970E-1,9.952225685E-1,3.929491341E-1,-6.673876643E-1
6.380575530E-1,1.003744721E0,3.993407190E-1,-6.631265879E-1
6.405452100E-1,1.009070992E0,3.982754350E-1,-6.631265879E-1
6.430328660E-1,1.011201501E0,3.876228034E-1,-6.652571559E-1
6.455205220E-1,1.012266755E0,3.673827946E-1,-6.673876643E-1
6.480081780E-1,1.011201501E0,3.386206925E-1,-6.705834866E-1
6.504958350E-1,1.010136247E0,3.024017215E-1,-6.727139950E-1
6.529834910E-1,1.008005738E0,2.587259114E-1,-6.737792492E-1
6.554711470E-1,1.005875230E0,2.107890397E-1,-6.716487408E-1
6.579588030E-1,1.003744721E0,1.617869139E-1,-6.684529185E-1
6.604464600E-1,1.001614094E0,1.127847880E-1,-6.631265879E-1
6.629341160E-1,9.984183311E-1,6.484792382E-2,-6.546044946E-1
6.654217720E-1,9.941573143E-1,1.797632314E-2,-6.460824013E-1
6.679094280E-1,9.898962379E-1,-2.889527567E-2,-6.343644857E-1
6.703970850E-1,9.845699072E-1,-7.363634557E-2,-6.226465702E-1
6.728847410E-1,9.803088903E-1,-1.162468940E-1,-6.098634601E-1
6.753723970E-1,9.739173055E-1,-1.545963883E-1,-5.970802903E-1
6.778600530E-1,9.685909748E-1,-1.897500902E-1,-5.821665525E-1
6.803477100E-1,9.632646441E-1,-2.185122073E-1,-5.661876202E-1
6.828353660E-1,9.590035677E-1,-2.440785319E-1,-5.502086878E-1
6.853230220E-1,9.558078051E-1,-2.643185556E-1,-5.331644416E-1
6.878106780E-1,9.515467286E-1,-2.792322338E-1,-5.150549412E-1
6.902983350E-1,9.483509660E-1,-2.920154035E-1,-4.948149621E-1
6.927859910E-1,9.451551437E-1,-3.005374968E-1,-4.735096991E-1
6.952736470E-1,9.408941269E-1,-3.079943359E-1,-4.500738978E-1
6.977613030E-1,9.366330504E-1,-3.133206666E-1,-4.245075583E-1
7.002489600E-1,9.323719740E-1,-3.175817132E-1,-3.957454562E-1
7.027366160E-1,9.291762114E-1,-3.218427896E-1,-3.659180701E-1
7.052242720E-1,9.270457029E-1,-3.261038363E-1,-3.328948915E-1
7.077119280E-1,9.270457029E-1,-3.314301372E-1,-2.998717129E-1
7.101995850E-1,9.291762114E-1,-3.399522603E-1,-2.679138184E-1
7.126872410E-1,9.345025420E-1,-3.527354300E-1,-2.370211631E-1
7.151748970E-1,9.408941269E-1,-3.697796464E-1,-2.071937770E-1
7.176625530E-1,9.494162202E-1,-3.910849094E-1,-1.784316599E-1
7.201502100E-1,9.579383135E-1,-4.134554565E-1,-1.496695429E-1
7.226378660E-1,9.664604664E-1,-4.358259737E-1,-1.187768951E-1
7.251255220E-1,9.739173055E-1,-4.560659826E-1,-8.468846232E-2
7.276131780E-1,9.813741446E-1,-4.709796906E-1,-4.953476042E-2
7.301008350E-1,9.877657294E-1,-4.773712754E-1,-1.118526794E-2
7.325884910E-1,9.930920005E-1,-4.752407372E-1,2.822948620E-2
7.350761470E-1,9.973530769E-1,-4.656533599E-1,6.870950758E-2
7.375638030E-1,1.000548840E0,-4.518049359E-1,1.102547869E-1
7.400514600E-1,9.984183311E-1,-4.390217662E-1,1.507348120E-1
7.425391160E-1,9.930920005E-1,-4.283691347E-1,1.901495606E-1
7.450267720E-1,9.867004752E-1,-4.187817574E-1,2.263685167E-1
7.475144280E-1,9.781783223E-1,-4.113249183E-1,2.593916953E-1
7.500020850E-1,9.685909748E-1,-4.049333334E-1,2.913496196E-1
7.524897410E-1,9.568730593E-1,-4.006722867E-1,3.211769760E-1
7.549773970E-1,9.419593811E-1,-3.985417485E-1,3.520696461E-1
7.574650530E-1,9.238498807E-1,-3.942807019E-1,3.808317482E-1
7.599527100E-1,9.046751261E-1,-3.900196552E-1,4.106591344E-1
7.624403660E-1,8.833698630E-1,-3.814975321E-1,4.394212663E-1
7.649280220E-1,8.620646000E-1,-3.697796464E-1,4.681833684E-1
7.674156780E-1,8.407593369E-1,-3.527354300E-1,4.969455004E-1
7.699033870E-1,8.194540739E-1,-3.314301372E-1,5.235770941E-1
7.723910950E-1,7.992140651E-1,-3.079943359E-1,5.502086878E-1
7.748788030E-1,7.789740562E-1,-2.834932804E-1,5.747097135E-1
7.773665120E-1,7.597993016E-1,-2.600574791E-1,5.960150361E-1
7.798542200E-1,7.438203096E-1,-2.408827394E-1,6.151897311E-1
7.823419280E-1,7.267761230E-1,-2.270343155E-1,6.332992315E-1
7.848296370E-1,7.107971907E-1,-2.217079997E-1,6.492781639E-1
7.873173450E-1,6.948181987E-1,-2.238385230E-1,6.641919017E-1
7.898050530E-1,6.799045205E-1,-2.344911546E-1,6.801708341E-1
7.922927620E-1,6.649908423E-1,-2.483395934E-1,6.982803345E-1
7.947804700E-1,6.532729268E-1,-2.632532716E-1,7.206508517E-1
7.972681780E-1,6.447508335E-1,-2.771016955E-1,7.462171912E-1
7.997558870E-1,6.394245028E-1,-2.888196111E-1,7.760445476E-1
8.022435950E-1,6.351634264E-1,-3.016027808E-1,8.069372177E-1
8.047313030E-1,6.319676638E-1,-3.175817132E-1,8.399603963E-1
8.072190120E-1,6.298371553E-1,-3.367564678E-1,8.729835749E-1
8.097067200E-1,6.277065873E-1,-3.644533157E-1,9.070720077E-1
8.121944280E-1,6.255760789E-1,-3.985417485E-1,9.411604404E-1
8.146821370E-1,6.223802567E-1,-4.379565120E-1,9.752488732E-1
8.171698450E-1,6.191844940E-1,-4.805670679E-1,1.010402560E0
8.196575530E-1,6.138581634E-1,-5.221123695E-1,1.047686815E0
8.221452620E-1,6.074665785E-1,-5.540702343E-1,1.087101579E0
8.246329700E-1,5.978792310E-1,-5.753754973E-1,1.129712105E0
8.271206780E-1,5.882918239E-1,-5.796365738E-1,1.172322631E0
8.296083870E-1,5.744433999E-1,-5.657881498E-1,1.217063665E0
8.320960950E-1,5.595297217E-1,-5.359607935E-1,1.261804819E0
8.345838030E-1,5.403549671E-1,-4.922849536E-1,1.305480599E0
8.370715120E-1,5.158539414E-1,-4.390217662E-1,1.347025871E0
8.395592200E-1,4.828307331E-1,-3.857586086E-1,1.386440635E0
8.420469280E-1,4.412854612E-1,-3.346259296E-1,1.422659636E0
8.445346370E-1,3.922833502E-1,-2.877543271E-1,1.455682755E0
8.470223450E-1,3.390201628E-1,-2.462090552E-1,1.486575365E0
8.495100010E-1,2.857569754E-1,-2.099900991E-1,1.515337586E0
8.519976580E-1,2.335590571E-1,-1.769669205E-1,1.541969061E0
8.544853140E-1,1.834916621E-1,-1.482048035E-1,1.568600655E0
8.569729700E-1,1.355548054E-1,-1.226384789E-1,1.593101740E0
8.594606260E-1,8.974846452E-2,-1.013332009E-1,1.618668079E0
8.619482830E-1,4.713791609E-2,-8.428898454E-2,1.644234419E0
8.644359390E-1,5.592633970E-3,-7.044056058E-2,1.668735504E0
8.669235950E-1,-3.382211924E-2,-5.872265995E-2,1.693236589E0
8.694112510E-1,-7.110634446E-2,-4.807002097E-2,1.716672301E0
8.718989080E-1,-1.062600464E-1,-3.954791278E-2,1.740108132E0
8.743865640E-1,-1.371526867E-1,-3.635212034E-2,1.761413455E0
8.768742200E-1,-1.669800729E-1,-3.848264739E-2,1.781653404E0
8.793618760E-1,-1.936116666E-1,-4.700475931E-2,1.798697710E0
8.818495330E-1,-2.181127369E-1,-6.085318699E-2,1.812546134E0
8.843371890E-1,-2.404832691E-1,-7.896266878E-2,1.820002913E0
8.868248450E-1,-2.617885470E-1,-9.920267761E-2,1.823198676E0
8.893125010E-1,-2.788327634E-1,-1.173121557E-1,1.820002913E0
8.918001580E-1,-2.958769798E-1,-1.311605871E-1,1.811480880E0
8.942878140E-1,-3.118559420E-1,-1.418132186E-1,1.798697710E0
8.967754700E-1,-3.310306668E-1,-1.482048035E-1,1.780588150E0
8.992631260E-1,-3.534012139E-1,-1.492700726E-1,1.760348201E0
9.017507830E-1,-3.779022694E-1,-1.471395344E-1,1.739042878E0
9.042384390E-1,-4.055991173E-1,-1.407479644E-1,1.718802929E0
9.067260950E-1,-4.332959950E-1,-1.311605871E-1,1.700693369E0
9.092137510E-1,-4.599275887E-1,-1.173121557E-1,1.685779691E0
9.117014080E-1,-4.844286442E-1,-1.002679393E-1,1.675127029E0
9.141890640E-1,-5.057339072E-1,-7.576687634E-2,1.670866013E0
9.166767200E-1,-5.238434076E-1,-4.593949392E-2,1.671931267E0
9.191643760E-1,-5.387570858E-1,-7.590003312E-3,1.678322911E0
9.216520330E-1,-5.515402555E-1,3.715106845E-2,1.688975453E0
9.241396890E-1,-5.621928573E-1,8.934898674E-2,1.702823877E0
9.266273450E-1,-5.749760270E-1,1.458079666E-1,1.715607047E0
9.291150010E-1,-5.856286883E-1,2.065279931E-1,1.728390217E0
9.316026580E-1,-5.962813497E-1,2.683132887E-1,1.736912370E0
9.340903140E-1,-6.037381887E-1,3.290333152E-1,1.742238641E0
9.365779700E-1,-6.079992056E-1,3.865575492E-1,1.739042878E0
9.390656260E-1,-6.069339514E-1,4.387554526E-1,1.729455471E0
9.415532830E-1,-6.026729345E-1,4.845618010E-1,1.712411284E0
9.440409390E-1,-5.952160358E-1,5.239765644E-1,1.686844945E0
9.465285950E-1,-5.845634341E-1,5.548691750E-1,1.653821826E0
9.490162510E-1,-5.707150102E-1,5.772397518E-1,1.613341808E0
9.515039080E-1,-5.547360182E-1,5.910881758E-1,1.565404892E0
9.539919280E-1,-5.366265774E-1,5.942839384E-1,1.512141705E0
9.564797930E-1,-5.131907463E-1,5.889576077E-1,1.453552246E0
9.589675010E-1,-4.865591824E-1,5.751091838E-1,1.389636397E0
9.614551580E-1,-4.588623047E-1,5.516734123E-1,1.322524786E0
9.639428140E-1,-4.290349185E-1,5.186502337E-1,1.251152158E0
9.664304700E-1,-3.949464858E-1,4.771049619E-1,1.177648902E0
9.689181260E-1,-3.597927988E-1,4.270375669E-1,1.103080511E0
9.714057830E-1,-3.225085735E-1,3.705785871E-1,1.027446747E0
9.738934390E-1,-2.830938101E-1,3.098585606E-1,9.496825337E-1
9.763810950E-1,-2.415485233E-1,2.491385341E-1,8.708530068E-1
9.788687510E-1,-2.000032514E-1,1.916143000E-1,7.898929715E-1
9.813564080E-1,-1.584579647E-1,1.394163817E-1,7.057371736E-1
9.838440640E-1,-1.190432087E-1,9.467530251E-2,6.205160618E-1
9.863317200E-1,-8.069372177E-2,5.632581562E-2,5.299686790E-1
9.888193760E-1,-4.447475821E-2,2.330264263E-2,4.383559823E-1
9.913070330E-1,-1.038632076E-2,-6.524739787E-3,3.435475230E-1
9.937954180E-1,2.157158963E-2,-3.315633163E-2,2.444780022E-1
9.962825010E-1,5.459476262E-2,-6.085318699E-2,1.443432271E-1
9.987695850E-1,8.761793375E-2,-8.855003864E-2,4.527370632E-2
1.001256668E0,1.206411049E-1,-1.162468940E-1,-5.379581451E-2
1.003743803E0,1.536642760E-1,-1.450090110E-1,-1.518000662E-1
1.006230991E0,1.856221855E-1,-1.737711281E-1,-2.455432713E-1
1.008718283E0,2.165148407E-1,-2.014679909E-1,-3.350254297E-1
1.011205678E0,2.484727502E-1,-2.270343155E-1,-4.191812575E-1
1.013693178E0,2.804306448E-1,-2.515353858E-1,-4.980107546E-1
1.016180783E0,3.123885691E-1,-2.739059031E-1,-5.715139508E-1
1.018668491E0,3.443464637E-1,-2.920154035E-1,-6.386255622E-1
1.021156303E0,3.773696423E-1,-3.079943359E-1,-6.993455887E-1
1.023644220E0,4.093275666E-1,-3.229080439E-1,-7.547392845E-1
1.026132189E0,4.402202070E-1,-3.346259296E-1,-8.037413955E-1
1.028620210E0,4.700475931E-1,-3.463438451E-1,-8.452867270E-1
1.031108283E0,4.988096952E-1,-3.591270149E-1,-8.815056682E-1
1.033596356E0,5.243760347E-1,-3.740406930E-1,-9.102677703E-1
1.036084428E0,5.478118062E-1,-3.910849094E-1,-9.326383471E-1
1.038572501E0,5.680518150E-1,-4.113249183E-1,-9.486172795E-1
1.041060574E0,5.861613154E-1,-4.368912578E-1,-9.582046270E-1
1.043548231E0,6.053360701E-1,-4.699144363E-1,-9.645962119E-1
1.046035887E0,6.245108247E-1,-5.082638860E-1,-9.677920341E-1
1.048523543E0,6.447508335E-1,-5.508744717E-1,-9.688572884E-1
1.051011199E0,6.628602743E-1,-5.966808200E-1,-9.688572884E-1
1.053498856E0,6.788392663E-1,-6.467481852E-1,-9.688572884E-1
1.055986512E0,6.894918680E-1,-6.989461184E-1,-9.688572884E-1
1.058474168E0,6.937529445E-1,-7.532745600E-1,-9.677920341E-1
1.060961824E0,6.894918680E-1,-8.065377474E-1,-9.677920341E-1
1.063449481E0,6.788392663E-1,-8.566051126E-1,-9.688572884E-1
1.065937137E0,6.607297659E-1,-8.960198760E-1,-9.699225426E-1
1.068424793E0,6.383592486E-1,-9.215862155E-1,-9.720530510E-1
1.070912449E0,6.117276549E-1,-9.301083088E-1,-9.752488732E-1
1.073400106E0,5.808349848E-1,-9.194557071E-1,-9.805752039E-1
1.075887762E0,5.478118062E-1,-8.885630369E-1,-9.869667888E-1
1.078375418E0,5.126581192E-1,-8.395609260E-1,-9.965541363E-1
1.080863074E0,4.743086398E-1,-7.735145688E-1,-1.007206798E0
1.083350731E0,4.348938763E-1,-6.936197877E-1,-1.018924713E0
1.085838387E0,3.954791129E-1,-6.041376591E-1,-1.033838391E0
1.088326043E0,3.528685868E-1,-5.093291998E-1,-1.049817324E0
1.090813699E0,3.102580309E-1,-4.155859649E-1,-1.065796256E0
1.093301356E0,2.655169666E-1,-3.261038363E-1,-1.081775188E0
1.095789012E0,2.175800949E-1,-2.462090552E-1,-1.096688867E0
1.098276668E0,1.696432382E-1,-1.801627129E-1,-1.109472036E0
1.100764324E0,1.206411049E-1,-1.290300637E-1,-1.119059443E0
1.103251981E0,7.483477145E-2,-9.387636185E-2,-1.126516342E0
1.105739637E0,3.435475379E-2,-7.576687634E-2,-1.131842613E0
1.108227293E0,2.663159103E-4,-7.363634557E-2,-1.132907867E0
1.110714949E0,-2.743053809E-2,-8.535424620E-2,-1.130777359E0
1.113202606E0,-5.086633936E-2,-1.087900475E-1,-1.124385715E0
1.115690262E0,-6.897582114E-2,-1.418132186E-1,-1.112667918E0
1.118177918E0,-8.495477587E-2,-1.812279820E-1,-1.096688867E0
1.120665574E0,-9.773793817E-2,-2.206427306E-1,-1.077514172E0
1.123153231E0,-1.105211005E-1,-2.568616867E-1,-1.055143595E0
1.125640887E0,-1.233042628E-1,-2.856238186E-1,-1.031707883E0
1.128128543E0,-1.392832249E-1,-3.069290817E-1,-1.008272052E0
1.130616199E0,-1.563274413E-1,-3.197122514E-1,-9.848362207E-1
1.133103856E0,-1.786979735E-1,-3.229080439E-1,-9.656614661E-1
1.135591512E0,-2.031990439E-1,-3.175817132E-1,-9.496825337E-1
1.138079168E0,-2.287653685E-1,-3.058638275E-1,-9.358341098E-1
1.140566824E0,-2.553969622E-1,-2.845585644E-1,-9.283772707E-1
1.143054481E0,-2.820285559E-1,-2.536658943E-1,-9.219856858E-1
1.145542137E0,-3.065296113E-1,-2.142511457E-1,-9.187898636E-1
1.148029793E0,-3.289001584E-1,-1.663142890E-1,-9.177246094E-1
1.150517449E0,-3.512706757E-1,-1.109205782E-1,-9.209204316E-1
1.153005106E0,-3.715106845E-1,-5.126581341E-2,-9.273120165E-1
1.155492762E0,-3.928159773E-1,1.158474199E-2,-9.347688556E-1
1.157980418E0,-4.141212404E-1,7.550056279E-2,-9.443562031E-1
1.160468074E0,-4.332959950E-1,1.404816359E-1,-9.539436102E-1
1.162955731E0,-4.503402114E-1,2.033322006E-1,-9.624657035E-1
1.165443387E0,-4.652538896E-1,2.619217038E-1,-9.677920341E-1
1.167931043E0,-4.791023135E-1,3.119890988E-1,-9.699225426E-1
1.170418699E0,-4.908202291E-1,3.514038324E-1,-9.677920341E-1
1.172906356E0,-5.025381446E-1,3.727091253E-1,-9.603351951E-1
1.175394012E0,-5.142560005E-1,3.716438413E-1,-9.486172795E-1
1.177881668E0,-5.249086618E-1,3.471427858E-1,-9.337036014E-1
1.180369324E0,-5.334307551E-1,2.970753908E-1,-9.187898636E-1
1.182856981E0,-5.408875942E-1,2.214416862E-1,-9.038761854E-1
1.185344637E0,-5.451486707E-1,1.223721579E-1,-8.889625072E-1
1.187832293E0,-5.472791791E-1,1.997369342E-3,-8.772445917E-1
1.190319949E0,-5.462139249E-1,-1.311605871E-1,-8.676572442E-1
1.192807606E0,-5.430181623E-1,-2.728406489E-1,-8.612656593E-1
1.195295262E0,-5.376918316E-1,-4.134554565E-1,-8.559393287E-1
1.197782918E0,-5.302349925E-1,-5.476786494E-1,-8.538088202E-1
1.200270574E0,-5.238434076E-1,-6.659229398E-1,-8.538088202E-1
1.202758231E0,-5.163865685E-1,-7.628619075E-1,-8.527435660E-1
1.205245887E0,-5.089297295E-1,-8.331693411E-1,-8.516782522E-1
1.207733543E0,-4.993423223E-1,-8.715187907E-1,-8.484824896E-1
1.210221199E0,-4.886896908E-1,-8.779103756E-1,-8.442214131E-1
1.212708856E0,-4.759065211E-1,-8.502135277E-1,-8.367645741E-1
1.215196512E0,-4.631233811E-1,-7.916240692E-1,-8.293077350E-1
1.217684168E0,-4.482096732E-1,-7.032071352E-1,-8.207856417E-1
1.220171824E0,-4.354265034E-1,-5.892239809E-1,-8.101329803E-1
1.222659481E0,-4.237086177E-1,-4.539354742E-1,-8.005456328E-1
1.225147137E0,-4.151864946E-1,-3.079943359E-1,-7.920235395E-1
1.227634793E0,-4.098601937E-1,-1.556616426E-1,-7.856319547E-1
1.230122449E0,-4.087949097E-1,-4.394212738E-3,-7.792403698E-1
1.232610106E0,-4.098601937E-1,1.404816359E-1,-7.717835307E-1
1.235097762E0,-4.141212404E-1,2.715090811E-1,-7.632613778E-1
1.237585418E0,-4.205128253E-1,3.844270110E-1,-7.536740303E-1
1.240073074E0,-4.290349185E-1,4.749744236E-1,-7.419561148E-1
1.242560731E0,-4.364917874E-1,5.410207510E-1,-7.302381992E-1
1.245048387E0,-4.450138807E-1,5.815007687E-1,-7.174550891E-1
1.247536043E0,-4.503402114E-1,5.985450149E-1,-7.036066055E-1
1.250023699E0,-4.546012580E-1,5.910881758E-1,-6.897581816E-1
1.252511356E0,-4.546012580E-1,5.665870905E-1,-6.748445034E-1
1.254999012E0,-4.535360038E-1,5.239765644E-1,-6.588655710E-1
1.257486668E0,-4.514054656E-1,4.696480930E-1,-6.418213248E-1
1.259974324E0,-4.482096732E-1,4.057323039E-1,-6.237118840E-1
1.262461981E0,-4.450138807E-1,3.343596160E-1,-6.045371294E-1
1.264949637E0,-4.439486265E-1,2.565953732E-1,-5.842971206E-1
1.267437345E0,-4.428833723E-1,1.735048145E-1,-5.651223660E-1
1.269925053E0,-4.428833723E-1,8.615319431E-2,-5.480781198E-1
1.272412762E0,-4.418180883E-1,-2.263685223E-3,-5.352949500E-1
1.274900470E0,-4.375570416E-1,-8.961530030E-2,-5.278381109E-1
1.277388178E0,-4.290349185E-1,-1.716406047E-1,-5.225118399E-1
1.279875887E0,-4.194475710E-1,-2.408827394E-1,-5.193160176E-1
1.282363595E0,-4.098601937E-1,-2.973417044E-1,-5.139896870E-1
1.284851303E0,-4.013380706E-1,-3.356912136E-1,-5.044023395E-1
1.287339012E0,-3.960117698E-1,-3.527354300E-1,-4.884233773E-1
1.289826720E0,-3.928159773E-1,-3.495396376E-1,-4.660528302E-1
1.292314428E0,-3.885549009E-1,-3.250385821E-1,-4.404865205E-1
1.294802137E0,-3.842938542E-1,-2.813627720E-1,-4.117243886E-1
1.297289845E0,-3.768370152E-1,-2.217079997E-1,-3.840275407E-1
1.299777553E0,-3.672496378E-1,-1.428784877E-1,-3.595264852E-1
1.302265262E0,-3.534012139E-1,-4.913528636E-2,-3.371559381E-1
1.304752970E0,-3.374222517E-1,5.739107728E-2,-3.190464675E-1
1.307240678E0,-3.214432895E-1,1.735048145E-1,-3.051980436E-1
1.309728387E0,-3.054643571E-1,2.928143442E-1,-2.956106663E-1
1.312216095E0,-2.905506492E-1,4.099933505E-1,-2.924148738E-1
1.314703803E0,-2.756369710E-1,5.165197253E-1,-2.945453823E-1
1.317191512E0,-2.617885470E-1,6.038713455E-1,-3.020022511E-1
1.319679220E0,-2.490053773E-1,6.667218804E-1,-3.147853911E-1
1.322166928E0,-2.340916842E-1,6.997450590E-1,-3.328948915E-1
1.324654637E0,-2.159821987E-1,7.008103132E-1,-3.563306928E-1
1.327142345E0,-1.957421899E-1,6.720482111E-1,-3.808317482E-1
1.329630053E0,-1.723063886E-1,6.134586930E-1,-4.074633420E-1
1.332117762E0,-1.467400640E-1,5.324986577E-1,-4.330296814E-1
1.334605470E0,-1.211737394E-1,4.334291518E-1,-4.522044063E-1
1.337093178E0,-9.560741484E-2,3.237069845E-1,-4.649875760E-1
1.339580887E0,-7.110634446E-2,2.118543088E-1,-4.713791609E-1
1.342068595E0,-5.086633936E-2,1.053279415E-1,-4.692486227E-1
1.344556303E0,-3.382211924E-2,1.158474199E-2,-4.617917836E-1
1.347044012E0,-1.890842989E-2,-6.617950648E-2,-4.522044063E-1
1.349531720E0,-7.190529723E-3,-1.215732098E-1,-4.426170290E-1
1.352019376E0,1.331579522E-3,-1.556616426E-1,-4.351601899E-1
1.354507033E0,5.592633970E-3,-1.663142890E-1,-4.319643974E-1
1.356994689E0,6.657897960E-3,-1.567269117E-1,-4.330296814E-1
1.359482345E0,2.396843163E-3,-1.268995255E-1,-4.362254739E-1
1.361970001E0,-7.190529723E-3,-8.002793044E-2,-4.394212663E-1
1.364457658E0,-2.103895694E-2,-1.930790395E-2,-4.415517747E-1
1.366945314E0,-3.914843872E-2,4.780370742E-2,-4.404865205E-1
1.369432970E0,-6.045371294E-2,1.170458421E-1,-4.362254739E-1
1.371920626E0,-8.708529919E-2,1.820269227E-1,-4.308991432E-1
1.374408283E0,-1.147821546E-1,2.395511568E-1,-4.213117659E-1
1.376895939E0,-1.435442716E-1,2.874880135E-1,-4.095938802E-1
1.379383595E0,-1.723063886E-1,3.215764761E-1,-3.936149180E-1
1.381871251E0,-2.010685056E-1,3.439469934E-1,-3.755054474E-1
1.384358908E0,-2.287653685E-1,3.567301631E-1,-3.542001545E-1
1.386846564E0,-2.564622164E-1,3.588607013E-1,-3.275685608E-1
1.389334220E0,-2.820285559E-1,3.524691164E-1,-2.966759205E-1
1.391821876E0,-3.043990731E-1,3.375554085E-1,-2.615222335E-1
1.394309533E0,-3.267696202E-1,3.141196072E-1,-2.253032625E-1
1.396797189E0,-3.448790908E-1,2.832269669E-1,-1.901495606E-1
1.399284845E0,-3.597927988E-1,2.459427416E-1,-1.571263820E-1
1.401772501E0,-3.725759685E-1,2.033322006E-1,-1.283642650E-1
1.404260158E0,-3.832286000E-1,1.585911214E-1,-1.038632020E-1
1.406747814E0,-3.917506933E-1,1.149153188E-1,-8.362319320E-2
1.409235470E0,-3.992075622E-1,7.869634777E-2,-6.657897681E-2
1.411723126E0,-4.077296555E-1,4.993423447E-2,-5.166528746E-2
1.414210783E0,-4.162517786E-1,3.395527974E-2,-3.568633273E-2
1.416698439E0,-4.247738719E-1,3.182475269E-2,-1.970737800E-2
1.419186095E0,-4.332959950E-1,4.141212255E-2,-1.597895520E-3
1.421673751E0,-4.428833723E-1,6.271740049E-2,1.544632297E-2
1.424161408E0,-4.524707198E-1,9.467530251E-2,3.142527863E-2
1.426649064E0,-4.620580971E-1,1.330247968E-1,4.527370632E-2
1.429136720E0,-4.727107286E-1,1.788311303E-1,5.699160323E-2
1.431624376E0,-4.833633900E-1,2.278332561E-1,6.444845349E-2
1.434112033E0,-4.940160215E-1,2.789659202E-1,6.977476925E-2
1.436599689E0,-5.036033988E-1,3.311638236E-1,7.297056168E-2
1.439087345E0,-5.131907463E-1,3.791007102E-1,7.510108501E-2
1.441575001E0,-5.227781534E-1,4.195807278E-1,7.829687744E-2
1.444062658E0,-5.334307551E-1,4.472775757E-1,8.362319320E-2
1.446550314E0,-5.462139249E-1,4.579302073E-1,8.788424730E-2
1.449037970E0,-5.589970946E-1,4.462123215E-1,9.427583218E-2
1.451525626E0,-5.707150102E-1,4.110586047E-1,1.006674170E-1
1.454013283E0,-5.792371035E-1,3.524691164E-1,1.049284711E-1
1.456500939E0,-5.866939425E-1,2.725743353E-1,1.091895252E-1
1.458988595E0,-5.898897648E-1,1.788311303E-1,1.123853177E-1
1.461476251E0,-5.909550190E-1,7.763108611E-2,1.155811027E-1
1.463963908E0,-5.888244510E-1,-2.250369452E-2,1.209074259E-1
1.466451564E0,-5.834981799E-1,-1.119858399E-1,1.315600574E-1
1.468939220E0,-5.771065950E-1,-1.865542978E-1,1.475390196E-1
1.471426876E0,-5.685844421E-1,-2.376869470E-1,1.688442826E-1
1.473914533E0,-5.589970946E-1,-2.632532716E-1,1.954758763E-1
1.476402189E0,-5.515402555E-1,-2.643185556E-1,2.231727391E-1
1.478889845E0,-5.462139249E-1,-2.408827394E-1,2.498043180E-1
1.481377501E0,-5.419528484E-1,-1.950764060E-1,2.721748650E-1
1.483865158E0,-5.419528484E-1,-1.322258562E-1,2.881538272E-1
1.486352814E0,-5.451486707E-1,-5.552686751E-2,2.977411747E-1
1.488840470E0,-5.526055098E-1,3.182475269E-2,3.009369671E-1
1.491328126E0,-5.632581711E-1,1.245026886E-1,2.988064587E-1
1.493815835E0,-5.760413408E-1,2.193111479E-1,2.945453823E-1
1.496303543E0,-5.909550190E-1,3.130543530E-1,2.892190814E-1
1.498791251E0,-6.016076207E-1,4.025365114E-1,2.860232890E-1
1.501278960E0,-6.090644598E-1,4.845618010E-1,2.849580348E-1
1.503766668E0,-6.133255363E-1,5.548691750E-1,2.892190814E-1
1.506254376E0,-6.154560447E-1,6.038713455E-1,2.988064587E-1
1.508742085E0,-6.154560447E-1,6.294376254E-1,3.105243444E-1
1.511229793E0,-6.175866127E-1,6.241113544E-1,3.233075142E-1
1.513717501E0,-6.197171211E-1,5.846965909E-1,3.339601457E-1
1.516205210E0,-6.229129434E-1,5.122586489E-1,3.424822688E-1
1.518692918E0,-6.261087060E-1,4.057323039E-1,3.446127772E-1
1.521180626E0,-6.282392144E-1,2.747048736E-1,3.446127772E-1
1.523668335E0,-6.303697824E-1,1.287637353E-1,3.424822688E-1
1.526156043E0,-6.314350367E-1,-2.143843099E-2,3.424822688E-1
1.528643751E0,-6.314350367E-1,-1.609879732E-1,3.456780612E-1
1.531131460E0,-6.314350367E-1,-2.792322338E-1,3.542001545E-1
1.533619168E0,-6.314350367E-1,-3.687143922E-1,3.691138625E-1
1.536106876E0,-6.314350367E-1,-4.273038805E-1,3.893538713E-1
1.538594585E0,-6.314350367E-1,-4.528702199E-1,4.095938802E-1
1.541082293E0,-6.303697824E-1,-4.496744275E-1,4.298338890E-1
1.543570001E0,-6.293044686E-1,-4.198470414E-1,4.458128214E-1
1.546057710E0,-6.271739602E-1,-3.697796464E-1,4.543349445E-1
1.548545418E0,-6.250434518E-1,-3.058638275E-1,4.575307369E-1
1.551033074E0,-6.218476295E-1,-2.323606312E-1,4.543349445E-1
1.553520731E0,-6.207823753E-1,-1.545963883E-1,4.458128214E-1
1.556008387E0,-6.197171211E-1,-7.470161468E-2,4.362254739E-1
1.558496043E0,-6.197171211E-1,4.127896391E-3,4.255728126E-1
1.560983699E0,-6.207823753E-1,7.869634777E-2,4.202465117E-1
1.563471356E0,-6.229129434E-1,1.468732208E-1,4.191812575E-1
1.565959012E0,-6.271739602E-1,2.065279931E-1,4.245075583E-1
1.568446668E0,-6.325002909E-1,2.555301189E-1,4.351601899E-1
1.570934324E0,-6.399571300E-1,2.917490900E-1,4.522044063E-1
1.573421981E0,-6.495444775E-1,3.130543530E-1,4.745749533E-1
1.575909637E0,-6.601971388E-1,3.194459379E-1,5.001412630E-1
1.578397293E0,-6.708498001E-1,3.077280223E-1,5.299686790E-1
1.580884949E0,-6.836329699E-1,2.821617126E-1,5.597960353E-1
1.583372606E0,-6.964160800E-1,2.416816950E-1,5.917539597E-1
1.585860262E0,-7.102645040E-1,1.894837767E-1,6.237118840E-1
1.588347918E0,-7.230476737E-1,1.287637353E-1,6.556697488E-1
1.590835574E0,-7.358308434E-1,6.165213138E-2,6.854971647E-1
1.593323231E0,-7.475487590E-1,-8.655266836E-3,7.153245211E-1
1.595810887E0,-7.582014203E-1,-8.002793044E-2,7.430213690E-1
1.598298543E0,-7.677887678E-1,-1.482048035E-1,7.664572001E-1
1.600786199E0,-7.763108611E-1,-2.110553533E-1,7.866972089E-1
1.603273856E0,-7.837677002E-1,-2.632532716E-1,8.048067093E-1
1.605761512E0,-7.880287766E-1,-3.026680350E-1,8.207856417E-1
1.608249168E0,-7.922898531E-1,-3.261038363E-1,8.346340656E-1
1.610736824E0,-7.954856157E-1,-3.324954212E-1,8.463519812E-1
1.613224481E0,-7.997466922E-1,-3.218427896E-1,8.580698371E-1
1.615712137E0,-8.040077090E-1,-2.941459119E-1,8.676572442E-1
1.618199793E0,-8.093340397E-1,-2.504701018E-1,8.772445917E-1
1.620687449E0,-8.125298619E-1,-1.961416751E-1,8.857667446E-1
1.623175106E0,-8.167908788E-1,-1.311605871E-1,8.921582699E-1
1.625662762E0,-8.210519552E-1,-5.978792161E-2,8.974846005E-1
1.628150418E0,-8.253130317E-1,1.371526904E-2,9.017456770E-1
1.630638074E0,-8.285087943E-1,8.828372508E-2,9.049414396E-1
1.633125731E0,-8.317046165E-1,1.607216448E-1,9.070720077E-1
1.635613387E0,-8.327698708E-1,2.288985252E-1,9.092025161E-1
1.638101043E0,-8.306393027E-1,2.917490900E-1,9.102677703E-1
1.640588699E0,-8.274435401E-1,3.450122476E-1,9.113330245E-1
1.643076356E0,-8.242477179E-1,3.886880577E-1,9.113330245E-1
1.645564012E0,-8.210519552E-1,4.185154438E-1,9.102677703E-1
1.648051668E0,-8.199867010E-1,4.302333593E-1,9.081372619E-1
1.650539324E0,-8.210519552E-1,4.227765203E-1,9.038761854E-1
1.653026981E0,-8.231824636E-1,3.950796425E-1,8.985498548E-1
1.655514637E0,-8.263782859E-1,3.460775316E-1,8.942888379E-1
1.658002293E0,-8.285087943E-1,2.779006660E-1,8.900277615E-1
1.660489949E0,-8.274435401E-1,1.916143000E-1,8.878972530E-1
1.662977606E0,-8.231824636E-1,9.254477918E-2,8.878972530E-1
1.665465262E0,-8.146603703E-1,-1.611211337E-2,8.921582699E-1
1.667952918E0,-8.040077090E-1,-1.279647946E-1,9.017456770E-1
1.670440574E0,-7.869635224E-1,-2.387522161E-1,9.166593552E-1
1.672928231E0,-7.688540220E-1,-3.420827985E-1,9.358341098E-1
1.675415887E0,-7.486140132E-1,-4.336954653E-1,9.571393728E-1
1.677903543E0,-7.273087502E-1,-5.093291998E-1,9.805752039E-1
1.680391199E0,-7.049382329E-1,-5.647228956E-1,1.004011035E0
1.682878856E0,-6.825676560E-1,-5.956155062E-1,1.026381493E0
1.685366512E0,-6.601971388E-1,-6.030724049E-1,1.046621561E0
1.687854168E0,-6.378266215E-1,-5.849629045E-1,1.063665748E0
1.690341824E0,-6.165213585E-1,-5.423523784E-1,1.076448917E0
1.692829481E0,-5.952160358E-1,-4.805670679E-1,1.086036325E0
1.695317137E0,-5.760413408E-1,-4.006722867E-1,1.089232087E0
1.697804793E0,-5.558013320E-1,-3.079943359E-1,1.087101579E0
1.700292449E0,-5.366265774E-1,-2.078595608E-1,1.079644680E0
1.702780106E0,-5.174518228E-1,-1.045289934E-1,1.066861510E0
1.705267762E0,-4.993423223E-1,-4.394212738E-3,1.047686815E0
1.707755418E0,-4.812328517E-1,8.828372508E-2,1.024250984E0
1.710243074E0,-4.652538896E-1,1.692437679E-1,9.954888821E-1
1.712730731E0,-4.514054656E-1,2.320943177E-1,9.624657035E-1
1.715218387E0,-4.386222959E-1,2.768353820E-1,9.273120165E-1
1.717706043E0,-4.269044101E-1,2.981406748E-1,8.878972530E-1
1.720193699E0,-4.183822870E-1,2.949448824E-1,8.474172354E-1
1.722681356E0,-4.119907022E-1,2.693785429E-1,8.069372177E-1
1.725169012E0,-4.077296555E-1,2.214416862E-1,7.685877085E-1
1.727656668E0,-4.045338631E-1,1.564605981E-1,7.323687673E-1
1.730144324E0,-4.024033546E-1,7.869634777E-2,7.004108429E-1
1.732631981E0,-3.992075622E-1,-7.590003312E-3,6.737792492E-1
1.735119637E0,-3.949464858E-1,-9.707214683E-2,6.524739861E-1
1.737607293E0,-3.896201849E-1,-1.833585054E-1,6.354297400E-1
1.740094949E0,-3.821633458E-1,-2.621880174E-1,6.215813160E-1
1.742582606E0,-3.736412227E-1,-3.292996287E-1,6.109287143E-1
1.745070262E0,-3.661843836E-1,-3.814975321E-1,6.013413072E-1
1.747557970E0,-3.587275445E-1,-4.155859649E-1,5.917539597E-1
1.750045678E0,-3.544664681E-1,-4.315649271E-1,5.789707899E-1
1.752533387E0,-3.502054214E-1,-4.283691347E-1,5.651223660E-1
1.755021095E0,-3.480748832E-1,-4.070638716E-1,5.502086878E-1
1.757508803E0,-3.448790908E-1,-3.676491082E-1,5.331644416E-1
1.759996512E0,-3.384875357E-1,-3.133206666E-1,5.171855092E-1
1.762484220E0,-3.299654126E-1,-2.462090552E-1,5.022718310E-1
1.764971928E0,-3.182475269E-1,-1.684448123E-1,4.884233773E-1
1.767459637E0,-3.043990731E-1,-8.641951531E-2,4.767054915E-1
1.769947345E0,-2.894853950E-1,-3.328948980E-3,4.660528302E-1
1.772435053E0,-2.756369710E-1,7.656582445E-2,4.564654827E-1
1.774922762E0,-2.607232630E-1,1.490037590E-1,4.468781054E-1
1.777410470E0,-2.479401082E-1,2.086585164E-1,4.362254739E-1
1.779898178E0,-2.362222075E-1,2.565953732E-1,4.245075583E-1
1.782385887E0,-2.255695760E-1,2.896185517E-1,4.117243886E-1
1.784873595E0,-2.138516754E-1,3.077280223E-1,3.978759646E-1
1.787361303E0,-2.031990439E-1,3.141196072E-1,3.840275407E-1
1.789849012E0,-1.925463974E-1,3.087933064E-1,3.701791167E-1
1.792336720E0,-1.818937659E-1,2.928143442E-1,3.563306928E-1
1.794824428E0,-1.712411344E-1,2.683132887E-1,3.424822688E-1
1.797312137E0,-1.595232338E-1,2.352901101E-1,3.296990991E-1
1.799799845E0,-1.488705873E-1,1.969406158E-1,3.158506751E-1
1.802287553E0,-1.382179558E-1,1.521995366E-1,3.009369671E-1
1.804775262E0,-1.296958476E-1,1.031974182E-1,2.849580348E-1
1.807262970E0,-1.233042628E-1,5.206476152E-2,2.689790726E-1
1.809750678E0,-1.169126853E-1,-1.198421582E-3,2.508696020E-1
1.812238387E0,-1.105211005E-1,-5.552686751E-2,2.327601016E-1
1.814726095E0,-1.051947847E-1,-1.098553166E-1,2.146506310E-1
1.817213803E0,-1.009337306E-1,-1.620532274E-1,1.976063997E-1
1.819701512E0,-9.560741484E-2,-2.131858915E-1,1.816274524E-1
1.822189220E0,-9.134636074E-2,-2.589922249E-1,1.677790284E-1
1.824676928E0,-8.708529919E-2,-3.016027808E-1,1.560611278E-1
1.827164637E0,-8.388951421E-2,-3.356912136E-1,1.486042738E-1
1.829652345E0,-8.282424510E-2,-3.623228073E-1,1.454084814E-1
1.832140053E0,-8.282424510E-2,-3.804322779E-1,1.464737505E-1
1.834627762E0,-8.388951421E-2,-3.889544010E-1,1.496695429E-1
1.837115418E0,-8.388951421E-2,-3.857586086E-1,1.549958587E-1
1.839603074E0,-8.282424510E-2,-3.740406930E-1,1.613874435E-1
1.842090731E0,-8.175898343E-2,-3.516701460E-1,1.699095517E-1
1.844578387E0,-7.856319100E-2,-3.207775056E-1,1.763011366E-1
1.847066043E0,-7.643266767E-2,-2.813627720E-1,1.826927215E-1
1.849553699E0,-7.217161357E-2,-2.366216928E-1,1.869537681E-1
1.852041356E0,-6.897582114E-2,-1.897500902E-1,1.901495606E-1
1.854529012E0,-6.471476704E-2,-1.396826953E-1,1.912148297E-1
1.857016668E0,-6.045371294E-2,-9.068056941E-2,1.912148297E-1
1.859504324E0,-5.512739345E-2,-4.487423226E-2,1.890842915E-1
1.861991981E0,-4.980107397E-2,-2.263685223E-3,1.848232448E-1
1.864479637E0,-4.234423116E-2,3.608580679E-2,1.805621833E-1
1.866967293E0,-3.169159219E-2,7.017423958E-2,1.752358675E-1
1.869454949E0,-1.997369342E-2,1.010668874E-1,1.677790284E-1
1.871942606E0,-5.060002208E-3,1.276984811E-1,1.592569202E-1
1.874430262E0,9.853689000E-3,1.511342824E-1,1.475390196E-1
1.876917918E0,2.583264373E-2,1.681784987E-1,1.336905807E-1
1.879405574E0,3.968106955E-2,1.798963994E-1,1.155811027E-1
1.881893231E0,5.033370852E-2,1.830921918E-1,9.427583218E-2
1.884380887E0,5.992107838E-2,1.767006069E-1,6.764423847E-2
1.886868543E0,6.737792492E-2,1.617869139E-1,3.994738683E-2
1.889356199E0,7.376950979E-2,1.383511126E-1,9.054740891E-3
1.891843856E0,7.696529478E-2,1.085237339E-1,-2.290316857E-2
1.894331512E0,8.016108721E-2,7.123950869E-2,-5.486107618E-2
1.896819168E0,8.335687965E-2,3.182475269E-2,-8.362319320E-2
1.899306824E0,8.548741043E-2,-7.590003312E-3,-1.102547869E-1
1.901794481E0,8.868319541E-2,-4.487423226E-2,-1.336905807E-1
1.904282137E0,9.187898785E-2,-7.789740711E-2,-1.528653353E-1
1.906769793E0,9.507478029E-2,-1.045289934E-1,-1.688442826E-1
1.909257449E0,9.933583438E-2,-1.258342713E-1,-1.816274524E-1
1.911745106E0,1.035968885E-1,-1.407479644E-1,-1.901495606E-1
1.914232762E0,1.089232042E-1,-1.514005959E-1,-1.986716688E-1
1.916720418E0,1.153147891E-1,-1.577921808E-1,-2.050632536E-1
1.919208074E0,1.227716357E-1,-1.599227041E-1,-2.114548385E-1
1.921695731E0,1.302284747E-1,-1.609879732E-1,-2.167811543E-1
1.924183387E0,1.387505829E-1,-1.599227041E-1,-2.231727391E-1
1.926671043E0,1.472726911E-1,-1.577921808E-1,-2.295643091E-1
1.929158699E0,1.557948142E-1,-1.545963883E-1,-2.359558940E-1
1.931646356E0,1.643169224E-1,-1.492700726E-1,-2.434127480E-1
1.934134012E0,1.717737615E-1,-1.428784877E-1,-2.498043180E-1
1.936621668E0,1.781653464E-1,-1.364869028E-1,-2.572611570E-1
1.939109324E0,1.834916621E-1,-1.300953180E-1,-2.636527419E-1
1.941596981E0,1.856221855E-1,-1.226384789E-1,-2.711096108E-1
1.944084637E0,1.866874546E-1,-1.173121557E-1,-2.775011659E-1
1.946572293E0,1.856221855E-1,-1.130511016E-1,-2.828274965E-1
1.949059949E0,1.845569313E-1,-1.119858399E-1,-2.881538272E-1
1.951547606E0,1.813611388E-1,-1.109205782E-1,-2.913496196E-1
1.954035262E0,1.771000773E-1,-1.119858399E-1,-2.934801280E-1
1.956522918E0,1.728390306E-1,-1.119858399E-1,-2.924148738E-1
1.959010574E0,1.664474458E-1,-1.109205782E-1,-2.913496196E-1
1.961498231E0,1.600558609E-1,-1.098553166E-1,-2.881538272E-1
1.963985887E0,1.504684836E-1,-1.087900475E-1,-2.838927507E-1
1.966473543E0,1.408811212E-1,-1.066595241E-1,-2.796317041E-1
1.968961199E0,1.302284747E-1,-1.034637317E-1,-2.743053734E-1
1.971448856E0,1.185105816E-1,-9.920267761E-2,-2.689790726E-1
1.973936512E0,1.067926809E-1,-9.600688517E-2,-2.615222335E-1
1.976424168E0,9.400951862E-2,-8.961530030E-2,-2.540653646E-1
1.978911824E0,8.122635633E-2,-8.109319210E-2,-2.444780022E-1
1.981399481E0,6.844318658E-2,-7.150582224E-2,-2.327601016E-1
1.983887137E0,5.672528967E-2,-6.085318699E-2,-2.189116776E-1
1.986374793E0,4.713791609E-2,-4.807002097E-2,-2.029327303E-1
1.988862449E0,3.755054250E-2,-3.528685868E-2,-1.858884990E-1
1.991350106E0,2.902843431E-2,-2.037316747E-2,-1.677790284E-1
1.993837762E0,2.050632425E-2,-5.459476262E-3,-1.496695429E-1
1.996325418E0,1.411474310E-2,1.158474199E-2,-1.315600574E-1
1.998813074E0,8.788425475E-3,2.862896025E-2,-1.145158410E-1
2.001300731E0,5.592633970E-3,4.673844203E-2,-9.960214794E-2
2.003788387E0,2.396843163E-3,6.484792382E-2,-8.468846232E-2
2.006276043E0,-7.989477599E-4,8.189214021E-2,-7.297056168E-2
2.008763699E0,-1.864211401E-3,9.787109494E-2,-6.125266105E-2
2.011251356E0,-1.864211401E-3,1.106542572E-1,-5.273054913E-2
2.013739637E0,-7.989477599E-4,1.191763729E-1,-4.633896798E-2
2.016227918E0,1.331579522E-3,1.223721579E-1,-4.207791388E-2
2.018715574E0,3.462106921E-3,1.202416345E-1,-4.101264849E-2
2.021203231E0,7.723161485E-3,1.127847880E-1,-4.101264849E-2
2.023690887E0,1.091895252E-2,9.893636405E-2,-4.420844093E-2
2.026178543E0,1.518000662E-2,8.295740932E-2,-4.953476042E-2
2.028666199E0,2.050632425E-2,6.271740049E-2,-5.699160323E-2
2.031153856E0,2.583264373E-2,4.034686089E-2,-6.551371515E-2
2.033641512E0,3.115896136E-2,1.797632314E-2,-7.510108501E-2
2.036129168E0,3.648528084E-2,-4.394212738E-3,-8.575372398E-2
2.038616824E0,4.181159660E-2,-2.889527567E-2,-9.534109384E-2
2.041104481E0,4.607265070E-2,-5.126581341E-2,-1.059937328E-1
2.043592137E0,5.139897019E-2,-7.470161468E-2,-1.166463718E-1
2.046079793E0,5.672528967E-2,-9.707214683E-2,-1.283642650E-1
2.048567449E0,6.205160543E-2,-1.205079481E-1,-1.400821656E-1
2.051055106E0,6.737792492E-2,-1.418132186E-1,-1.539305896E-1
2.053542762E0,7.163897902E-2,-1.620532274E-1,-1.667137593E-1
2.056030418E0,7.590003312E-2,-1.769669205E-1,-1.794969290E-1
2.058518074E0,7.909582555E-2,-1.876195520E-1,-1.922800839E-1
2.061005731E0,8.335687965E-2,-1.918806136E-1,-2.029327303E-1
2.063493387E0,8.761793375E-2,-1.897500902E-1,-2.114548385E-1
2.065981043E0,9.294424951E-2,-1.812279820E-1,-2.199769467E-1
2.068468699E0,1.004010960E-1,-1.673795432E-1,-2.263685167E-1
2.070956356E0,1.067926809E-1,-1.482048035E-1,-2.338253707E-1
2.073444012E0,1.153147891E-1,-1.268995255E-1,-2.423474789E-1
2.075931668E0,1.238368973E-1,-1.023984700E-1,-2.508696020E-1
2.078419324E0,1.334242672E-1,-7.683213800E-2,-2.625874877E-1
2.080906981E0,1.430116445E-1,-5.126581341E-2,-2.753706574E-1
2.083394637E0,1.547295451E-1,-2.676474862E-2,-2.902843356E-1
2.085882293E0,1.685779691E-1,-2.263685223E-3,-3.073285520E-1
2.088369949E0,1.845569313E-1,2.117211558E-2,-3.254380524E-1
2.090857606E0,2.026664019E-1,4.460791498E-2,-3.424822688E-1
2.093345262E0,2.218411565E-1,6.697845459E-2,-3.616569936E-1
2.095832918E0,2.420811653E-1,8.828372508E-2,-3.818970025E-1
2.098320574E0,2.623211741E-1,1.042626798E-1,-4.032022953E-1
2.100808231E0,2.846917212E-1,1.181111038E-1,-4.277033508E-1
2.103295887E0,3.081275225E-1,1.255679578E-1,-4.543349445E-1
2.105783543E0,3.304980397E-1,1.287637353E-1,-4.830970466E-1
2.108271199E0,3.539338410E-1,1.287637353E-1,-5.139896870E-1
2.110758856E0,3.763043880E-1,1.255679578E-1,-5.480781198E-1
2.113246512E0,3.986749053E-1,1.213068962E-1,-5.832318664E-1
2.115734168E0,4.221107066E-1,1.159805804E-1,-6.205160618E-1
2.118221824E0,4.444812536E-1,1.117195264E-1,-6.588655710E-1
2.120709481E0,4.657865167E-1,1.085237339E-1,-6.972150803E-1
2.123197137E0,4.870918095E-1,1.085237339E-1,-7.344992757E-1
2.125684793E0,5.062665343E-1,1.117195264E-1,-7.728487849E-1
2.128172449E0,5.243760347E-1,1.159805804E-1,-8.090677261E-1
2.130660106E0,5.403549671E-1,1.223721579E-1,-8.452867270E-1
2.133147762E0,5.542033911E-1,1.298290044E-1,-8.793751597E-1
2.135635418E0,5.659213066E-1,1.372858584E-1,-9.123983383E-1
2.138123074E0,5.755086541E-1,1.447426975E-1,-9.422256947E-1
2.140610731E0,5.840308070E-1,1.511342824E-1,-9.688572884E-1
2.143098387E0,5.904223919E-1,1.553953290E-1,-9.933583736E-1
2.145586043E0,5.946834087E-1,1.585911214E-1,-1.014663577E0
2.148073699E0,6.000097394E-1,1.617869139E-1,-1.032773137E0
2.150561356E0,6.042708158E-1,1.639174372E-1,-1.049817324E0
2.153049012E0,6.085318327E-1,1.660479754E-1,-1.064731002E0
2.155536668E0,6.138581634E-1,1.671132296E-1,-1.077514172E0
2.158024324E0,6.191844940E-1,1.681784987E-1,-1.089232087E0
2.160511981E0,6.245108247E-1,1.692437679E-1,-1.100950003E0
2.162999637E0,6.309024096E-1,1.703090221E-1,-1.112667918E0
2.165487293E0,6.372939944E-1,1.692437679E-1,-1.123320460E0
2.167974949E0,6.458160877E-1,1.671132296E-1,-1.135038376E0
2.170462606E0,6.543381810E-1,1.628521830E-1,-1.146756291E0
2.172950262E0,6.628602743E-1,1.585911214E-1,-1.159539461E0
2.175437918E0,6.713824272E-1,1.543300748E-1,-1.173387885E0
2.177925574E0,6.777740121E-1,1.490037590E-1,-1.187236309E0
2.180413231E0,6.820350289E-1,1.447426975E-1,-1.201084733E0
2.182900887E0,6.841655970E-1,1.394163817E-1,-1.213867903E0
2.185388543E0,6.841655970E-1,1.362205893E-1,-1.226651073E0
2.187876199E0,6.831002831E-1,1.308942735E-1,-1.236238480E0
2.190363856E0,6.799045205E-1,1.276984811E-1,-1.243695259E0
2.192851512E0,6.767086983E-1,1.245026886E-1,-1.246891141E0
2.195339168E0,6.745781898E-1,1.202416345E-1,-1.246891141E0
2.197826824E0,6.724476814E-1,1.149153188E-1,-1.244760513E0
2.200314481E0,6.692518592E-1,1.095889956E-1,-1.240499496E0
2.202802137E0,6.671213508E-1,1.010668874E-1,-1.234107971E0
2.205289845E0,6.660560966E-1,9.041424841E-2,-1.226651073E0
2.207777553E0,6.639255881E-1,7.869634777E-2,-1.217063665E0
2.210265262E0,6.628602743E-1,6.484792382E-2,-1.206411123E0
2.212752970E0,6.617950201E-1,4.993423447E-2,-1.193627954E0
2.215240678E0,6.617950201E-1,3.395527974E-2,-1.179779530E0
2.217728387E0,6.607297659E-1,1.904158667E-2,-1.163800478E0
2.220216095E0,6.585992575E-1,5.193160381E-3,-1.146756291E0
2.222703803E0,6.564686894E-1,-8.655266836E-3,-1.127581596E0
2.225191512E0,6.532729268E-1,-2.143843099E-2,-1.106276274E0
2.227679220E0,6.479465961E-1,-3.102580272E-2,-1.083905697E0
2.230166928E0,6.415550113E-1,-3.848264739E-2,-1.059404731E0
2.232654637E0,6.319676638E-1,-4.167843983E-2,-1.031707883E0
2.235142345E0,6.223802567E-1,-4.167843983E-2,-1.002945662E0
2.237630053E0,6.127929091E-1,-3.528685868E-2,-9.720530510E-1
2.240117762E0,6.042708158E-1,-2.463422157E-2,-9.400951862E-1
2.242605470E0,5.978792310E-1,-9.720530361E-3,-9.081372619E-1
2.245093178E0,5.936181545E-1,1.051947847E-2,-8.761793375E-1
2.247580887E0,5.914876461E-1,3.182475269E-2,-8.484824896E-1
2.250068595E0,5.893571377E-1,5.419528857E-2,-8.218508959E-1
2.252556303E0,5.872265697E-1,7.763108611E-2,-7.984151244E-1
2.255044012E0,5.840308070E-1,9.787109494E-2,-7.792403698E-1
2.257531720E0,5.787044764E-1,1.159805804E-1,-7.621961236E-1
2.260019428E0,5.723128915E-1,1.287637353E-1,-7.483476996E-1
2.262507137E0,5.648560524E-1,1.372858584E-1,-7.344992757E-1
2.264994845E0,5.573992133E-1,1.394163817E-1,-7.217161059E-1
2.267482553E0,5.499423742E-1,1.351553202E-1,-7.089329362E-1
2.269970262E0,5.446160436E-1,1.245026886E-1,-6.961497664E-1
2.272457970E0,5.403549671E-1,1.085237339E-1,-6.833665967E-1
2.274945678E0,5.360939503E-1,8.508793265E-2,-6.716487408E-1
2.277433387E0,5.318328738E-1,5.526055023E-2,-6.609960794E-1
2.279921095E0,5.265065432E-1,1.904158667E-2,-6.503434777E-1
2.282408803E0,5.211802125E-1,-2.250369452E-2,-6.407560706E-1
2.284896512E0,5.158539414E-1,-7.150582224E-2,-6.311687231E-1
2.287384220E0,5.115928650E-1,-1.247690022E-1,-6.215813160E-1
2.289871928E0,5.083971024E-1,-1.812279820E-1,-6.087981462E-1
2.292359637E0,5.062665343E-1,-2.376869470E-1,-5.949497223E-1
2.294847293E0,5.062665343E-1,-2.930806577E-1,-5.779055357E-1
2.297334949E0,5.073317885E-1,-3.452785909E-1,-5.587307811E-1
2.299822606E0,5.083971024E-1,-3.953459561E-1,-5.384907722E-1
2.302310262E0,5.126581192E-1,-4.400870502E-1,-5.171855092E-1
2.304797918E0,5.179844499E-1,-4.795017838E-1,-4.948149621E-1
2.307285574E0,5.243760347E-1,-5.146554708E-1,-4.713791609E-1
2.309773231E0,5.339633822E-1,-5.434176326E-1,-4.479433596E-1
2.312260887E0,5.446160436E-1,-5.647228956E-1,-4.223770201E-1
2.314748543E0,5.573992133E-1,-5.796365738E-1,-3.946801722E-1
2.317236199E0,5.701823831E-1,-5.849629045E-1,-3.627222776E-1
2.319723856E0,5.840308070E-1,-5.817670822E-1,-3.275685608E-1
2.322211512E0,5.978792310E-1,-5.711144805E-1,-2.881538272E-1
2.324699168E0,6.127929091E-1,-5.562008023E-1,-2.455432713E-1
2.327186824E0,6.277065873E-1,-5.348954797E-1,-1.997369379E-1
2.329674481E0,6.426202655E-1,-5.114597082E-1,-1.528653353E-1
2.332162137E0,6.585992575E-1,-4.858933687E-1,-1.049284711E-1
2.334649793E0,6.767086983E-1,-4.592617750E-1,-5.912213027E-2
2.337137449E0,6.948181987E-1,-4.326302111E-1,-1.331579592E-2
2.339625106E0,7.129276991E-1,-4.070638716E-1,3.142527863E-2
2.342112762E0,7.310371995E-1,-3.804322779E-1,7.510108501E-2
2.344600418E0,7.470161319E-1,-3.538006842E-1,1.166463718E-1
2.347088074E0,7.619298100E-1,-3.292996287E-1,1.581916511E-1
2.349575731E0,7.725824714E-1,-3.069290817E-1,1.986716688E-1
2.352063387E0,7.821698189E-1,-2.888196111E-1,2.380864173E-1
2.354551043E0,7.885614038E-1,-2.760364413E-1,2.775011659E-1
2.357038699E0,7.917572260E-1,-2.717753947E-1,3.179811835E-1
2.359526356E0,7.960182428E-1,-2.739059031E-1,3.584612012E-1
2.362014012E0,8.013445735E-1,-2.824280262E-1,4.000065029E-1
2.364501668E0,8.077361584E-1,-2.984069884E-1,4.426170290E-1
2.366989324E0,8.151929975E-1,-3.186469972E-1,4.830970466E-1
2.369476981E0,8.226498365E-1,-3.452785909E-1,5.225118399E-1
2.371964637E0,8.301066756E-1,-3.772364855E-1,5.608612895E-1
2.374452293E0,8.354330063E-1,-4.155859649E-1,5.938844681E-1
2.376939949E0,8.396940827E-1,-4.581965208E-1,6.237118840E-1
2.379427606E0,8.418245912E-1,-5.061333776E-1,6.503434777E-1
2.381915262E0,8.450203538E-1,-5.562008023E-1,6.748445034E-1
2.384402918E0,8.482161760E-1,-6.062681675E-1,6.982803345E-1
2.386890574E0,8.524772525E-1,-6.552702785E-1,7.217161059E-1
2.389378231E0,8.578035235E-1,-6.968155503E-1,7.494129539E-1
2.391865887E0,8.631298542E-1,-7.340998054E-1,7.803056240E-1
2.394353543E0,8.684561849E-1,-7.649924755E-1,8.133288026E-1
2.396841199E0,8.716519475E-1,-7.884282470E-1,8.527435660E-1
2.399328856E0,8.759130239E-1,-8.033419251E-1,8.974846005E-1
2.401816512E0,8.801741004E-1,-8.097335100E-1,9.464867711E-1
2.404304168E0,8.855004311E-1,-8.065377474E-1,9.997498989E-1
2.406791824E0,8.929572701E-1,-7.926893234E-1,1.056208849E0
2.409279481E0,8.993488550E-1,-7.692534924E-1,1.111602664E0
2.411767137E0,9.046751261E-1,-7.372955680E-1,1.166996360E0
2.414254793E0,9.068056941E-1,-6.978808641E-1,1.220259547E0
2.416742449E0,9.057404399E-1,-6.552702785E-1,1.271392107E0
2.419230106E0,8.993488550E-1,-6.094639897E-1,1.321459532E0
2.421717762E0,8.918919563E-1,-5.625923872E-1,1.370461702E0
2.424205418E0,8.801741004E-1,-5.157207847E-1,1.417333245E0
2.426693074E0,8.663256764E-1,-4.688491523E-1,1.465270162E0
2.429180731E0,8.524772525E-1,-4.209122956E-1,1.512141705E0
2.431668387E0,8.354330063E-1,-3.740406930E-1,1.559013367E0
2.434156043E0,8.162582517E-1,-3.282343447E-1,1.605884910E0
2.436643699E0,7.917572260E-1,-2.845585644E-1,1.651691318E0
2.439131356E0,7.651256323E-1,-2.451438010E-1,1.697497606E0
2.441619012E0,7.352982163E-1,-2.089248300E-1,1.743303895E0
2.444106668E0,7.033402920E-1,-1.790974438E-1,1.789110303E0
2.446594324E0,6.671213508E-1,-1.535311192E-1,1.834916592E0
2.449081981E0,6.298371553E-1,-1.332911104E-1,1.880723000E0
2.451569637E0,5.914876461E-1,-1.194426864E-1,1.928659797E0
2.454057606E0,5.520728827E-1,-1.109205782E-1,1.974466205E0
2.456545574E0,5.147886276E-1,-1.055942550E-1,2.020272493E0
2.459033543E0,4.785696864E-1,-1.013332009E-1,2.063948393E0
2.461521460E0,4.455465078E-1,-9.600688517E-2,2.105493546E0
2.464009116E0,4.135886133E-1,-9.174583107E-2,2.141712666E0
2.466496772E0,3.816306889E-1,-8.748477697E-2,2.174735785E0
2.468984428E0,3.464770019E-1,-8.641951531E-2,2.202432632E0
2.471472085E0,3.081275225E-1,-8.748477697E-2,2.225868464E0
2.473959741E0,2.665822208E-1,-9.068056941E-2,2.246108294E0
2.476447397E0,2.261022031E-1,-9.387636185E-2,2.264217854E0
2.478935053E0,1.845569313E-1,-9.600688517E-2,2.279131651E0
2.481422710E0,1.430116445E-1,-9.920267761E-2,2.292979956E0
2.483910366E0,1.025316268E-1,-9.920267761E-2,2.304697990E0
2.486398022E0,6.098634377E-2,-9.920267761E-2,2.312154770E0
2.488885678E0,1.944106072E-2,-1.013332009E-1,2.317481041E0
2.491373335E0,-2.530001104E-2,-1.055942550E-1,2.318546295E0
2.493860991E0,-7.110634446E-2,-1.130511016E-1,2.318546295E0
2.496348647E0,-1.201084778E-1,-1.226384789E-1,2.317481041E0
2.498836303E0,-1.712411344E-1,-1.322258562E-1,2.317481041E0
2.501323960E0,-2.234390527E-1,-1.386174262E-1,2.319611549E0
2.503811616E0,-2.777675092E-1,-1.396826953E-1,2.324937820E0
2.506299272E0,-3.331612051E-1,-1.322258562E-1,2.334525347E0
2.508786928E0,-3.885549009E-1,-1.141163707E-1,2.347308397E0
2.511274585E0,-4.460791349E-1,-8.535424620E-2,2.363287449E0
2.513762241E0,-5.036033988E-1,-4.380896688E-2,2.380331516E0
2.516249897E0,-5.632581711E-1,9.454214945E-3,2.397375822E0
2.518737553E0,-6.250434518E-1,7.656582445E-2,2.412289619E0
2.521225210E0,-6.868287325E-1,1.543300748E-1,2.424007416E0
2.523712866E0,-7.486140132E-1,2.427469492E-1,2.432529449E0
2.526200522E0,-8.082687855E-1,3.407512009E-1,2.434659958E0
2.528688178E0,-8.657930493E-1,4.483428299E-1,2.432529449E0
2.531175835E0,-9.190561771E-1,5.612607598E-1,2.425072670E0
2.533663491E0,-9.691236019E-1,6.773745418E-1,2.411224365E0
2.536151147E0,-1.012799382E0,7.902924418E-1,2.390984297E0
2.538638803E0,-1.051148891E0,8.946883082E-1,2.364352703E0
2.541126460E0,-1.083106756E0,9.841704369E-1,2.333460093E0
2.543614116E0,-1.108673096E0,1.052347302E0,2.296175718E0
2.546101772E0,-1.128913164E0,1.094957829E0,2.256761074E0
2.548589428E0,-1.141696334E0,1.109871507E0,2.214150429E0
2.551077085E0,-1.149153113E0,1.096023083E0,2.170474768E0
2.553564741E0,-1.149153113E0,1.055543065E0,2.127864122E0
2.556052397E0,-1.143826842E0,9.926925302E-1,2.086318731E0
2.558540053E0,-1.131043673E0,9.127978086E-1,2.046904087E0
2.561027710E0,-1.111868978E0,8.233156204E-1,2.008554697E0
2.563515366E0,-1.088433146E0,7.242461443E-1,1.972335577E0
2.566003022E0,-1.057540536E0,6.241113544E-1,1.935051441E0
2.568490678E0,-1.021321535E0,5.271723270E-1,1.896701932E0
2.570978335E0,-9.776456952E-1,4.344944060E-1,1.856221914E0
2.573465991E0,-9.307740927E-1,3.482080400E-1,1.814676642E0
2.575953647E0,-8.796414733E-1,2.704437971E-1,1.767804980E0
2.578441303E0,-8.274435401E-1,2.001364082E-1,1.717737675E0
2.580928960E0,-7.731150985E-1,1.372858584E-1,1.665539742E0
2.583416616E0,-7.177214026E-1,8.082687855E-2,1.608015418E0
2.585904272E0,-6.612623930E-1,3.075948730E-2,1.550491214E0
2.588391928E0,-6.037381887E-1,-1.398158539E-2,1.490836501E0
2.590879585E0,-5.451486707E-1,-5.552686751E-2,1.431181669E0
2.593367241E0,-4.865591824E-1,-9.174583107E-2,1.373657465E0
2.595854897E0,-4.269044101E-1,-1.226384789E-1,1.319329023E0
2.598342553E0,-3.683148921E-1,-1.471395344E-1,1.266065836E0
2.600830210E0,-3.107906580E-1,-1.663142890E-1,1.215998411E0
2.603317866E0,-2.564622164E-1,-1.801627129E-1,1.166996360E0
2.605805522E0,-2.042642981E-1,-1.897500902E-1,1.117994189E0
2.608293178E0,-1.563274413E-1,-1.961416751E-1,1.071122646E0
2.610780835E0,-1.073253155E-1,-1.982721984E-1,1.023185730E0
2.613268491E0,-5.832318589E-2,-1.972069293E-1,9.731183648E-1
2.615756147E0,-7.190529723E-3,-1.918806136E-1,9.209204316E-1
2.618243803E0,4.394212365E-2,-1.822932363E-1,8.655267358E-1
2.620731460E0,9.400951862E-2,-1.684448123E-1,8.048067093E-1
2.623219116E0,1.440769136E-1,-1.492700726E-1,7.419561148E-1
2.625706772E0,1.898832470E-1,-1.247690022E-1,6.748445034E-1
2.628194428E0,2.314285189E-1,-9.707214683E-2,6.034718752E-1
2.630682085E0,2.697780132E-1,-6.831002980E-2,5.299686790E-1
2.633169741E0,3.059969842E-1,-3.954791278E-2,4.532696903E-1
2.635657397E0,3.400854170E-1,-1.291632187E-2,3.755054474E-1
2.638145106E0,3.741738498E-1,9.454214945E-3,2.956106663E-1
2.640632814E0,4.061317742E-1,2.436790615E-2,2.146506310E-1
2.643120522E0,4.370244145E-1,3.182475269E-2,1.347558498E-1
2.645608231E0,4.657865167E-1,3.182475269E-2,5.592634156E-2
2.648095939E0,4.934833944E-1,2.223737910E-2,-1.970737800E-2
2.650583647E0,5.201149583E-1,1.997369342E-3,-9.321057051E-2
2.653071356E0,5.467465520E-1,-2.676474862E-2,-1.613874435E-1
2.655559064E0,5.701823831E-1,-6.617950648E-2,-2.263685167E-1
2.658046772E0,5.925529003E-1,-1.141163707E-1,-2.860232890E-1
2.660534481E0,6.127929091E-1,-1.695100814E-1,-3.403517306E-1
2.663022189E0,6.319676638E-1,-2.334259003E-1,-3.925496638E-1
2.665509897E0,6.479465961E-1,-2.994722426E-1,-4.394212663E-1
2.667997606E0,6.617950201E-1,-3.687143922E-1,-4.830970466E-1
2.670485314E0,6.735129356E-1,-4.368912578E-1,-5.225118399E-1
2.672973022E0,6.852308512E-1,-5.008070469E-1,-5.587307811E-1
2.675460731E0,6.937529445E-1,-5.583313107E-1,-5.928192139E-1
2.677948439E0,7.012097836E-1,-6.083986759E-1,-6.258423924E-1
2.680436147E0,7.054708600E-1,-6.467481852E-1,-6.567350626E-1
2.682923856E0,7.044056058E-1,-6.755102873E-1,-6.897581816E-1
2.685411564E0,7.001445293E-1,-6.946850419E-1,-7.217161059E-1
2.687899272E0,6.937529445E-1,-7.053377032E-1,-7.536740303E-1
2.690386981E0,6.862961054E-1,-7.095987201E-1,-7.845667005E-1
2.692874689E0,6.788392663E-1,-7.064029574E-1,-8.154593110E-1
2.695362397E0,6.713824272E-1,-6.968155503E-1,-8.442214131E-1
2.697850106E0,6.617950201E-1,-6.829671264E-1,-8.719182611E-1
2.700337814E0,6.511424184E-1,-6.616618633E-1,-8.996151686E-1
2.702825522E0,6.372939944E-1,-6.360955238E-1,-9.273120165E-1
2.705313231E0,6.191844940E-1,-6.062681675E-1,-9.560741186E-1
2.707800939E0,5.989444852E-1,-5.721797347E-1,-9.848362207E-1
2.710288647E0,5.733781457E-1,-5.348954797E-1,-1.013598323E0
2.712776356E0,5.424855351E-1,-4.965460002E-1,-1.041295171E0
2.715264064E0,5.083971024E-1,-4.571312666E-1,-1.067926764E0
2.717751772E0,4.732433856E-1,-4.187817574E-1,-1.091362596E0
2.720239481E0,4.359591305E-1,-3.825628161E-1,-1.112667918E0
2.722727189E0,3.997401893E-1,-3.484743834E-1,-1.129712105E0
2.725214897E0,3.645864725E-1,-3.175817132E-1,-1.144625783E0
2.727702606E0,3.283675313E-1,-2.898848653E-1,-1.156343699E0
2.730190314E0,2.932138145E-1,-2.675143182E-1,-1.164865732E0
2.732677970E0,2.580601275E-1,-2.494048476E-1,-1.173387885E0
2.735165626E0,2.250369489E-1,-2.376869470E-1,-1.179779530E0
2.737653283E0,1.930790395E-1,-2.323606312E-1,-1.188301563E0
2.740140939E0,1.600558609E-1,-2.344911546E-1,-1.198954225E0
2.742628595E0,1.291632205E-1,-2.440785319E-1,-1.210672140E0
2.745116251E0,9.827057272E-2,-2.589922249E-1,-1.225585818E0
2.747603908E0,6.737792492E-2,-2.834932804E-1,-1.243695259E0
2.750091564E0,3.861580789E-2,-3.133206666E-1,-1.263935328E0
2.752579220E0,8.788425475E-3,-3.484743834E-1,-1.283110023E0
2.755066876E0,-2.210422046E-2,-3.878891170E-1,-1.302284837E0
2.757554533E0,-5.299686641E-2,-4.304996729E-1,-1.318263769E0
2.760042189E0,-8.388951421E-2,-4.752407372E-1,-1.329981685E0
2.762529845E0,-1.115863696E-1,-5.167860389E-1,-1.335307956E0
2.765017501E0,-1.350221634E-1,-5.540702343E-1,-1.335307956E0
2.767505158E0,-1.563274413E-1,-5.828323960E-1,-1.331046939E0
2.769992814E0,-1.744369268E-1,-6.020070910E-1,-1.324655294E0
2.772480470E0,-1.936116666E-1,-6.094639897E-1,-1.317198515E0
2.774968126E0,-2.117211521E-1,-6.062681675E-1,-1.310806870E0
2.777455783E0,-2.319611609E-1,-5.945502520E-1,-1.306545854E0
2.779943439E0,-2.532664239E-1,-5.743102431E-1,-1.307611108E0
2.782431095E0,-2.756369710E-1,-5.487439036E-1,-1.314002752E0
2.784918751E0,-3.001380265E-1,-5.178512931E-1,-1.325720549E0
2.787406408E0,-3.246390820E-1,-4.816323221E-1,-1.339568973E0
2.789894064E0,-3.502054214E-1,-4.422175586E-1,-1.356613278E0
2.792381720E0,-3.757717609E-1,-3.996070325E-1,-1.372592211E0
2.794869376E0,-4.002728164E-1,-3.548659384E-1,-1.388571143E0
2.797357033E0,-4.237086177E-1,-3.111901283E-1,-1.401354313E0
2.799844689E0,-4.450138807E-1,-2.707101107E-1,-1.413072228E0
2.802332345E0,-4.641886353E-1,-2.344911546E-1,-1.418398499E0
2.804820001E0,-4.791023135E-1,-2.057290375E-1,-1.420529008E0
2.807307658E0,-4.908202291E-1,-1.876195520E-1,-1.417333245E0
2.809795314E0,-4.993423223E-1,-1.801627129E-1,-1.408811212E0
2.812282970E0,-5.057339072E-1,-1.854890287E-1,-1.398158550E0
2.814770626E0,-5.110602379E-1,-2.046637833E-1,-1.384310126E0
2.817258283E0,-5.142560005E-1,-2.376869470E-1,-1.371526957E0
2.819745939E0,-5.174518228E-1,-2.845585644E-1,-1.357678533E0
2.822233595E0,-5.206475854E-1,-3.442133069E-1,-1.347025871E0
2.824721251E0,-5.195823312E-1,-4.155859649E-1,-1.337438464E0
2.827208908E0,-5.163865685E-1,-4.922849536E-1,-1.331046939E0
2.829696564E0,-5.099949837E-1,-5.721797347E-1,-1.322524786E0
2.832184220E0,-5.014728308E-1,-6.510092616E-1,-1.314002752E0
2.834671876E0,-4.918854833E-1,-7.234471440E-1,-1.302284837E0
2.837159533E0,-4.812328517E-1,-7.873629928E-1,-1.288436413E0
2.839647189E0,-4.716454744E-1,-8.384956717E-1,-1.270326853E0
2.842134845E0,-4.641886353E-1,-8.736493587E-1,-1.247956395E0
2.844622501E0,-4.556665123E-1,-8.928241134E-1,-1.220259547E0
2.847110158E0,-4.492749274E-1,-8.949546218E-1,-1.188301563E0
2.849597814E0,-4.428833723E-1,-8.779103756E-1,-1.152082682E0
2.852085470E0,-4.343612492E-1,-8.427566886E-1,-1.113733172E0
2.854573126E0,-4.258391261E-1,-7.926893234E-1,-1.071122646E0
2.857060783E0,-4.173170328E-1,-7.277082205E-1,-1.027446747E0
2.859548439E0,-4.077296555E-1,-6.499440074E-1,-9.869667888E-1
2.862036095E0,-3.992075622E-1,-5.615270734E-1,-9.475520253E-1
2.864523751E0,-3.896201849E-1,-4.645881057E-1,-9.123983383E-1
2.867011408E0,-3.800328076E-1,-3.591270149E-1,-8.793751597E-1
2.869499064E0,-3.693801761E-1,-2.504701018E-1,-8.506129980E-1
2.871986720E0,-3.565970063E-1,-1.407479644E-1,-8.271772265E-1
2.874474376E0,-3.438138366E-1,-3.209106624E-2,-8.058719635E-1
2.876962033E0,-3.299654126E-1,7.123950869E-2,-7.898929715E-1
2.879449689E0,-3.161169887E-1,1.649827063E-1,-7.781751156E-1
2.881937345E0,-3.012032807E-1,2.470080107E-1,-7.696529627E-1
2.884425001E0,-2.873548567E-1,3.119890988E-1,-7.632613778E-1
2.886912658E0,-2.724411786E-1,3.609912097E-1,-7.590003610E-1
2.889400314E0,-2.596580088E-1,3.918838501E-1,-7.547392845E-1
2.891887970E0,-2.490053773E-1,4.078628123E-1,-7.504782081E-1
2.894375626E0,-2.404832691E-1,4.099933505E-1,-7.430213690E-1
2.896863283E0,-2.351569533E-1,4.014712274E-1,-7.334340215E-1
2.899350939E0,-2.340916842E-1,3.865575492E-1,-7.217161059E-1
2.901838647E0,-2.372874767E-1,3.641870022E-1,-7.078676820E-1
2.904326356E0,-2.447443157E-1,3.354249001E-1,-6.940192580E-1
2.906814064E0,-2.543317080E-1,3.013364673E-1,-6.812360883E-1
2.909301772E0,-2.649843395E-1,2.629869580E-1,-6.695181727E-1
2.911789481E0,-2.724411786E-1,2.203764170E-1,-6.609960794E-1
2.914277189E0,-2.788327634E-1,1.777658761E-1,-6.546044946E-1
2.916764897E0,-2.820285559E-1,1.372858584E-1,-6.492781639E-1
2.919252606E0,-2.820285559E-1,1.021321490E-1,-6.450171471E-1
2.921740314E0,-2.798980176E-1,7.550056279E-2,-6.375603080E-1
2.924228022E0,-2.767022252E-1,5.632581562E-2,-6.311687231E-1
2.926715731E0,-2.713759243E-1,4.460791498E-2,-6.258423924E-1
2.929203439E0,-2.639190555E-1,3.821633384E-2,-6.194508076E-1
2.931691147E0,-2.564622164E-1,3.715106845E-2,-6.151897311E-1
2.934178856E0,-2.458095849E-1,3.928159550E-2,-6.130592227E-1
2.936666564E0,-2.330264151E-1,4.567318037E-2,-6.119939685E-1
2.939154272E0,-2.181127369E-1,5.632581562E-2,-6.130592227E-1
2.941641981E0,-2.021337748E-1,7.123950869E-2,-6.141244769E-1
2.944129689E0,-1.850895584E-1,9.147951752E-2,-6.162550449E-1
2.946617397E0,-1.691105962E-1,1.149153188E-1,-6.194508076E-1
2.949105106E0,-1.520663798E-1,1.404816359E-1,-6.258423924E-1
2.951592814E0,-1.371526867E-1,1.639174372E-1,-6.343644857E-1
2.954080522E0,-1.233042628E-1,1.841574460E-1,-6.460824013E-1
2.956568231E0,-1.126516312E-1,2.001364082E-1,-6.620613337E-1
2.959055939E0,-1.041295230E-1,2.150501013E-1,-6.780403256E-1
2.961543647E0,-9.773793817E-2,2.299637944E-1,-6.961497664E-1
2.964031356E0,-9.560741484E-2,2.470080107E-1,-7.131940126E-1
2.966519064E0,-9.347688407E-2,2.672480047E-1,-7.281076908E-1
2.969006772E0,-9.667267650E-2,2.949448824E-1,-7.408908606E-1
2.971494481E0,-1.009337306E-1,3.290333152E-1,-7.526087761E-1
2.973982189E0,-1.073253155E-1,3.695133328E-1,-7.611308694E-1
2.976469897E0,-1.147821546E-1,4.142543972E-1,-7.685877085E-1
2.978957606E0,-1.211737394E-1,4.621912539E-1,-7.760445476E-1
2.981445314E0,-1.254348010E-1,5.079975724E-1,-7.824361324E-1
2.983933022E0,-1.275653243E-1,5.495429039E-1,-7.888277173E-1
2.986420731E0,-1.286305785E-1,5.825660825E-1,-7.930887938E-1
2.988908439E0,-1.275653243E-1,6.028060913E-1,-7.952193022E-1
2.991396147E0,-1.265000552E-1,6.070671082E-1,-7.973498106E-1
2.993883856E0,-1.265000552E-1,5.921534300E-1,-7.994803786E-1
2.996371564E0,-1.265000552E-1,5.559344888E-1,-8.026761413E-1
2.998859220E0,-1.275653243E-1,4.994754791E-1,-8.080024719E-1
3.001346876E0,-1.296958476E-1,4.238417745E-1,-8.143940568E-1
3.003834533E0,-1.339569092E-1,3.375554085E-1,-8.207856417E-1
3.006322189E0,-1.403484792E-1,2.470080107E-1,-8.229161501E-1
3.008809845E0,-1.467400640E-1,1.607216448E-1,-8.218508959E-1
3.011297501E0,-1.510011256E-1,8.508793265E-2,-8.133288026E-1
3.013785158E0,-1.552621722E-1,2.543316968E-2,-7.973498106E-1
3.016272814E0,-1.573926955E-1,-1.185105834E-2,-7.760445476E-1
3.018760470E0,-1.584579647E-1,-2.783001214E-2,-7.483476996E-1
3.021248126E0,-1.605884880E-1,-2.143843099E-2,-7.185203433E-1
3.023735783E0,-1.627190262E-1,7.323687430E-3,-6.865624189E-1
3.026223439E0,-1.659148186E-1,5.313002318E-2,-6.556697488E-1
3.028711095E0,-1.723063886E-1,1.138500497E-1,-6.279729009E-1
3.031198751E0,-1.829590350E-1,1.852227151E-1,-6.056023836E-1
3.033686408E0,-1.946769357E-1,2.619217038E-1,-5.896234512E-1
3.036174064E0,-2.095906287E-1,3.407512009E-1,-5.800360441E-1
3.038661720E0,-2.266348451E-1,4.185154438E-1,-5.757750273E-1
3.041149376E0,-2.458095849E-1,4.909533858E-1,-5.736444592E-1
3.043637033E0,-2.639190555E-1,5.548691750E-1,-5.715139508E-1
3.046124689E0,-2.820285559E-1,6.091976166E-1,-5.683181286E-1
3.048612345E0,-3.001380265E-1,6.486123800E-1,-5.597960353E-1
3.051100001E0,-3.161169887E-1,6.709829569E-1,-5.459476113E-1
3.053587658E0,-3.299654126E-1,6.731134653E-1,-5.267728567E-1
3.056075314E0,-3.427485824E-1,6.528734565E-1,-5.022718310E-1
3.058562970E0,-3.523359597E-1,6.091976166E-1,-4.735096991E-1
3.061050626E0,-3.619233072E-1,5.442165732E-1,-4.415517747E-1
3.063538283E0,-3.693801761E-1,4.568649530E-1,-4.063980877E-1
3.066025939E0,-3.757717609E-1,3.567301631E-1,-3.701791167E-1
3.068513595E0,-3.810980618E-1,2.470080107E-1,-3.318296373E-1
3.071001251E0,-3.842938542E-1,1.351553202E-1,-2.913496196E-1
3.073488908E0,-3.864243925E-1,3.075948730E-2,-2.498043180E-1
3.075976564E0,-3.853591084E-1,-5.978792161E-2,-2.039979845E-1
3.078464220E0,-3.832286000E-1,-1.311605871E-1,-1.571263820E-1
3.080951876E0,-3.821633458E-1,-1.790974438E-1,-1.102547869E-1
3.083439533E0,-3.810980618E-1,-2.014679909E-1,-6.231792271E-2
3.085927189E0,-3.810980618E-1,-1.993374527E-1,-1.757685095E-2
3.088414845E0,-3.842938542E-1,-1.737711281E-1,2.290316857E-2
3.090902501E0,-3.906854391E-1,-1.279647946E-1,5.912213027E-2
3.093390158E0,-3.992075622E-1,-6.724476814E-2,8.681898564E-2
3.095877814E0,-4.109254479E-1,5.193160381E-3,1.091895252E-1
3.098365470E0,-4.258391261E-1,8.615319431E-2,1.241032109E-1
3.100853126E0,-4.407528341E-1,1.681784987E-1,1.326253265E-1
3.103340783E0,-4.546012580E-1,2.480732650E-1,1.368863732E-1
3.105828439E0,-4.695149362E-1,3.237069845E-1,1.379516423E-1
3.108316095E0,-4.833633900E-1,3.897533417E-1,1.368863732E-1
3.110803751E0,-4.982770681E-1,4.451470375E-1,1.347558498E-1
3.113291408E0,-5.131907463E-1,4.866923392E-1,1.347558498E-1
3.115779064E0,-5.291697383E-1,5.122586489E-1,1.358211190E-1
3.118266720E0,-5.451486707E-1,5.207807422E-1,1.368863732E-1
3.120754376E0,-5.621928573E-1,5.122586489E-1,1.390169114E-1
3.123242033E0,-5.803023577E-1,4.866923392E-1,1.432779580E-1
3.125729689E0,-5.973466039E-1,4.440817833E-1,1.486042738E-1
3.128217345E0,-6.154560447E-1,3.876228034E-1,1.549958587E-1
3.130705001E0,-6.303697824E-1,3.215764761E-1,1.635179669E-1
3.133192658E0,-6.442182064E-1,2.480732650E-1,1.741705984E-1
3.135680314E0,-6.559360623E-1,1.713742912E-1,1.880190372E-1
3.138167970E0,-6.644582152E-1,9.467530251E-2,2.039979845E-1
3.140655626E0,-6.740455627E-1,2.223737910E-2,2.221074700E-1
3.143143283E0,-6.804371476E-1,-4.487423226E-2,2.444780022E-1
3.145630939E0,-6.857634783E-1,-1.034637317E-1,2.679138184E-1
3.148118595E0,-6.878939867E-1,-1.492700726E-1,2.956106663E-1
3.150606251E0,-6.889592409E-1,-1.801627129E-1,3.265033066E-1
3.153093908E0,-6.889592409E-1,-1.940111369E-1,3.595264852E-1
3.155581564E0,-6.889592409E-1,-1.908153445E-1,3.936149180E-1
3.158069272E0,-6.910898089E-1,-1.727058738E-1,4.277033508E-1
3.160556981E0,-6.953508258E-1,-1.428784877E-1,4.596612751E-1
3.163044689E0,-7.028076649E-1,-1.013332009E-1,4.873581231E-1
3.165532397E0,-7.123950720E-1,-5.446160212E-2,5.086634159E-1
3.168020106E0,-7.251782417E-1,-4.394212738E-3,5.257076025E-1
3.170507814E0,-7.368960977E-1,4.460791498E-2,5.352949500E-1
3.172995522E0,-7.486140132E-1,9.147951752E-2,5.395560265E-1
3.175483231E0,-7.582014203E-1,1.319595277E-1,5.406212807E-1
3.177970939E0,-7.667235136E-1,1.660479754E-1,5.395560265E-1
3.180458647E0,-7.720498443E-1,1.916143000E-1,5.374255180E-1
3.182946356E0,-7.763108611E-1,2.075932473E-1,5.374255180E-1
3.185434064E0,-7.773761153E-1,2.129195631E-1,5.374255180E-1
3.187921772E0,-7.763108611E-1,2.033322006E-1,5.406212807E-1
3.190409481E0,-7.731150985E-1,1.809616536E-1,5.470128655E-1
3.192897189E0,-7.677887678E-1,1.447426975E-1,5.555350184E-1
3.195384897E0,-7.592666745E-1,9.680583328E-2,5.661876202E-1
3.197872606E0,-7.507445216E-1,3.821633384E-2,5.811012983E-1
3.200360314E0,-7.411571741E-1,-2.676474862E-2,5.992107987E-1
3.202848022E0,-7.326350808E-1,-9.600688517E-2,6.226465702E-1
3.205335731E0,-7.251782417E-1,-1.641837656E-1,6.492781639E-1
3.207823439E0,-7.209171653E-1,-2.280995846E-1,6.791055799E-1
3.210311147E0,-7.166560888E-1,-2.866890728E-1,7.110635042E-1
3.212798856E0,-7.145255804E-1,-3.356912136E-1,7.440866828E-1
3.215286564E0,-7.113298178E-1,-3.729754388E-1,7.771098018E-1
3.217774272E0,-7.091992497E-1,-3.974764943E-1,8.111982346E-1
3.220261981E0,-7.081339955E-1,-4.059986174E-1,8.442214131E-1
3.222749689E0,-7.070687413E-1,-3.964112401E-1,8.761793375E-1
3.225237397E0,-7.070687413E-1,-3.665838540E-1,9.081372619E-1
3.227725106E0,-7.070687413E-1,-3.165164590E-1,9.400951862E-1
3.230212814E0,-7.070687413E-1,-2.494048476E-1,9.731183648E-1
3.232700522E0,-7.081339955E-1,-1.641837656E-1,1.002945662E0
3.235188231E0,-7.081339955E-1,-6.831002980E-2,1.032773137E0
3.237675939E0,-7.091992497E-1,3.608580679E-2,1.060469985E0
3.240163647E0,-7.113298178E-1,1.426121742E-1,1.084971070E0
3.242651356E0,-7.145255804E-1,2.459427416E-1,1.104145765E0
3.245139064E0,-7.209171653E-1,3.428817391E-1,1.120124698E0
3.247626772E0,-7.283740044E-1,4.259723127E-1,1.130777359E0
3.250114481E0,-7.337003350E-1,4.930838943E-1,1.135038376E0
3.252602189E0,-7.390266657E-1,5.420860648E-1,1.133973122E0
3.255089897E0,-7.422224283E-1,5.729786754E-1,1.127581596E0
3.257577553E0,-7.432876825E-1,5.846965909E-1,1.114798427E0
3.260065210E0,-7.454182506E-1,5.804355145E-1,1.099884748E0
3.262552866E0,-7.475487590E-1,5.591302514E-1,1.081775188E0
3.265040522E0,-7.486140132E-1,5.229113102E-1,1.060469985E0
3.267528178E0,-7.507445216E-1,4.739091694E-1,1.037034154E0
3.270015835E0,-7.496792674E-1,4.121238589E-1,1.011467814E0
3.272503491E0,-7.454182506E-1,3.407512009E-1,9.859014750E-1
3.274991147E0,-7.390266657E-1,2.640522122E-1,9.592698812E-1
3.277478803E0,-7.294392586E-1,1.841574460E-1,9.326383471E-1
3.279966460E0,-7.155908346E-1,1.031974182E-1,9.081372619E-1
3.282454116E0,-7.006771564E-1,2.330264263E-2,8.868319988E-1
3.284941772E0,-6.836329699E-1,-5.339634046E-2,8.665919900E-1
3.287429428E0,-6.655234694E-1,-1.237037405E-1,8.527435660E-1
3.289917085E0,-6.474139690E-1,-1.865542978E-1,8.410256505E-1
3.292404741E0,-6.303697824E-1,-2.419480085E-1,8.335688114E-1
3.294892397E0,-6.143907905E-1,-2.824280262E-1,8.271772265E-1
3.297380053E0,-6.005423665E-1,-3.101248741E-1,8.218508959E-1
3.299867710E0,-5.888244510E-1,-3.218427896E-1,8.186551332E-1
3.302355366E0,-5.771065950E-1,-3.186469972E-1,8.154593110E-1
3.304843022E0,-5.653886795E-1,-2.984069884E-1,8.111982346E-1
3.307330678E0,-5.536707640E-1,-2.632532716E-1,8.058719635E-1
3.309818335E0,-5.408875942E-1,-2.163816839E-1,7.973498106E-1
3.312305991E0,-5.259739161E-1,-1.588574350E-1,7.835013866E-1
3.314793647E0,-5.089297295E-1,-9.387636185E-2,7.685877085E-1
3.317281303E0,-4.918854833E-1,-2.676474862E-2,7.483476996E-1
3.319768960E0,-4.737760127E-1,3.928159550E-2,7.259771824E-1
3.322256616E0,-4.556665123E-1,1.000016257E-1,7.014760971E-1
3.324744272E0,-4.386222959E-1,1.521995366E-1,6.759097576E-1
3.327231928E0,-4.226433635E-1,1.916143000E-1,6.492781639E-1
3.329719585E0,-4.045338631E-1,2.161153555E-1,6.226465702E-1
3.332207241E0,-3.874896467E-1,2.267680019E-1,5.949497223E-1
3.334694897E0,-3.693801761E-1,2.214416862E-1,5.683181286E-1
3.337182553E0,-3.512706757E-1,2.012016773E-1,5.406212807E-1
3.339670210E0,-3.342264593E-1,1.713742912E-1,5.139896870E-1
3.342157866E0,-3.171822429E-1,1.319595277E-1,4.873581231E-1
3.344645522E0,-3.022685647E-1,8.934898674E-2,4.607265294E-1
3.347133178E0,-2.862896025E-1,4.780370742E-2,4.351601899E-1
3.349620835E0,-2.703106403E-1,1.158474199E-2,4.106591344E-1
3.352108491E0,-2.543317080E-1,-1.611211337E-2,3.882885873E-1
3.354596147E0,-2.383527458E-1,-3.209106624E-2,3.691138625E-1
3.357083803E0,-2.213085145E-1,-3.528685868E-2,3.520696461E-1
3.359571460E0,-2.063948363E-1,-2.569948509E-2,3.339601457E-1
3.362059116E0,-1.904158741E-1,-5.459476262E-3,3.169159293E-1
3.364546772E0,-1.765674502E-1,2.223737910E-2,2.988064587E-1
3.367034428E0,-1.637842804E-1,5.632581562E-2,2.796317041E-1
3.369522085E0,-1.531316489E-1,9.361004084E-2,2.593916953E-1
3.372009741E0,-1.424790174E-1,1.308942735E-1,2.359558940E-1
3.374497397E0,-1.350221634E-1,1.660479754E-1,2.125200927E-1
3.376985053E0,-1.275653243E-1,2.001364082E-1,1.880190372E-1
3.379472710E0,-1.211737394E-1,2.288985252E-1,1.635179669E-1
3.381960366E0,-1.169126853E-1,2.512690723E-1,1.379516423E-1
3.384448022E0,-1.137168929E-1,2.683132887E-1,1.145158410E-1
3.386935678E0,-1.126516312E-1,2.768353820E-1,8.894951642E-2
3.389423335E0,-1.115863696E-1,2.779006660E-1,6.444845349E-2
3.391910991E0,-1.115863696E-1,2.715090811E-1,4.101264849E-2
3.394398647E0,-1.137168929E-1,2.597911656E-1,1.757685095E-2
3.396886303E0,-1.147821546E-1,2.416816950E-1,-3.728422802E-3
3.399373960E0,-1.158474237E-1,2.203764170E-1,-2.183790505E-2
3.401861616E0,-1.169126853E-1,1.937448233E-1,-3.781685978E-2
3.404349272E0,-1.169126853E-1,1.660479754E-1,-5.060002208E-2
3.406836928E0,-1.179779470E-1,1.351553202E-1,-6.231792271E-2
3.409324637E0,-1.179779470E-1,1.042626798E-1,-7.084003091E-2
3.411812345E0,-1.179779470E-1,7.230477035E-2,-7.829687744E-2
3.414300053E0,-1.190432087E-1,4.034686089E-2,-8.255793154E-2
3.416787762E0,-1.201084778E-1,1.051947847E-2,-8.575372398E-2
3.419275470E0,-1.201084778E-1,-1.824264042E-2,-8.681898564E-2
3.421763178E0,-1.190432087E-1,-4.380896688E-2,-8.575372398E-2
3.424250887E0,-1.169126853E-1,-6.404897571E-2,-8.255793154E-2
3.426738595E0,-1.126516312E-1,-8.002793044E-2,-7.723161578E-2
3.429226303E0,-1.094558388E-1,-9.174583107E-2,-6.870950758E-2
3.431714012E0,-1.062600464E-1,-9.813741595E-2,-5.805686861E-2
3.434201720E0,-1.019989923E-1,-1.013332009E-1,-4.633896798E-2
3.436689428E0,-9.880319983E-2,-1.013332009E-1,-3.355580568E-2
3.439177137E0,-9.454214573E-2,-9.813741595E-2,-1.970737800E-2
3.441664845E0,-9.134636074E-2,-9.068056941E-2,-4.793686327E-3
3.444152553E0,-8.815056831E-2,-8.215846121E-2,1.012000442E-2
3.446640262E0,-8.388951421E-2,-7.044056058E-2,2.396843210E-2
3.449127970E0,-8.175898343E-2,-5.765739456E-2,3.568633273E-2
3.451615678E0,-7.856319100E-2,-4.061317816E-2,4.420844093E-2
3.454103387E0,-7.643266767E-2,-2.250369452E-2,5.060002208E-2
3.456591095E0,-7.323687524E-2,-3.328948980E-3,5.273054913E-2
3.459078803E0,-7.004108280E-2,1.691105962E-2,5.379581451E-2
3.461566512E0,-6.684529036E-2,3.715106845E-2,5.166528746E-2
3.464054220E0,-6.471476704E-2,5.632581562E-2,4.846949503E-2
3.466541928E0,-6.045371294E-2,7.337003201E-2,4.207791388E-2
3.469029637E0,-5.619265884E-2,8.721846342E-2,3.355580568E-2
3.471517345E0,-4.980107397E-2,9.680583328E-2,2.396843210E-2
3.474005522E0,-4.447475821E-2,1.031974182E-1,1.225053146E-2
3.476493126E0,-3.914843872E-2,1.063932031E-1,5.326318205E-4
3.478980731E0,-3.382211924E-2,1.074584723E-1,-1.012000442E-2
3.481468335E0,-2.849580161E-2,1.063932031E-1,-2.077264152E-2
3.483955939E0,-2.316948399E-2,1.031974182E-1,-3.036001325E-2
3.486443543E0,-1.890842989E-2,1.000016257E-1,-3.888212144E-2
3.488931147E0,-1.358211134E-2,9.574057162E-2,-4.740423337E-2
3.491418751E0,-1.038632076E-2,8.934898674E-2,-5.486107618E-2
3.493906356E0,-6.125265732E-3,8.082687855E-2,-6.231792271E-2
3.496393960E0,-3.994738683E-3,7.017423958E-2,-7.084003091E-2
3.498881564E0,-7.989477599E-4,5.845634267E-2,-7.829687744E-2
3.501369168E0,2.663159103E-4,4.460791498E-2,-8.468846232E-2
3.503856772E0,2.663159103E-4,2.969422378E-2,-8.894951642E-2
3.506344376E0,2.663159103E-4,1.371526904E-2,-9.214530140E-2
3.508831981E0,-7.989477599E-4,-2.263685223E-3,-9.108003974E-2
3.511319585E0,-2.929474926E-3,-1.824264042E-2,-8.681898564E-2
3.513807606E0,-5.060002208E-3,-3.422159329E-2,-8.149266988E-2
3.516295626E0,-8.255792782E-3,-4.913528636E-2,-7.403582335E-2
3.518783647E0,-1.038632076E-2,-6.511423737E-2,-6.764423847E-2
3.521271356E0,-1.464737486E-2,-8.109319210E-2,-6.125266105E-2
3.523759012E0,-1.784316637E-2,-9.813741595E-2,-5.592634156E-2
3.526246668E0,-1.997369342E-2,-1.130511016E-1,-5.166528746E-2
3.528734324E0,-2.103895694E-2,-1.290300637E-1,-4.846949503E-2
3.531221981E0,-2.103895694E-2,-1.418132186E-1,-4.420844093E-2
3.533709637E0,-1.890842989E-2,-1.535311192E-1,-4.101264849E-2
3.536197293E0,-1.464737486E-2,-1.599227041E-1,-3.781685978E-2
3.538684949E0,-9.321057238E-3,-1.631184965E-1,-3.355580568E-2
3.541172606E0,-3.994738683E-3,-1.631184965E-1,-3.142527863E-2
3.543660262E0,1.331579522E-3,-1.577921808E-1,-2.929474972E-2
3.546147918E0,6.657897960E-3,-1.492700726E-1,-2.609895915E-2
3.548635574E0,1.304947957E-2,-1.375521719E-1,-2.503369562E-2
3.551123231E0,1.837579720E-2,-1.215732098E-1,-2.290316857E-2
3.553610887E0,2.370211668E-2,-1.034637317E-1,-2.077264152E-2
3.556098543E0,3.115896136E-2,-8.428898454E-2,-1.864211448E-2
3.558586199E0,3.648528084E-2,-6.404897571E-2,-1.544632297E-2
3.561073856E0,4.181159660E-2,-4.380896688E-2,-1.438105945E-2
3.563561512E0,4.713791609E-2,-2.356895804E-2,-1.331579592E-2
3.566049168E0,5.033370852E-2,-4.394212738E-3,-1.225053146E-2
3.568536824E0,5.459476262E-2,1.265000552E-2,-1.225053146E-2
3.571024481E0,5.779055133E-2,2.756369673E-2,-1.225053146E-2
3.573512137E0,5.992107838E-2,3.928159550E-2,-1.331579592E-2
3.575999793E0,6.205160543E-2,4.673844203E-2,-1.544632297E-2
3.578487449E0,6.311687082E-2,5.099949613E-2,-1.864211448E-2
3.580975106E0,6.418213248E-2,5.206476152E-2,-1.970737800E-2
3.583462762E0,6.524740160E-2,4.993423447E-2,-2.183790505E-2
3.585950418E0,6.524740160E-2,4.460791498E-2,-2.290316857E-2
3.588438074E0,6.418213248E-2,3.715106845E-2,-2.396843210E-2
3.590925731E0,6.418213248E-2,2.862896025E-2,-2.396843210E-2
3.593413387E0,6.205160543E-2,1.904158667E-2,-2.183790505E-2
3.595901043E0,6.098634377E-2,8.388951421E-3,-2.077264152E-2
3.598388699E0,5.885581672E-2,-1.198421582E-3,-1.864211448E-2
3.600876356E0,5.672528967E-2,-1.291632187E-2,-1.757685095E-2
3.603364012E0,5.352949724E-2,-2.356895804E-2,-1.651158556E-2
3.605851668E0,5.139897019E-2,-3.422159329E-2,-1.651158556E-2
3.608339324E0,5.033370852E-2,-4.167843983E-2,-1.651158556E-2
3.610826981E0,4.926844314E-2,-4.807002097E-2,-1.651158556E-2
3.613314637E0,4.926844314E-2,-5.126581341E-2,-1.864211448E-2
3.615802293E0,4.926844314E-2,-5.126581341E-2,-2.077264152E-2
3.618289949E0,5.033370852E-2,-4.700475931E-2,-2.290316857E-2
3.620777606E0,5.139897019E-2,-4.061317816E-2,-2.503369562E-2
3.623265262E0,5.139897019E-2,-3.209106624E-2,-2.716422267E-2
3.625752918E0,5.246423557E-2,-2.250369452E-2,-2.929474972E-2
3.628240574E0,5.459476262E-2,-1.078579482E-2,-3.142527863E-2
3.630728231E0,5.459476262E-2,3.062632866E-3,-3.462106735E-2
3.633215887E0,5.566002429E-2,1.691105962E-2,-3.888212144E-2
3.635703543E0,5.566002429E-2,2.969422378E-2,-4.420844093E-2
3.638191199E0,5.566002429E-2,4.141212255E-2,-4.953476042E-2
3.640678856E0,5.566002429E-2,5.206476152E-2,-5.699160323E-2
3.643166512E0,5.352949724E-2,6.058686972E-2,-6.338318437E-2
3.645654168E0,5.352949724E-2,6.804371625E-2,-6.977476925E-2
3.648141824E0,5.352949724E-2,7.230477035E-2,-7.616634667E-2
3.650629481E0,5.566002429E-2,7.550056279E-2,-8.149266988E-2
3.653117137E0,5.779055133E-2,7.763108611E-2,-8.575372398E-2
3.655604793E0,5.992107838E-2,7.763108611E-2,-8.894951642E-2
3.658092449E0,6.205160543E-2,7.656582445E-2,-9.108003974E-2
3.660580106E0,6.418213248E-2,7.656582445E-2,-9.214530140E-2
3.663067762E0,6.524740160E-2,7.550056279E-2,-9.214530140E-2
3.665555418E0,6.737792492E-2,7.443529367E-2,-9.214530140E-2
3.668043074E0,7.163897902E-2,7.443529367E-2,-9.108003974E-2
3.670530731E0,7.590003312E-2,7.337003201E-2,-9.001477808E-2
3.673018439E0,8.229161799E-2,7.230477035E-2,-9.001477808E-2
3.675506147E0,8.974846452E-2,6.910897791E-2,-9.001477808E-2
3.677993856E0,9.933583438E-2,6.378266215E-2,-9.214530140E-2
3.680481564E0,1.099884734E-1,5.313002318E-2,-9.321057051E-2
3.682969272E0,1.206411049E-1,3.928159550E-2,-9.534109384E-2
3.685456981E0,1.323590130E-1,2.010685205E-2,-9.853688627E-2
3.687944689E0,1.440769136E-1,-2.263685223E-3,-1.038632020E-1
3.690432397E0,1.557948142E-1,-2.783001214E-2,-1.091895252E-1
3.692920106E0,1.675127149E-1,-5.446160212E-2,-1.177116334E-1
3.695407814E0,1.802958697E-1,-8.002793044E-2,-1.272990108E-1
3.697895522E0,1.952095628E-1,-1.023984700E-1,-1.400821656E-1
3.700383231E0,2.101232558E-1,-1.183774248E-1,-1.528653353E-1
3.702870939E0,2.261022031E-1,-1.290300637E-1,-1.667137593E-1
3.705358647E0,2.431464195E-1,-1.290300637E-1,-1.837579757E-1
3.707846356E0,2.623211741E-1,-1.215732098E-1,-2.008021921E-1
3.710334064E0,2.814959288E-1,-1.045289934E-1,-2.189116776E-1
3.712821772E0,3.017359376E-1,-8.109319210E-2,-2.402169555E-1
3.715309481E0,3.209106624E-1,-5.126581341E-2,-2.636527419E-1
3.717797189E0,3.390201628E-1,-1.930790395E-2,-2.881538272E-1
3.720284897E0,3.560643792E-1,1.478053257E-2,-3.147853911E-1
3.722772606E0,3.741738498E-1,4.460791498E-2,-3.446127772E-1
3.725260314E0,3.912180662E-1,7.123950869E-2,-3.755054474E-1
3.727748022E0,4.093275666E-1,9.361004084E-2,-4.063980877E-1
3.730235731E0,4.263717830E-1,1.106542572E-1,-4.383559823E-1
3.732723439E0,4.444812536E-1,1.213068962E-1,-4.703139067E-1
3.735211147E0,4.615254700E-1,1.276984811E-1,-5.022718310E-1
3.737698856E0,4.785696864E-1,1.308942735E-1,-5.320991874E-1
3.740186564E0,4.945486486E-1,1.298290044E-1,-5.619265437E-1
3.742674272E0,5.105276108E-1,1.276984811E-1,-5.885581374E-1
3.745161981E0,5.254412889E-1,1.223721579E-1,-6.151897311E-1
3.747649689E0,5.392897129E-1,1.149153188E-1,-6.418213248E-1
3.750137397E0,5.520728827E-1,1.053279415E-1,-6.684529185E-1
3.752625106E0,5.627255440E-1,9.361004084E-2,-6.940192580E-1
3.755112814E0,5.744433999E-1,7.976161689E-2,-7.217161059E-1
3.757600522E0,5.840308070E-1,6.484792382E-2,-7.483476996E-1
3.760088231E0,5.936181545E-1,4.993423447E-2,-7.749792933E-1
3.762575939E0,6.032055616E-1,3.715106845E-2,-7.994803786E-1
3.765063647E0,6.127929091E-1,2.649843320E-2,-8.229161501E-1
3.767551356E0,6.223802567E-1,1.904158667E-2,-8.452867270E-1
3.770039064E0,6.330329180E-1,1.691105962E-2,-8.644614220E-1
3.772526772E0,6.447508335E-1,1.904158667E-2,-8.815056682E-1
3.775014481E0,6.575340033E-1,2.543316968E-2,-8.974846005E-1
3.777502137E0,6.692518592E-1,3.502054140E-2,-9.123983383E-1
3.779989793E0,6.820350289E-1,4.886896908E-2,-9.283772707E-1
3.782477449E0,6.958834529E-1,6.271740049E-2,-9.454214573E-1
3.784965106E0,7.097318769E-1,7.763108611E-2,-9.645962119E-1
3.787452762E0,7.257108688E-1,9.147951752E-2,-9.859014750E-1
3.789940418E0,7.416898012E-1,1.053279415E-1,-1.009337306E0
3.792428074E0,7.576687932E-1,1.202416345E-1,-1.034903646E0
3.794915731E0,7.736477256E-1,1.383511126E-1,-1.061535239E0
3.797403387E0,7.874961495E-1,1.607216448E-1,-1.090297341E0
3.799891043E0,7.970834970E-1,1.873532385E-1,-1.117994189E0
3.802378699E0,8.034750819E-1,2.171806246E-1,-1.146756291E0
3.804866356E0,8.034750819E-1,2.512690723E-1,-1.173387885E0
3.807354012E0,8.002793193E-1,2.864227593E-1,-1.196823716E0
3.809841668E0,7.906919122E-1,3.215764761E-1,-1.217063665E0
3.812329324E0,7.768434882E-1,3.567301631E-1,-1.234107971E0
3.814816981E0,7.597993016E-1,3.886880577E-1,-1.245825887E0
3.817304637E0,7.384940386E-1,4.163849354E-1,-1.254347920E0
3.819792293E0,7.139929533E-1,4.376901984E-1,-1.259674311E0
3.822279949E0,6.884266138E-1,4.557996690E-1,-1.261804819E0
3.824767606E0,6.628602743E-1,4.696480930E-1,-1.259674311E0
3.827255262E0,6.394245028E-1,4.792354703E-1,-1.253282666E0
3.829742918E0,6.191844940E-1,4.877575934E-1,-1.244760513E0
3.832230574E0,6.032055616E-1,4.962796867E-1,-1.233042717E0
3.834718231E0,5.914876461E-1,5.048018098E-1,-1.218128920E0
3.837205887E0,5.829655528E-1,5.133239031E-1,-1.204280496E0
3.839693543E0,5.776392221E-1,5.207807422E-1,-1.190432072E0
3.842181199E0,5.744433999E-1,5.271723270E-1,-1.176583648E0
3.844668856E0,5.733781457E-1,5.324986577E-1,-1.164865732E0
3.847156512E0,5.733781457E-1,5.346291661E-1,-1.154213190E0
3.849644168E0,5.755086541E-1,5.335639119E-1,-1.143560529E0
3.852131824E0,5.776392221E-1,5.293028951E-1,-1.132907867E0
3.854619481E0,5.808349848E-1,5.207807422E-1,-1.122255206E0
3.857107137E0,5.850960612E-1,5.101281404E-1,-1.109472036E0
3.859594793E0,5.904223919E-1,4.962796867E-1,-1.093493104E0
3.862082449E0,5.946834087E-1,4.813660085E-1,-1.074318409E0
3.864570106E0,5.978792310E-1,4.664523304E-1,-1.051947832E0
3.867057762E0,5.989444852E-1,4.494080842E-1,-1.027446747E0
3.869545418E0,6.000097394E-1,4.323638678E-1,-9.986846447E-1
3.872033074E0,6.010749936E-1,4.153196514E-1,-9.688572884E-1
3.874520731E0,6.032055616E-1,3.982754350E-1,-9.379646182E-1
3.877008387E0,6.074665785E-1,3.822965026E-1,-9.049414396E-1
3.879496043E0,6.127929091E-1,3.684480488E-1,-8.751140833E-1
3.881983699E0,6.181192398E-1,3.545996249E-1,-8.463519812E-1
3.884471356E0,6.245108247E-1,3.439469934E-1,-8.197203875E-1
3.886959012E0,6.287718415E-1,3.332943618E-1,-7.973498106E-1
3.889446668E0,6.330329180E-1,3.247722387E-1,-7.781751156E-1
3.891934324E0,6.383592486E-1,3.162501454E-1,-7.590003610E-1
3.894421981E0,6.426202655E-1,3.066627681E-1,-7.398256063E-1
3.896909637E0,6.468813419E-1,2.981406748E-1,-7.206508517E-1
3.899397293E0,6.500771642E-1,2.874880135E-1,-7.014760971E-1
3.901884949E0,6.543381810E-1,2.725743353E-1,-6.791055799E-1
3.904372606E0,6.564686894E-1,2.555301189E-1,-6.567350626E-1
3.906860262E0,6.585992575E-1,2.363553643E-1,-6.343644857E-1
3.909347918E0,6.585992575E-1,2.118543088E-1,-6.119939685E-1
3.911835574E0,6.607297659E-1,1.841574460E-1,-5.906887054E-1
3.914323231E0,6.628602743E-1,1.532648057E-1,-5.704486966E-1
3.916810887E0,6.671213508E-1,1.213068962E-1,-5.512739420E-1
3.919298543E0,6.745781898E-1,8.934898674E-2,-5.331644416E-1
3.921786251E0,6.831002831E-1,5.952160433E-2,-5.150549412E-1
3.924273960E0,6.937529445E-1,3.289001435E-2,-4.958802164E-1
3.926761668E0,7.044056058E-1,1.158474199E-2,-4.756402075E-1
3.929249376E0,7.139929533E-1,-4.394212738E-3,-4.532696903E-1
3.931737085E0,7.235803008E-1,-1.611211337E-2,-4.287686050E-1
3.934224793E0,7.331677079E-1,-2.569948509E-2,-4.021370113E-1
3.936712501E0,7.416898012E-1,-3.315633163E-2,-3.723096550E-1
3.939200210E0,7.502118945E-1,-4.061317816E-2,-3.392864764E-1
3.941687918E0,7.619298100E-1,-4.593949392E-2,-3.041327596E-1
3.944175626E0,7.757782340E-1,-5.020054802E-2,-2.657832801E-1
3.946663335E0,7.938877344E-1,-5.339634046E-2,-2.274337858E-1
3.949151043E0,8.151929975E-1,-5.339634046E-2,-1.912148297E-1
3.951638751E0,8.407593369E-1,-5.339634046E-2,-1.560611278E-1
3.954126460E0,8.652604222E-1,-5.233107507E-2,-1.230379492E-1
3.956614168E0,8.897614479E-1,-5.020054802E-2,-9.427583218E-2
3.959101876E0,9.100014567E-1,-4.807002097E-2,-6.977476925E-2
3.961589585E0,9.259804487E-1,-4.700475931E-2,-4.633896798E-2
3.964077293E0,9.387635589E-1,-4.913528636E-2,-2.609895915E-2
3.966565001E0,9.462204576E-1,-5.339634046E-2,-5.858949851E-3
3.969052710E0,9.526119828E-1,-6.191844866E-2,1.544632297E-2
3.971540418E0,9.568730593E-1,-7.363634557E-2,3.781685978E-2
3.974028126E0,9.621993899E-1,-9.068056941E-2,6.231792271E-2
3.976515835E0,9.675257206E-1,-1.119858399E-1,8.894951642E-2
3.979003543E0,9.717867374E-1,-1.375521719E-1,1.187768951E-1
3.981491251E0,9.771130681E-1,-1.652490199E-1,1.507348120E-1
3.983978960E0,9.824393988E-1,-1.993374527E-1,1.858884990E-1
3.986466668E0,9.877657294E-1,-2.355564237E-1,2.221074700E-1
3.988954376E0,9.952225685E-1,-2.739059031E-1,2.615222335E-1
3.991442085E0,1.002679348E0,-3.133206666E-1,3.030675054E-1
3.993929793E0,1.010136247E0,-3.527354300E-1,3.467433155E-1
3.996417501E0,1.018658400E0,-3.889544010E-1,3.925496638E-1
3.998905210E0,1.027180433E0,-4.219775498E-1,4.415517747E-1
4.001392918E0,1.035702586E0,-4.496744275E-1,4.916191697E-1
4.003880626E0,1.046355247E0,-4.731102288E-1,5.427518487E-1
4.006368335E0,1.057007790E0,-4.922849536E-1,5.949497223E-1
4.008856043E0,1.066595197E0,-5.082638860E-1,6.503434777E-1
4.011343751E0,1.074052095E0,-5.167860389E-1,7.089329362E-1
4.013831460E0,1.079378366E0,-5.199818015E-1,7.685877085E-1
4.016319168E0,1.082574129E0,-5.167860389E-1,8.335688114E-1
4.018806876E0,1.078313112E0,-5.029376149E-1,9.028109312E-1
4.021294585E0,1.068725705E0,-4.773712754E-1,9.741836190E-1
4.023782293E0,1.053812027E0,-4.422175586E-1,1.045556307E0
4.026269949E0,1.032506824E0,-3.953459561E-1,1.110537291E0
4.028757606E0,1.009070992E0,-3.378217220E-1,1.169126868E0
4.031245262E0,9.867004752E-1,-2.707101107E-1,1.217063665E0
4.033733647E0,9.653951526E-1,-1.982721984E-1,1.254347920E0
4.036220678E0,9.462204576E-1,-1.258342713E-1,1.278849006E0
4.038707710E0,9.259804487E-1,-5.552686751E-2,1.291632175E0
4.041194793E0,9.036098719E-1,1.158474199E-2,1.295893192E0
4.043681928E0,8.791088462E-1,7.230477035E-2,1.293762684E0
4.046169116E0,8.492814302E-1,1.245026886E-1,1.287371159E0
4.048656408E0,8.141277432E-1,1.660479754E-1,1.277783751E0
4.051143803E0,7.757782340E-1,1.948100924E-1,1.268196344E0
4.053631303E0,7.310371995E-1,2.065279931E-1,1.257543683E0
4.056118908E0,6.841655970E-1,1.990711391E-1,1.246891141E0
4.058606616E0,6.351634264E-1,1.703090221E-1,1.237303734E0
4.061094428E0,5.850960612E-1,1.202416345E-1,1.229846835E0
4.063582345E0,5.360939503E-1,5.099949613E-2,1.226651073E0
4.066070314E0,4.892223179E-1,-3.528685868E-2,1.231977344E0
4.068558335E0,4.444812536E-1,-1.322258562E-1,1.249021649E0
4.071046408E0,4.071970284E-1,-2.334259003E-1,1.276718497E0
4.073534533E0,3.752391040E-1,-3.314301372E-1,1.318263769E0
4.076022658E0,3.507380486E-1,-4.187817574E-1,1.369396448E0
4.078510783E0,3.304980397E-1,-4.922849536E-1,1.430116415E0
4.080998908E0,3.155843616E-1,-5.487439036E-1,1.495097518E0
4.083486564E0,3.006706536E-1,-5.860281587E-1,1.562209129E0
4.085974220E0,2.857569754E-1,-6.041376591E-1,1.630385995E0
4.088461876E0,2.676474750E-1,-6.041376591E-1,1.694301844E0
4.090949533E0,2.484727502E-1,-5.838976502E-1,1.756087065E0
4.093437189E0,2.250369489E-1,-5.455481410E-1,1.814676642E0
4.095924845E0,2.005358785E-1,-4.890891612E-1,1.870070338E0
4.098412501E0,1.749695539E-1,-4.145207107E-1,1.924398780E0
4.100900158E0,1.472726911E-1,-3.271690905E-1,1.975531459E0
4.103387814E0,1.174453199E-1,-2.291648388E-1,2.024533510E0
4.105875470E0,8.655267209E-2,-1.268995255E-1,2.069274664E0
4.108363126E0,5.459476262E-2,-2.250369452E-2,2.109754562E0
4.110850783E0,2.157158963E-2,7.869634777E-2,2.144908428E0
4.113338439E0,-1.464737486E-2,1.724395454E-1,2.175801039E0
4.115826095E0,-5.512739345E-2,2.565953732E-1,2.200302124E0
4.118313751E0,-9.880319983E-2,3.311638236E-1,2.220541954E0
4.120801408E0,-1.478053331E-1,3.961449265E-1,2.234390497E0
4.123289064E0,-2.000032514E-1,4.504733682E-1,2.242912531E0
4.125776720E0,-2.553969622E-1,4.941491783E-1,2.247173548E0
4.128264376E0,-3.129211962E-1,5.271723270E-1,2.247173548E0
4.130752033E0,-3.715106845E-1,5.495429039E-1,2.243977785E0
4.133239689E0,-4.322307110E-1,5.623260736E-1,2.237586260E0
4.135727345E0,-4.940160215E-1,5.633913279E-1,2.230129480E0
4.138215001E0,-5.558013320E-1,5.548691750E-1,2.223737955E0
4.140702658E0,-6.175866127E-1,5.367597342E-1,2.217346191E0
4.143190314E0,-6.772413850E-1,5.133239031E-1,2.213085175E0
4.145677970E0,-7.315698266E-1,4.856270552E-1,2.210954666E0
4.148165626E0,-7.805719376E-1,4.579302073E-1,2.209889412E0
4.150653283E0,-8.242477179E-1,4.334291518E-1,2.209889412E0
4.153140939E0,-8.625972271E-1,4.142543972E-1,2.210954666E0
4.155628595E0,-8.934898973E-1,4.036017656E-1,2.210954666E0
4.158116251E0,-9.201214910E-1,4.046670198E-1,2.210954666E0
4.160603908E0,-9.414267540E-1,4.195807278E-1,2.208824158E0
4.163091564E0,-9.595362544E-1,4.472775757E-1,2.202432632E0
4.165579220E0,-9.744499326E-1,4.877575934E-1,2.191779852E0
4.168066876E0,-9.851025343E-1,5.367597342E-1,2.174735785E0
4.170554533E0,-9.936246872E-1,5.910881758E-1,2.151299953E0
4.173042189E0,-9.978857040E-1,6.454166174E-1,2.121472597E0
4.175529845E0,-9.978857040E-1,6.954839826E-1,2.082057714E0
4.178017501E0,-9.914941192E-1,7.370292544E-1,2.036251545E0
4.180505158E0,-9.787109494E-1,7.647261620E-1,1.985118747E0
4.182992814E0,-9.574056864E-1,7.775092721E-1,1.928659797E0
4.185480470E0,-9.307740927E-1,7.753787637E-1,1.866874576E0
4.187968126E0,-8.977509141E-1,7.572692633E-1,1.801893473E0
4.190455783E0,-8.594014645E-1,7.221155763E-1,1.731586099E0
4.192943439E0,-8.178561330E-1,6.709829569E-1,1.658082843E0
4.195431095E0,-7.720498443E-1,6.038713455E-1,1.580318570E0
4.197918751E0,-7.230476737E-1,5.239765644E-1,1.498293281E0
4.200406408E0,-6.719150543E-1,4.312986135E-1,1.412006974E0
4.202894064E0,-6.186518669E-1,3.279680312E-1,1.322524786E0
4.205381720E0,-5.643234253E-1,2.182458937E-1,1.233042717E0
4.207869376E0,-5.089297295E-1,1.010668874E-1,1.143560529E0
4.210357033E0,-4.535360038E-1,-1.930790395E-2,1.056208849E0
4.212844689E0,-3.970770240E-1,-1.396826953E-1,9.731183648E-1
4.215332345E0,-3.395527899E-1,-2.557964325E-1,8.932235837E-1
4.217820001E0,-2.830938101E-1,-3.665838540E-1,8.186551332E-1
4.220307658E0,-2.266348451E-1,-4.667186439E-1,7.504782081E-1
4.222795366E0,-1.712411344E-1,-5.572660565E-1,6.844319105E-1
4.225283074E0,-1.169126853E-1,-6.350302696E-1,6.226465702E-1
4.227770783E0,-6.364950538E-2,-7.000113726E-1,5.608612895E-1
4.230258491E0,-1.038632076E-2,-7.500787377E-1,5.012065172E-1
4.232746199E0,4.181159660E-2,-7.862977386E-1,4.404865205E-1
4.235233908E0,9.294424951E-2,-8.065377474E-1,3.787012100E-1
4.237721616E0,1.430116445E-1,-8.118640780E-1,3.147853911E-1
4.240209324E0,1.930790395E-1,-8.022766709E-1,2.476737946E-1
4.242697033E0,2.420811653E-1,-7.799061537E-1,1.763011366E-1
4.245184741E0,2.900180221E-1,-7.468829751E-1,1.017326787E-1
4.247672449E0,3.347590864E-1,-7.064029574E-1,2.290316857E-2
4.250160158E0,3.763043880E-1,-6.627271175E-1,-5.805686861E-2
4.252647866E0,4.167844057E-1,-6.179860830E-1,-1.390169114E-1
4.255135574E0,4.561991692E-1,-5.775060654E-1,-2.189116776E-1
4.257623283E0,4.934833944E-1,-5.423523784E-1,-2.956106663E-1
4.260110991E0,5.297023654E-1,-5.167860389E-1,-3.691138625E-1
4.262598699E0,5.627255440E-1,-5.018723607E-1,-4.362254739E-1
4.265086408E0,5.936181545E-1,-4.965460002E-1,-4.990760088E-1
4.267574116E0,6.234455705E-1,-5.018723607E-1,-5.566002727E-1
4.270061824E0,6.500771642E-1,-5.167860389E-1,-6.087981462E-1
4.272549533E0,6.745781898E-1,-5.391565561E-1,-6.556697488E-1
4.275037241E0,6.969487667E-1,-5.689839721E-1,-6.993455887E-1
4.277524949E0,7.150582075E-1,-6.030724049E-1,-7.387603521E-1
4.280012658E0,7.289066315E-1,-6.424871087E-1,-7.749792933E-1
4.282500366E0,7.395592928E-1,-6.829671264E-1,-8.069372177E-1
4.284988074E0,7.480813861E-1,-7.234471440E-1,-8.346340656E-1
4.287475783E0,7.534077168E-1,-7.607313991E-1,-8.570045829E-1
4.289963491E0,7.576687932E-1,-7.916240692E-1,-8.751140833E-1
4.292451199E0,7.576687932E-1,-8.118640780E-1,-8.900277615E-1
4.294938908E0,7.544729710E-1,-8.214514256E-1,-8.996151686E-1
4.297426616E0,7.502118945E-1,-8.182556629E-1,-9.049414396E-1
4.299914324E0,7.438203096E-1,-8.054724932E-1,-9.060067534E-1
4.302402033E0,7.363634706E-1,-7.820366621E-1,-9.060067534E-1
4.304889741E0,7.299718857E-1,-7.522093058E-1,-9.038761854E-1
4.307377449E0,7.214497924E-1,-7.170555592E-1,-9.028109312E-1
4.309865158E0,7.107971907E-1,-6.797713637E-1,-9.049414396E-1
4.312352866E0,6.980140209E-1,-6.424871087E-1,-9.102677703E-1
4.314840574E0,6.841655970E-1,-6.073334217E-1,-9.209204316E-1
4.317328283E0,6.692518592E-1,-5.743102431E-1,-9.347688556E-1
4.319815991E0,6.543381810E-1,-5.444828868E-1,-9.539436102E-1
4.322303699E0,6.372939944E-1,-5.157207847E-1,-9.773793817E-1
4.324791408E0,6.191844940E-1,-4.901544452E-1,-1.005076289E0
4.327279116E0,5.968139768E-1,-4.677838981E-1,-1.034903646E0
4.329766824E0,5.723128915E-1,-4.464786351E-1,-1.066861510E0
4.332254481E0,5.446160436E-1,-4.304996729E-1,-1.098819494E0
4.334742137E0,5.147886276E-1,-4.187817574E-1,-1.130777359E0
4.337229793E0,4.838960171E-1,-4.113249183E-1,-1.161669970E0
4.339717449E0,4.530033767E-1,-4.081291258E-1,-1.189366817E0
4.342205106E0,4.221107066E-1,-4.081291258E-1,-1.215998411E0
4.344692762E0,3.922833502E-1,-4.123901725E-1,-1.239434242E0
4.347180418E0,3.635212183E-1,-4.187817574E-1,-1.260739565E0
4.349668074E0,3.347590864E-1,-4.262386262E-1,-1.279914260E0
4.352155731E0,3.059969842E-1,-4.347607195E-1,-1.294827938E0
4.354643387E0,2.761695981E-1,-4.411523044E-1,-1.306545854E0
4.357131043E0,2.474074811E-1,-4.454133511E-1,-1.314002752E0
4.359618699E0,2.197106332E-1,-4.464786351E-1,-1.318263769E0
4.362106356E0,1.930790395E-1,-4.422175586E-1,-1.318263769E0
4.364594012E0,1.664474458E-1,-4.347607195E-1,-1.314002752E0
4.367081668E0,1.430116445E-1,-4.230428338E-1,-1.307611108E0
4.369569324E0,1.206411049E-1,-4.070638716E-1,-1.299088955E0
4.372056981E0,1.014663652E-1,-3.868238628E-1,-1.290566921E0
4.374544637E0,8.229161799E-2,-3.623228073E-1,-1.284175277E0
4.377032293E0,6.311687082E-2,-3.324954212E-1,-1.279914260E0
4.379519949E0,4.394212365E-2,-3.005374968E-1,-1.278849006E0
4.382007606E0,2.583264373E-2,-2.664490640E-1,-1.282044768E0
4.384495262E0,6.657897960E-3,-2.334259003E-1,-1.288436413E0
4.386982918E0,-1.145158429E-2,-2.025332451E-1,-1.296958447E0
4.389470574E0,-2.849580161E-2,-1.759016514E-1,-1.304415345E0
4.391958231E0,-4.447475821E-2,-1.545963883E-1,-1.312937379E0
4.394445887E0,-6.045371294E-2,-1.407479644E-1,-1.318263769E0
4.396933543E0,-7.323687524E-2,-1.364869028E-1,-1.322524786E0
4.399421199E0,-8.388951421E-2,-1.428784877E-1,-1.326785922E0
4.401908856E0,-9.241162241E-2,-1.599227041E-1,-1.329981685E0
4.404396512E0,-9.773793817E-2,-1.886848211E-1,-1.333177447E0
4.406884168E0,-9.986846894E-2,-2.302301079E-1,-1.338503718E0
4.409371824E0,-9.986846894E-2,-2.824280262E-1,-1.345960617E0
4.411859481E0,-9.880319983E-2,-3.442133069E-1,-1.355548024E0
4.414347137E0,-9.667267650E-2,-4.134554565E-1,-1.367265940E0
4.416834793E0,-9.347688407E-2,-4.869586527E-1,-1.378983736E0
4.419322449E0,-9.028109163E-2,-5.604618192E-1,-1.387505889E0
4.421810106E0,-8.602003753E-2,-6.328997612E-1,-1.391766906E0
4.424297762E0,-8.388951421E-2,-7.010766268E-1,-1.388571143E0
4.426785418E0,-8.175898343E-2,-7.607313991E-1,-1.378983736E0
4.429273074E0,-8.282424510E-2,-8.086682558E-1,-1.359809041E0
4.431760731E0,-8.708529919E-2,-8.427566886E-1,-1.333177447E0
4.434248387E0,-9.347688407E-2,-8.608661890E-1,-1.296958447E0
4.436736043E0,-1.019989923E-1,-8.598009348E-1,-1.252217412E0
4.439223699E0,-1.147821546E-1,-8.395609260E-1,-1.200019479E0
4.441711356E0,-1.296958476E-1,-7.980156541E-1,-1.143560529E0
4.444199012E0,-1.467400640E-1,-7.362303138E-1,-1.081775188E0
4.446686668E0,-1.637842804E-1,-6.552702785E-1,-1.021055222E0
4.449174324E0,-1.829590350E-1,-5.593965650E-1,-9.635309577E-1
4.451661981E0,-2.021337748E-1,-4.496744275E-1,-9.113330245E-1
4.454149637E0,-2.213085145E-1,-3.324954212E-1,-8.676572442E-1
4.456637293E0,-2.394180000E-1,-2.099900991E-1,-8.346340656E-1
4.459124949E0,-2.564622164E-1,-8.748477697E-2,-8.122635484E-1
4.461612606E0,-2.713759243E-1,3.075948730E-2,-7.984151244E-1
4.464100262E0,-2.862896025E-1,1.436774284E-1,-7.909582257E-1
4.466587918E0,-3.001380265E-1,2.448774725E-1,-7.888277173E-1
4.469075574E0,-3.150517344E-1,3.300985694E-1,-7.898929715E-1
4.471563283E0,-3.320959508E-1,3.961449265E-1,-7.930887938E-1
4.474050991E0,-3.480748832E-1,4.398207366E-1,-7.973498106E-1
4.476538699E0,-3.640538454E-1,4.568649530E-1,-8.048067093E-1
4.479026408E0,-3.768370152E-1,4.451470375E-1,-8.154593110E-1
4.481514116E0,-3.864243925E-1,4.067975581E-1,-8.271772265E-1
4.484001824E0,-3.885549009E-1,3.418164849E-1,-8.410256505E-1
4.486489533E0,-3.842938542E-1,2.555301189E-1,-8.538088202E-1
4.488977241E0,-3.747064769E-1,1.532648057E-1,-8.655267358E-1
4.491464949E0,-3.597927988E-1,4.141212255E-2,-8.729835749E-1
4.493952970E0,-3.438138366E-1,-7.257108390E-2,-8.719182611E-1
4.496440991E0,-3.267696202E-1,-1.833585054E-1,-8.644614220E-1
4.498929012E0,-3.107906580E-1,-2.834932804E-1,-8.463519812E-1
4.501416668E0,-2.948117256E-1,-3.697796464E-1,-8.197203875E-1
4.503904324E0,-2.788327634E-1,-4.379565120E-1,-7.856319547E-1
4.506391981E0,-2.617885470E-1,-4.837628603E-1,-7.430213690E-1
4.508879637E0,-2.458095849E-1,-5.040028691E-1,-6.940192580E-1
4.511367293E0,-2.308958918E-1,-4.976112843E-1,-6.386255622E-1
4.513854949E0,-2.159821987E-1,-4.645881057E-1,-5.789707899E-1
4.516342606E0,-2.053295672E-1,-4.038680792E-1,-5.171855092E-1
4.518830262E0,-1.957421899E-1,-3.197122514E-1,-4.564654827E-1
4.521317918E0,-1.893506050E-1,-2.142511457E-1,-3.978759646E-1
4.523805574E0,-1.872200817E-1,-9.387636185E-2,-3.478085697E-1
4.526293231E0,-1.893506050E-1,3.502054140E-2,-3.073285520E-1
4.528780887E0,-1.957421899E-1,1.671132296E-1,-2.796317041E-1
4.531268543E0,-2.042642981E-1,2.970753908E-1,-2.636527419E-1
4.533756199E0,-2.149169445E-1,4.206459820E-1,-2.604569495E-1
4.536243856E0,-2.266348451E-1,5.335639119E-1,-2.679138184E-1
4.538731512E0,-2.394180000E-1,6.336987019E-1,-2.806969583E-1
4.541219168E0,-2.532664239E-1,7.210503221E-1,-2.945453823E-1
4.543706824E0,-2.692453861E-1,7.934882641E-1,-3.094590902E-1
4.546194481E0,-2.862896025E-1,8.488819599E-1,-3.222422600E-1
4.548682137E0,-3.054643571E-1,8.861662149E-1,-3.350254297E-1
4.551169793E0,-3.267696202E-1,9.021451473E-1,-3.478085697E-1
4.553657449E0,-3.491401672E-1,8.946883082E-1,-3.648527861E-1
4.556145106E0,-3.704454303E-1,8.627303839E-1,-3.872233331E-1
4.558632762E0,-3.885549009E-1,8.105324507E-1,-4.138549268E-1
4.561120418E0,-4.034686089E-1,7.370292544E-1,-4.458128214E-1
4.563608074E0,-4.130559862E-1,6.486123800E-1,-4.799012840E-1
4.566095731E0,-4.194475710E-1,5.484775901E-1,-5.118591785E-1
4.568583387E0,-4.215780795E-1,4.430165291E-1,-5.395560265E-1
4.571071043E0,-4.194475710E-1,3.386206925E-1,-5.576655269E-1
4.573558699E0,-4.130559862E-1,2.374206334E-1,-5.661876202E-1
4.576046356E0,-4.034686089E-1,1.468732208E-1,-5.640571117E-1
4.578534012E0,-3.906854391E-1,6.591318548E-2,-5.502086878E-1
4.581021668E0,-3.757717609E-1,-1.198421582E-3,-5.278381109E-1
4.583509324E0,-3.597927988E-1,-5.446160212E-2,-5.001412630E-1
4.585996981E0,-3.438138366E-1,-9.387636185E-2,-4.681833684E-1
4.588484637E0,-3.267696202E-1,-1.194426864E-1,-4.362254739E-1
4.590972293E0,-3.086601496E-1,-1.311605871E-1,-4.074633420E-1
4.593459949E0,-2.894853950E-1,-1.258342713E-1,-3.808317482E-1
4.595947606E0,-2.703106403E-1,-1.045289934E-1,-3.584612012E-1
4.598435262E0,-2.511359155E-1,-6.831002980E-2,-3.403517306E-1
4.600922918E0,-2.351569533E-1,-1.930790395E-2,-3.275685608E-1
4.603410574E0,-2.223737836E-1,4.141212255E-2,-3.190464675E-1
4.605898231E0,-2.149169445E-1,1.117195264E-1,-3.169159293E-1
4.608385887E0,-2.127864063E-1,1.884185076E-1,-3.190464675E-1
4.610873543E0,-2.149169445E-1,2.693785429E-1,-3.254380524E-1
4.613361199E0,-2.213085145E-1,3.514038324E-1,-3.350254297E-1
4.615848856E0,-2.298306376E-1,4.302333593E-1,-3.456780612E-1
4.618336512E0,-2.404832691E-1,5.026713014E-1,-3.573959470E-1
4.620824168E0,-2.532664239E-1,5.665870905E-1,-3.669833243E-1
4.623311824E0,-2.660495937E-1,6.187850237E-1,-3.755054474E-1
4.625799481E0,-2.798980176E-1,6.571345329E-1,-3.808317482E-1
4.628287137E0,-2.937464416E-1,6.795050502E-1,-3.840275407E-1
4.630774793E0,-3.086601496E-1,6.848313808E-1,-3.850927949E-1
4.633262449E0,-3.257043660E-1,6.752439737E-1,-3.829622865E-1
4.635750158E0,-3.416832983E-1,6.475471258E-1,-3.808317482E-1
4.638237866E0,-3.587275445E-1,6.060018539E-1,-3.765707016E-1
4.640725574E0,-3.747064769E-1,5.538039207E-1,-3.712443709E-1
4.643213283E0,-3.896201849E-1,4.920186400E-1,-3.637875319E-1
4.645700991E0,-4.024033546E-1,4.270375669E-1,-3.531349003E-1
4.648188699E0,-4.151864946E-1,3.609912097E-1,-3.382211924E-1
4.650676408E0,-4.247738719E-1,2.981406748E-1,-3.179811835E-1
4.653164116E0,-4.354265034E-1,2.427469492E-1,-2.892190814E-1
4.655651824E0,-4.460791349E-1,1.937448233E-1,-2.530001104E-1
4.658139533E0,-4.556665123E-1,1.543300748E-1,-2.071937770E-1
4.660627241E0,-4.641886353E-1,1.223721579E-1,-1.549958587E-1
4.663114949E0,-4.695149362E-1,1.000016257E-1,-9.853688627E-2
4.665602658E0,-4.737760127E-1,8.508793265E-2,-3.994738683E-2
4.668090366E0,-4.759065211E-1,7.763108611E-2,1.757685095E-2
4.670578074E0,-4.791023135E-1,7.763108611E-2,7.084003091E-2
4.673065783E0,-4.822981060E-1,8.508793265E-2,1.187768951E-1
4.675553491E0,-4.865591824E-1,1.010668874E-1,1.613874435E-1
4.678041199E0,-4.908202291E-1,1.245026886E-1,1.986716688E-1
4.680528908E0,-4.961465299E-1,1.564605981E-1,2.327601016E-1
4.683016616E0,-5.004075766E-1,1.948100924E-1,2.647180259E-1
4.685504324E0,-5.036033988E-1,2.363553643E-1,2.945453823E-1
4.687992033E0,-5.078644156E-1,2.768353820E-1,3.211769760E-1
4.690479741E0,-5.131907463E-1,3.151848912E-1,3.446127772E-1
4.692967449E0,-5.174518228E-1,3.482080400E-1,3.637875319E-1
4.695455158E0,-5.217128396E-1,3.748396337E-1,3.776359558E-1
4.697942866E0,-5.249086618E-1,3.940143883E-1,3.882885873E-1
4.700430574E0,-5.291697383E-1,4.046670198E-1,3.978759646E-1
4.702918283E0,-5.323655009E-1,4.078628123E-1,4.063980877E-1
4.705405991E0,-5.366265774E-1,4.025365114E-1,4.170507193E-1
4.707893699E0,-5.430181623E-1,3.865575492E-1,4.298338890E-1
4.710381408E0,-5.483444333E-1,3.588607013E-1,4.436823130E-1
4.712869116E0,-5.547360182E-1,3.183806837E-1,4.596612751E-1
4.715356824E0,-5.621928573E-1,2.651174963E-1,4.724444151E-1
4.717844533E0,-5.685844421E-1,2.012016773E-1,4.841623306E-1
4.720332241E0,-5.728455186E-1,1.308942735E-1,4.905539155E-1
4.722819949E0,-5.749760270E-1,5.845634267E-2,4.937497079E-1
4.725307658E0,-5.739107728E-1,-7.590003312E-3,4.958802164E-1
4.727795366E0,-5.717802644E-1,-6.191844866E-2,4.980107546E-1
4.730283074E0,-5.664539337E-1,-9.707214683E-2,5.001412630E-1
4.732770783E0,-5.600623488E-1,-1.109205782E-1,5.054675937E-1
4.735258491E0,-5.547360182E-1,-1.002679393E-1,5.139896870E-1
4.737746199E0,-5.504750013E-1,-6.724476814E-2,5.246423483E-1
4.740233908E0,-5.504750013E-1,-1.504684892E-2,5.374255180E-1
4.742721616E0,-5.526055098E-1,5.099949613E-2,5.470128655E-1
4.745209324E0,-5.589970946E-1,1.287637353E-1,5.544697046E-1
4.747696981E0,-5.664539337E-1,2.107890397E-1,5.608612895E-1
4.750184637E0,-5.749760270E-1,2.938795984E-1,5.651223660E-1
4.752672293E0,-5.845634341E-1,3.748396337E-1,5.672528744E-1
4.755159949E0,-5.941507816E-1,4.526038766E-1,5.693834424E-1
4.757647606E0,-6.037381887E-1,5.250418186E-1,5.704486966E-1
4.760135262E0,-6.133255363E-1,5.900229216E-1,5.704486966E-1
4.762622918E0,-6.239781976E-1,6.464818716E-1,5.683181286E-1
4.765110574E0,-6.356960535E-1,6.912229657E-1,5.651223660E-1
4.767598231E0,-6.484792233E-1,7.253113985E-1,5.587307811E-1
4.770085887E0,-6.591318846E-1,7.444861531E-1,5.480781198E-1
4.772573543E0,-6.676539779E-1,7.476819158E-1,5.342296958E-1
4.775061199E0,-6.729803085E-1,7.317029834E-1,5.182507634E-1
4.777548856E0,-6.729803085E-1,6.965492368E-1,5.022718310E-1
4.780036512E0,-6.708498001E-1,6.390250325E-1,4.852275848E-1
4.782524168E0,-6.676539779E-1,5.601955056E-1,4.692486227E-1
4.785011824E0,-6.655234694E-1,4.589954615E-1,4.554001987E-1
4.787499481E0,-6.623276472E-1,3.354249001E-1,4.436823130E-1
4.789987137E0,-6.601971388E-1,1.958753467E-1,4.330296814E-1
4.792474793E0,-6.591318846E-1,4.460791498E-2,4.245075583E-1
4.794962449E0,-6.559360623E-1,-1.119858399E-1,4.170507193E-1
4.797450106E0,-6.527402997E-1,-2.653838098E-1,4.117243886E-1
4.799937762E0,-6.484792233E-1,-4.091944098E-1,4.074633420E-1
4.802425418E0,-6.420876384E-1,-5.348954797E-1,4.063980877E-1
4.804913074E0,-6.346307993E-1,-6.350302696E-1,4.063980877E-1
4.807400731E0,-6.250434518E-1,-7.053377032E-1,4.074633420E-1
4.809888387E0,-6.154560447E-1,-7.404913902E-1,4.106591344E-1
4.812376043E0,-6.069339514E-1,-7.404913902E-1,4.149201810E-1
4.814863699E0,-5.984118581E-1,-7.064029574E-1,4.202465117E-1
4.817351356E0,-5.920202732E-1,-6.382260919E-1,4.255728126E-1
4.819839012E0,-5.877591968E-1,-5.380913019E-1,4.319643974E-1
4.822326668E0,-5.845634341E-1,-4.134554565E-1,4.394212663E-1
4.824814324E0,-5.834981799E-1,-2.696448565E-1,4.468781054E-1
4.827301981E0,-5.834981799E-1,-1.141163707E-1,4.543349445E-1
4.829789637E0,-5.834981799E-1,4.460791498E-2,4.628570378E-1
4.832277293E0,-5.856286883E-1,1.990711391E-1,4.713791609E-1
4.834764949E0,-5.898897648E-1,3.439469934E-1,4.809665382E-1
4.837252606E0,-5.952160358E-1,4.717786312E-1,4.916191697E-1
4.839740262E0,-6.026729345E-1,5.772397518E-1,5.022718310E-1
4.842227918E0,-6.133255363E-1,6.550039649E-1,5.150549412E-1
4.844715574E0,-6.271739602E-1,7.040061355E-1,5.278381109E-1
4.847203231E0,-6.442182064E-1,7.221155763E-1,5.395560265E-1
4.849690887E0,-6.644582152E-1,7.103977203E-1,5.523391962E-1
4.852178543E0,-6.857634783E-1,6.709829569E-1,5.661876202E-1
4.854666199E0,-7.049382329E-1,6.070671082E-1,5.832318664E-1
4.857153856E0,-7.219824195E-1,5.229113102E-1,6.034718752E-1
4.859641512E0,-7.358308434E-1,4.259723127E-1,6.279729009E-1
4.862129168E0,-7.464835048E-1,3.173153996E-1,6.567350626E-1
4.864616824E0,-7.539403439E-1,2.033322006E-1,6.876276731E-1
4.867104481E0,-7.592666745E-1,8.934898674E-2,7.206508517E-1
4.869592137E0,-7.624624372E-1,-2.250369452E-2,7.515435219E-1
4.872079793E0,-7.645930052E-1,-1.279647946E-1,7.803056240E-1
4.874567449E0,-7.645930052E-1,-2.227732539E-1,8.058719635E-1
4.877055158E0,-7.624624372E-1,-3.016027808E-1,8.261119723E-1
4.879542866E0,-7.582014203E-1,-3.612575233E-1,8.420909047E-1
4.882030574E0,-7.507445216E-1,-3.985417485E-1,8.538088202E-1
4.884518283E0,-7.400919199E-1,-4.113249183E-1,8.623309135E-1
4.887005991E0,-7.273087502E-1,-3.985417485E-1,8.697877526E-1
4.889493699E0,-7.102645040E-1,-3.580617309E-1,8.761793375E-1
4.891981408E0,-6.900244951E-1,-2.920154035E-1,8.815056682E-1
4.894469116E0,-6.665887237E-1,-2.035985142E-1,8.847014308E-1
4.896956824E0,-6.399571300E-1,-9.707214683E-2,8.857667446E-1
4.899444533E0,-6.111950278E-1,1.904158667E-2,8.815056682E-1
4.901932241E0,-5.824328661E-1,1.351553202E-1,8.697877526E-1
4.904419949E0,-5.558013320E-1,2.427469492E-1,8.495477438E-1
4.906907658E0,-5.334307551E-1,3.343596160E-1,8.207856417E-1
4.909395366E0,-5.163865685E-1,4.014712274E-1,7.824361324E-1
4.911883074E0,-5.057339072E-1,4.366249442E-1,7.366297841E-1
4.914370783E0,-5.014728308E-1,4.376901984E-1,6.854971647E-1
4.916858491E0,-5.025381446E-1,4.046670198E-1,6.322339773E-1
4.919346199E0,-5.078644156E-1,3.418164849E-1,5.800360441E-1
4.921833908E0,-5.174518228E-1,2.512690723E-1,5.331644416E-1
4.924321616E0,-5.313002467E-1,1.426121742E-1,4.937497079E-1
4.926809324E0,-5.483444333E-1,2.330264263E-2,4.660528302E-1
4.929297033E0,-5.675191879E-1,-9.707214683E-2,4.522044063E-1
4.931784741E0,-5.888244510E-1,-2.110553533E-1,4.500738978E-1
4.934272449E0,-6.122602820E-1,-3.111901283E-1,4.596612751E-1
4.936760158E0,-6.335655451E-1,-3.921501637E-1,4.799012840E-1
4.939247866E0,-6.538055539E-1,-4.507396817E-1,5.086634159E-1
4.941735574E0,-6.697844863E-1,-4.858933687E-1,5.416865349E-1
4.944223283E0,-6.804371476E-1,-4.976112843E-1,5.768402815E-1
4.946710991E0,-6.857634783E-1,-4.858933687E-1,6.098634601E-1
4.949198699E0,-6.836329699E-1,-4.539354742E-1,6.386255622E-1
4.951686408E0,-6.761760712E-1,-4.028028250E-1,6.620613337E-1
4.954174116E0,-6.644582152E-1,-3.378217220E-1,6.780403256E-1
4.956661824E0,-6.506097913E-1,-2.611227632E-1,6.854971647E-1
4.959149533E0,-6.346307993E-1,-1.769669205E-1,6.844319105E-1
4.961637241E0,-6.197171211E-1,-8.748477697E-2,6.748445034E-1
4.964124949E0,-6.037381887E-1,4.127896391E-3,6.588655710E-1
4.966612658E0,-5.877591968E-1,9.574057162E-2,6.375603080E-1
4.969100366E0,-5.717802644E-1,1.852227151E-1,6.130592227E-1
4.971588074E0,-5.547360182E-1,2.736395895E-1,5.874928832E-1
4.974075783E0,-5.366265774E-1,3.567301631E-1,5.608612895E-1
4.976563491E0,-5.174518228E-1,4.366249442E-1,5.342296958E-1
4.979051199E0,-4.961465299E-1,5.101281404E-1,5.075981021E-1
4.981538908E0,-4.737760127E-1,5.740439296E-1,4.852275848E-1
4.984026616E0,-4.492749274E-1,6.273071170E-1,4.617917836E-1
4.986514324E0,-4.247738719E-1,6.667218804E-1,4.383559823E-1
4.989002033E0,-4.002728164E-1,6.901576519E-1,4.138549268E-1
4.991489689E0,-3.768370152E-1,6.944187284E-1,3.882885873E-1
4.993977345E0,-3.565970063E-1,6.805703044E-1,3.616569936E-1
4.996465001E0,-3.374222517E-1,6.486123800E-1,3.339601457E-1
