"Time (s)","Acceleration x (m/s^2)","Acceleration y (m/s^2)","Acceleration z (m/s^2)"
5.096864700E-2,-5.626374111E-2,-9.239823341E0,3.286041915E-1
5.345635600E-2,-1.233013868E-1,-9.297284126E0,2.615665495E-1
5.594401200E-2,-1.999158412E-1,-9.306860924E0,1.801636815E-1
5.843166800E-2,-2.430114746E-1,-9.302072525E0,1.179144308E-1
6.091932400E-2,-2.956839204E-1,-9.268553734E0,1.035492271E-1
6.340698100E-2,-3.339911401E-1,-9.215881348E0,9.876082093E-2
6.589463700E-2,-3.435679376E-1,-9.158419609E0,1.035492271E-1
6.838229300E-2,-3.483563364E-1,-9.096170425E0,1.418564469E-1
7.086994900E-2,-3.531447649E-1,-9.014767647E0,1.801636815E-1
7.335760600E-2,-3.483563364E-1,-8.933364868E0,1.993172914E-1
7.584526200E-2,-3.627215624E-1,-8.866327286E0,2.472013235E-1
7.833291800E-2,-3.770867586E-1,-8.789712906E0,2.855085433E-1
8.082057400E-2,-3.866635859E-1,-8.760982513E0,3.429693878E-1
8.330823100E-2,-4.058171809E-1,-8.727463722E0,3.764882088E-1
8.579588700E-2,-4.058171809E-1,-8.727463722E0,3.956418335E-1
8.828354300E-2,-3.818751574E-1,-8.741828918E0,3.764882088E-1
9.077119900E-2,-3.914519846E-1,-8.794501305E0,3.764882088E-1
9.325885600E-2,-4.058171809E-1,-8.866327286E0,3.381809890E-1
9.574651200E-2,-3.914519846E-1,-8.938153267E0,2.902969420E-1
9.823416800E-2,-3.531447649E-1,-9.019556046E0,2.424129248E-1
1.007218240E-1,-3.100491166E-1,-9.091382027E0,1.753752679E-1
1.032094810E-1,-2.382230759E-1,-9.134477615E0,1.610100716E-1
1.056971370E-1,-1.663970202E-1,-9.196727753E0,1.849520802E-1
1.081847930E-1,-1.041477770E-1,-9.220669746E0,2.280477136E-1
1.106724490E-1,-6.584054977E-2,-9.206304550E0,2.615665495E-1
1.131601060E-1,-3.232172132E-2,-9.172784805E0,3.142389655E-1
1.156477620E-1,-1.795651205E-2,-9.139266014E0,3.573346138E-1
1.181354180E-1,-2.753331885E-2,-9.100958824E0,3.812766075E-1
1.206230740E-1,-1.316810958E-2,-9.062651634E0,4.147954583E-1
1.231107310E-1,-3.591302549E-3,-9.019556046E0,4.483142793E-1
1.255983870E-1,-1.316810958E-2,-9.000402451E0,4.818331003E-1
1.280860430E-1,-2.753331885E-2,-8.981248856E0,5.345055461E-1
1.305736990E-1,-1.316810958E-2,-8.957306862E0,5.680243373E-1
1.330613560E-1,-2.274491638E-2,-8.952518463E0,6.206967831E-1
1.355490120E-1,-7.062894851E-2,-8.966883659E0,6.446388364E-1
1.380366680E-1,-1.137245819E-1,-8.990825653E0,6.350619793E-1
1.405243240E-1,-1.376665980E-1,-9.019556046E0,6.206967831E-1
1.430119810E-1,-1.568202078E-1,-9.057863235E0,5.919663906E-1
1.454996370E-1,-1.855506301E-1,-9.110535622E0,5.440823436E-1
1.479872930E-1,-2.047042400E-1,-9.153631210E0,5.105634928E-1
1.504749490E-1,-2.190694511E-1,-9.206304550E0,4.674678743E-1
1.529626060E-1,-2.238578647E-1,-9.254188538E0,4.052186310E-1
1.554502620E-1,-2.142810524E-1,-9.311649323E0,3.381809890E-1
1.579379180E-1,-2.525882721E-1,-9.330802917E0,2.807201445E-1
1.604255740E-1,-2.621650994E-1,-9.369110107E0,2.041056901E-1
1.629132310E-1,-2.765302956E-1,-9.388263702E0,1.562216580E-1
1.654008870E-1,-2.765302956E-1,-9.369110107E0,1.227028370E-1
1.678885430E-1,-3.052607179E-1,-9.345168114E0,7.960720360E-2
1.703761990E-1,-3.339911401E-1,-9.316437721E0,7.481880486E-2
1.728638560E-1,-3.722983599E-1,-9.297284126E0,6.524199992E-2
1.753515120E-1,-4.249708056E-1,-9.244611740E0,5.087678507E-2
1.778391680E-1,-4.728548229E-1,-9.187150002E0,5.087678507E-2
1.803268240E-1,-5.159504414E-1,-9.144054413E0,6.524199992E-2
1.828144810E-1,-5.542576909E-1,-9.100958824E0,1.131260321E-1
1.853021370E-1,-6.069301367E-1,-9.086593628E0,1.657984704E-1
1.877897930E-1,-6.356605291E-1,-9.057863235E0,2.280477136E-1
1.902774490E-1,-6.452373862E-1,-9.048286438E0,3.286041915E-1
1.927651060E-1,-6.404489279E-1,-9.077016830E0,3.956418335E-1
1.952527620E-1,-6.260837317E-1,-9.110535622E0,4.626794755E-1
1.977404180E-1,-5.829881430E-1,-9.163208008E0,5.009866953E-1
2.002280740E-1,-5.398924947E-1,-9.211092949E0,5.345055461E-1
2.027157310E-1,-4.824316502E-1,-9.268553734E0,5.776011348E-1
2.052033870E-1,-4.393360019E-1,-9.326014519E0,6.206967831E-1
2.076910430E-1,-4.106055796E-1,-9.378686905E0,6.254851818E-1
2.101786990E-1,-4.010287821E-1,-9.402628899E0,5.871779919E-1
2.126663560E-1,-3.675099611E-1,-9.431359291E0,5.680243373E-1
2.151540120E-1,-3.339911401E-1,-9.460089684E0,5.632359385E-1
2.176416680E-1,-2.908954918E-1,-9.474454880E0,5.584475398E-1
2.201293240E-1,-2.525882721E-1,-9.503185272E0,5.728127360E-1
2.226169810E-1,-1.999158412E-1,-9.536704063E0,5.919663906E-1
2.251046370E-1,-1.616086215E-1,-9.546280861E0,5.967547894E-1
2.275922930E-1,-1.233013868E-1,-9.560646057E0,6.111199856E-1
2.300799490E-1,-6.105214357E-2,-9.565434456E0,6.446388364E-1
2.325676060E-1,-4.189852998E-2,-9.565434456E0,6.829460263E-1
2.350552620E-1,5.985504016E-3,-9.570222855E0,6.877344251E-1
2.375429180E-1,6.344634295E-2,-9.546280861E0,7.020996213E-1
2.400305740E-1,9.217676520E-2,-9.527127266E0,6.973112226E-1
2.425182310E-1,1.256955862E-1,-9.541492462E0,7.020996213E-1
2.450058870E-1,9.696517140E-2,-9.531915665E0,7.020996213E-1
2.474935430E-1,7.781155407E-2,-9.531915665E0,7.068880796E-1
2.499811990E-1,5.985504016E-3,-9.546280861E0,6.973112226E-1
2.524688560E-1,-7.541735470E-2,-9.560646057E0,6.781576276E-1
2.549565120E-1,-1.568202078E-1,-9.570222855E0,5.967547894E-1
2.574441680E-1,-2.382230759E-1,-9.613318443E0,5.392939448E-1
2.599318240E-1,-3.196259141E-1,-9.656414032E0,4.722562730E-1
2.624194810E-1,-3.818751574E-1,-9.680356026E0,4.004302323E-1
2.649071370E-1,-4.345476031E-1,-9.713874817E0,3.573346138E-1
2.673947930E-1,-4.872200489E-1,-9.752182007E0,3.046621680E-1
2.698824490E-1,-5.111620426E-1,-9.790489197E0,2.615665495E-1
2.723701060E-1,-5.446808934E-1,-9.824007988E0,2.136825025E-1
2.748577620E-1,-5.877765417E-1,-9.828796387E0,1.945288926E-1
2.773454180E-1,-5.973533392E-1,-9.862315178E0,1.801636815E-1
2.798330740E-1,-6.260837317E-1,-9.871891975E0,1.370680481E-1
2.823207310E-1,-6.260837317E-1,-9.919775963E0,1.322796494E-1
2.848083870E-1,-6.500257850E-1,-9.934141159E0,1.370680481E-1
2.872960430E-1,-6.596025825E-1,-9.958083153E0,1.610100716E-1
2.897836990E-1,-6.787561774E-1,-9.953294754E0,1.801636815E-1
2.922713560E-1,-6.835445762E-1,-9.982025146E0,2.088941038E-1
2.947590120E-1,-6.739677787E-1,-1.001075554E1,2.328361124E-1
2.972466680E-1,-6.787561774E-1,-1.002990913E1,3.238157928E-1
2.997343240E-1,-6.691793799E-1,-1.000596714E1,4.004302323E-1
3.022219810E-1,-6.452373862E-1,-1.001075554E1,4.722562730E-1
3.047096370E-1,-6.308721304E-1,-1.001075554E1,5.632359385E-1
3.071972930E-1,-6.260837317E-1,-9.996390343E0,6.542156339E-1
3.096849490E-1,-6.452373862E-1,-9.972448349E0,7.212532759E-1
3.121726060E-1,-6.452373862E-1,-9.938929558E0,7.595604658E-1
3.146602620E-1,-6.308721304E-1,-9.886257172E0,7.691373229E-1
3.171479180E-1,-6.021417379E-1,-9.838373184E0,7.978677154E-1
3.196355740E-1,-5.973533392E-1,-9.790489197E0,8.026561141E-1
3.221232310E-1,-5.877765417E-1,-9.761758804E0,8.074445128E-1
3.246108870E-1,-5.781996846E-1,-9.737816811E0,8.170213103E-1
3.270985430E-1,-6.021417379E-1,-9.723451614E0,8.553285599E-1
3.295861990E-1,-5.925649405E-1,-9.709086418E0,8.505401611E-1
3.320738560E-1,-6.117185354E-1,-9.713874817E0,8.361749649E-1
3.345615120E-1,-6.069301367E-1,-9.709086418E0,8.026561141E-1
3.370491680E-1,-5.925649405E-1,-9.704298019E0,7.835025191E-1
3.395368240E-1,-5.877765417E-1,-9.723451614E0,7.451952696E-1
3.420244810E-1,-5.734112859E-1,-9.737816811E0,7.260416746E-1
3.445121370E-1,-5.590460896E-1,-9.737816811E0,7.116764784E-1
3.469997930E-1,-5.590460896E-1,-9.747393608E0,6.781576276E-1
3.494874490E-1,-5.590460896E-1,-9.747393608E0,6.206967831E-1
3.519751060E-1,-5.686228871E-1,-9.737816811E0,6.063315868E-1
3.544627620E-1,-5.925649405E-1,-9.756970406E0,5.871779919E-1
3.569504180E-1,-6.069301367E-1,-9.737816811E0,6.111199856E-1
3.594381260E-1,-5.973533392E-1,-9.723451614E0,6.350619793E-1
3.619258350E-1,-5.877765417E-1,-9.728240013E0,5.967547894E-1
3.644135430E-1,-5.542576909E-1,-9.747393608E0,5.440823436E-1
3.669012510E-1,-5.015852451E-1,-9.737816811E0,4.483142793E-1
3.693889600E-1,-4.201824069E-1,-9.742605209E0,3.669114113E-1
3.718766680E-1,-3.339911401E-1,-9.761758804E0,2.998737693E-1
3.743643760E-1,-2.525882721E-1,-9.766547203E0,2.759317458E-1
3.768520850E-1,-1.855506301E-1,-9.785700798E0,2.855085433E-1
3.793397930E-1,-1.376665980E-1,-9.804854393E0,2.807201445E-1
3.818275010E-1,-1.137245819E-1,-9.800065994E0,2.663549483E-1
3.843152100E-1,-1.041477770E-1,-9.809642792E0,2.759317458E-1
3.868029180E-1,-1.089361757E-1,-9.809642792E0,3.238157928E-1
3.892906260E-1,-9.935937077E-2,-9.838373184E0,3.716998100E-1
3.917783350E-1,-1.089361757E-1,-9.867103577E0,4.291606545E-1
3.942660430E-1,-1.185129806E-1,-9.919775963E0,5.297171474E-1
3.967537510E-1,-1.376665980E-1,-9.977236748E0,6.159083843E-1
3.992414600E-1,-1.663970202E-1,-1.005385113E1,6.877344251E-1
4.017291680E-1,-1.759738177E-1,-1.014961910E1,7.547720671E-1
4.042168760E-1,-1.999158412E-1,-1.023581123E1,7.835025191E-1
4.067045850E-1,-2.334346622E-1,-1.032679081E1,8.026561141E-1
4.091922930E-1,-2.717418969E-1,-1.041777039E1,8.409633636E-1
4.116800010E-1,-3.244143426E-1,-1.048001957E1,8.601169586E-1
4.141677100E-1,-4.201824069E-1,-1.054705715E1,8.744821548E-1
4.166554180E-1,-5.398924947E-1,-1.059015274E1,8.696937561E-1
4.191431260E-1,-6.883329749E-1,-1.063324833E1,8.936358094E-1
4.216308350E-1,-8.271966577E-1,-1.069549751E1,9.080010056E-1
4.241185430E-1,-9.421183467E-1,-1.075774670E1,8.888474107E-1
4.266062510E-1,-1.057040095E0,-1.080084229E1,8.505401611E-1
4.290939600E-1,-1.162384868E0,-1.084872627E1,8.409633636E-1
4.315816680E-1,-1.286883354E0,-1.090618706E1,8.122329116E-1
4.340694810E-1,-1.425747156E0,-1.095407104E1,7.643488646E-1
4.365570330E-1,-1.602918029E0,-1.099716663E1,7.068880796E-1
4.390445850E-1,-1.813607812E0,-1.107378101E1,6.446388364E-1
4.415321370E-1,-2.043451071E0,-1.116954994E1,5.967547894E-1
4.440196890E-1,-2.273294449E0,-1.130362511E1,5.057750940E-1
4.465072410E-1,-2.522291422E0,-1.148079586E1,3.908534348E-1
4.489947930E-1,-2.761711597E0,-1.170106220E1,2.519897223E-1
4.514823450E-1,-3.034650564E0,-1.194527054E1,7.481880486E-2
4.539698970E-1,-3.254917145E0,-1.219905663E1,-1.215057373E-1
4.564574490E-1,-3.470395327E0,-1.247199535E1,-3.082534671E-1
4.589450010E-1,-3.657143116E0,-1.275451088E1,-4.471171796E-1
4.614325530E-1,-3.815160513E0,-1.303702641E1,-5.285200477E-1
4.639201580E-1,-3.939658880E0,-1.329081249E1,-5.045779943E-1
4.664078140E-1,-4.040215492E0,-1.353023243E1,-4.135983288E-1
4.688954700E-1,-4.092887878E0,-1.375049877E1,-2.460042238E-1
4.713831260E-1,-4.097676277E0,-1.392288113E1,-3.531447425E-2
4.738708350E-1,-4.073734283E0,-1.406174469E1,1.705868691E-1
4.763585430E-1,-4.016273499E0,-1.419582081E1,3.525462151E-1
4.788462510E-1,-3.906140089E0,-1.426285839E1,5.105634928E-1
4.813339600E-1,-3.728969097E0,-1.428680038E1,6.590040326E-1
4.838216680E-1,-3.494337320E0,-1.428201199E1,7.739257216E-1
4.863093760E-1,-3.230975151E0,-1.426285839E1,8.936358094E-1
4.887970850E-1,-2.958036184E0,-1.419582081E1,9.702502489E-1
4.912847930E-1,-2.661155224E0,-1.414793682E1,1.003769040E0
4.937726060E-1,-2.436100245E0,-1.410005283E1,9.367313981E-1
4.962604180E-1,-2.278082848E0,-1.406174469E1,8.265981078E-1
4.987482310E-1,-2.211045265E0,-1.406174469E1,6.637924314E-1
5.012360430E-1,-2.177526474E0,-1.411441803E1,4.961982965E-1
5.037238560E-1,-2.215833664E0,-1.421018600E1,2.663549483E-1
5.062116680E-1,-2.258929253E0,-1.433468437E1,-2.094926499E-2
5.086994280E-1,-2.278082848E0,-1.449270153E1,-3.417722881E-1
5.111870850E-1,-2.306813240E0,-1.468423748E1,-6.338648796E-1
5.136747410E-1,-2.345120668E0,-1.487098503E1,-8.876502514E-1
5.161623970E-1,-2.378639460E0,-1.508167553E1,-1.083974838E0
5.186500530E-1,-2.440888643E0,-1.528278828E1,-1.265934110E0
5.211377100E-1,-2.570175409E0,-1.545995903E1,-1.428739905E0
5.236253660E-1,-2.737769604E0,-1.562755299E1,-1.577180386E0
5.261130220E-1,-2.919728994E0,-1.577120495E1,-1.663371682E0
5.286006780E-1,-3.092111588E0,-1.588612652E1,-1.663371682E0
5.310883350E-1,-3.235763550E0,-1.598668289E1,-1.581968784E0
5.335759910E-1,-3.365050554E0,-1.608245087E1,-1.376067400E0
5.360636470E-1,-3.436876535E0,-1.613991165E1,-1.141435623E0
5.385513030E-1,-3.436876535E0,-1.618779564E1,-8.684966564E-1
5.410389600E-1,-3.384204149E0,-1.622610283E1,-5.764040351E-1
5.435266160E-1,-3.245340347E0,-1.623089218E1,-2.364274114E-1
5.460142720E-1,-3.068169594E0,-1.622131538E1,7.481880486E-2
5.485019280E-1,-2.867056608E0,-1.619737244E1,4.291606545E-1
5.509895850E-1,-2.632424831E0,-1.618779564E1,8.170213103E-1
5.534772410E-1,-2.407369852E0,-1.615427780E1,1.142632723E0
5.559648970E-1,-2.215833664E0,-1.606808662E1,1.377264500E0
5.584525530E-1,-2.009932280E0,-1.600104904E1,1.530493379E0
5.609402100E-1,-1.818396211E0,-1.591485691E1,1.631049871E0
5.634278660E-1,-1.607706428E0,-1.583824253E1,1.693299174E0
5.659155220E-1,-1.363497853E0,-1.578557014E1,1.745971560E0
5.684031780E-1,-1.138442874E0,-1.575205135E1,1.726817966E0
5.708908350E-1,-8.990227580E-1,-1.571853256E1,1.702875972E0
5.733784910E-1,-6.931213737E-1,-1.574247456E1,1.674145579E0
5.758661470E-1,-4.872200489E-1,-1.576641655E1,1.602319479E0
5.783538030E-1,-3.148375154E-1,-1.582387733E1,1.477820992E0
5.808414600E-1,-1.472434103E-1,-1.588133812E1,1.353322506E0
5.833291160E-1,-1.316810958E-2,-1.594358730E1,1.233612418E0
5.858167720E-1,1.161187813E-1,-1.601062584E1,1.118690729E0
5.883044280E-1,2.214636505E-1,-1.606329727E1,9.702502489E-1
5.907920850E-1,2.885012925E-1,-1.611597061E1,8.361749649E-1
5.932797410E-1,2.980781198E-1,-1.614470100E1,7.164648771E-1
5.957673970E-1,2.693476975E-1,-1.614948845E1,6.350619793E-1
5.982550530E-1,2.118868530E-1,-1.614948845E1,5.632359385E-1
6.007427100E-1,1.975216419E-1,-1.612554741E1,4.387374520E-1
6.032303660E-1,1.783680320E-1,-1.608724022E1,2.519897223E-1
6.057180220E-1,1.544260085E-1,-1.600583649E1,8.918401599E-2
6.082056780E-1,1.400607973E-1,-1.592443371E1,-1.137245819E-2
6.106933350E-1,7.302315533E-2,-1.586697292E1,-1.119289324E-1
6.131809910E-1,4.908113554E-2,-1.581908894E1,-1.789665818E-1
6.156686470E-1,2.992752194E-2,-1.578557014E1,-2.412158251E-1
6.181563030E-1,3.950432688E-2,-1.579514694E1,-2.364274114E-1
6.206439600E-1,8.259996027E-2,-1.585260773E1,-1.598129570E-1
6.231316160E-1,1.735796183E-1,-1.592443371E1,-3.531447425E-2
6.256192720E-1,2.885012925E-1,-1.600104904E1,1.418564469E-1
6.281069280E-1,4.129997790E-1,-1.608245087E1,3.333925903E-1
6.305945850E-1,5.374982953E-1,-1.612554741E1,5.392939448E-1
6.330822410E-1,6.476315856E-1,-1.614948845E1,7.787141204E-1
6.355698970E-1,7.625532150E-1,-1.613512421E1,1.018134236E0
6.380575530E-1,8.726865053E-1,-1.608245087E1,1.247977614E0
6.405452100E-1,9.732429981E-1,-1.595795250E1,1.468244195E0
6.430328660E-1,1.059434295E0,-1.581908894E1,1.659780383E0
6.455205220E-1,1.136048675E0,-1.564191818E1,1.803432465E0
6.480081780E-1,1.169567585E0,-1.543122864E1,1.927930951E0
6.504958350E-1,1.203086376E0,-1.518702030E1,2.033275843E0
6.529834910E-1,1.231816769E0,-1.494759941E1,2.143409014E0
6.554711470E-1,1.274912357E0,-1.471775627E1,2.210446835E0
6.579588030E-1,1.351526856E0,-1.451664352E1,2.263119221E0
6.604464600E-1,1.485602140E0,-1.433468437E1,2.296638012E0
6.629341160E-1,1.610100627E0,-1.420539761E1,2.330156803E0
6.654217720E-1,1.720233917E0,-1.409526348E1,2.325368404E0
6.679094280E-1,1.835155606E0,-1.400907230E1,2.239177227E0
6.703970850E-1,1.945288897E0,-1.391330433E1,2.148197412E0
6.728847410E-1,2.031480074E0,-1.384626675E1,2.062006235E0
6.753723970E-1,2.132036686E0,-1.378401756E1,1.980603337E0
6.778600530E-1,2.237381458E0,-1.371697998E1,1.927930951E0
6.803477100E-1,2.299630642E0,-1.364994240E1,1.999756932E0
6.828353660E-1,2.376245260E0,-1.358290482E1,2.047641039E0
6.853230220E-1,2.486378431E0,-1.351586723E1,2.095525026E0
6.878106780E-1,2.572569609E0,-1.348234844E1,2.138620615E0
6.902983350E-1,2.630030632E0,-1.344882965E1,2.133832216E0
6.927859910E-1,2.677914619E0,-1.343446445E1,2.109890223E0
6.952736470E-1,2.692279816E0,-1.344404125E1,2.052429438E0
6.977613030E-1,2.701856613E0,-1.344882965E1,2.009333849E0
7.002489600E-1,2.744952202E0,-1.343925285E1,1.971026540E0
7.027366160E-1,2.835932016E0,-1.342488766E1,1.937507749E0
7.052242720E-1,3.003525972E0,-1.338658047E1,1.956661344E0
7.077119280E-1,3.228580952E0,-1.334827328E1,2.004545450E0
7.101995850E-1,3.496731520E0,-1.330517769E1,2.105101824E0
7.126872410E-1,3.731363297E0,-1.324771690E1,2.129043818E0
7.151748970E-1,3.865438700E0,-1.317589092E1,2.133832216E0
7.176625530E-1,3.951629877E0,-1.314237213E1,2.042852640E0
7.201502100E-1,3.956418276E0,-1.308491039E1,1.927930951E0
7.226378660E-1,3.879803896E0,-1.301787281E1,1.822586060E0
7.251255220E-1,3.817554712E0,-1.296998882E1,1.750759959E0
7.276131780E-1,3.793612480E0,-1.285027885E1,1.726817966E0
7.301008350E-1,3.846285105E0,-1.256776333E1,1.731606364E0
7.325884910E-1,3.908534288E0,-1.184950256E1,1.698087573E0
7.350761470E-1,4.042609692E0,-1.168669701E1,1.889623642E0
7.375638030E-1,4.243722439E0,-1.181598377E1,1.851316452E0
7.400514600E-1,4.531026840E0,-1.202188492E1,1.875258446E0
7.425391160E-1,4.871003151E0,-1.232355499E1,2.066794634E0
7.450267720E-1,5.134365559E0,-1.262043571E1,2.291849613E0
7.475144280E-1,5.282805920E0,-1.289337444E1,2.440289974E0
7.500020850E-1,5.321113110E0,-1.308969879E1,2.449866772E0
7.524897410E-1,5.340266705E0,-1.321419811E1,2.368463993E0
7.549773970E-1,5.349843502E0,-1.331475449E1,2.296638012E0
7.574650530E-1,5.392939091E0,-1.341531086E1,2.267907619E0
7.599527100E-1,5.383362293E0,-1.346319485E1,2.258330822E0
7.624403660E-1,5.397727966E0,-1.347277164E1,2.320580006E0
7.649280220E-1,5.431246758E0,-1.344404125E1,2.368463993E0
7.674156780E-1,5.455188751E0,-1.338658047E1,2.425924778E0
7.699033870E-1,5.503072739E0,-1.329081249E1,2.516904593E0
7.723910950E-1,5.584475517E0,-1.317110252E1,2.670133352E0
7.748788030E-1,5.718550682E0,-1.299393082E1,2.852092743E0
7.773665120E-1,5.871779442E0,-1.281197166E1,3.034052134E0
7.798542200E-1,6.020220280E0,-1.260607052E1,3.192069530E0
7.823419280E-1,6.111199856E0,-1.235707378E1,3.287837505E0
7.848296370E-1,6.106411457E0,-1.210328770E1,3.383605480E0
7.873173450E-1,6.001066685E0,-1.186386776E1,3.407547474E0
7.898050530E-1,5.804741859E0,-1.164838982E1,3.421912670E0
7.922927620E-1,5.589263916E0,-1.145206547E1,3.484162092E0
7.947804700E-1,5.368997097E0,-1.130841351E1,3.575141668E0
7.972681780E-1,5.230133533E0,-1.121743393E1,3.642179251E0
7.997558870E-1,5.210979939E0,-1.112166500E1,3.680486679E0
8.022435950E-1,5.292382717E0,-1.103547382E1,3.723582268E0
8.047313030E-1,5.407304764E0,-1.090618706E1,3.776254654E0
8.072190120E-1,5.541379929E0,-1.073380470E1,3.785831451E0
8.097067200E-1,5.665878296E0,-1.051832676E1,3.747524261E0
8.121944280E-1,5.708973885E0,-1.026454163E1,3.666121244E0
8.146821370E-1,5.656301498E0,-9.962871552E0,3.484162092E0
8.171698450E-1,5.498284340E0,-9.646837234E0,3.268683910E0
8.196575530E-1,5.263652325E0,-9.287707329E0,3.005321741E0
8.221452620E-1,4.990713596E0,-8.923788071E0,2.703652382E0
8.246329700E-1,4.751293182E0,-8.574234962E0,2.449866772E0
8.271206780E-1,4.583699226E0,-8.234258652E0,2.311003208E0
8.296083870E-1,4.502296448E0,-7.927800179E0,2.339733601E0
8.320960950E-1,4.535815239E0,-7.626131058E0,2.440289974E0
8.345838030E-1,4.641160011E0,-7.338826656E0,2.526481390E0
8.370715120E-1,4.770446777E0,-7.013215542E0,2.655768156E0
8.395592200E-1,4.856637955E0,-6.701969147E0,2.674921751E0
8.420469280E-1,4.904522419E0,-6.390722752E0,2.718017578E0
8.445346370E-1,4.851849556E0,-6.079476833E0,2.756324768E0
8.470223450E-1,4.708197594E0,-5.768230438E0,2.837727547E0
8.495100010E-1,4.483142853E0,-5.504868031E0,2.938283920E0
8.519976580E-1,4.191050053E0,-5.251082897E0,2.962226152E0
8.544853140E-1,3.908534288E0,-5.006874084E0,2.933495522E0
8.569729700E-1,3.606864929E0,-4.767454147E0,2.828150749E0
8.594606260E-1,3.314772367E0,-4.542399406E0,2.684498549E0
8.619482830E-1,3.022679567E0,-4.341286182E0,2.555211782E0
8.644359390E-1,2.725798607E0,-4.125808239E0,2.464232206E0
8.669235950E-1,2.433706045E0,-3.963002443E0,2.473809004E0
8.694112510E-1,2.179920673E0,-3.804985046E0,2.497750998E0
8.718989080E-1,1.940500498E0,-3.680486679E0,2.483385801E0
8.743865640E-1,1.796848416E0,-3.555988073E0,2.483385801E0
8.768742200E-1,1.672349930E0,-3.441066504E0,2.492962599E0
8.793618760E-1,1.576581836E0,-3.345298290E0,2.473809004E0
8.818495330E-1,1.543063045E0,-3.220799923E0,2.454655409E0
8.843371890E-1,1.571793437E0,-3.038840532E0,2.512116194E0
8.868248450E-1,1.638831019E0,-2.842515945E0,2.665344954E0
8.893125010E-1,1.753752708E0,-2.583942175E0,2.832939148E0
8.918001580E-1,1.863885999E0,-2.267907619E0,2.933495522E0
8.942878140E-1,1.978807688E0,-1.899200439E0,2.967014551E0
8.967754700E-1,2.064998865E0,-1.496974587E0,3.014898539E0
8.992631260E-1,2.127248287E0,-1.085171938E0,3.053205729E0
9.017507830E-1,2.146401882E0,-6.302735806E-1,3.129820108E0
9.042384390E-1,2.060210466E0,-1.753752679E-1,3.125031710E0
9.067260950E-1,1.926135302E0,2.986766696E-1,3.014898539E0
9.092137510E-1,1.672349930E0,7.775170207E-1,2.861669540E0
9.117014080E-1,1.337161660E0,1.251568913E0,2.718017578E0
9.141890640E-1,9.828197956E-1,1.706467271E0,2.579153776E0
9.166767200E-1,6.476315856E-1,2.156577110E0,2.421136379E0
9.191643760E-1,3.363853395E-1,2.573168278E0,2.239177227E0
9.216520330E-1,8.738835901E-2,2.965817451E0,2.071583033E0
9.241396890E-1,-1.424549967E-1,3.339312792E0,1.899200439E0
9.266273450E-1,-3.148375154E-1,3.674500942E0,1.750759959E0
9.291150010E-1,-4.345476031E-1,3.976170540E0,1.664568782E0
9.316026580E-1,-4.872200489E-1,4.253897667E0,1.621473074E0
9.340903140E-1,-5.542576909E-1,4.531625271E0,1.664568782E0
9.365779700E-1,-6.643909812E-1,4.775833607E0,1.731606364E0
9.390656260E-1,-7.553706169E-1,5.005677223E0,1.760336757E0
9.415532830E-1,-8.798691034E-1,5.206789970E0,1.745971560E0
9.440409390E-1,-9.852139950E-1,5.398326397E0,1.774701953E0
9.465285950E-1,-1.071405292E0,5.551555157E0,1.832162857E0
9.490162510E-1,-1.133654475E0,5.680841923E0,1.937507749E0
9.515039080E-1,-1.200692177E0,5.771821976E0,2.081159830E0
9.539919280E-1,-1.291671872E0,5.853224754E0,2.287061214E0
9.564797930E-1,-1.406593442E0,5.891531944E0,2.473809004E0
9.589675010E-1,-1.516726732E0,5.891531944E0,2.459443808E0
9.614551580E-1,-1.631648421E0,5.862801552E0,2.301426411E0
9.639428140E-1,-1.746570110E0,5.805340767E0,2.090736628E0
9.664304700E-1,-1.875856996E0,5.743091106E0,1.832162857E0
9.689181260E-1,-2.005143881E0,5.652111530E0,1.554435492E0
9.714057830E-1,-2.196680069E0,5.551555157E0,1.305438519E0
9.738934390E-1,-2.402581453E0,5.470152378E0,1.118690729E0
9.763810950E-1,-2.565387011E0,5.350442410E0,9.367313981E-1
9.788687510E-1,-2.689885616E0,5.230731964E0,7.404068708E-1
9.813564080E-1,-2.766499996E0,5.111021996E0,6.015431881E-1
9.838440640E-1,-2.771288395E0,4.967370033E0,5.440823436E-1
9.863317200E-1,-2.718616009E0,4.818929672E0,5.009866953E-1
9.888193760E-1,-2.651578426E0,4.656123638E0,4.147954583E-1
9.913070330E-1,-2.598906040E0,4.526836872E0,4.004302323E-1
9.937954180E-1,-2.541445017E0,4.411915302E0,4.100070298E-1
9.962825010E-1,-2.503137827E0,4.316147327E0,4.195838571E-1
9.987695850E-1,-2.512714624E0,4.234744072E0,3.477577865E-1
1.001256668E0,-2.551021814E0,4.177283287E0,1.945288926E-1
1.003743803E0,-2.627636433E0,4.138976097E0,2.693476900E-2
1.006230991E0,-2.766499996E0,4.105457306E0,-7.841010392E-2
1.008718283E0,-2.938882589E0,4.071938515E0,-1.837549806E-1
1.011205678E0,-3.106476784E0,4.019266129E0,-2.890998423E-1
1.013693178E0,-3.240551949E0,3.957016945E0,-3.705027103E-1
1.016180783E0,-3.350685358E0,3.851671934E0,-4.135983288E-1
1.018668491E0,-3.412934542E0,3.751115561E0,-3.848679364E-1
1.021156303E0,-3.436876535E0,3.617040157E0,-3.130418658E-1
1.023644220E0,-3.427299738E0,3.492541790E0,-2.220622003E-1
1.026132189E0,-3.379415751E0,3.339312792E0,-8.319851011E-2
1.028620210E0,-3.298012733E0,3.190872431E0,4.608838260E-2
1.031108283E0,-3.187879562E0,3.008913040E0,1.897404790E-1
1.033596356E0,-2.986766577E0,2.803011656E0,4.339490533E-1
1.036084428E0,-2.752134800E0,2.577956676E0,6.494272351E-1
1.038572501E0,-2.479195833E0,2.333748102E0,8.936358094E-1
1.041060574E0,-2.153584480E0,2.060809135E0,1.156997919E0
1.043548231E0,-1.832761407E0,1.763928056E0,1.453878999E0
1.046035887E0,-1.487996340E0,1.443105102E0,1.722029567E0
1.048523543E0,-1.133654475E0,1.131858826E0,1.865681648E0
1.051011199E0,-8.367735147E-1,8.397662640E-1,1.798644066E0
1.053498856E0,-6.069301367E-1,5.476736426E-1,1.540070295E0
1.055986512E0,-4.728548229E-1,2.555810213E-1,1.123479128E0
1.058474168E0,-4.537012279E-1,-5.566519126E-2,5.632359385E-1
1.060961824E0,-5.686228871E-1,-3.477577865E-1,-4.010287672E-2
1.063449481E0,-7.553706169E-1,-6.350619793E-1,-6.147112846E-1
1.065937137E0,-9.612720013E-1,-9.175778031E-1,-1.055244446E0
1.068424793E0,-1.167173386E0,-1.190516829E0,-1.423951507E0
1.070912449E0,-1.344344258E0,-1.434725404E0,-1.716044068E0
1.073400106E0,-1.478419542E0,-1.678933978E0,-1.912368655E0
1.075887762E0,-1.531091928E0,-1.932719350E0,-1.955464244E0
1.078375418E0,-1.545457244E0,-2.181716204E0,-1.835754156E0
1.080863074E0,-1.521515131E0,-2.449866772E0,-1.596333981E0
1.083350731E0,-1.487996340E0,-2.694075346E0,-1.275510907E0
1.085838387E0,-1.435323954E0,-2.909553528E0,-9.211691022E-1
1.088326043E0,-1.358709455E0,-3.129820108E0,-5.572504401E-1
1.090813699E0,-1.277306557E0,-3.316567898E0,-2.076970041E-1
1.093301356E0,-1.186326981E0,-3.512892485E0,1.227028370E-1
1.095789012E0,-1.066616893E0,-3.699640274E0,5.105634928E-1
1.098276668E0,-9.133879542E-1,-3.862445831E0,9.846154451E-1
1.100764324E0,-7.697358727E-1,-4.049193859E0,1.530493379E0
1.103251981E0,-6.069301367E-1,-4.240729809E0,2.009333849E0
1.105739637E0,-4.632780254E-1,-4.413112164E0,2.392405987E0
1.108227293E0,-3.866635859E-1,-4.599860191E0,2.718017578E0
1.110714949E0,-3.579331636E-1,-4.791396141E0,2.957437754E0
1.113202606E0,-3.722983599E-1,-4.949413300E0,3.029263735E0
1.115690262E0,-3.962403834E-1,-5.112219334E0,3.014898539E0
1.118177918E0,-4.106055796E-1,-5.246294498E0,2.986168146E0
1.120665574E0,-3.962403834E-1,-5.370792866E0,2.967014551E0
1.123153231E0,-3.004723191E-1,-5.466560841E0,2.933495522E0
1.125640887E0,-1.472434103E-1,-5.547964096E0,2.852092743E0
1.128128543E0,3.950432688E-2,-5.605424881E0,2.689286947E0
1.130616199E0,1.783680320E-1,-5.629366875E0,2.469020605E0
1.133103856E0,2.789244950E-1,-5.624578476E0,2.229600430E0
1.135591512E0,3.220201433E-1,-5.600636482E0,1.975814939E0
1.138079168E0,2.741360962E-1,-5.567117691E0,1.774701953E0
1.140566824E0,1.496376097E-1,-5.538387299E0,1.602319479E0
1.143054481E0,2.992752194E-2,-5.476137638E0,1.501762986E0
1.145542137E0,-5.626374111E-2,-5.437830448E0,1.468244195E0
1.148029793E0,-1.089361757E-1,-5.399523258E0,1.549647093E0
1.150517449E0,-1.041477770E-1,-5.389946461E0,1.688510776E0
1.153005106E0,-4.668693244E-2,-5.375581264E0,1.932719350E0
1.155492762E0,-8.379706182E-3,-5.380369663E0,2.287061214E0
1.157980418E0,1.556231081E-2,-5.409100056E0,2.765901566E0
1.160468074E0,-2.753331885E-2,-5.466560841E0,3.340509892E0
1.162955731E0,-8.499415964E-2,-5.524022102E0,3.953425646E0
1.165443387E0,-1.376665980E-1,-5.605424881E0,4.518456936E0
1.167931043E0,-1.089361757E-1,-5.710769653E0,4.987720490E0
1.170418699E0,2.513911761E-2,-5.835268021E0,5.366004467E0
1.172906356E0,2.741360962E-1,-5.974131584E0,5.677250862E0
1.175394012E0,5.805938840E-1,-6.146514416E0,5.907094002E0
1.177881668E0,9.397241473E-1,-6.323685169E0,6.007650852E0
1.180369324E0,1.356315255E0,-6.510433197E0,5.978919983E0
1.182856981E0,1.782483220E0,-6.682815552E0,5.787384033E0
1.185344637E0,2.175132275E0,-6.836044312E0,5.418676853E0
1.187832293E0,2.495955229E0,-7.003638744E0,4.992508888E0
1.190319949E0,2.740163803E0,-7.171232700E0,4.513668537E0
1.192807606E0,2.931699991E0,-7.338826656E0,3.924695253E0
1.195295262E0,3.027467966E0,-7.520786285E0,3.273472309E0
1.197782918E0,3.065775394E0,-7.736264229E0,2.612672567E0
1.200270574E0,3.070563793E0,-7.980473042E0,2.047641039E0
1.202758231E0,3.041833162E0,-8.286931038E0,1.616684675E0
1.205245887E0,3.003525972E0,-8.602965355E0,1.276708007E0
1.207733543E0,2.946065187E0,-8.947730064E0,9.654618502E-1
1.210221199E0,2.869450808E0,-9.306860924E0,7.116764784E-1
1.212708856E0,2.778470993E0,-9.608530045E0,5.201402903E-1
1.215196512E0,2.721010208E0,-9.886257172E0,4.387374520E-1
1.217684168E0,2.744952202E0,-1.013046551E1,5.057750940E-1
1.220171824E0,2.821566820E0,-1.036030960E1,6.973112226E-1
1.222659481E0,2.922123194E0,-1.055184555E1,9.654618502E-1
1.225147137E0,3.022679567E0,-1.070507431E1,1.343745708E0
1.227634793E0,3.075352192E0,-1.081520748E1,1.846528053E0
1.230122449E0,3.094505787E0,-1.091097546E1,2.358887196E0
1.232610106E0,3.070563793E0,-1.095407104E1,2.842515945E0
1.235097762E0,3.022679567E0,-1.093970585E1,3.254318714E0
1.237585418E0,3.037044764E0,-1.086787987E1,3.637390852E0
1.240073074E0,3.075352192E0,-1.073859310E1,3.943848848E0
1.242560731E0,3.128024578E0,-1.057578754E1,4.231153011E0
1.245048387E0,3.199850559E0,-1.038425159E1,4.484938145E0
1.247536043E0,3.228580952E0,-1.014961910E1,4.705204964E0
1.250023699E0,3.233369350E0,-9.953294754E0,4.877587318E0
1.252511356E0,3.209427357E0,-9.804854393E0,4.944624901E0
1.254999012E0,3.156754971E0,-9.718663216E0,4.882375717E0
1.257486668E0,3.108870983E0,-9.680356026E0,4.753088951E0
1.259974324E0,3.104082584E0,-9.733028412E0,4.528033733E0
1.262461981E0,3.175908566E0,-9.847949982E0,4.178480625E0
1.264949637E0,3.367444754E0,-1.002033234E1,3.795408249E0
1.267437345E0,3.649960518E0,-1.021665764E1,3.474585295E0
1.269925053E0,3.961206675E0,-1.042255878E1,3.230376720E0
1.272412762E0,4.224568844E0,-1.063324833E1,3.067570925E0
1.274900470E0,4.363432407E0,-1.085830307E1,2.933495522E0
1.277388178E0,4.334702015E0,-1.104505062E1,2.751536369E0
1.279875887E0,4.128800869E0,-1.119828033E1,2.459443808E0
1.282363595E0,3.755305290E0,-1.134193230E1,2.076371431E0
1.284851303E0,3.300406933E0,-1.148558426E1,1.659780383E0
1.287339012E0,2.898181200E0,-1.160529423E1,1.262342811E0
1.289826720E0,2.620453835E0,-1.171542740E1,9.415197968E-1
1.292314428E0,2.472013235E0,-1.181598377E1,7.308300734E-1
1.294802137E0,2.409764051E0,-1.185907936E1,6.063315868E-1
1.297289845E0,2.400187254E0,-1.188780975E1,6.063315868E-1
1.299777553E0,2.371456861E0,-1.191654015E1,8.074445128E-1
1.302265262E0,2.318784237E0,-1.195963573E1,1.104325533E0
1.304752970E0,2.285265446E0,-1.198836613E1,1.382052898E0
1.307240678E0,2.294842243E0,-1.206019211E1,1.631049871E0
1.309728387E0,2.342726469E0,-1.217511463E1,1.932719350E0
1.312216095E0,2.467224836E0,-1.229482460E1,2.311003208E0
1.314703803E0,2.687491417E0,-1.237622738E1,2.713229179E0
1.317191512E0,2.950853586E0,-1.239538097E1,2.986168146E0
1.319679220E0,3.242946148E0,-1.232834339E1,3.340509892E0
1.322166928E0,3.506308317E0,-1.218947983E1,3.781043053E0
1.324654637E0,3.707421303E0,-1.200751972E1,4.140173435E0
1.327142345E0,3.817554712E0,-1.177767658E1,4.393958569E0
1.329630053E0,3.779247284E0,-1.152389145E1,4.460996151E0
1.332117762E0,3.606864929E0,-1.128925991E1,4.355651379E0
1.334605470E0,3.290830135E0,-1.115039539E1,4.140173435E0
1.337093178E0,2.931699991E0,-1.109772301E1,3.819350243E0
1.339580887E0,2.639607430E0,-1.111208820E1,3.077147722E0
1.342068595E0,2.428917646E0,-1.120306873E1,2.507327795E0
1.344556303E0,2.328361034E0,-1.133714390E1,2.152985811E0
1.347044012E0,2.424129248E0,-1.148079586E1,1.813009262E0
1.349531720E0,2.606088638E0,-1.160529423E1,1.564012289E0
1.352019376E0,2.792836189E0,-1.165317822E1,1.544858694E0
1.354507033E0,2.912546396E0,-1.163881302E1,1.664568782E0
1.356994689E0,2.926911592E0,-1.156219864E1,1.769913554E0
1.359482345E0,2.845508814E0,-1.143770027E1,1.875258446E0
1.361970001E0,2.701856613E0,-1.127010632E1,1.990180135E0
1.364457658E0,2.524685621E0,-1.109772301E1,2.143409014E0
1.366945314E0,2.419340849E0,-1.091097546E1,2.325368404E0
1.369432970E0,2.390610456E0,-1.072901630E1,2.540846586E0
1.371920626E0,2.409764051E0,-1.054226875E1,2.770689964E0
1.374408283E0,2.476801634E0,-1.036030960E1,3.029263735E0
1.376895939E0,2.519897223E0,-1.015440750E1,3.306991100E0
1.379383595E0,2.519897223E0,-9.982025146E0,3.532046080E0
1.381871251E0,2.443282843E0,-9.809642792E0,3.656544447E0
1.384358908E0,2.304419041E0,-9.680356026E0,3.742735863E0
1.386846564E0,2.160767078E0,-9.584588051E0,3.771466255E0
1.389334220E0,2.074575663E0,-9.536704063E0,3.752312660E0
1.391821876E0,2.112883091E0,-9.579799652E0,3.714005470E0
1.394309533E0,2.261323452E0,-9.651625633E0,3.661332846E0
1.396797189E0,2.486378431E0,-9.771335602E0,3.570353270E0
1.399284845E0,2.716221809E0,-9.934141159E0,3.469796896E0
1.401772501E0,2.883816004E0,-1.010173512E1,3.330933094E0
1.404260158E0,2.950853586E0,-1.025017643E1,3.129820108E0
1.406747814E0,2.898181200E0,-1.039382839E1,2.861669540E0
1.409235470E0,2.744952202E0,-1.052311516E1,2.540846586E0
1.411723126E0,2.529474020E0,-1.063324833E1,2.205658197E0
1.414210783E0,2.270900249E0,-1.075774670E1,1.927930951E0
1.416698439E0,2.064998865E0,-1.089661026E1,1.693299174E0
1.419186095E0,1.902193308E0,-1.105462742E1,1.568800688E0
1.421673751E0,1.806425214E0,-1.118870354E1,1.520916581E0
1.424161408E0,1.753752708E0,-1.127010632E1,1.492186189E0
1.426649064E0,1.772906303E0,-1.133235550E1,1.530493379E0
1.429136720E0,1.787271619E0,-1.136587429E1,1.750759959E0
1.431624376E0,1.825578809E0,-1.141854668E1,2.157774210E0
1.434112033E0,1.820790410E0,-1.148558426E1,2.689286947E0
1.436599689E0,1.787271619E0,-1.156698704E1,3.144185305E0
1.439087345E0,1.705868721E0,-1.168669701E1,3.503315687E0
1.441575001E0,1.657984734E0,-1.186386776E1,3.752312660E0
1.444062658E0,1.696291924E0,-1.206019211E1,3.814561844E0
1.446550314E0,1.868674397E0,-1.227088261E1,3.752312660E0
1.449037970E0,2.112883091E0,-1.244326496E1,3.632602453E0
1.451525626E0,2.376245260E0,-1.253903294E1,3.455431700E0
1.454013283E0,2.591723442E0,-1.253903294E1,3.148973703E0
1.456500939E0,2.735375404E0,-1.247678375E1,2.856881142E0
1.458988595E0,2.764105797E0,-1.232834339E1,2.540846586E0
1.461476251E0,2.582146645E0,-1.212722969E1,2.205658197E0
1.463963908E0,2.275688648E0,-1.194527054E1,1.803432465E0
1.466451564E0,1.849520802E0,-1.178725338E1,1.434725404E0
1.468939220E0,1.413776159E0,-1.167233181E1,1.085171938E0
1.471426876E0,1.054645896E0,-1.161965942E1,8.026561141E-1
1.473914533E0,8.439561129E-1,-1.160529423E1,5.871779919E-1
1.476402189E0,7.864952683E-1,-1.164838982E1,4.483142793E-1
1.478889845E0,8.391677141E-1,-1.169148540E1,3.190273643E-1
1.481377501E0,9.540894032E-1,-1.168669701E1,2.663549483E-1
1.483865158E0,1.016338587E0,-1.161487103E1,2.950853705E-1
1.486352814E0,1.011550188E0,-1.150473785E1,3.716998100E-1
1.488840470E0,9.301473498E-1,-1.132277870E1,4.961982965E-1
1.491328126E0,7.673416734E-1,-1.111208820E1,7.116764784E-1
1.493815835E0,5.662286878E-1,-1.091576385E1,1.080383539E0
1.496303543E0,3.124433160E-1,-1.074338150E1,1.678933978E0
1.498791251E0,2.513911761E-2,-1.064761353E1,2.373252392E0
1.501278960E0,-1.999158412E-1,-1.059972954E1,2.866457939E0
1.503766668E0,-3.387795389E-1,-1.063324833E1,3.235165119E0
1.506254376E0,-2.861070931E-1,-1.079605389E1,3.441066504E0
1.508742085E0,-4.189852998E-2,-1.103068542E1,3.508104086E0
1.511229793E0,3.986345828E-1,-1.131799030E1,3.465008497E0
1.513717501E0,9.445125461E-1,-1.163881302E1,3.469796896E0
1.516205210E0,1.437718153E0,-1.188780975E1,3.455431700E0
1.518692918E0,1.782483220E0,-1.203146172E1,3.397970676E0
1.521180626E0,1.892616391E0,-1.206019211E1,3.283049107E0
1.523668335E0,1.768117905E0,-1.199794292E1,3.105878115E0
1.526156043E0,1.490390539E0,-1.184950256E1,2.799420357E0
1.528643751E0,1.112106681E0,-1.166275501E1,2.440289974E0
1.531131460E0,7.481880188E-1,-1.149994946E1,2.071583033E0
1.533619168E0,4.800374508E-1,-1.135150909E1,1.678933978E0
1.536106876E0,3.603273630E-1,-1.122701073E1,1.315015316E0
1.538594585E0,4.129997790E-1,-1.117912674E1,9.750386477E-1
1.541082293E0,5.997475386E-1,-1.111687660E1,6.685808301E-1
1.543570001E0,8.583213091E-1,-1.104983902E1,4.147954583E-1
1.546057710E0,1.092953086E0,-1.096364784E1,2.088941038E-1
1.548545418E0,1.241393566E0,-1.081999588E1,8.439560980E-2
1.551033074E0,1.303642869E0,-1.063803673E1,1.735796221E-2
1.553520731E0,1.231816769E0,-1.043213558E1,-1.137245819E-2
1.556008387E0,1.054645896E0,-1.019750404E1,5.087678507E-2
1.558496043E0,8.104372621E-1,-9.938929558E0,1.993172914E-1
1.560983699E0,5.470750928E-1,-9.728240013E0,3.956418335E-1
1.563471356E0,3.411737382E-1,-9.531915665E0,6.542156339E-1
1.565959012E0,2.406172752E-1,-9.364321709E0,9.894038439E-1
1.568446668E0,1.975216419E-1,-9.258976936E0,1.405994892E0
1.570934324E0,2.501940727E-1,-9.201516151E0,1.865681648E0
1.573421981E0,3.411737382E-1,-9.196727753E0,2.339733601E0
1.575909637E0,4.944026470E-1,-9.282918930E0,2.880823135E0
1.578397293E0,6.859387755E-1,-9.426570892E0,3.402759075E0
1.580884949E0,8.535329103E-1,-9.613318443E0,3.804985046E0
1.583372606E0,1.025915384E0,-9.824007988E0,4.058770657E0
1.585860262E0,1.159990668E0,-1.004906273E1,4.202422619E0
1.588347918E0,1.289277673E0,-1.028848362E1,4.211999416E0
1.590835574E0,1.408987641E0,-1.050874996E1,4.077924252E0
1.593323231E0,1.514332533E0,-1.070986271E1,3.852869034E0
1.595810887E0,1.586158633E0,-1.089182186E1,3.536834478E0
1.598298543E0,1.595735431E0,-1.101153183E1,3.096301317E0
1.600786199E0,1.533486247E0,-1.107856941E1,2.636614561E0
1.603273856E0,1.385045648E0,-1.111208820E1,2.167351007E0
1.605761512E0,1.217451572E0,-1.109772301E1,1.688510776E0
1.608249168E0,9.588778019E-1,-1.108335781E1,1.219247222E0
1.610736824E0,6.811503768E-1,-1.102110863E1,8.026561141E-1
1.613224481E0,4.034229815E-1,-1.095885944E1,4.291606545E-1
1.615712137E0,1.352723986E-1,-1.086309147E1,1.083376259E-1
1.618199793E0,-8.020575345E-2,-1.076732349E1,-1.502361596E-1
1.620687449E0,-2.717418969E-1,-1.065240192E1,-3.561375141E-1
1.623175106E0,-4.776432514E-1,-1.056621075E1,-5.333084464E-1
1.625662762E0,-6.404489279E-1,-1.043692398E1,-7.009025216E-1
1.628150418E0,-8.032546639E-1,-1.031721401E1,-8.110358119E-1
1.630638074E0,-9.373299479E-1,-1.023581123E1,-7.487865686E-1
1.633125731E0,-1.028309584E0,-1.019271564E1,-5.237316489E-1
1.635613387E0,-1.095347285E0,-1.016877270E1,-2.555810213E-1
1.638101043E0,-1.095347285E0,-1.017356110E1,7.481880486E-2
1.640588699E0,-9.900023937E-1,-1.020708084E1,4.818331003E-1
1.643076356E0,-7.936778665E-1,-1.029327202E1,9.894038439E-1
1.645564012E0,-5.351040959E-1,-1.040819359E1,1.506551385E0
1.648051668E0,-1.999158412E-1,-1.053748035E1,1.951872945E0
1.650539324E0,1.496376097E-1,-1.066676712E1,2.339733601E0
1.653026981E0,5.039794445E-1,-1.082957268E1,2.780266762E0
1.655514637E0,8.535329103E-1,-1.099237823E1,3.287837505E0
1.658002293E0,1.131260276E0,-1.119828033E1,3.804985046E0
1.660489949E0,1.346738458E0,-1.138981628E1,4.135385036E0
1.662977606E0,1.432929754E0,-1.155741024E1,4.221576214E0
1.665465262E0,1.428141356E0,-1.170585060E1,4.030039787E0
1.667952918E0,1.332373261E0,-1.184471416E1,3.575141668E0
1.670440574E0,1.179144382E0,-1.198357773E1,2.885611534E0
1.672928231E0,9.780313969E-1,-1.210328770E1,2.004545450E0
1.675415887E0,7.577648163E-1,-1.223257542E1,1.066018343E0
1.677903543E0,5.135562420E-1,-1.234749699E1,1.466448605E-1
1.680391199E0,2.454056740E-1,-1.243368816E1,-7.056909800E-1
1.682878856E0,-5.626374111E-2,-1.246720695E1,-1.414374709E0
1.685366512E0,-3.770867586E-1,-1.244326496E1,-2.065597534E0
1.687854168E0,-6.835445762E-1,-1.241453457E1,-2.520495892E0
1.690341824E0,-9.660604000E-1,-1.236186218E1,-2.822165251E0
1.692829481E0,-1.234210968E0,-1.232355499E1,-3.042431831E0
1.695317137E0,-1.464054346E0,-1.227088261E1,-3.099892616E0
1.697804793E0,-1.641225219E0,-1.225172901E1,-3.004124641E0
1.700292449E0,-1.799242616E0,-1.222299862E1,-2.779069662E0
1.702780106E0,-1.899798989E0,-1.219905663E1,-2.395997286E0
1.705267762E0,-1.928529501E0,-1.218469143E1,-1.845330954E0
1.707755418E0,-1.875856996E0,-1.215596104E1,-1.184531331E0
1.710243074E0,-1.760935307E0,-1.212722969E1,-4.471171796E-1
1.712730731E0,-1.588552833E0,-1.209849930E1,2.567781210E-1
1.715218387E0,-1.382651448E0,-1.204582691E1,9.032126069E-1
1.717706043E0,-1.167173386E0,-1.198357773E1,1.453878999E0
1.720193699E0,-9.995791912E-1,-1.191175175E1,1.808220863E0
1.722681356E0,-8.607155085E-1,-1.181119537E1,2.023699045E0
1.725169012E0,-7.745242715E-1,-1.173458099E1,2.176927805E0
1.727656668E0,-7.362170219E-1,-1.170106220E1,2.272696018E0
1.730144324E0,-7.314286232E-1,-1.167233181E1,2.272696018E0
1.732631981E0,-7.553706169E-1,-1.166275501E1,2.229600430E0
1.735119637E0,-7.553706169E-1,-1.170585060E1,2.200869799E0
1.737607293E0,-7.505822182E-1,-1.179204178E1,2.071583033E0
1.740094949E0,-7.122750282E-1,-1.190217495E1,1.841739655E0
1.742582606E0,-6.404489279E-1,-1.201709652E1,1.501762986E0
1.745070262E0,-5.494692922E-1,-1.214638424E1,1.113902330E0
1.747557970E0,-4.441244006E-1,-1.225651741E1,7.164648771E-1
1.750045678E0,-4.153940082E-1,-1.234270859E1,2.759317458E-1
1.752533387E0,-4.441244006E-1,-1.240974617E1,-1.502361596E-1
1.755021095E0,-5.638344884E-1,-1.241453457E1,-5.045779943E-1
1.757508803E0,-7.457938194E-1,-1.240495777E1,-7.631517649E-1
1.759996512E0,-9.900023937E-1,-1.237622738E1,-9.690531492E-1
1.762484220E0,-1.229422569E0,-1.232834339E1,-1.117493629E0
1.764971928E0,-1.459265947E0,-1.225172901E1,-1.227626920E0
1.767459637E0,-1.646013618E0,-1.218469143E1,-1.332971811E0
1.769947345E0,-1.760935307E0,-1.210328770E1,-1.400009394E0
1.772435053E0,-1.799242616E0,-1.204582691E1,-1.419163108E0
1.774922762E0,-1.808819413E0,-1.196442413E1,-1.376067400E0
1.777410470E0,-1.804031014E0,-1.185907936E1,-1.342548609E0
1.779898178E0,-1.847126603E0,-1.174415779E1,-1.275510907E0
1.782385887E0,-1.895010591E0,-1.162923622E1,-1.151012421E0
1.784873595E0,-1.952471495E0,-1.149037266E1,-9.977835417E-1
1.787361303E0,-2.014720678E0,-1.132277870E1,-8.110358119E-1
1.789849012E0,-2.067393064E0,-1.115997314E1,-6.338648796E-1
1.792336720E0,-2.086546898E0,-1.100674343E1,-4.423287511E-1
1.794824428E0,-2.081758261E0,-1.086787987E1,-2.412158251E-1
1.797312137E0,-2.033874273E0,-1.075774670E1,-7.841010392E-2
1.799799845E0,-1.933317900E0,-1.067634392E1,7.960720360E-2
1.802287553E0,-1.760935307E0,-1.062845993E1,2.519897223E-1
1.804775262E0,-1.555034041E0,-1.060930634E1,4.866214991E-1
1.807262970E0,-1.310825467E0,-1.059494114E1,7.451952696E-1
1.809750678E0,-1.061828494E0,-1.061409473E1,1.022922635E0
1.812238387E0,-8.128314614E-1,-1.065240192E1,1.228824019E0
1.814726095E0,-5.638344884E-1,-1.070986271E1,1.415571809E0
1.817213803E0,-3.770867586E-1,-1.074338150E1,1.496974587E0
1.819701512E0,-2.525882721E-1,-1.077690029E1,1.492186189E0
1.822189220E0,-1.663970202E-1,-1.078168869E1,1.348534107E0
1.824676928E0,-1.616086215E-1,-1.076732349E1,1.089960337E0
1.827164637E0,-1.855506301E-1,-1.074338150E1,7.739257216E-1
1.829652345E0,-2.717418969E-1,-1.071943951E1,4.435258508E-1
1.832140053E0,-3.483563364E-1,-1.070028591E1,1.466448605E-1
1.834627762E0,-4.058171809E-1,-1.069070911E1,-1.071405262E-1
1.837115418E0,-4.920084476E-1,-1.071465111E1,-2.795230448E-1
1.839603074E0,-5.590460896E-1,-1.072901630E1,-3.944447339E-1
1.842090731E0,-6.260837317E-1,-1.073859310E1,-5.045779943E-1
1.844578387E0,-7.170634270E-1,-1.075774670E1,-6.386532784E-1
1.847066043E0,-8.176198602E-1,-1.076732349E1,-7.487865686E-1
1.849553699E0,-9.660604000E-1,-1.076732349E1,-8.876502514E-1
1.852041356E0,-1.124077678E0,-1.073380470E1,-1.060032845E0
1.854529012E0,-1.310825467E0,-1.066676712E1,-1.265934110E0
1.857016668E0,-1.507149935E0,-1.058057594E1,-1.462258697E0
1.859504324E0,-1.722628117E0,-1.047044277E1,-1.605910778E0
1.861991981E0,-1.938106298E0,-1.036988640E1,-1.687313676E0
1.864479637E0,-2.158372879E0,-1.028369522E1,-1.653794765E0
1.866967293E0,-2.340332270E0,-1.023581123E1,-1.519719481E0
1.869454949E0,-2.464830637E0,-1.020708084E1,-1.352125406E0
1.871942606E0,-2.498349428E0,-1.020229244E1,-1.103128433E0
1.874430262E0,-2.436100245E0,-1.023581123E1,-8.397662640E-1
1.876917918E0,-2.316390038E0,-1.031721401E1,-5.716156363E-1
1.879405574E0,-2.144007683E0,-1.042734718E1,-3.178302646E-1
1.881893231E0,-1.966836691E0,-1.053269196E1,-7.362170517E-2
1.884380887E0,-1.746570110E0,-1.064282513E1,1.897404790E-1
1.886868543E0,-1.550245643E0,-1.071943951E1,4.004302323E-1
1.889356199E0,-1.387439847E0,-1.078168869E1,5.440823436E-1
1.891843856E0,-1.301248670E0,-1.078168869E1,6.111199856E-1
1.894331512E0,-1.262941360E0,-1.076253510E1,6.254851818E-1
1.896819168E0,-1.238999367E0,-1.069549751E1,6.063315868E-1
1.899306824E0,-1.224634171E0,-1.062367153E1,5.201402903E-1
1.901794481E0,-1.238999367E0,-1.054705715E1,4.483142793E-1
1.904282137E0,-1.267729759E0,-1.046565437E1,3.669114113E-1
1.906769793E0,-1.272518158E0,-1.038425159E1,2.567781210E-1
1.909257449E0,-1.272518158E0,-1.029327202E1,1.179144308E-1
1.911745106E0,-1.277306557E0,-1.022623444E1,-5.446808785E-2
1.914232762E0,-1.286883354E0,-1.017835045E1,-2.124854028E-1
1.916720418E0,-1.296460271E0,-1.014483070E1,-3.800795078E-1
1.919208074E0,-1.306037068E0,-1.014004230E1,-5.716156363E-1
1.921695731E0,-1.329979062E0,-1.013046551E1,-7.344213724E-1
1.924183387E0,-1.411381960E0,-1.012088871E1,-8.924387097E-1
1.926671043E0,-1.492784739E0,-1.012567711E1,-1.021725535E0
1.929158699E0,-1.535880446E0,-1.012567711E1,-1.107916832E0
1.931646356E0,-1.578976035E0,-1.014004230E1,-1.160589218E0
1.934134012E0,-1.617283225E0,-1.011131191E1,-1.179742932E0
1.936621668E0,-1.631648421E0,-1.011131191E1,-1.131858826E0
1.939109324E0,-1.555034041E0,-1.009215832E1,-1.055244446E0
1.941596981E0,-1.492784739E0,-1.007779312E1,-9.355342984E-1
1.944084637E0,-1.411381960E0,-1.000596714E1,-7.918822169E-1
1.946572293E0,-1.349132657E0,-9.953294754E0,-6.290764809E-1
1.949059949E0,-1.262941360E0,-9.891045570E0,-4.519055784E-1
1.951547606E0,-1.181538582E0,-9.824007988E0,-3.034650683E-1
1.954035262E0,-1.080982089E0,-9.761758804E0,-1.406593472E-1
1.956522918E0,-9.708487988E-1,-9.709086418E0,2.992752008E-3
1.959010574E0,-8.463503122E-1,-9.661202431E0,1.370680481E-1
1.961498231E0,-6.643909812E-1,-9.637260437E0,2.615665495E-1
1.963985887E0,-4.632780254E-1,-9.618106842E0,4.195838571E-1
1.966473543E0,-2.717418969E-1,-9.584588051E0,5.871779919E-1
1.968961199E0,-1.233013868E-1,-9.555857658E0,7.068880796E-1
1.971448856E0,-3.232172132E-2,-9.503185272E0,7.643488646E-1
1.973936512E0,1.556231081E-2,-9.440936089E0,7.595604658E-1
1.976424168E0,2.035071515E-2,-9.378686905E0,7.499836683E-1
1.978911824E0,5.985504016E-3,-9.316437721E0,6.877344251E-1
1.981399481E0,-3.711012751E-2,-9.273342133E0,5.967547894E-1
1.983887137E0,-9.935937077E-2,-9.244611740E0,4.818331003E-1
1.986374793E0,-1.663970202E-1,-9.249400139E0,3.477577865E-1
1.988862449E0,-2.334346622E-1,-9.254188538E0,2.376245260E-1
1.991350106E0,-3.004723191E-1,-9.292495728E0,1.274912357E-1
1.993837762E0,-3.914519846E-1,-9.340379715E0,7.481880486E-2
1.996325418E0,-4.824316502E-1,-9.412205696E0,2.693476900E-2
1.998813074E0,-5.925649405E-1,-9.479243279E0,-1.616086066E-2
2.001300731E0,-7.122750282E-1,-9.551069260E0,-7.841010392E-2
2.003788387E0,-8.463503122E-1,-9.627683640E0,-1.550245583E-1
2.006276043E0,-9.900023937E-1,-9.680356026E0,-2.220622003E-1
2.008763699E0,-1.104924083E0,-9.747393608E0,-2.795230448E-1
2.011251356E0,-1.229422569E0,-9.804854393E0,-3.082534671E-1
2.013739637E0,-1.310825467E0,-9.881468773E0,-3.034650683E-1
2.016227918E0,-1.344344258E0,-9.967659950E0,-2.603694201E-1
2.018715574E0,-1.392228246E0,-1.004427433E1,-2.651578486E-1
2.021203231E0,-1.440112352E0,-1.014961910E1,-2.172738016E-1
2.023690887E0,-1.502361536E0,-1.022144604E1,-1.741781682E-1
2.026178543E0,-1.569399238E0,-1.029806042E1,-1.262941360E-1
2.028666199E0,-1.617283225E0,-1.037467480E1,-9.756372124E-2
2.031153856E0,-1.674744129E0,-1.045607758E1,-7.362170517E-2
2.033641512E0,-1.722628117E0,-1.052790356E1,-2.573766746E-2
2.036129168E0,-1.756146908E0,-1.058536434E1,2.214636654E-2
2.038616824E0,-1.756146908E0,-1.066197872E1,1.735796221E-2
2.041104481E0,-1.713051319E0,-1.072422791E1,7.781155407E-3
2.043592137E0,-1.674744129E0,-1.080563068E1,-6.584054790E-3
2.046079793E0,-1.602918029E0,-1.090618706E1,-1.137245819E-2
2.048567449E0,-1.531091928E0,-1.098280144E1,-3.052607179E-2
2.051055106E0,-1.497573137E0,-1.104505062E1,-6.404489279E-2
2.053542762E0,-1.511938334E0,-1.110251141E1,-8.798690885E-2
2.056030418E0,-1.555034041E0,-1.114560699E1,-9.756372124E-2
2.058518074E0,-1.636436820E0,-1.117433834E1,-1.262941360E-1
2.061005731E0,-1.746570110E0,-1.120306873E1,-1.789665818E-1
2.063493387E0,-1.837549806E0,-1.124137592E1,-1.789665818E-1
2.065981043E0,-1.942894697E0,-1.126531792E1,-2.124854028E-1
2.068468699E0,-2.000355482E0,-1.129404831E1,-2.699462473E-1
2.070956356E0,-2.038662672E0,-1.136108589E1,-3.321954906E-1
2.073444012E0,-2.038662672E0,-1.146643066E1,-3.417722881E-1
2.075931668E0,-1.995567083E0,-1.156698704E1,-3.417722881E-1
2.078419324E0,-1.990778685E0,-1.168190861E1,-2.986766696E-1
2.080906981E0,-2.019509077E0,-1.183992577E1,-2.316390127E-1
2.083394637E0,-2.067393064E0,-1.197878933E1,-1.646013707E-1
2.085882293E0,-2.134430885E0,-1.212722969E1,-1.310825497E-1
2.088369949E0,-2.215833664E0,-1.229482460E1,-1.454477459E-1
2.090857606E0,-2.306813240E0,-1.250551414E1,-1.885433793E-1
2.093345262E0,-2.373851061E0,-1.270662689E1,-2.699462473E-1
2.095832918E0,-2.426523447E0,-1.292210484E1,-4.088099301E-1
2.098320574E0,-2.416946650E0,-1.313758373E1,-5.141547918E-1
2.100808231E0,-2.416946650E0,-1.339136887E1,-5.907692909E-1
2.103295887E0,-2.416946650E0,-1.362600040E1,-6.625953317E-1
2.105783543E0,-2.440888643E0,-1.383190155E1,-7.152677774E-1
2.108271199E0,-2.440888643E0,-1.405216789E1,-7.583633661E-1
2.110758856E0,-2.474407434E0,-1.425328159E1,-7.535749674E-1
2.113246512E0,-2.531868219E0,-1.444002914E1,-7.775170207E-1
2.115734168E0,-2.594117641E0,-1.459325790E1,-7.535749674E-1
2.118221824E0,-2.661155224E0,-1.474169827E1,-7.248445749E-1
2.120709481E0,-2.718616009E0,-1.486140823E1,-7.009025216E-1
2.123197137E0,-2.800018787E0,-1.494759941E1,-6.482301354E-1
2.125684793E0,-2.833537817E0,-1.500984859E1,-6.482301354E-1
2.128172449E0,-2.847903013E0,-1.507209778E1,-6.003460884E-1
2.130660106E0,-2.838326216E0,-1.512477112E1,-5.189431906E-1
2.133147762E0,-2.823961020E0,-1.513434792E1,-4.710591733E-1
2.135635418E0,-2.823961020E0,-1.513913631E1,-4.183867574E-1
2.138123074E0,-2.795230389E0,-1.509125233E1,-3.417722881E-1
2.140610731E0,-2.785653591E0,-1.503379059E1,-2.268506140E-1
2.143098387E0,-2.776076794E0,-1.499069500E1,-1.071405262E-1
2.145586043E0,-2.728192806E0,-1.494281101E1,2.214636654E-2
2.148073699E0,-2.656366825E0,-1.489013863E1,1.562216580E-1
2.150561356E0,-2.560598612E0,-1.485183144E1,2.998737693E-1
2.153049012E0,-2.474407434E0,-1.481352425E1,4.052186310E-1
2.155536668E0,-2.373851061E0,-1.477521706E1,4.770447016E-1
2.158024324E0,-2.273294449E0,-1.477042866E1,5.009866953E-1
2.160511981E0,-2.177526474E0,-1.478000546E1,4.961982965E-1
2.162999637E0,-2.067393064E0,-1.483746624E1,5.345055461E-1
2.165487293E0,-1.976413488E0,-1.491408062E1,5.153518915E-1
2.167974949E0,-1.847126603E0,-1.500984859E1,4.578910768E-1
2.170462606E0,-1.736993313E0,-1.512477112E1,3.716998100E-1
2.172950262E0,-1.641225219E0,-1.522532749E1,2.663549483E-1
2.175437918E0,-1.535880446E0,-1.534982586E1,1.562216580E-1
2.177925574E0,-1.449689150E0,-1.545517063E1,4.608838260E-2
2.180413231E0,-1.382651448E0,-1.552220821E1,1.256955881E-2
2.182900887E0,-1.353921056E0,-1.558445740E1,2.214636654E-2
2.185388543E0,-1.339555860E0,-1.561318779E1,9.397241473E-2
2.187876199E0,-1.339555860E0,-1.563234138E1,1.945288926E-1
2.190363856E0,-1.306037068E0,-1.563712978E1,3.429693878E-1
2.192851512E0,-1.248576164E0,-1.561318779E1,4.674678743E-1
2.195339168E0,-1.157596469E0,-1.557009220E1,6.159083843E-1
2.197826824E0,-1.033097982E0,-1.555572701E1,7.595604658E-1
2.200314481E0,-8.846575022E-1,-1.555572701E1,8.553285599E-1
2.202802137E0,-7.218518257E-1,-1.553657341E1,9.654618502E-1
2.205289845E0,-5.781996846E-1,-1.553178501E1,1.056441545E0
2.207777553E0,-4.728548229E-1,-1.552220821E1,1.104325533E0
2.210265262E0,-3.579331636E-1,-1.552699661E1,1.137844324E0
2.212752970E0,-2.813186944E-1,-1.552220821E1,1.161786318E0
2.215240678E0,-2.142810524E-1,-1.555093861E1,1.195305228E0
2.217728387E0,-1.424549967E-1,-1.555572701E1,1.204882026E0
2.220216095E0,-8.020575345E-2,-1.556530380E1,1.180940032E0
2.222703803E0,-4.189852998E-2,-1.555572701E1,1.080383539E0
2.225191512E0,-3.232172132E-2,-1.552220821E1,9.606734514E-1
2.227679220E0,-7.541735470E-2,-1.548390102E1,8.218097091E-1
2.230166928E0,-1.233013868E-1,-1.543601704E1,7.356184721E-1
2.232654637E0,-1.807622313E-1,-1.536897945E1,6.542156339E-1
2.235142345E0,-2.430114746E-1,-1.528757668E1,5.440823436E-1
2.237630053E0,-2.908954918E-1,-1.520617390E1,5.009866953E-1
2.240117762E0,-3.244143426E-1,-1.515828991E1,5.105634928E-1
2.242605470E0,-2.861070931E-1,-1.510082912E1,5.201402903E-1
2.245093178E0,-2.190694511E-1,-1.507688618E1,5.488707423E-1
2.247580887E0,-9.935937077E-2,-1.506730938E1,6.350619793E-1
2.250068595E0,3.471592441E-2,-1.507688618E1,7.212532759E-1
2.252556303E0,1.544260085E-1,-1.510082912E1,7.978677154E-1
2.255044012E0,2.310404629E-1,-1.512955952E1,8.265981078E-1
2.257531720E0,2.693476975E-1,-1.510561752E1,8.457517624E-1
2.260019428E0,2.789244950E-1,-1.507688618E1,8.696937561E-1
2.262507137E0,2.645592988E-1,-1.505294418E1,8.984242082E-1
2.264994845E0,2.837128937E-1,-1.502900219E1,9.606734514E-1
2.267482553E0,3.555389643E-1,-1.499069500E1,9.846154451E-1
2.269970262E0,4.656722248E-1,-1.498111820E1,1.022922635E0
2.272457970E0,6.284779310E-1,-1.500027180E1,1.113902330E0
2.274945678E0,8.487445116E-1,-1.500506020E1,1.185728431E0
2.277433387E0,1.107318282E0,-1.500984859E1,1.247977614E0
2.279921095E0,1.327584863E0,-1.500984859E1,1.334168911E0
2.282408803E0,1.528697729E0,-1.502421379E1,1.458667397E0
2.284896512E0,1.701080322E0,-1.501463699E1,1.564012289E0
2.287384220E0,1.830367208E0,-1.501463699E1,1.631049871E0
2.289871928E0,1.969230890E0,-1.501463699E1,1.626261473E0
2.292359637E0,2.112883091E0,-1.504815578E1,1.602319479E0
2.294847293E0,2.270900249E0,-1.510561752E1,1.540070295E0
2.297334949E0,2.476801634E0,-1.519659710E1,1.487397790E0
2.299822606E0,2.721010208E0,-1.529236507E1,1.444302201E0
2.302310262E0,2.979583979E0,-1.539770985E1,1.401206493E0
2.304797918E0,3.219004154E0,-1.551263142E1,1.358110905E0
2.307285574E0,3.386598349E0,-1.560839939E1,1.276708007E0
2.309773231E0,3.468001127E0,-1.567543697E1,1.209670424E0
2.312260887E0,3.496731520E0,-1.568980217E1,1.113902330E0
2.314748543E0,3.468001127E0,-1.566586018E1,9.798270464E-1
2.317236199E0,3.377021551E0,-1.561797619E1,7.882909179E-1
2.319723856E0,3.290830135E0,-1.554136181E1,5.536591411E-1
2.322211512E0,3.219004154E0,-1.544080544E1,3.190273643E-1
2.324699168E0,3.175908566E0,-1.532588387E1,1.514332592E-1
2.327186824E0,3.185485363E0,-1.517744350E1,4.608838260E-2
2.329674481E0,3.209427357E0,-1.500027180E1,-1.795651275E-3
2.332162137E0,3.252522945E0,-1.480873585E1,1.735796221E-2
2.334649793E0,3.276464939E0,-1.458368111E1,9.397241473E-2
2.337137449E0,3.329137564E0,-1.435383797E1,2.328361124E-1
2.339625106E0,3.357867956E0,-1.412399483E1,4.387374520E-1
2.342112762E0,3.405751944E0,-1.387020874E1,6.781576276E-1
2.344600418E0,3.410540342E0,-1.362600040E1,9.175778031E-1
2.347088074E0,3.424905539E0,-1.337221527E1,1.171363235E0
2.349575731E0,3.444059134E0,-1.312800694E1,1.377264500E0
2.352063387E0,3.458424330E0,-1.289337444E1,1.535281897E0
2.354551043E0,3.453635931E0,-1.268747330E1,1.693299174E0
2.357038699E0,3.463212729E0,-1.250072575E1,1.822586060E0
2.359526356E0,3.444059134E0,-1.236186218E1,1.956661344E0
2.362014012E0,3.444059134E0,-1.227088261E1,2.105101824E0
2.364501668E0,3.515885115E0,-1.222778702E1,2.263119221E0
2.366989324E0,3.678690910E0,-1.226130581E1,2.382829189E0
2.369476981E0,3.956418276E0,-1.232834339E1,2.440289974E0
2.371964637E0,4.282029629E0,-1.242411137E1,2.492962599E0
2.374452293E0,4.583699226E0,-1.251987934E1,2.507327795E0
2.376939949E0,4.837484360E0,-1.260128212E1,2.488174200E0
2.379427606E0,5.024232388E0,-1.261564732E1,2.430713177E0
2.381915262E0,5.110423565E0,-1.256776333E1,2.325368404E0
2.384402918E0,5.105635166E0,-1.247199535E1,2.196081400E0
2.386890574E0,5.033809185E0,-1.234749699E1,2.076371431E0
2.389378231E0,4.957194805E0,-1.225172901E1,1.880046844E0
2.391865887E0,4.885368347E0,-1.214159584E1,1.650203466E0
2.394353543E0,4.789600372E0,-1.200273132E1,1.429937005E0
2.396841199E0,4.674678802E0,-1.187823296E1,1.233612418E0
2.399328856E0,4.545392036E0,-1.176331139E1,1.104325533E0
2.401816512E0,4.463989258E0,-1.166275501E1,1.085171938E0
2.404304168E0,4.483142853E0,-1.156219864E1,1.089960337E0
2.406791824E0,4.554968834E0,-1.147121906E1,1.104325533E0
2.409279481E0,4.650736809E0,-1.137545109E1,1.099537134E0
2.411767137E0,4.775235176E0,-1.124616432E1,1.133055925E0
2.414254793E0,4.861426353E0,-1.113124180E1,1.152209520E0
2.416742449E0,4.914099216E0,-1.100674343E1,1.209670424E0
2.419230106E0,4.890156746E0,-1.084872627E1,1.305438519E0
2.421717762E0,4.842272758E0,-1.066197872E1,1.396418095E0
2.424205418E0,4.751293182E0,-1.047044277E1,1.525704980E0
2.426693074E0,4.650736809E0,-1.026454163E1,1.698087573E0
2.429180731E0,4.574122429E0,-1.004427433E1,1.813009262E0
2.431668387E0,4.487931252E0,-9.795277596E0,1.827374458E0
2.434156043E0,4.425682068E0,-9.531915665E0,1.827374458E0
2.436643699E0,4.353855610E0,-9.292495728E0,1.856104851E0
2.439131356E0,4.229357243E0,-9.043498039E0,1.870470047E0
2.441619012E0,4.095282078E0,-8.828020096E0,1.927930951E0
2.444106668E0,3.922899485E0,-8.617330551E0,1.918354154E0
2.446594324E0,3.702632904E0,-8.473678589E0,1.875258446E0
2.449081981E0,3.477577925E0,-8.339603424E0,1.798644066E0
2.451569637E0,3.266888142E0,-8.234258652E0,1.755548358E0
2.454057606E0,3.075352192E0,-8.133701324E0,1.798644066E0
2.456545574E0,2.946065187E0,-8.057086945E0,1.870470047E0
2.459033543E0,2.883816004E0,-7.980473042E0,2.004545450E0
2.461521460E0,2.888604403E0,-7.908646584E0,2.129043818E0
2.464009116E0,2.902969599E0,-7.812878609E0,2.215235233E0
2.466496772E0,2.883816004E0,-7.678803444E0,2.267907619E0
2.468984428E0,2.788047791E0,-7.554305077E0,2.301426411E0
2.471472085E0,2.649184227E0,-7.410652637E0,2.325368404E0
2.473959741E0,2.491166830E0,-7.247847080E0,2.330156803E0
2.476447397E0,2.357091665E0,-7.051522732E0,2.401982784E0
2.478935053E0,2.299630642E0,-6.816890717E0,2.545634985E0
2.481422710E0,2.337938070E0,-6.572682381E0,2.703652382E0
2.483910366E0,2.462436438E0,-6.285377979E0,2.899976730E0
2.486398022E0,2.625242233E0,-5.983708382E0,3.086724520E0
2.488885678E0,2.811989784E0,-5.648520470E0,3.206434727E0
2.491373335E0,2.931699991E0,-5.265448093E0,3.249530315E0
2.493860991E0,2.960430384E0,-4.839280128E0,3.254318714E0
2.496348647E0,2.893392801E0,-4.417900562E0,3.192069530E0
2.498836303E0,2.725798607E0,-3.967790842E0,3.062782526E0
2.501323960E0,2.481590033E0,-3.517680883E0,2.904765129E0
2.503811616E0,2.218227863E0,-3.062782526E0,2.674921751E0
2.506299272E0,1.978807688E0,-2.588730574E0,2.416347980E0
2.508786928E0,1.739387512E0,-2.152985811E0,2.172139406E0
2.511274585E0,1.576581836E0,-1.745971560E0,1.951872945E0
2.513762241E0,1.461660147E0,-1.377264500E0,1.789067268E0
2.516249897E0,1.356315255E0,-1.013345838E0,1.674145579E0
2.518737553E0,1.289277673E0,-6.733692288E-1,1.635838270E0
2.521225210E0,1.222239971E0,-3.764882088E-1,1.688510776E0
2.523712866E0,1.112106681E0,-8.439560980E-2,1.860893250E0
2.526200522E0,1.006761789E0,1.885433793E-1,2.124255419E0
2.528688178E0,9.301473498E-1,4.614823759E-1,2.488174200E0
2.531175835E0,8.822633028E-1,7.439981699E-1,2.962226152E0
2.533663491E0,8.439561129E-1,1.026513934E0,3.527257681E0
2.536151147E0,8.583213091E-1,1.304241419E0,4.020462990E0
2.538638803E0,8.918401599E-1,1.591545582E0,4.432265759E0
2.541126460E0,9.205705523E-1,1.912368655E0,4.681262970E0
2.543614116E0,8.774749041E-1,2.237980127E0,4.729146957E0
2.546101772E0,7.769184709E-1,2.568379879E0,4.642955780E0
2.548589428E0,5.997475386E-1,2.908356428E0,4.422688961E0
2.551077085E0,3.507505357E-1,3.233968019E0,4.116231441E0
2.553564741E0,6.344634295E-2,3.526060581E0,3.809773445E0
2.556052397E0,-2.238578647E-1,3.779845953E0,3.484162092E0
2.558540053E0,-4.776432514E-1,4.043208122E0,3.148973703E0
2.561027710E0,-6.739677787E-1,4.268262863E0,2.871246338E0
2.563515366E0,-8.032546639E-1,4.450222492E0,2.674921751E0
2.566003022E0,-8.702923059E-1,4.603451252E0,2.560000181E0
2.568490678E0,-9.038111567E-1,4.742314816E0,2.550423384E0
2.570978335E0,-8.655039072E-1,4.871602058E0,2.574365377E0
2.573465991E0,-7.841010690E-1,5.005677223E0,2.560000181E0
2.575953647E0,-6.931213737E-1,5.125387192E0,2.488174200E0
2.578441303E0,-6.069301367E-1,5.254673958E0,2.411559582E0
2.580928960E0,-5.542576909E-1,5.427056789E0,2.349310398E0
2.583416616E0,-4.824316502E-1,5.594650745E0,2.325368404E0
2.585904272E0,-4.537012279E-1,5.762245178E0,2.382829189E0
2.588391928E0,-4.967968464E-1,5.934627533E0,2.445078373E0
2.590879585E0,-5.829881430E-1,6.121375084E0,2.521692991E0
2.593367241E0,-7.074866295E-1,6.260239124E0,2.607884169E0
2.595854897E0,-8.176198602E-1,6.365583897E0,2.560000181E0
2.598342553E0,-9.181763530E-1,6.446986675E0,2.354098797E0
2.600830210E0,-1.013944387E0,6.504447460E0,2.018910646E0
2.603317866E0,-1.114500880E0,6.499659061E0,1.621473074E0
2.605805522E0,-1.234210968E0,6.437409878E0,1.209670424E0
2.608293178E0,-1.349132657E0,6.346430302E0,8.122329116E-1
2.610780835E0,-1.459265947E0,6.231508255E0,4.531026781E-1
2.613268491E0,-1.559822440E0,6.059125900E0,1.179144308E-1
2.615756147E0,-1.636436820E0,5.881955147E0,-1.454477459E-1
2.618243803E0,-1.708262920E0,5.676053524E0,-3.561375141E-1
2.620731460E0,-1.775300503E0,5.470152378E0,-4.902127981E-1
2.623219116E0,-1.808819413E0,5.273828030E0,-5.620388389E-1
2.625706772E0,-1.856703401E0,5.053561211E0,-6.147112846E-1
2.628194428E0,-1.875856996E0,4.838083267E0,-6.434416771E-1
2.630682085E0,-1.909375906E0,4.656123638E0,-6.817489266E-1
2.633169741E0,-1.933317900E0,4.507683277E0,-6.961141229E-1
2.635657397E0,-1.928529501E0,4.359242916E0,-6.769605279E-1
2.638145106E0,-1.899798989E0,4.225167274E0,-6.578069329E-1
2.640632814E0,-1.875856996E0,4.110245705E0,-6.051344872E-1
2.643120522E0,-1.818396211E0,4.000112534E0,-4.662707746E-1
2.645608231E0,-1.780089021E0,3.885190725E0,-2.890998423E-1
2.648095939E0,-1.736993313E0,3.760692358E0,-4.967968538E-2
2.650583647E0,-1.693897724E0,3.631405354E0,1.993172914E-1
2.653071356E0,-1.655590534E0,3.502118587E0,4.531026781E-1
2.655559064E0,-1.593341231E0,3.358466387E0,6.590040326E-1
2.658046772E0,-1.535880446E0,3.205237627E0,8.218097091E-1
2.660534481E0,-1.502361536E0,3.032855034E0,9.080010056E-1
2.663022189E0,-1.449689150E0,2.841318846E0,9.558850527E-1
2.665509897E0,-1.420958757E0,2.625840664E0,9.846154451E-1
2.667997606E0,-1.435323954E0,2.381632090E0,1.032499433E0
2.670485314E0,-1.449689150E0,2.108693123E0,1.066018343E0
2.672973022E0,-1.435323954E0,1.845330954E0,1.051653147E0
2.675460731E0,-1.392228246E0,1.538873196E0,1.032499433E0
2.677948439E0,-1.296460271E0,1.227626920E0,9.558850527E-1
2.680436147E0,-1.200692177E0,9.163807034E-1,8.649053574E-1
2.682923856E0,-1.119289279E0,6.194996834E-1,7.260416746E-1
2.685411564E0,-1.104924083E0,3.178302646E-1,5.632359385E-1
2.687899272E0,-1.138442874E0,2.094926499E-2,4.243722558E-1
2.690386981E0,-1.176750183E0,-2.902969420E-1,3.525462151E-1
2.692874689E0,-1.195903778E0,-6.015431881E-1,3.190273643E-1
2.695362397E0,-1.200692177E0,-8.936358094E-1,3.716998100E-1
2.697850106E0,-1.162384868E0,-1.209670424E0,4.914098978E-1
2.700337814E0,-1.090558887E0,-1.511339784E0,6.542156339E-1
2.702825522E0,-9.995791912E-1,-1.803432465E0,8.792705536E-1
2.705313231E0,-8.942343593E-1,-2.062006235E0,1.089960337E0
2.707800939E0,-8.176198602E-1,-2.315791607E0,1.224035621E0
2.710288647E0,-7.745242715E-1,-2.540846586E0,1.300650120E0
2.712776356E0,-7.505822182E-1,-2.708440781E0,1.324592113E0
2.715264064E0,-8.032546639E-1,-2.871246338E0,1.334168911E0
2.717751772E0,-8.990227580E-1,-3.038840532E0,1.334168911E0
2.720239481E0,-9.852139950E-1,-3.187281132E0,1.319803715E0
2.722727189E0,-1.071405292E0,-3.345298290E0,1.315015316E0
2.725214897E0,-1.119289279E0,-3.512892485E0,1.329380512E0
2.727702606E0,-1.109712481E0,-3.670909643E0,1.358110905E0
2.730190314E0,-1.066616893E0,-3.833715439E0,1.482609391E0
2.732677970E0,-9.373299479E-1,-3.986944437E0,1.669357181E0
2.735165626E0,-7.697358727E-1,-4.159327030E0,1.870470047E0
2.737653283E0,-5.494692922E-1,-4.312555790E0,2.100313425E0
2.740140939E0,-3.052607179E-1,-4.427477360E0,2.349310398E0
2.742628595E0,-7.541735470E-2,-4.566341400E0,2.665344954E0
2.745116251E0,1.209071875E-1,-4.666897774E0,2.976591349E0
2.747603908E0,2.837128937E-1,-4.729146957E0,3.220799923E0
2.750091564E0,3.651157618E-1,-4.762665749E0,3.374028683E0
2.752579220E0,3.315969408E-1,-4.762665749E0,3.417124271E0
2.755066876E0,1.975216419E-1,-4.777030945E0,3.326144695E0
2.757554533E0,-3.232172132E-2,-4.781819344E0,3.110666513E0
2.760042189E0,-3.435679376E-1,-4.824914932E0,2.876034737E0
2.762529845E0,-6.452373862E-1,-4.930259705E0,2.665344954E0
2.765017501E0,-8.607155085E-1,-5.069123745E0,2.488174200E0
2.767505158E0,-9.325415492E-1,-5.246294498E0,2.358887196E0
2.769992814E0,-8.607155085E-1,-5.461772442E0,2.243965626E0
2.772480470E0,-6.739677787E-1,-5.701192856E0,2.124255419E0
2.774968126E0,-3.962403834E-1,-5.983708382E0,2.057217836E0
2.777455783E0,-1.233013868E-1,-6.280589581E0,1.994968534E0
2.779943439E0,1.209071875E-1,-6.553528786E0,1.961449742E0
2.782431095E0,3.268085420E-1,-6.826467514E0,1.966238141E0
2.784918751E0,4.465186298E-1,-7.085041523E0,2.047641039E0
2.787406408E0,5.327098966E-1,-7.324461460E0,2.167351007E0
2.789894064E0,5.327098966E-1,-7.520786285E0,2.311003208E0
2.792381720E0,5.422866940E-1,-7.678803444E0,2.459443808E0
2.794869376E0,5.231330991E-1,-7.812878609E0,2.574365377E0
2.797357033E0,5.327098966E-1,-7.932588577E0,2.689286947E0
2.799844689E0,5.470750928E-1,-8.052298546E0,2.789843559E0
2.802332345E0,5.470750928E-1,-8.119336128E0,2.808997154E0
2.804820001E0,5.805938840E-1,-8.176796913E0,2.832939148E0
2.807307658E0,6.667851806E-1,-8.234258652E0,2.842515945E0
2.809795314E0,8.439561129E-1,-8.301296234E0,2.871246338E0
2.812282970E0,1.150413871E0,-8.377910614E0,2.880823135E0
2.814770626E0,1.543063045E0,-8.478466988E0,2.943072557E0
2.817258283E0,1.997961283E0,-8.588600159E0,3.038840532E0
2.819745939E0,2.424129248E0,-8.708310127E0,3.163338900E0
2.822233595E0,2.807201385E0,-8.808866501E0,3.244741917E0
2.824721251E0,3.084928989E0,-8.923788071E0,3.302202702E0
2.827208908E0,3.257311344E0,-9.053074837E0,3.364451885E0
2.829696564E0,3.367444754E0,-9.177573204E0,3.359663486E0
2.832184220E0,3.434482336E0,-9.335591316E0,3.364451885E0
2.834671876E0,3.477577925E0,-9.507973671E0,3.306991100E0
2.837159533E0,3.472789526E0,-9.718663216E0,3.134608507E0
2.839647189E0,3.396175146E0,-9.934141159E0,2.856881142E0
2.842134845E0,3.286041737E0,-1.015440750E1,2.560000181E0
2.844622501E0,3.147178173E0,-1.040819359E1,2.291849613E0
2.847110158E0,2.989160776E0,-1.068113232E1,2.018910646E0
2.849597814E0,2.864662409E0,-1.097322464E1,1.712452769E0
2.852085470E0,2.749740601E0,-1.126052952E1,1.343745708E0
2.854573126E0,2.677914619E0,-1.153346825E1,8.984242082E-1
2.857060783E0,2.701856613E0,-1.185429096E1,5.728127360E-1
2.859548439E0,2.730587006E0,-1.218469143E1,2.950853705E-1
2.862036095E0,2.754528999E0,-1.250072575E1,1.131260321E-1
2.864523751E0,2.744952202E0,-1.281197166E1,5.087678507E-2
2.867011408E0,2.706645012E0,-1.304660320E1,4.608838260E-2
2.869499064E0,2.658761024E0,-1.323335171E1,1.466448605E-1
2.871986720E0,2.591723442E0,-1.337221527E1,3.525462151E-1
2.874474376E0,2.519897223E0,-1.344882965E1,5.536591411E-1
2.876962033E0,2.457648039E0,-1.347756004E1,7.356184721E-1
2.879449689E0,2.419340849E0,-1.343446445E1,9.606734514E-1
2.881937345E0,2.366668463E0,-1.339615726E1,1.204882026E0
2.884425001E0,2.256535053E0,-1.332911968E1,1.453878999E0
2.886912658E0,2.117671490E0,-1.324771690E1,1.654991984E0
2.889400314E0,1.930923700E0,-1.318067932E1,1.860893250E0
2.891887970E0,1.758541107E0,-1.313279533E1,2.105101824E0
2.894375626E0,1.586158633E0,-1.304660320E1,2.325368404E0
2.896863283E0,1.471236944E0,-1.295562363E1,2.512116194E0
2.899350939E0,1.442506552E0,-1.286943245E1,2.641402960E0
2.901838647E0,1.533486247E0,-1.279760647E1,2.832939148E0
2.904326356E0,1.710657120E0,-1.273535728E1,3.053205729E0
2.906814064E0,1.930923700E0,-1.266831970E1,3.292625904E0
2.909301772E0,2.122459888E0,-1.263958931E1,3.503315687E0
2.911789481E0,2.256535053E0,-1.259170532E1,3.661332846E0
2.914277189E0,2.299630642E0,-1.254860973E1,3.670909643E0
2.916764897E0,2.246958256E0,-1.253424454E1,3.532046080E0
2.919252606E0,2.175132275E0,-1.254860973E1,3.326144695E0
2.921740314E0,2.141613483E0,-1.263480091E1,3.096301317E0
2.924228022E0,2.151190281E0,-1.279760647E1,2.876034737E0
2.926715731E0,2.208651066E0,-1.300350761E1,2.694075346E0
2.929203439E0,2.290053844E0,-1.325250530E1,2.545634985E0
2.931691147E0,2.361880064E0,-1.348713684E1,2.440289974E0
2.934178856E0,2.352303267E0,-1.367867279E1,2.339733601E0
2.936666564E0,2.251746655E0,-1.381274796E1,2.253542423E0
2.939154272E0,2.122459888E0,-1.393724632E1,2.133832216E0
2.941641981E0,1.954865694E0,-1.399949551E1,1.894412041E0
2.944129689E0,1.859097600E0,-1.408568668E1,1.659780383E0
2.946617397E0,1.825578809E0,-1.420539761E1,1.453878999E0
2.949105106E0,1.806425214E0,-1.430595398E1,1.190516829E0
2.951592814E0,1.801636815E0,-1.434904957E1,9.271546006E-1
2.954080522E0,1.777694821E0,-1.436820316E1,7.116764784E-1
2.956568231E0,1.691503525E0,-1.429158878E1,5.153518915E-1
2.959055939E0,1.543063045E0,-1.417187881E1,3.812766075E-1
2.961543647E0,1.289277673E0,-1.397555351E1,2.855085433E-1
2.964031356E0,1.045069098E0,-1.376486397E1,3.429693878E-1
2.966519064E0,8.104372621E-1,-1.348713684E1,4.961982965E-1
2.969006772E0,6.763619781E-1,-1.318546772E1,4.052186310E-1
2.971494481E0,6.141127348E-1,-1.291731644E1,7.308300734E-1
2.973982189E0,5.853823423E-1,-1.263958931E1,1.247977614E0
2.976469897E0,6.141127348E-1,-1.238101578E1,1.702875972E0
2.978957606E0,6.332663298E-1,-1.214638424E1,2.277484417E0
2.981445314E0,6.189011335E-1,-1.192132854E1,2.684498549E0
2.983933022E0,5.805938840E-1,-1.170585060E1,2.847304344E0
2.986420731E0,5.710170865E-1,-1.154304504E1,2.909553528E0
2.988908439E0,7.050924301E-1,-1.145685387E1,2.899976730E0
2.991396147E0,9.588778019E-1,-1.147600746E1,2.847304344E0
2.993883856E0,1.313219666E0,-1.149516106E1,2.852092743E0
2.996371564E0,1.696291924E0,-1.153825665E1,2.842515945E0
2.998859220E0,2.007538080E0,-1.154304504E1,2.794631958E0
3.001346876E0,2.213439465E0,-1.147600746E1,2.718017578E0
3.003834533E0,2.261323452E0,-1.136587429E1,2.622249365E0
3.006322189E0,2.146401882E0,-1.122222233E1,2.502539396E0
3.008809845E0,1.959654093E0,-1.105462742E1,2.296638012E0
3.011297501E0,1.725022316E0,-1.090618706E1,2.042852640E0
3.013785158E0,1.499967337E0,-1.079126549E1,1.784278870E0
3.016272814E0,1.298854470E0,-1.071465111E1,1.516128182E0
3.018760470E0,1.193509579E0,-1.070028591E1,1.262342811E0
3.021248126E0,1.136048675E0,-1.072901630E1,1.027711034E0
3.023735783E0,1.164779186E0,-1.078647709E1,8.265981078E-1
3.026223439E0,1.270123959E0,-1.086309147E1,7.116764784E-1
3.028711095E0,1.385045648E0,-1.095407104E1,6.637924314E-1
3.031198751E0,1.528697729E0,-1.100195503E1,7.116764784E-1
3.033686408E0,1.677138329E0,-1.102110863E1,9.510966539E-1
3.036174064E0,1.758541107E0,-1.098758984E1,1.334168911E0
3.038661720E0,1.744175911E0,-1.090139866E1,1.726817966E0
3.041149376E0,1.653196216E0,-1.080084229E1,2.152985811E0
3.043637033E0,1.509544134E0,-1.064761353E1,2.564788580E0
3.046124689E0,1.346738458E0,-1.049438477E1,2.861669540E0
3.048612345E0,1.236605167E0,-1.037946320E1,3.077147722E0
3.051100001E0,1.207874775E0,-1.032200241E1,3.196857929E0
3.053587658E0,1.274912357E0,-1.031721401E1,3.206434727E0
3.056075314E0,1.404199243E0,-1.036030960E1,3.091512918E0
3.058562970E0,1.586158633E0,-1.042734718E1,2.928707123E0
3.061050626E0,1.801636815E0,-1.050874996E1,2.670133352E0
3.063538283E0,1.969230890E0,-1.059494114E1,2.339733601E0
3.066025939E0,2.069787264E0,-1.066676712E1,2.028487444E0
3.068513595E0,2.069787264E0,-1.071943951E1,1.664568782E0
3.071001251E0,1.988384485E0,-1.075295830E1,1.286284804E0
3.073488908E0,1.859097600E0,-1.081999588E1,9.463081956E-1
3.075976564E0,1.710657120E0,-1.090139866E1,6.685808301E-1
3.078464220E0,1.562216640E0,-1.098758984E1,4.147954583E-1
3.080951876E0,1.413776159E0,-1.108814621E1,2.041056901E-1
3.083439533E0,1.327584863E0,-1.119828033E1,7.481880486E-2
3.085927189E0,1.284489155E0,-1.128925991E1,-3.531447425E-2
3.088414845E0,1.274912357E0,-1.138502789E1,-7.362170517E-2
3.090902501E0,1.284489155E0,-1.142812347E1,-9.277531505E-2
3.093390158E0,1.246181965E0,-1.140896988E1,-6.883329898E-2
3.095877814E0,1.207874775E0,-1.135629749E1,4.129998013E-2
3.098365470E0,1.179144382E0,-1.125095272E1,2.472013235E-1
3.100853126E0,1.112106681E0,-1.112645340E1,5.967547894E-1
3.103340783E0,1.016338587E0,-1.100674343E1,1.032499433E0
3.105828439E0,9.109937549E-1,-1.089661026E1,1.487397790E0
3.108316095E0,8.008604646E-1,-1.078168869E1,1.956661344E0
3.110803751E0,7.003039718E-1,-1.070028591E1,2.382829189E0
3.113291408E0,6.715735793E-1,-1.066676712E1,2.785055161E0
3.115779064E0,7.003039718E-1,-1.066676712E1,3.144185305E0
3.118266720E0,7.864952683E-1,-1.071465111E1,3.465008497E0
3.120754376E0,9.109937549E-1,-1.077211189E1,3.685275078E0
3.123242033E0,1.030703783E0,-1.083436108E1,3.785831451E0
3.125729689E0,1.116895080E0,-1.089182186E1,3.757101059E0
3.128217345E0,1.179144382E0,-1.092534065E1,3.594295263E0
3.130705001E0,1.222239971E0,-1.096364784E1,3.326144695E0
3.133192658E0,1.227028370E0,-1.100195503E1,2.933495522E0
3.135680314E0,1.212663174E0,-1.102110863E1,2.473809004E0
3.138167970E0,1.159990668E0,-1.103068542E1,1.937507749E0
3.140655626E0,9.876081944E-1,-1.103068542E1,1.382052898E0
3.143143283E0,7.098808289E-1,-1.101632023E1,7.835025191E-1
3.145630939E0,3.842693865E-1,-1.097322464E1,1.657984704E-1
3.148118595E0,5.865794048E-2,-1.090618706E1,-4.135983288E-1
3.150606251E0,-2.382230759E-1,-1.084393787E1,-9.211691022E-1
3.153093908E0,-5.111620426E-1,-1.077690029E1,-1.251568913E0
3.155581564E0,-6.835445762E-1,-1.071465111E1,-1.443105102E0
3.158069272E0,-7.697358727E-1,-1.061888313E1,-1.567603588E0
3.160556981E0,-7.314286232E-1,-1.050396156E1,-1.543661594E0
3.163044689E0,-6.212953329E-1,-1.036988640E1,-1.390432596E0
3.165532397E0,-4.537012279E-1,-1.018792725E1,-1.127070427E0
3.168020106E0,-2.813186944E-1,-9.967659950E0,-7.583633661E-1
3.170507814E0,-1.233013868E-1,-9.728240013E0,-3.321954906E-1
3.172995522E0,2.035071515E-2,-9.488820076E0,1.657984704E-1
3.175483231E0,1.496376097E-1,-9.239823341E0,6.925228238E-1
3.177970939E0,2.597708702E-1,-9.043498039E0,1.276708007E0
3.180458647E0,4.034229815E-1,-8.895057678E0,1.937507749E0
3.182946356E0,5.949591398E-1,-8.804078102E0,2.516904593E0
3.185434064E0,7.960720658E-1,-8.775347710E0,3.086724520E0
3.187921772E0,1.073799491E0,-8.851962090E0,3.694851875E0
3.190409481E0,1.370680451E0,-9.019556046E0,4.346074581E0
3.192897189E0,1.643619418E0,-9.244611740E0,4.858433723E0
3.195384897E0,1.830367208E0,-9.507973671E0,5.155314922E0
3.197872606E0,1.969230890E0,-9.785700798E0,5.155314922E0
3.200360314E0,2.021903276E0,-1.006342793E1,4.824914932E0
3.202848022E0,2.026691675E0,-1.034594440E1,4.221576214E0
3.205335731E0,2.026691675E0,-1.064761353E1,3.445854902E0
3.207823439E0,2.026691675E0,-1.094449425E1,2.689286947E0
3.210311147E0,2.026691675E0,-1.122701073E1,1.908777356E0
3.212798856E0,1.974019289E0,-1.144727707E1,1.133055925E0
3.215286564E0,1.844732404E0,-1.158135223E1,3.381809890E-1
3.217774272E0,1.634042621E0,-1.164838982E1,-4.231751561E-1
3.220261981E0,1.361103654E0,-1.162444782E1,-1.179742932E0
3.222749689E0,1.021126986E0,-1.155262184E1,-1.878849745E0
3.225237397E0,5.997475386E-1,-1.145206547E1,-2.448669672E0
3.227725106E0,1.879448295E-1,-1.132756710E1,-2.889202833E0
3.230212814E0,-2.238578647E-1,-1.116954994E1,-3.205237627E0
3.232700522E0,-6.021417379E-1,-1.101632023E1,-3.353677988E0
3.235188231E0,-9.181763530E-1,-1.085830307E1,-3.248333216E0
3.237675939E0,-1.181538582E0,-1.072901630E1,-2.999336243E0
3.240163647E0,-1.358709455E0,-1.059972954E1,-2.606687069E0
3.242651356E0,-1.464054346E0,-1.050874996E1,-2.099116325E0
3.245139064E0,-1.545457244E0,-1.043692398E1,-1.467047095E0
3.247626772E0,-1.564610839E0,-1.040340519E1,-7.392097712E-1
3.250114481E0,-1.531091928E0,-1.036030960E1,-1.795651275E-3
3.252602189E0,-1.459265947E0,-1.036030960E1,8.170213103E-1
3.255089897E0,-1.373074651E0,-1.042255878E1,1.678933978E0
3.257577553E0,-1.258152962E0,-1.048959637E1,2.459443808E0
3.260065210E0,-1.119289279E0,-1.056621075E1,3.115454912E0
3.262552866E0,-9.612720013E-1,-1.070507431E1,3.737947464E0
3.265040522E0,-7.936778665E-1,-1.082957268E1,4.159327030E0
3.267528178E0,-6.165069342E-1,-1.100195503E1,4.437054157E0
3.270015835E0,-4.537012279E-1,-1.121743393E1,4.590283394E0
3.272503491E0,-3.244143426E-1,-1.143770027E1,4.599860191E0
3.274991147E0,-2.861070931E-1,-1.166275501E1,4.346074581E0
3.277478803E0,-3.100491166E-1,-1.187344456E1,3.800196648E0
3.279966460E0,-3.531447649E-1,-1.206019211E1,3.129820108E0
3.282454116E0,-4.632780254E-1,-1.225651741E1,2.243965626E0
3.284941772E0,-6.452373862E-1,-1.242411137E1,1.271919608E0
3.287429428E0,-8.415619135E-1,-1.260128212E1,2.711433470E-1
3.289917085E0,-1.066616893E0,-1.277845287E1,-6.625953317E-1
3.292404741E0,-1.277306557E0,-1.293647003E1,-1.486200690E0
3.294892397E0,-1.483207941E0,-1.307054520E1,-2.223614931E0
3.297380053E0,-1.679532528E0,-1.316152573E1,-2.860472441E0
3.299867710E0,-1.871068597E0,-1.321419811E1,-3.320159197E0
3.302355366E0,-2.033874273E0,-1.318546772E1,-3.573944569E0
3.304843022E0,-2.134430885E0,-1.314716053E1,-3.708019972E0
3.307330678E0,-2.182314873E0,-1.305139160E1,-3.708019972E0
3.309818335E0,-2.187103271E0,-1.296998882E1,-3.526060581E0
3.312305991E0,-2.163161278E0,-1.287422085E1,-3.176506996E0
3.314793647E0,-2.139219284E0,-1.274014568E1,-2.788646460E0
3.317281303E0,-2.134430885E0,-1.258212852E1,-2.352901697E0
3.319768960E0,-2.124854088E0,-1.242411137E1,-1.917157054E0
3.322256616E0,-2.115277290E0,-1.226609421E1,-1.490989089E0
3.324744272E0,-2.076969862E0,-1.211286449E1,-1.060032845E0
3.327231928E0,-2.029085875E0,-1.198357773E1,-6.194996834E-1
3.329719585E0,-1.962048292E0,-1.186865616E1,-1.550245583E-1
3.332207241E0,-1.813607812E0,-1.178246498E1,3.142389655E-1
3.334694897E0,-1.646013618E0,-1.171063900E1,7.547720671E-1
3.337182553E0,-1.492784739E0,-1.165317822E1,1.094748735E0
3.339670210E0,-1.353921056E0,-1.162923622E1,1.386841297E0
3.342157866E0,-1.286883354E0,-1.160050583E1,1.554435492E0
3.344645522E0,-1.291671872E0,-1.155741024E1,1.587954283E0
3.347133178E0,-1.411381960E0,-1.151910305E1,1.453878999E0
3.349620835E0,-1.583764434E0,-1.148079586E1,1.224035621E0
3.352108491E0,-1.756146908E0,-1.143291187E1,8.696937561E-1
3.354596147E0,-1.928529501E0,-1.142333508E1,4.387374520E-1
3.357083803E0,-2.076969862E0,-1.143291187E1,-3.052607179E-2
3.359571460E0,-2.182314873E0,-1.146164227E1,-4.710591733E-1
3.362059116E0,-2.282871246E0,-1.150473785E1,-8.684966564E-1
3.364546772E0,-2.359485865E0,-1.157177544E1,-1.165377736E0
3.367034428E0,-2.450465441E0,-1.165796661E1,-1.356913805E0
3.369522085E0,-2.522291422E0,-1.172500420E1,-1.476623893E0
3.372009741E0,-2.574964046E0,-1.177288818E1,-1.510142684E0
3.374497397E0,-2.656366825E0,-1.182077217E1,-1.481412292E0
3.376985053E0,-2.699462414E0,-1.183034897E1,-1.423951507E0
3.379472710E0,-2.713827610E0,-1.180161858E1,-1.299453020E0
3.381960366E0,-2.670732021E0,-1.177767658E1,-1.141435623E0
3.384448022E0,-2.598906040E0,-1.172021580E1,-9.403226972E-1
3.386935678E0,-2.488772631E0,-1.166275501E1,-7.152677774E-1
3.389423335E0,-2.345120668E0,-1.157177544E1,-4.997895956E-1
3.391910991E0,-2.239775658E0,-1.147600746E1,-3.082534671E-1
3.394398647E0,-2.148796082E0,-1.134672070E1,-1.550245583E-1
3.396886303E0,-2.053027868E0,-1.118391514E1,-4.967968538E-2
3.399373960E0,-1.962048292E0,-1.101153183E1,4.129998013E-2
3.401861616E0,-1.804031014E0,-1.085830307E1,8.918401599E-2
3.404349272E0,-1.646013618E0,-1.070028591E1,1.274912357E-1
3.406836928E0,-1.473631144E0,-1.058057594E1,1.562216580E-1
3.409324637E0,-1.282094955E0,-1.048001957E1,2.232593149E-1
3.411812345E0,-1.124077678E0,-1.039861679E1,2.807201445E-1
3.414300053E0,-9.516952038E-1,-1.031242561E1,3.381809890E-1
3.416787762E0,-8.176198602E-1,-1.027411842E1,4.483142793E-1
3.419275470E0,-6.979097724E-1,-1.024059963E1,5.632359385E-1
3.421763178E0,-6.117185354E-1,-1.022144604E1,6.733692288E-1
3.424250887E0,-5.351040959E-1,-1.020708084E1,7.260416746E-1
3.426738595E0,-4.872200489E-1,-1.019271564E1,7.116764784E-1
3.429226303E0,-4.967968464E-1,-1.018313885E1,6.733692288E-1
3.431714012E0,-5.446808934E-1,-1.020229244E1,5.871779919E-1
3.434201720E0,-6.212953329E-1,-1.022144604E1,4.578910768E-1
3.436689428E0,-7.457938194E-1,-1.027411842E1,3.046621680E-1
3.439177137E0,-8.894459605E-1,-1.031721401E1,1.131260321E-1
3.441664845E0,-1.047463298E0,-1.038903999E1,-1.023521200E-1
3.444152553E0,-1.191115379E0,-1.045128918E1,-2.843114436E-1
3.446640262E0,-1.320402265E0,-1.050874996E1,-4.758476019E-1
3.449127970E0,-1.440112352E0,-1.056621075E1,-6.625953317E-1
3.451615678E0,-1.583764434E0,-1.058536434E1,-8.158242106E-1
3.454103387E0,-1.746570110E0,-1.057578754E1,-9.546879530E-1
3.456591095E0,-1.866280198E0,-1.054226875E1,-1.050456047E0
3.459078803E0,-2.005143881E0,-1.050396156E1,-1.045667648E0
3.461566512E0,-2.105700493E0,-1.045128918E1,-1.064821243E0
3.464054220E0,-2.139219284E0,-1.037946320E1,-1.040879130E0
3.466541928E0,-2.158372879E0,-1.033157921E1,-1.007360339E0
3.469029637E0,-2.158372879E0,-1.027411842E1,-9.594763517E-1
3.471517345E0,-2.167949677E0,-1.019750404E1,-9.163807034E-1
3.474005522E0,-2.182314873E0,-1.014483070E1,-9.020155072E-1
3.476493126E0,-2.182314873E0,-1.009215832E1,-8.397662640E-1
3.478980731E0,-2.187103271E0,-1.003948593E1,-7.248445749E-1
3.481468335E0,-2.153584480E0,-1.002033234E1,-5.716156363E-1
3.483955939E0,-2.053027868E0,-1.002033234E1,-3.848679364E-1
3.486443543E0,-1.933317900E0,-1.002512074E1,-1.789665818E-1
3.488931147E0,-1.760935307E0,-1.005385113E1,1.256955881E-2
3.491418751E0,-1.559822440E0,-1.008258152E1,1.897404790E-1
3.493906356E0,-1.368286252E0,-1.011131191E1,3.094505668E-1
3.496393960E0,-1.215057373E0,-1.014961910E1,4.052186310E-1
3.498881564E0,-1.114500880E0,-1.017356110E1,4.483142793E-1
3.501369168E0,-1.076193690E0,-1.017356110E1,4.818331003E-1
3.503856772E0,-1.061828494E0,-1.019271564E1,4.914098978E-1
3.506344376E0,-1.061828494E0,-1.019271564E1,4.866214991E-1
3.508831981E0,-1.071405292E0,-1.018792725E1,4.339490533E-1
3.511319585E0,-1.013944387E0,-1.019750404E1,4.147954583E-1
3.513807606E0,-8.942343593E-1,-1.022623444E1,4.243722558E-1
3.516295626E0,-7.793126702E-1,-1.024538803E1,4.291606545E-1
3.518783647E0,-6.500257850E-1,-1.021186924E1,4.291606545E-1
3.521271356E0,-5.686228871E-1,-1.018792725E1,3.956418335E-1
3.523759012E0,-5.398924947E-1,-1.016398430E1,3.381809890E-1
3.526246668E0,-5.686228871E-1,-1.009215832E1,2.376245260E-1
3.528734324E0,-6.404489279E-1,-1.003948593E1,9.876082093E-2
3.531221981E0,-7.218518257E-1,-9.986813545E0,-3.052607179E-2
3.533709637E0,-8.176198602E-1,-9.948506355E0,-1.885433793E-1
3.536197293E0,-9.085995555E-1,-9.914987564E0,-3.465606868E-1
3.538684949E0,-9.900023937E-1,-9.881468773E0,-5.141547918E-1
3.541172606E0,-1.052251697E0,-9.857526779E0,-6.721721292E-1
3.543660262E0,-1.124077678E0,-9.857526779E0,-8.110358119E-1
3.546147918E0,-1.210268974E0,-9.847949982E0,-9.211691022E-1
3.548635574E0,-1.272518158E0,-9.838373184E0,-9.929951429E-1
3.551123231E0,-1.353921056E0,-9.833584785E0,-1.069609642E0
3.553610887E0,-1.416170359E0,-9.828796387E0,-1.136647224E0
3.556098543E0,-1.473631144E0,-9.838373184E0,-1.170166135E0
3.558586199E0,-1.497573137E0,-9.847949982E0,-1.174954534E0
3.561073856E0,-1.464054346E0,-9.862315178E0,-1.083974838E0
3.563561512E0,-1.430535555E0,-9.886257172E0,-9.690531492E-1
3.566049168E0,-1.387439847E0,-9.900622368E0,-8.397662640E-1
3.568536824E0,-1.325190663E0,-9.924564362E0,-6.673837304E-1
3.571024481E0,-1.243787766E0,-9.953294754E0,-4.997895956E-1
3.573512137E0,-1.152808070E0,-9.962871552E0,-3.465606868E-1
3.575999793E0,-1.090558887E0,-9.986813545E0,-2.220622003E-1
3.578487449E0,-1.033097982E0,-9.996390343E0,-1.167173311E-1
3.580975106E0,-9.900023937E-1,-1.002033234E1,-1.616086066E-2
3.583462762E0,-9.804255962E-1,-1.003948593E1,7.481880486E-2
3.585950418E0,-9.612720013E-1,-1.005385113E1,1.322796494E-1
3.588438074E0,-9.469067454E-1,-1.007779312E1,1.466448605E-1
3.590925731E0,-9.612720013E-1,-1.011131191E1,1.131260321E-1
3.593413387E0,-9.469067454E-1,-1.012567711E1,9.397241473E-2
3.595901043E0,-9.373299479E-1,-1.014004230E1,7.481880486E-2
3.598388699E0,-9.421183467E-1,-1.018792725E1,5.566519126E-2
3.600876356E0,-9.229647517E-1,-1.022144604E1,2.992752008E-3
3.603364012E0,-9.085995555E-1,-1.025496483E1,-5.446808785E-2
3.605851668E0,-9.181763530E-1,-1.027890682E1,-1.262941360E-1
3.608339324E0,-9.564836025E-1,-1.030763721E1,-1.933317930E-1
3.610826981E0,-1.013944387E0,-1.034594440E1,-2.747346461E-1
3.613314637E0,-1.071405292E0,-1.035073280E1,-3.896563351E-1
3.615802293E0,-1.167173386E0,-1.036030960E1,-4.950011969E-1
3.618289949E0,-1.248576164E0,-1.037946320E1,-5.668272376E-1
3.620777606E0,-1.296460271E0,-1.038903999E1,-6.003460884E-1
3.623265262E0,-1.325190663E0,-1.038903999E1,-6.386532784E-1
3.625752918E0,-1.339555860E0,-1.040340519E1,-6.673837304E-1
3.628240574E0,-1.344344258E0,-1.043213558E1,-6.721721292E-1
3.630728231E0,-1.325190663E0,-1.044171238E1,-6.434416771E-1
3.633215887E0,-1.272518158E0,-1.045128918E1,-5.859808922E-1
3.635703543E0,-1.215057373E0,-1.044650078E1,-5.189431906E-1
3.638191199E0,-1.181538582E0,-1.044650078E1,-4.566939771E-1
3.640678856E0,-1.157596469E0,-1.039861679E1,-3.752911091E-1
3.643166512E0,-1.162384868E0,-1.039861679E1,-2.938882709E-1
3.645654168E0,-1.171961784E0,-1.039861679E1,-2.316390127E-1
3.648141824E0,-1.195903778E0,-1.036509800E1,-1.262941360E-1
3.650629481E0,-1.215057373E0,-1.036030960E1,-5.446808785E-2
3.653117137E0,-1.224634171E0,-1.038425159E1,-2.573766746E-2
3.655604793E0,-1.248576164E0,-1.040819359E1,-1.137245819E-2
3.658092449E0,-1.267729759E0,-1.044171238E1,-1.795651275E-3
3.660580106E0,-1.296460271E0,-1.049438477E1,-1.137245819E-2
3.663067762E0,-1.306037068E0,-1.056142235E1,5.087678507E-2
3.665555418E0,-1.315613866E0,-1.065719032E1,1.274912357E-1
3.668043074E0,-1.320402265E0,-1.073859310E1,1.945288926E-1
3.670530731E0,-1.310825467E0,-1.081999588E1,2.328361124E-1
3.673018439E0,-1.315613866E0,-1.092055225E1,2.615665495E-1
3.675506147E0,-1.344344258E0,-1.102589703E1,2.855085433E-1
3.677993856E0,-1.387439847E0,-1.110251141E1,2.328361124E-1
3.680481564E0,-1.459265947E0,-1.118870354E1,1.322796494E-1
3.682969272E0,-1.497573137E0,-1.126531792E1,-2.094926499E-2
3.685456981E0,-1.574187636E0,-1.134672070E1,-1.981201917E-1
3.687944689E0,-1.674744129E0,-1.141854668E1,-3.992331326E-1
3.690432397E0,-1.784877419E0,-1.149037266E1,-5.859808922E-1
3.692920106E0,-1.904587507E0,-1.157177544E1,-7.631517649E-1
3.695407814E0,-2.038662672E0,-1.166275501E1,-9.307458997E-1
3.697895522E0,-2.196680069E0,-1.175852299E1,-1.016937137E0
3.700383231E0,-2.335543871E0,-1.186386776E1,-1.040879130E0
3.702870939E0,-2.464830637E0,-1.197878933E1,-1.021725535E0
3.705358647E0,-2.570175409E0,-1.212244129E1,-9.642647505E-1
3.707846356E0,-2.642001629E0,-1.224694061E1,-8.828618526E-1
3.710334064E0,-2.689885616E0,-1.240495777E1,-8.684966564E-1
3.712821772E0,-2.699462414E0,-1.256776333E1,-8.732850552E-1
3.715309481E0,-2.680308819E0,-1.271141529E1,-8.637082577E-1
3.717797189E0,-2.646790028E0,-1.285985565E1,-8.206126094E-1
3.720284897E0,-2.608482838E0,-1.299871922E1,-7.583633661E-1
3.722772606E0,-2.574964046E0,-1.314237213E1,-6.625953317E-1
3.725260314E0,-2.541445017E0,-1.328602409E1,-5.428852439E-1
3.727748022E0,-2.507926226E0,-1.342488766E1,-4.135983288E-1
3.730235731E0,-2.531868219E0,-1.355896282E1,-2.268506140E-1
3.732723439E0,-2.555810213E0,-1.366909599E1,-7.841010392E-2
3.735211147E0,-2.613271236E0,-1.375528717E1,2.214636654E-2
3.737698856E0,-2.675520420E0,-1.382711315E1,8.439560980E-2
3.740186564E0,-2.713827610E0,-1.392766953E1,1.227028370E-1
3.742674272E0,-2.742558002E0,-1.397555351E1,1.274912357E-1
3.745161981E0,-2.728192806E0,-1.405216789E1,1.274912357E-1
3.747649689E0,-2.685097218E0,-1.410005283E1,1.083376259E-1
3.750137397E0,-2.646790028E0,-1.414793682E1,5.566519126E-2
3.752625106E0,-2.603694439E0,-1.418145561E1,1.735796221E-2
3.755112814E0,-2.574964046E0,-1.422455120E1,1.256955881E-2
3.757600522E0,-2.584540844E0,-1.425806999E1,-6.584054790E-3
3.760088231E0,-2.622848034E0,-1.429637718E1,-6.404489279E-2
3.762575939E0,-2.718616009E0,-1.432031918E1,-9.756372124E-2
3.765063647E0,-2.843114614E0,-1.434426117E1,-1.933317930E-1
3.767551356E0,-2.943670988E0,-1.437777996E1,-3.705027103E-1
3.770039064E0,-3.025073767E0,-1.443045235E1,-5.524620414E-1
3.772526772E0,-3.072957993E0,-1.451185513E1,-7.104793787E-1
3.775014481E0,-3.053804159E0,-1.461241150E1,-8.684966564E-1
3.777502137E0,-2.977189779E0,-1.474169827E1,-1.050456047E0
3.779989793E0,-2.857479811E0,-1.489971542E1,-1.151012421E0
3.782477449E0,-2.685097218E0,-1.509604073E1,-1.208473325E0
3.784965106E0,-2.517503023E0,-1.532588387E1,-1.208473325E0
3.787452762E0,-2.378639460E0,-1.557488060E1,-1.160589218E0
3.789940418E0,-2.249352455E0,-1.584781933E1,-1.079186440E0
3.792428074E0,-2.148796082E0,-1.613512421E1,-9.307458997E-1
3.794915731E0,-2.072181463E0,-1.641285133E1,-7.392097712E-1
3.797403387E0,-1.985990286E0,-1.668579102E1,-5.428852439E-1
3.799891043E0,-1.923741102E0,-1.693957520E1,-3.513490856E-1
3.802378699E0,-1.861491799E0,-1.713590050E1,-1.310825497E-1
3.804866356E0,-1.827973008E0,-1.726039886E1,7.960720360E-2
3.807354012E0,-1.784877419E0,-1.733701324E1,2.759317458E-1
3.809841668E0,-1.727416515E0,-1.732743645E1,4.435258508E-1
3.812329324E0,-1.679532528E0,-1.724603271E1,5.392939448E-1
3.814816981E0,-1.598129630E0,-1.709280396E1,6.015431881E-1
3.817304637E0,-1.497573137E0,-1.690605736E1,6.302735806E-1
3.819792293E0,-1.382651448E0,-1.665706062E1,6.302735806E-1
3.822279949E0,-1.306037068E0,-1.637454414E1,6.494272351E-1
3.824767606E0,-1.262941360E0,-1.607766342E1,6.973112226E-1
3.827255262E0,-1.238999367E0,-1.579514694E1,7.404068708E-1
3.829742918E0,-1.186326981E0,-1.552699661E1,7.882909179E-1
3.832230574E0,-1.104924083E0,-1.529715347E1,8.649053574E-1
3.834718231E0,-9.660604000E-1,-1.509604073E1,9.080010056E-1
3.837205887E0,-7.745242715E-1,-1.495238781E1,9.606734514E-1
3.839693543E0,-5.734112859E-1,-1.487577343E1,9.894038439E-1
3.842181199E0,-3.914519846E-1,-1.482310104E1,9.798270464E-1
3.844668856E0,-2.861070931E-1,-1.482788944E1,9.510966539E-1
3.847156512E0,-1.711854190E-1,-1.488535023E1,9.415197968E-1
3.849644168E0,-1.185129806E-1,-1.494759941E1,9.032126069E-1
3.852131824E0,-1.041477770E-1,-1.502900219E1,7.978677154E-1
3.854619481E0,-1.663970202E-1,-1.512477112E1,6.925228238E-1
3.857107137E0,-2.334346622E-1,-1.524448109E1,6.159083843E-1
3.859594793E0,-3.148375154E-1,-1.539292145E1,5.632359385E-1
3.862082449E0,-3.435679376E-1,-1.549347782E1,4.531026781E-1
3.864570106E0,-3.675099611E-1,-1.558924580E1,2.759317458E-1
3.867057762E0,-3.866635859E-1,-1.567064857E1,1.418564469E-1
3.869545418E0,-4.010287821E-1,-1.572810936E1,5.566519126E-2
3.872033074E0,-4.058171809E-1,-1.577599335E1,-1.795651275E-3
3.874520731E0,-3.244143426E-1,-1.581430054E1,3.172317147E-2
3.877008387E0,-2.047042400E-1,-1.584303093E1,1.227028370E-1
3.879496043E0,-8.379706182E-3,-1.587176132E1,2.328361124E-1
3.881983699E0,1.879448295E-1,-1.590528011E1,3.286041915E-1
3.884471356E0,4.034229815E-1,-1.592922211E1,4.483142793E-1
3.886959012E0,5.614402890E-1,-1.592922211E1,5.392939448E-1
3.889446668E0,6.380547285E-1,-1.591006851E1,6.590040326E-1
3.891934324E0,6.715735793E-1,-1.585739613E1,7.547720671E-1
3.894421981E0,6.715735793E-1,-1.578078175E1,8.313865662E-1
3.896909637E0,6.955155730E-1,-1.572332096E1,8.744821548E-1
3.899397293E0,7.386112213E-1,-1.564670658E1,8.696937561E-1
3.901884949E0,8.439561129E-1,-1.556051540E1,8.409633636E-1
3.904372606E0,9.828197956E-1,-1.549347782E1,8.505401611E-1
3.906860262E0,1.174355984E0,-1.543601704E1,8.744821548E-1
3.909347918E0,1.365892053E0,-1.536897945E1,9.127894044E-1
3.911835574E0,1.533486247E0,-1.527799988E1,9.654618502E-1
3.914323231E0,1.657984734E0,-1.519659710E1,1.051653147E0
3.916810887E0,1.777694821E0,-1.509604073E1,1.070806742E0
3.919298543E0,1.868674397E0,-1.500984859E1,1.056441545E0
3.921786251E0,1.916558504E0,-1.494281101E1,1.080383539E0
3.924273960E0,1.959654093E0,-1.490450382E1,1.037287831E0
3.926761668E0,1.993172884E0,-1.488056183E1,9.271546006E-1
3.929249376E0,2.012326479E0,-1.486619663E1,7.643488646E-1
3.931737085E0,2.017114878E0,-1.483267784E1,5.392939448E-1
3.934224793E0,1.935712099E0,-1.476564026E1,2.807201445E-1
3.936712501E0,1.863885999E0,-1.468423748E1,1.735796221E-2
3.939200210E0,1.811213613E0,-1.457889271E1,-2.172738016E-1
3.941687918E0,1.835155606E0,-1.448312473E1,-3.800795078E-1
3.944175626E0,1.940500498E0,-1.438256836E1,-4.183867574E-1
3.946663335E0,2.103306293E0,-1.430595398E1,-3.369838893E-1
3.949151043E0,2.347514868E0,-1.424849319E1,-1.981201917E-1
3.951638751E0,2.630030632E0,-1.420539761E1,-4.967968538E-2
3.954126460E0,2.960430384E0,-1.416709042E1,1.227028370E-1
3.956614168E0,3.290830135E0,-1.413357162E1,3.477577865E-1
3.959101876E0,3.573346138E0,-1.406174469E1,5.632359385E-1
3.961589585E0,3.784035683E0,-1.395639992E1,8.265981078E-1
3.964077293E0,3.951629877E0,-1.386063194E1,1.128267527E0
3.966565001E0,4.100070477E0,-1.374092197E1,1.463455796E0
3.969052710E0,4.238934040E0,-1.358769321E1,1.755548358E0
3.971540418E0,4.368220806E0,-1.342009926E1,2.028487444E0
3.974028126E0,4.468777657E0,-1.324292850E1,2.234388828E0
3.976515835E0,4.578910828E0,-1.308491039E1,2.406771183E0
3.979003543E0,4.703409195E0,-1.294125843E1,2.555211782E0
3.981491251E0,4.827907562E0,-1.282633686E1,2.660556555E0
3.983978960E0,4.981136799E0,-1.277366447E1,2.713229179E0
3.986466668E0,5.091269970E0,-1.274493408E1,2.718017578E0
3.988954376E0,5.143942356E0,-1.269705009E1,2.650979757E0
3.991442085E0,5.163095951E0,-1.266831970E1,2.516904593E0
3.993929793E0,5.158307552E0,-1.262522411E1,2.315791607E0
3.996417501E0,5.153519154E0,-1.259649372E1,2.081159830E0
3.998905210E0,5.139153957E0,-1.256776333E1,1.789067268E0
4.001392918E0,5.110423565E0,-1.252466774E1,1.492186189E0
4.003880626E0,4.981136799E0,-1.246241856E1,1.185728431E0
4.006368335E0,4.760869980E0,-1.237143898E1,8.888474107E-1
4.008856043E0,4.554968834E0,-1.232355499E1,5.153518915E-1
4.011343751E0,4.282029629E0,-1.221342182E1,1.945288926E-1
4.013831460E0,3.898957491E0,-1.206019211E1,-1.215057373E-1
4.016319168E0,3.496731520E0,-1.189259815E1,-5.333084464E-1
4.018806876E0,3.147178173E0,-1.169627380E1,-9.259575009E-1
4.021294585E0,3.003525972E0,-1.160529423E1,-1.203684926E0
4.023782293E0,3.046621561E0,-1.155741024E1,-1.342548609E0
4.026269949E0,3.204638958E0,-1.158135223E1,-1.256357312E0
4.028757606E0,3.439270735E0,-1.167233181E1,-9.451110959E-1
4.031245262E0,3.740940094E0,-1.181119537E1,-4.662707746E-1
4.033733647E0,4.033032894E0,-1.193569374E1,-1.137245819E-2
4.036220678E0,4.296394825E0,-1.201709652E1,5.009866953E-1
4.038707710E0,4.478354454E0,-1.205540371E1,1.089960337E0
4.041194793E0,4.583699226E0,-1.202188492E1,1.769913554E0
4.043681928E0,4.689043999E0,-1.188302135E1,2.449866772E0
4.046169116E0,4.832695961E0,-1.165317822E1,3.125031710E0
4.048656408E0,5.048174381E0,-1.138023949E1,3.828927040E0
4.051143803E0,5.373785496E0,-1.104505062E1,4.561553001E0
4.053631303E0,5.761646271E0,-1.063324833E1,5.241506100E0
4.056118908E0,6.178237438E0,-1.015919590E1,5.835268021E0
4.058606616E0,6.489483833E0,-9.608530045E0,6.294954777E0
4.061094428E0,6.623558998E0,-8.986037254E0,6.591835976E0
4.063582345E0,6.551733017E0,-8.282142639E0,6.682815552E0
4.066070314E0,6.283582211E0,-7.563881874E0,6.529586792E0
4.068558335E0,5.871779442E0,-6.864774704E0,6.208763599E0
4.071046408E0,5.397727966E0,-6.223128796E0,5.701192856E0
4.073534533E0,4.961983204E0,-5.667674065E0,5.045181751E0
4.076022658E0,4.588487625E0,-5.227140903E0,4.288613796E0
4.078510783E0,4.358644009E0,-4.896740913E0,3.541622877E0
4.080998908E0,4.210203648E0,-4.652532578E0,2.823362350E0
4.083486564E0,4.100070477E0,-4.547187805E0,2.119467020E0
4.085974220E0,4.018667698E0,-4.508880138E0,1.415571809E0
4.088461876E0,3.865438700E0,-4.504091740E0,8.265981078E-1
4.090949533E0,3.626018524E0,-4.537611008E0,3.333925903E-1
4.093437189E0,3.276464939E0,-4.575918198E0,-4.489128292E-2
4.095924845E0,2.893392801E0,-4.652532578E0,-2.843114436E-1
4.098412501E0,2.615665436E0,-4.705204964E0,-4.040215313E-1
4.100900158E0,2.424129248E0,-4.767454147E0,-3.800795078E-1
4.103387814E0,2.361880064E0,-4.824914932E0,-1.789665818E-1
4.105875470E0,2.366668463E0,-4.868010521E0,1.705868691E-1
4.108363126E0,2.385822058E0,-4.858433723E0,5.440823436E-1
4.110850783E0,2.448071241E0,-4.753088951E0,8.984242082E-1
4.113338439E0,2.510320425E0,-4.609436989E0,1.281496406E0
4.115826095E0,2.601300240E0,-4.393958569E0,1.707664371E0
4.118313751E0,2.716221809E0,-4.106654644E0,2.172139406E0
4.120801408E0,2.821566820E0,-3.771466255E0,2.579153776E0
4.123289064E0,2.946065187E0,-3.374028683E0,2.981379747E0
4.125776720E0,3.022679567E0,-2.933495522E0,3.412335873E0
4.128264376E0,3.084928989E0,-2.416347980E0,3.804985046E0
4.130752033E0,3.070563793E0,-1.827374458E0,4.111443043E0
4.133239689E0,2.984372377E0,-1.214458823E0,4.283825397E0
4.135727345E0,2.802412987E0,-5.871779919E-1,4.279036999E0
4.138215001E0,2.567781210E0,4.967968538E-2,4.140173435E0
4.140702658E0,2.237381458E0,6.578069329E-1,3.905541420E0
4.143190314E0,1.849520802E0,1.227626920E0,3.603872061E0
4.145677970E0,1.452083349E0,1.768716455E0,3.216011524E0
4.148165626E0,1.054645896E0,2.285864115E0,2.741959572E0
4.150653283E0,6.380547285E-1,2.764704466E0,2.282272816E0
4.153140939E0,2.118868530E-1,3.210026026E0,1.942296147E0
4.155628595E0,-1.951274425E-1,3.626616955E0,1.674145579E0
4.158116251E0,-5.255272985E-1,4.019266129E0,1.520916581E0
4.160603908E0,-8.080430627E-1,4.383184910E0,1.453878999E0
4.163091564E0,-1.013944387E0,4.689642429E0,1.482609391E0
4.165579220E0,-1.138442874E0,4.972158432E0,1.540070295E0
4.168066876E0,-1.195903778E0,5.221155167E0,1.635838270E0
4.170554533E0,-1.243787766E0,5.436633587E0,1.712452769E0
4.173042189E0,-1.267729759E0,5.628169537E0,1.817797661E0
4.175529845E0,-1.353921056E0,5.786187172E0,1.903988957E0
4.178017501E0,-1.478419542E0,5.939415932E0,1.975814939E0
4.180505158E0,-1.617283225E0,6.073491096E0,1.994968534E0
4.182992814E0,-1.741781712E0,6.202777863E0,2.062006235E0
4.185480470E0,-1.837549806E0,6.298546314E0,2.148197412E0
4.187968126E0,-1.851915002E0,6.360795498E0,2.248754025E0
4.190455783E0,-1.804031014E0,6.403891087E0,2.339733601E0
4.192943439E0,-1.698686123E0,6.418256283E0,2.454655409E0
4.195431095E0,-1.555034041E0,6.408679485E0,2.579153776E0
4.197918751E0,-1.411381960E0,6.394314289E0,2.713229179E0
4.200406408E0,-1.262941360E0,6.351218700E0,2.832939148E0
4.202894064E0,-1.124077678E0,6.312911510E0,2.775478363E0
4.205381720E0,-1.052251697E0,6.260239124E0,2.588730574E0
4.207869376E0,-1.080982089E0,6.207566261E0,2.315791607E0
4.210357033E0,-1.219845772E0,6.130951881E0,1.932719350E0
4.212844689E0,-1.454477549E0,6.059125900E0,1.511339784E0
4.215332345E0,-1.689109325E0,5.977723122E0,1.089960337E0
4.217820001E0,-1.909375906E0,5.867589951E0,6.302735806E-1
4.220307658E0,-2.086546898E0,5.743091106E0,2.088941038E-1
4.222795366E0,-2.196680069E0,5.594650745E0,-2.268506140E-1
4.225283074E0,-2.316390038E0,5.422268391E0,-6.578069329E-1
4.227770783E0,-2.416946650E0,5.259462357E0,-1.040879130E0
4.230258491E0,-2.517503023E0,5.072714806E0,-1.356913805E0
4.232746199E0,-2.603694439E0,4.862025261E0,-1.577180386E0
4.235233908E0,-2.651578426E0,4.641758442E0,-1.711255670E0
4.237721616E0,-2.613271236E0,4.431068897E0,-1.787870169E0
4.240209324E0,-2.536656618E0,4.215590477E0,-1.797446966E0
4.242697033E0,-2.426523447E0,4.009689331E0,-1.744774461E0
4.245184741E0,-2.306813240E0,3.818153143E0,-1.687313676E0
4.247672449E0,-2.177526474E0,3.655347347E0,-1.581968784E0
4.250160158E0,-2.081758261E0,3.497330189E0,-1.419163108E0
4.252647866E0,-2.014720678E0,3.344101191E0,-1.198896527E0
4.255135574E0,-1.971625090E0,3.210026026E0,-9.690531492E-1
4.257623283E0,-1.914164305E0,3.075950623E0,-7.009025216E-1
4.260110991E0,-1.808819413E0,2.927510023E0,-4.279635549E-1
4.262598699E0,-1.713051319E0,2.779069662E0,-1.454477459E-1
4.265086408E0,-1.583764434E0,2.644994259E0,1.274912357E-1
4.267574116E0,-1.411381960E0,2.486977100E0,4.052186310E-1
4.270061824E0,-1.267729759E0,2.314594507E0,6.542156339E-1
4.272549533E0,-1.104924083E0,2.113481522E0,8.122329116E-1
4.275037241E0,-9.564836025E-1,1.917157054E0,8.792705536E-1
4.277524949E0,-8.607155085E-1,1.706467271E0,8.122329116E-1
4.280012658E0,-8.271966577E-1,1.510142684E0,6.925228238E-1
4.282500366E0,-8.942343593E-1,1.323395014E0,5.632359385E-1
4.284988074E0,-1.018732786E0,1.112705231E0,4.483142793E-1
4.287475783E0,-1.181538582E0,9.020155072E-1,3.525462151E-1
4.289963491E0,-1.353921056E0,6.865373254E-1,2.472013235E-1
4.292451199E0,-1.502361536E0,4.614823759E-1,1.274912357E-1
4.294938908E0,-1.655590534E0,2.220622003E-1,1.735796221E-2
4.297426616E0,-1.789665818E0,-3.172317147E-2,-3.052607179E-2
4.299914324E0,-1.890222192E0,-3.238157928E-1,-6.883329898E-2
4.302402033E0,-1.942894697E0,-6.111199856E-1,-6.883329898E-2
4.304889741E0,-1.890222192E0,-9.127894044E-1,-4.967968538E-2
4.307377449E0,-1.751358509E0,-1.219247222E0,-1.795651275E-3
4.309865158E0,-1.583764434E0,-1.554435492E0,1.083376259E-1
4.312352866E0,-1.397016644E0,-1.889623642E0,2.998737693E-1
4.314840574E0,-1.210268974E0,-2.196081400E0,5.488707423E-1
4.317328283E0,-1.042674899E0,-2.507327795E0,8.265981078E-1
4.319815991E0,-9.181763530E-1,-2.813785553E0,1.142632723E0
4.322303699E0,-8.032546639E-1,-3.081936121E0,1.473032594E0
4.324791408E0,-7.026981711E-1,-3.302202702E0,1.712452769E0
4.327279116E0,-6.308721304E-1,-3.493738890E0,1.908777356E0
4.329766824E0,-5.973533392E-1,-3.646967649E0,2.081159830E0
4.332254481E0,-5.925649405E-1,-3.785831451E0,2.248754025E0
4.334742137E0,-5.973533392E-1,-3.900753021E0,2.382829189E0
4.337229793E0,-6.021417379E-1,-3.986944437E0,2.416347980E0
4.339717449E0,-5.686228871E-1,-4.034828186E0,2.459443808E0
4.342205106E0,-5.255272985E-1,-4.097077847E0,2.512116194E0
4.344692762E0,-4.967968464E-1,-4.135385036E0,2.593518972E0
4.347180418E0,-4.872200489E-1,-4.164115429E0,2.679710150E0
4.349668074E0,-5.063736439E-1,-4.149750233E0,2.679710150E0
4.352155731E0,-5.494692922E-1,-4.154538631E0,2.655768156E0
4.354643387E0,-6.356605291E-1,-4.168903828E0,2.622249365E0
4.357131043E0,-7.601590157E-1,-4.188057423E0,2.564788580E0
4.359618699E0,-8.846575022E-1,-4.183269024E0,2.531269789E0
4.362106356E0,-9.900023937E-1,-4.221576214E0,2.459443808E0
4.364594012E0,-1.080982089E0,-4.264671803E0,2.368463993E0
4.367081668E0,-1.148019671E0,-4.326920986E0,2.296638012E0
4.369569324E0,-1.109712481E0,-4.413112164E0,2.272696018E0
4.372056981E0,-9.947907925E-1,-4.508880138E0,2.224812031E0
4.374544637E0,-8.080430627E-1,-4.619013786E0,2.200869799E0
4.377032293E0,-5.925649405E-1,-4.757877350E0,2.277484417E0
4.379519949E0,-3.914519846E-1,-4.915894508E0,2.445078373E0
4.382007606E0,-2.094926536E-1,-5.069123745E0,2.646191359E0
4.384495262E0,-7.062894851E-2,-5.207987309E0,2.828150749E0
4.386982918E0,3.471592441E-2,-5.394734859E0,2.986168146E0
4.389470574E0,1.065419763E-1,-5.543175697E0,3.115454912E0
4.391958231E0,2.166752517E-1,-5.725134850E0,3.225588322E0
4.394445887E0,3.794809580E-1,-5.892728806E0,3.378817081E0
4.396933543E0,6.284779310E-1,-6.065111637E0,3.532046080E0
4.399421199E0,9.876081944E-1,-6.242282391E0,3.728370667E0
4.401908856E0,1.385045648E0,-6.414664745E0,3.977367640E0
4.404396512E0,1.816002011E0,-6.587047577E0,4.259883404E0
4.406884168E0,2.275688648E0,-6.725911140E0,4.484938145E0
4.409371824E0,2.687491417E0,-6.831255913E0,4.709993362E0
4.411859481E0,3.037044764E0,-6.936600685E0,4.901529312E0
4.414347137E0,3.257311344E0,-7.022792339E0,5.030816555E0
4.416834793E0,3.333925962E0,-7.099406719E0,5.040393353E0
4.419322449E0,3.276464939E0,-7.137713909E0,4.896740913E0
4.421810106E0,3.132812977E0,-7.204751492E0,4.662109375E0
4.424297762E0,2.931699991E0,-7.281365871E0,4.403535366E0
4.426785418E0,2.721010208E0,-7.401075840E0,4.053982258E0
4.429273074E0,2.448071241E0,-7.539939880E0,3.555988073E0
4.431760731E0,2.112883091E0,-7.712322235E0,2.971802950E0
4.434248387E0,1.758541107E0,-7.889492989E0,2.301426411E0
4.436736043E0,1.399410844E0,-8.100182533E0,1.659780383E0
4.439223699E0,1.097741485E0,-8.334815025E0,1.156997919E0
4.441711356E0,8.631097078E-1,-8.622118950E0,7.260416746E-1
4.444199012E0,7.769184709E-1,-8.914211273E0,3.764882088E-1
4.446686668E0,8.774749041E-1,-9.273342133E0,1.610100716E-1
4.449174324E0,1.150413871E0,-9.642048836E0,1.274912357E-1
4.451661981E0,1.504755735E0,-1.007300472E1,2.759317458E-1
4.454149637E0,1.849520802E0,-1.047523117E1,5.536591411E-1
4.456637293E0,2.108094692E0,-1.086309147E1,9.463081956E-1
4.459124949E0,2.251746655E0,-1.118391514E1,1.358110905E0
4.461612606E0,2.304419041E0,-1.145685387E1,1.817797661E0
4.464100262E0,2.352303267E0,-1.168190861E1,2.277484417E0
4.466587918E0,2.419340849E0,-1.186865616E1,2.617460966E0
4.469075574E0,2.539050817E0,-1.200751972E1,2.914341927E0
4.471563283E0,2.768894196E0,-1.212722969E1,3.244741917E0
4.474050991E0,3.094505787E0,-1.220384502E1,3.551199675E0
4.476538699E0,3.458424330E0,-1.224215221E1,3.790619850E0
4.479026408E0,3.817554712E0,-1.218469143E1,3.977367640E0
4.481514116E0,4.095282078E0,-1.206498051E1,4.144961834E0
4.484001824E0,4.262876034E0,-1.189259815E1,4.221576214E0
4.486489533E0,4.339490414E0,-1.169148540E1,4.226364613E0
4.488977241E0,4.301183224E0,-1.146164227E1,4.087501049E0
4.491464949E0,4.191050053E0,-1.124616432E1,3.862445831E0
4.493952970E0,4.028244495E0,-1.105941582E1,3.575141668E0
4.496440991E0,3.812766314E0,-1.090618706E1,3.278260708E0
4.498929012E0,3.630806923E0,-1.079126549E1,2.952649355E0
4.501416668E0,3.415328741E0,-1.071943951E1,2.665344954E0
4.503904324E0,3.151966572E0,-1.065240192E1,2.378040791E0
4.506391981E0,2.835932016E0,-1.059972954E1,2.042852640E0
4.508879637E0,2.495955229E0,-1.056142235E1,1.698087573E0
4.511367293E0,2.170343876E0,-1.059494114E1,1.415571809E0
4.513854949E0,1.878251195E0,-1.070028591E1,1.200093627E0
4.516342606E0,1.686715126E0,-1.087745667E1,1.085171938E0
4.518830262E0,1.634042621E0,-1.111687660E1,1.022922635E0
4.521317918E0,1.701080322E0,-1.140418148E1,1.056441545E0
4.523805574E0,1.863885999E0,-1.169148540E1,1.137844324E0
4.526293231E0,2.064998865E0,-1.195484734E1,1.262342811E0
4.528780887E0,2.237381458E0,-1.216074944E1,1.525704980E0
4.531268543E0,2.342726469E0,-1.229961300E1,1.865681648E0
4.533756199E0,2.294842243E0,-1.237622738E1,2.311003208E0
4.536243856E0,2.108094692E0,-1.240016937E1,2.775478363E0
4.538731512E0,1.748964310E0,-1.236186218E1,3.163338900E0
4.541219168E0,1.346738458E0,-1.230440140E1,3.488950491E0
4.543706824E0,1.054645896E0,-1.228524780E1,3.795408249E0
4.546194481E0,9.397241473E-1,-1.231876659E1,4.077924252E0
4.548682137E0,1.045069098E0,-1.237622738E1,4.259883404E0
4.551169793E0,1.322796464E0,-1.246241856E1,4.427477360E0
4.553657449E0,1.734599113E0,-1.254860973E1,4.633378983E0
4.556145106E0,2.136825085E0,-1.257255173E1,4.753088951E0
4.558632762E0,2.448071241E0,-1.249593735E1,4.719570160E0
4.561120418E0,2.634819031E0,-1.243368816E1,4.705204964E0
4.563608074E0,2.639607430E0,-1.229482460E1,4.542399406E0
4.566095731E0,2.505532026E0,-1.214159584E1,4.255095005E0
4.568583387E0,2.251746655E0,-1.202188492E1,3.919906616E0
4.571071043E0,1.935712099E0,-1.194527054E1,3.560776472E0
4.573558699E0,1.648407817E0,-1.191175175E1,3.115454912E0
4.576046356E0,1.423352957E0,-1.189259815E1,2.627037764E0
4.578534012E0,1.313219666E0,-1.195005894E1,2.100313425E0
4.581021668E0,1.298854470E0,-1.199794292E1,1.540070295E0
4.583509324E0,1.365892053E0,-1.207934570E1,1.075595140E0
4.585996981E0,1.471236944E0,-1.217511463E1,7.882909179E-1
4.588484637E0,1.543063045E0,-1.223257542E1,3.046621680E-1
4.590972293E0,1.605312228E0,-1.229961300E1,5.087678507E-2
4.593459949E0,1.624465823E0,-1.239538097E1,7.481880486E-2
4.595947606E0,1.653196216E0,-1.246720695E1,7.003039867E-2
4.598435262E0,1.677138329E0,-1.251509094E1,2.041056901E-1
4.600922918E0,1.715445518E0,-1.253903294E1,5.297171474E-1
4.603410574E0,1.734599113E0,-1.249114895E1,9.080010056E-1
4.605898231E0,1.758541107E0,-1.238580418E1,1.262342811E0
4.608385887E0,1.758541107E0,-1.224694061E1,1.602319479E0
4.610873543E0,1.772906303E0,-1.207455730E1,2.009333849E0
4.613361199E0,1.744175911E0,-1.185907936E1,2.459443808E0
4.615848856E0,1.657984734E0,-1.162923622E1,2.852092743E0
4.618336512E0,1.547851443E0,-1.139939308E1,3.177704096E0
4.620824168E0,1.485602140E0,-1.114560699E1,3.436278105E0
4.623311824E0,1.476025343E0,-1.095407104E1,3.613448858E0
4.625799481E0,1.528697729E0,-1.080563068E1,3.781043053E0
4.628287137E0,1.638831019E0,-1.067634392E1,3.895964622E0
4.630774793E0,1.792060018E0,-1.057578754E1,3.934272051E0
4.633262449E0,1.959654093E0,-1.050396156E1,3.924695253E0
4.635750158E0,2.184709072E0,-1.045128918E1,3.900753021E0
4.638237866E0,2.395398855E0,-1.042255878E1,3.862445831E0
4.640725574E0,2.562992811E0,-1.042255878E1,3.824138641E0
4.643213283E0,2.658761024E0,-1.040340519E1,3.776254654E0
4.645700991E0,2.658761024E0,-1.041777039E1,3.733159065E0
4.648188699E0,2.586935043E0,-1.043213558E1,3.570353270E0
4.650676408E0,2.428917646E0,-1.046565437E1,3.268683910E0
4.653164116E0,2.175132275E0,-1.051353836E1,2.890399933E0
4.655651824E0,1.911770105E0,-1.063803673E1,2.449866772E0
4.658139533E0,1.691503525E0,-1.079126549E1,2.023699045E0
4.660627241E0,1.562216640E0,-1.098758984E1,1.592742682E0
4.663114949E0,1.552639842E0,-1.120785713E1,1.238400817E0
4.665602658E0,1.643619418E0,-1.144727707E1,1.003769040E0
4.668090366E0,1.830367208E0,-1.164838982E1,7.930793166E-1
4.670578074E0,1.969230890E0,-1.183034897E1,7.356184721E-1
4.673065783E0,1.978807688E0,-1.193569374E1,7.068880796E-1
4.675553491E0,1.835155606E0,-1.196442413E1,6.637924314E-1
4.678041199E0,1.600523829E0,-1.192611694E1,7.260416746E-1
4.680528908E0,1.351526856E0,-1.189738655E1,8.218097091E-1
4.683016616E0,1.188721180E0,-1.187344456E1,9.415197968E-1
4.685504324E0,1.136048675E0,-1.184471416E1,1.128267527E0
4.687992033E0,1.155202270E0,-1.184950256E1,1.353322506E0
4.690479741E0,1.279700756E0,-1.187344456E1,1.650203466E0
4.692967449E0,1.423352957E0,-1.193569374E1,2.085948229E0
4.695455158E0,1.533486247E0,-1.207934570E1,2.679710150E0
4.697942866E0,1.547851443E0,-1.220863342E1,3.216011524E0
4.700430574E0,1.452083349E0,-1.236665058E1,3.637390852E0
4.702918283E0,1.289277673E0,-1.253424454E1,3.872022629E0
4.705405991E0,1.174355984E0,-1.271620369E1,3.804985046E0
4.707893699E0,1.179144382E0,-1.292210484E1,3.642179251E0
4.710381408E0,1.308431268E0,-1.312800694E1,3.316567898E0
4.712869116E0,1.543063045E0,-1.330038929E1,2.880823135E0
4.715356824E0,1.839944005E0,-1.343925285E1,2.478597403E0
4.717844533E0,2.112883091E0,-1.350150204E1,2.105101824E0
4.720332241E0,2.280477047E0,-1.348234844E1,1.760336757E0
4.722819949E0,2.266111851E0,-1.340094566E1,1.473032594E0
4.725307658E0,2.112883091E0,-1.327165890E1,1.262342811E0
4.727795366E0,1.849520802E0,-1.314237213E1,1.152209520E0
4.730283074E0,1.504755735E0,-1.301308441E1,1.075595140E0
4.732770783E0,1.145625472E0,-1.290295124E1,9.127894044E-1
4.735258491E0,8.439561129E-1,-1.282633686E1,7.451952696E-1
4.737746199E0,5.997475386E-1,-1.275451088E1,4.818331003E-1
4.740233908E0,4.225766063E-1,-1.269226170E1,1.897404790E-1
4.742721616E0,2.645592988E-1,-1.260607052E1,-3.052607179E-2
4.745209324E0,5.865794048E-2,-1.250072575E1,-2.220622003E-1
4.747696981E0,-1.855506301E-1,-1.234270859E1,-3.178302646E-1
4.750184637E0,-4.584896266E-1,-1.214159584E1,-3.752911091E-1
4.752672293E0,-7.553706169E-1,-1.191175175E1,-3.705027103E-1
4.755159949E0,-1.023521185E0,-1.171063900E1,-2.172738016E-1
4.757647606E0,-1.210268974E0,-1.149516106E1,8.439560980E-2
4.760135262E0,-1.301248670E0,-1.131799030E1,4.435258508E-1
4.762622918E0,-1.282094955E0,-1.115039539E1,9.415197968E-1
4.765110574E0,-1.181538582E0,-1.103547382E1,1.607107878E0
4.767598231E0,-1.028309584E0,-1.095885944E1,2.440289974E0
4.770085887E0,-8.607155085E-1,-1.091097546E1,3.345298290E0
4.772573543E0,-7.026981711E-1,-1.091097546E1,4.221576214E0
4.775061199E0,-5.734112859E-1,-1.094928265E1,4.949413300E0
4.777548856E0,-4.920084476E-1,-1.101632023E1,5.351639271E0
4.780036512E0,-3.962403834E-1,-1.109772301E1,5.394734859E0
4.782524168E0,-3.100491166E-1,-1.118391514E1,5.126584530E0
4.785011824E0,-1.951274425E-1,-1.131320190E1,4.571129799E0
4.787499481E0,-5.147533491E-2,-1.143291187E1,3.881599426E0
4.789987137E0,4.908113554E-2,-1.151910305E1,3.163338900E0
4.792474793E0,1.304839998E-1,-1.157656384E1,2.440289974E0
4.794962449E0,1.927332431E-1,-1.158614063E1,1.717241168E0
4.797450106E0,2.166752517E-1,-1.153825665E1,1.051653147E0
4.799937762E0,1.640028208E-1,-1.142812347E1,4.435258508E-1
4.802425418E0,6.823474914E-2,-1.126531792E1,-1.023521200E-1
4.804913074E0,-5.147533491E-2,-1.106899261E1,-6.338648796E-1
4.807400731E0,-1.903390288E-1,-1.084872627E1,-1.170166135E0
4.809888387E0,-3.435679376E-1,-1.059015274E1,-1.649006367E0
4.812376043E0,-4.824316502E-1,-1.032200241E1,-2.056020737E0
4.814863699E0,-5.973533392E-1,-1.002512074E1,-2.338536501E0
4.817351356E0,-6.883329749E-1,-9.771335602E0,-2.439092875E0
4.819839012E0,-7.457938194E-1,-9.536704063E0,-2.386420488E0
4.822326668E0,-7.553706169E-1,-9.311649323E0,-2.190095901E0
4.824814324E0,-7.601590157E-1,-9.129689217E0,-1.878849745E0
4.827301981E0,-7.074866295E-1,-9.014767647E0,-1.414374709E0
4.829789637E0,-6.165069342E-1,-8.947730064E0,-8.397662640E-1
4.832277293E0,-4.967968464E-1,-8.952518463E0,-1.741781682E-1
4.834764949E0,-3.292027414E-1,-8.990825653E0,5.967547894E-1
4.837252606E0,-1.376665980E-1,-9.096170425E0,1.415571809E0
4.839740262E0,1.065419763E-1,-9.268553734E0,2.253542423E0
4.842227918E0,3.986345828E-1,-9.479243279E0,3.139396906E0
4.844715574E0,6.811503768E-1,-9.752182007E0,4.006097794E0
4.847203231E0,9.445125461E-1,-1.005863953E1,4.772242546E0
4.849690887E0,1.136048675E0,-1.035073280E1,5.366004467E0
4.852178543E0,1.193509579E0,-1.066197872E1,5.720346451E0
4.854666199E0,1.126471877E0,-1.095885944E1,5.883152008E0
4.857153856E0,9.732429981E-1,-1.123658752E1,5.710769653E0
4.859641512E0,7.673416734E-1,-1.147121906E1,5.140949726E0
4.862129168E0,5.614402890E-1,-1.170106220E1,4.269460201E0
4.864616824E0,3.938461840E-1,-1.194048214E1,3.225588322E0
4.867104481E0,2.693476975E-1,-1.213201809E1,2.062006235E0
4.869592137E0,1.687912196E-1,-1.227567101E1,8.792705536E-1
4.872079793E0,2.992752194E-2,-1.236665058E1,-1.598129570E-1
4.874567449E0,-1.663970202E-1,-1.240016937E1,-1.093551636E0
4.877055158E0,-4.393360019E-1,-1.235228539E1,-1.965041041E0
4.879542866E0,-8.176198602E-1,-1.220384502E1,-2.750339270E0
4.882030574E0,-1.262941360E0,-1.198836613E1,-3.401561975E0
4.884518283E0,-1.784877419E0,-1.170585060E1,-3.909132719E0
4.887005991E0,-2.330755472E0,-1.143770027E1,-4.268262863E0
4.889493699E0,-2.823961020E0,-1.118391514E1,-4.411915302E0
4.891981408E0,-3.187879562E0,-1.099237823E1,-4.273051262E0
4.894469116E0,-3.379415751E0,-1.084393787E1,-3.894767523E0
4.896956824E0,-3.350685358E0,-1.077690029E1,-3.291428804E0
4.899444533E0,-3.111265182E0,-1.080563068E1,-2.568379879E0
4.901932241E0,-2.675520420E0,-1.088703346E1,-1.706467271E0
4.904419949E0,-2.153584480E0,-1.099716663E1,-8.110358119E-1
4.906907658E0,-1.574187636E0,-1.113124180E1,6.045359373E-2
4.909395366E0,-9.947907925E-1,-1.126531792E1,8.936358094E-1
4.911883074E0,-4.967968464E-1,-1.137066269E1,1.674145579E0
4.914370783E0,-6.105214357E-2,-1.143770027E1,2.339733601E0
4.916858491E0,2.310404629E-1,-1.147600746E1,2.904765129E0
4.919346199E0,4.129997790E-1,-1.146164227E1,3.378817081E0
4.921833908E0,4.752490520E-1,-1.140896988E1,3.699640274E0
4.924321616E0,4.369418025E-1,-1.131799030E1,3.828927040E0
4.926809324E0,3.411737382E-1,-1.119349194E1,3.867234230E0
4.929297033E0,2.023100406E-1,-1.104026222E1,3.656544447E0
4.931784741E0,3.950432688E-2,-1.091576385E1,3.364451885E0
4.934272449E0,-8.499415964E-2,-1.081041908E1,2.990956545E0
4.936760158E0,-2.334346622E-1,-1.073859310E1,2.473809004E0
4.939247866E0,-3.244143426E-1,-1.069549751E1,1.947084546E0
4.941735574E0,-3.914519846E-1,-1.070028591E1,1.429937005E0
4.944223283E0,-4.201824069E-1,-1.074816990E1,8.313865662E-1
4.946710991E0,-4.584896266E-1,-1.081999588E1,1.514332592E-1
4.949198699E0,-4.967968464E-1,-1.094928265E1,-4.662707746E-1
4.951686408E0,-5.542576909E-1,-1.109772301E1,-1.050456047E0
4.954174116E0,-6.212953329E-1,-1.126052952E1,-1.596333981E0
4.956661824E0,-7.553706169E-1,-1.143291187E1,-2.060809135E0
4.959149533E0,-9.085995555E-1,-1.158135223E1,-2.410362482E0
4.961637241E0,-1.100135684E0,-1.169148540E1,-2.640205860E0
4.964124949E0,-1.325190663E0,-1.175373459E1,-2.803011656E0
4.966612658E0,-1.607706428E0,-1.172979259E1,-2.850895643E0
4.969100366E0,-1.928529501E0,-1.164838982E1,-2.769492865E0
4.971588074E0,-2.230198860E0,-1.152389145E1,-2.592321873E0
4.974075783E0,-2.493561029E0,-1.138502789E1,-2.367266893E0
4.976563491E0,-2.699462414E0,-1.121264553E1,-2.079962730E0
4.979051199E0,-2.814383984E0,-1.105941582E1,-1.744774461E0
4.981538908E0,-2.823961020E0,-1.094928265E1,-1.356913805E0
4.984026616E0,-2.737769604E0,-1.089661026E1,-9.451110959E-1
4.986514324E0,-2.574964046E0,-1.090139866E1,-4.566939771E-1
4.989002033E0,-2.364274263E0,-1.093012905E1,1.735796221E-2
4.991489689E0,-2.139219284E0,-1.099716663E1,4.722562730E-1
4.993977345E0,-1.918952703E0,-1.108335781E1,8.984242082E-1
4.996465001E0,-1.713051319E0,-1.118391514E1,1.295861721E0
4.998952658E0,-1.531091928E0,-1.125574112E1,1.573589087E0
5.001440314E0,-1.420958757E0,-1.130362511E1,1.774701953E0
5.003927970E0,-1.344344258E0,-1.135150909E1,1.899200439E0
5.006415626E0,-1.339555860E0,-1.134672070E1,1.937507749E0
5.008903283E0,-1.387439847E0,-1.133714390E1,1.851316452E0
5.011390939E0,-1.459265947E0,-1.130841351E1,1.645415068E0
5.013878595E0,-1.550245643E0,-1.127968311E1,1.358110905E0
5.016366251E0,-1.641225219E0,-1.123658752E1,9.798270464E-1
5.018853908E0,-1.756146908E0,-1.121264553E1,5.680243373E-1
5.021341564E0,-1.847126603E0,-1.119349194E1,1.897404790E-1
5.023829220E0,-1.933317900E0,-1.116954994E1,-1.933317930E-1
5.026316981E0,-1.985990286E0,-1.115039539E1,-5.045779943E-1
5.028804741E0,-2.029085875E0,-1.113124180E1,-8.110358119E-1
5.031292501E0,-2.038662672E0,-1.108335781E1,-1.036090732E0
5.033780262E0,-2.019509077E0,-1.102110863E1,-1.232415318E0
5.036267970E0,-1.985990286E0,-1.094928265E1,-1.376067400E0
5.038755626E0,-1.947683096E0,-1.087266827E1,-1.471835494E0
5.041244012E0,-1.895010591E0,-1.080563068E1,-1.467047095E0
5.043731356E0,-1.780089021E0,-1.073859310E1,-1.385644197E0
5.046218699E0,-1.669955730E0,-1.067155552E1,-1.237203717E0
5.048706147E0,-1.559822440E0,-1.059015274E1,-1.083974838E0
5.051193647E0,-1.473631144E0,-1.050396156E1,-9.068039060E-1
5.053681147E0,-1.387439847E0,-1.042255878E1,-7.248445749E-1
5.056168647E0,-1.329979062E0,-1.033157921E1,-5.380968451E-1
5.058656147E0,-1.267729759E0,-1.025017643E1,-3.561375141E-1
5.061143699E0,-1.195903778E0,-1.016877270E1,-2.076970041E-1
5.063631251E0,-1.181538582E0,-1.010173512E1,-7.841010392E-2
5.066118856E0,-1.152808070E0,-1.005385113E1,3.172317147E-2
5.068606460E0,-1.114500880E0,-1.006342793E1,1.610100716E-1
5.071094064E0,-1.080982089E0,-1.007779312E1,2.759317458E-1
5.073581668E0,-1.071405292E0,-1.007779312E1,4.052186310E-1
5.076069272E0,-1.061828494E0,-1.011131191E1,5.584475398E-1
5.078556876E0,-1.076193690E0,-1.015919590E1,7.068880796E-1
5.081044481E0,-1.152808070E0,-1.019271564E1,7.930793166E-1
5.083532085E0,-1.267729759E0,-1.018792725E1,7.930793166E-1
5.086019689E0,-1.401805043E0,-1.017835045E1,7.020996213E-1
5.088507293E0,-1.545457244E0,-1.016877270E1,5.488707423E-1
5.090997970E0,-1.708262920E0,-1.013525391E1,3.764882088E-1
5.093488751E0,-1.890222192E0,-1.013525391E1,2.136825025E-1
5.095979533E0,-2.067393064E0,-1.014961910E1,1.035492271E-1
5.098463595E0,-2.211045265E0,-1.017356110E1,7.781155407E-3
5.100947658E0,-2.316390038E0,-1.020229244E1,-5.446808785E-2
5.103431824E0,-2.359485865E0,-1.022623444E1,-8.319851011E-2
5.105916251E0,-2.349909067E0,-1.026454163E1,-9.756372124E-2
5.108401199E0,-2.302024841E0,-1.028369522E1,-7.362170517E-2
5.110886147E0,-2.230198860E0,-1.030284882E1,-7.362170517E-2
5.113371668E0,-2.134430885E0,-1.030284882E1,-6.404489279E-2
5.115857189E0,-2.009932280E0,-1.030284882E1,-7.362170517E-2
5.118343335E0,-1.871068597E0,-1.028848362E1,-5.925649032E-2
5.120829481E0,-1.727416515E0,-1.025496483E1,-7.841010392E-2
5.123316303E0,-1.569399238E0,-1.023102283E1,-7.362170517E-2
5.125803126E0,-1.392228246E0,-1.020708084E1,-6.404489279E-2
5.128290626E0,-1.215057373E0,-1.020229244E1,-6.883329898E-2
5.130778126E0,-1.033097982E0,-1.018313885E1,-6.404489279E-2
