"Time (s)","Gyroscope x (rad/s)","Gyroscope y (rad/s)","Gyroscope z (rad/s)"
7.558750300E-2,-2.103895694E-2,-9.720530361E-3,6.924213842E-3
7.813750300E-2,-1.997369342E-2,-9.720530361E-3,5.858949851E-3
8.068750300E-2,-1.890842989E-2,-9.720530361E-3,4.793686327E-3
8.323750300E-2,-1.784316637E-2,-1.078579482E-2,3.728422802E-3
8.578750300E-2,-1.784316637E-2,-1.185105834E-2,3.728422802E-3
8.833750300E-2,-1.677790284E-2,-1.185105834E-2,2.663159044E-3
9.088750300E-2,-1.677790284E-2,-1.398158539E-2,2.663159044E-3
9.343750300E-2,-1.677790284E-2,-1.398158539E-2,2.663159044E-3
9.598750300E-2,-1.571263932E-2,-1.398158539E-2,2.663159044E-3
9.853750300E-2,-1.571263932E-2,-1.504684892E-2,2.663159044E-3
1.010875030E-1,-1.464737486E-2,-1.611211337E-2,2.663159044E-3
1.036375030E-1,-1.358211134E-2,-1.504684892E-2,1.597895520E-3
1.061875030E-1,-1.251684781E-2,-1.398158539E-2,1.597895520E-3
1.087375030E-1,-1.145158429E-2,-1.398158539E-2,1.597895520E-3
1.112875030E-1,-1.038632076E-2,-1.291632187E-2,-5.326318205E-4
1.138375030E-1,-1.038632076E-2,-1.185105834E-2,-5.326318205E-4
1.163875030E-1,-9.321057238E-3,-1.078579482E-2,-1.597895520E-3
1.189375030E-1,-9.321057238E-3,-1.078579482E-2,-1.597895520E-3
1.214875030E-1,-9.321057238E-3,-1.078579482E-2,-1.597895520E-3
1.240375030E-1,-8.255792782E-3,-1.185105834E-2,-2.663159044E-3
1.265875030E-1,-8.255792782E-3,-1.291632187E-2,-2.663159044E-3
1.291375030E-1,-8.255792782E-3,-1.398158539E-2,-2.663159044E-3
1.316875030E-1,-7.190529723E-3,-1.504684892E-2,-2.663159044E-3
1.342375030E-1,-6.125265732E-3,-1.717737690E-2,-2.663159044E-3
1.367875030E-1,-6.125265732E-3,-1.824264042E-2,-1.597895520E-3
1.393375030E-1,-5.060002208E-3,-2.037316747E-2,-1.597895520E-3
1.418875030E-1,-3.994738683E-3,-2.250369452E-2,-5.326318205E-4
1.444375030E-1,-1.864211401E-3,-2.356895804E-2,5.326318205E-4
1.469875030E-1,2.663159103E-4,-2.463422157E-2,1.597895520E-3
1.495375030E-1,1.331579522E-3,-2.569948509E-2,2.663159044E-3
1.520875030E-1,2.396843163E-3,-2.569948509E-2,3.728422802E-3
1.546258880E-1,4.527370445E-3,-2.569948509E-2,4.793686327E-3
1.571135960E-1,5.592633970E-3,-2.569948509E-2,5.858949851E-3
1.596013050E-1,6.657897960E-3,-2.569948509E-2,6.924213842E-3
1.620890130E-1,6.657897960E-3,-2.569948509E-2,7.989477366E-3
1.645767210E-1,8.788425475E-3,-2.569948509E-2,9.054740891E-3
1.670644300E-1,8.788425475E-3,-2.676474862E-2,1.118526794E-2
1.695521380E-1,9.853689000E-3,-2.783001214E-2,1.225053146E-2
1.720398460E-1,1.091895252E-2,-2.783001214E-2,1.331579592E-2
1.745275550E-1,1.198421605E-2,-2.676474862E-2,1.438105945E-2
1.770152630E-1,1.304947957E-2,-2.676474862E-2,1.544632297E-2
1.795029710E-1,1.518000662E-2,-2.463422157E-2,1.651158556E-2
1.819906800E-1,1.624527015E-2,-2.250369452E-2,1.757685095E-2
1.844783880E-1,1.731053367E-2,-2.037316747E-2,1.864211448E-2
1.869660960E-1,1.837579720E-2,-1.717737690E-2,1.970737800E-2
1.894538050E-1,2.050632425E-2,-1.291632187E-2,2.183790505E-2
1.919415130E-1,2.157158963E-2,-1.078579482E-2,2.183790505E-2
1.944292210E-1,2.157158963E-2,-6.524739787E-3,2.290316857E-2
1.969169300E-1,2.263685316E-2,-2.263685223E-3,2.503369562E-2
1.994046380E-1,2.370211668E-2,9.321057005E-4,2.609895915E-2
2.018923460E-1,2.476738021E-2,4.127896391E-3,2.822948620E-2
2.043800550E-1,2.476738021E-2,7.323687430E-3,2.929474972E-2
2.068677630E-1,2.476738021E-2,1.051947847E-2,3.036001325E-2
2.093554710E-1,2.583264373E-2,1.265000552E-2,3.142527863E-2
2.118431800E-1,2.689790726E-2,1.478053257E-2,3.249054030E-2
2.143308880E-1,2.689790726E-2,1.691105962E-2,3.462106735E-2
2.168185960E-1,2.689790726E-2,1.797632314E-2,3.462106735E-2
2.193063050E-1,2.689790726E-2,1.797632314E-2,3.568633273E-2
2.217940130E-1,2.796317078E-2,1.797632314E-2,3.675159439E-2
2.242817210E-1,2.902843431E-2,1.691105962E-2,3.781685978E-2
2.267694300E-1,2.902843431E-2,1.691105962E-2,3.781685978E-2
2.292571380E-1,3.009369783E-2,1.478053257E-2,3.675159439E-2
2.317448460E-1,3.009369783E-2,1.371526904E-2,3.675159439E-2
2.342325550E-1,2.902843431E-2,1.158474199E-2,3.675159439E-2
2.367202630E-1,2.902843431E-2,9.454214945E-3,3.568633273E-2
2.392079710E-1,2.902843431E-2,8.388951421E-3,3.462106735E-2
2.416956800E-1,2.902843431E-2,6.258423906E-3,3.355580568E-2
2.441833880E-1,3.009369783E-2,4.127896391E-3,3.142527863E-2
2.466710960E-1,3.009369783E-2,3.062632866E-3,2.929474972E-2
2.491588050E-1,3.115896136E-2,9.321057005E-4,2.716422267E-2
2.516465130E-1,3.115896136E-2,-1.198421582E-3,2.503369562E-2
2.541342210E-1,3.115896136E-2,-3.328948980E-3,2.183790505E-2
2.566219300E-1,3.222422674E-2,-5.459476262E-3,1.970737800E-2
2.591096380E-1,3.222422674E-2,-6.524739787E-3,1.651158556E-2
2.615973460E-1,3.435475379E-2,-9.720530361E-3,1.438105945E-2
2.640850550E-1,3.435475379E-2,-1.185105834E-2,1.118526794E-2
2.665727630E-1,3.542001545E-2,-1.504684892E-2,1.012000442E-2
2.690604710E-1,3.648528084E-2,-1.717737690E-2,7.989477366E-3
2.715481800E-1,3.648528084E-2,-1.824264042E-2,5.858949851E-3
2.740358880E-1,3.755054250E-2,-1.824264042E-2,5.858949851E-3
2.765235960E-1,3.861580789E-2,-1.930790395E-2,4.793686327E-3
2.790113050E-1,3.861580789E-2,-1.824264042E-2,4.793686327E-3
2.814990130E-1,3.968106955E-2,-1.824264042E-2,4.793686327E-3
2.839867210E-1,3.968106955E-2,-1.717737690E-2,5.858949851E-3
2.864744300E-1,4.074633494E-2,-1.611211337E-2,5.858949851E-3
2.889621380E-1,4.181159660E-2,-1.398158539E-2,6.924213842E-3
2.914498460E-1,4.181159660E-2,-1.398158539E-2,7.989477366E-3
2.939375550E-1,4.287686199E-2,-1.185105834E-2,9.054740891E-3
2.964252630E-1,4.287686199E-2,-9.720530361E-3,1.118526794E-2
2.989129710E-1,4.394212365E-2,-7.590003312E-3,1.225053146E-2
3.014006800E-1,4.500738904E-2,-6.524739787E-3,1.331579592E-2
3.038883880E-1,4.394212365E-2,-4.394212738E-3,1.438105945E-2
3.063760960E-1,4.500738904E-2,-2.263685223E-3,1.651158556E-2
3.088638050E-1,4.500738904E-2,-1.331579551E-4,1.757685095E-2
3.113515130E-1,4.394212365E-2,1.997369342E-3,1.970737800E-2
3.138392210E-1,4.394212365E-2,5.193160381E-3,2.290316857E-2
3.163269300E-1,4.394212365E-2,8.388951421E-3,2.609895915E-2
3.188146380E-1,4.500738904E-2,1.051947847E-2,2.929474972E-2
3.213023460E-1,4.500738904E-2,1.371526904E-2,3.249054030E-2
3.237900550E-1,4.607265070E-2,1.584579609E-2,3.462106735E-2
3.262777630E-1,4.713791609E-2,1.797632314E-2,3.568633273E-2
3.287654710E-1,4.713791609E-2,1.904158667E-2,3.781685978E-2
3.312531800E-1,4.713791609E-2,2.117211558E-2,3.994738683E-2
3.337408880E-1,4.713791609E-2,2.010685205E-2,4.101264849E-2
3.362285960E-1,4.713791609E-2,2.117211558E-2,4.207791388E-2
3.387163050E-1,4.713791609E-2,2.010685205E-2,4.314317927E-2
3.412040130E-1,4.713791609E-2,1.904158667E-2,4.207791388E-2
3.436917210E-1,4.607265070E-2,1.797632314E-2,4.207791388E-2
3.461794300E-1,4.500738904E-2,1.691105962E-2,4.101264849E-2
3.486671380E-1,4.500738904E-2,1.584579609E-2,3.888212144E-2
3.511548460E-1,4.500738904E-2,1.584579609E-2,3.675159439E-2
3.536425550E-1,4.500738904E-2,1.584579609E-2,3.462106735E-2
3.561303150E-1,4.394212365E-2,1.584579609E-2,3.142527863E-2
3.586180760E-1,4.500738904E-2,1.584579609E-2,2.929474972E-2
3.611058360E-1,4.500738904E-2,1.584579609E-2,2.609895915E-2
3.635935960E-1,4.500738904E-2,1.478053257E-2,2.290316857E-2
3.660813570E-1,4.394212365E-2,1.371526904E-2,1.970737800E-2
3.685691170E-1,4.394212365E-2,1.158474199E-2,1.651158556E-2
3.710568780E-1,4.394212365E-2,8.388951421E-3,1.438105945E-2
3.735446380E-1,4.394212365E-2,4.127896391E-3,1.118526794E-2
3.760323990E-1,4.394212365E-2,9.321057005E-4,7.989477366E-3
3.785201590E-1,4.394212365E-2,-2.263685223E-3,5.858949851E-3
3.810079190E-1,4.394212365E-2,-5.459476262E-3,3.728422802E-3
3.834956800E-1,4.394212365E-2,-8.655266836E-3,1.597895520E-3
3.859834400E-1,4.500738904E-2,-1.291632187E-2,-5.326318205E-4
3.884712010E-1,4.500738904E-2,-1.611211337E-2,-1.597895520E-3
3.909589610E-1,4.500738904E-2,-2.037316747E-2,-2.663159044E-3
3.934467210E-1,4.500738904E-2,-2.356895804E-2,-2.663159044E-3
3.959344820E-1,4.607265070E-2,-2.569948509E-2,-4.793686327E-3
3.984222420E-1,4.713791609E-2,-2.676474862E-2,-4.793686327E-3
4.009100030E-1,4.926844314E-2,-2.783001214E-2,-5.858949851E-3
4.033977630E-1,4.926844314E-2,-2.676474862E-2,-6.924213842E-3
4.058855240E-1,5.033370852E-2,-2.569948509E-2,-6.924213842E-3
4.083732840E-1,5.033370852E-2,-2.250369452E-2,-6.924213842E-3
4.108610440E-1,5.139897019E-2,-1.930790395E-2,-5.858949851E-3
4.133488050E-1,5.246423557E-2,-1.611211337E-2,-5.858949851E-3
4.158365650E-1,5.246423557E-2,-1.185105834E-2,-4.793686327E-3
4.183243260E-1,5.246423557E-2,-7.590003312E-3,-3.728422802E-3
4.208120860E-1,5.352949724E-2,-4.394212738E-3,-2.663159044E-3
4.232998460E-1,5.459476262E-2,-2.263685223E-3,-1.597895520E-3
4.257876070E-1,5.566002429E-2,-1.331579551E-4,-5.326318205E-4
4.282753670E-1,5.566002429E-2,-1.331579551E-4,1.597895520E-3
4.307631280E-1,5.459476262E-2,9.321057005E-4,2.663159044E-3
4.332508880E-1,5.459476262E-2,9.321057005E-4,3.728422802E-3
4.357386490E-1,5.352949724E-2,-1.331579551E-4,3.728422802E-3
4.382264090E-1,5.246423557E-2,9.321057005E-4,4.793686327E-3
4.407141690E-1,5.246423557E-2,9.321057005E-4,5.858949851E-3
4.432019300E-1,5.246423557E-2,1.997369342E-3,5.858949851E-3
4.456896380E-1,5.139897019E-2,1.997369342E-3,4.793686327E-3
4.481773460E-1,5.139897019E-2,1.997369342E-3,2.663159044E-3
4.506650550E-1,5.033370852E-2,9.321057005E-4,5.326318205E-4
4.531527630E-1,4.926844314E-2,-1.331579551E-4,-3.728422802E-3
4.556404710E-1,4.607265070E-2,-2.263685223E-3,-7.989477366E-3
4.581281800E-1,4.181159660E-2,-6.524739787E-3,-1.225053146E-2
4.606158880E-1,3.755054250E-2,-1.078579482E-2,-1.864211448E-2
4.631035960E-1,3.328948840E-2,-1.504684892E-2,-2.503369562E-2
4.655913050E-1,2.902843431E-2,-2.143843099E-2,-3.462106735E-2
4.680790130E-1,2.476738021E-2,-2.783001214E-2,-4.314317927E-2
4.705667210E-1,2.157158963E-2,-3.528685868E-2,-5.273054913E-2
4.730544300E-1,1.944106072E-2,-4.274370521E-2,-6.125266105E-2
4.755421380E-1,1.731053367E-2,-5.126581341E-2,-7.084003091E-2
4.780298460E-1,1.518000662E-2,-6.085318699E-2,-7.936213911E-2
4.805175550E-1,1.304947957E-2,-7.257108390E-2,-8.788424730E-2
4.830052630E-1,9.853689000E-3,-8.428898454E-2,-9.640636295E-2
4.854929710E-1,6.657897960E-3,-9.813741595E-2,-1.038632020E-1
4.879806800E-1,4.527370445E-3,-1.109205782E-1,-1.113200486E-1
4.904683880E-1,3.462106921E-3,-1.237037405E-1,-1.166463718E-1
4.929560960E-1,2.396843163E-3,-1.354216337E-1,-1.230379492E-1
4.954438050E-1,1.331579522E-3,-1.460742801E-1,-1.294295341E-1
4.979315130E-1,2.663159103E-4,-1.545963883E-1,-1.336905807E-1
5.004192210E-1,2.663159103E-4,-1.609879732E-1,-1.379516423E-1
5.029069300E-1,-7.989477599E-4,-1.663142890E-1,-1.422126889E-1
5.053946380E-1,-1.864211401E-3,-1.705753356E-1,-1.443432271E-1
5.078823460E-1,-2.929474926E-3,-1.727058738E-1,-1.454084814E-1
5.103700550E-1,-2.929474926E-3,-1.737711281E-1,-1.454084814E-1
5.128577630E-1,-2.929474926E-3,-1.737711281E-1,-1.443432271E-1
5.153454710E-1,-3.994738683E-3,-1.737711281E-1,-1.432779580E-1
5.178331800E-1,-3.994738683E-3,-1.716406047E-1,-1.411474347E-1
5.203208880E-1,-3.994738683E-3,-1.684448123E-1,-1.390169114E-1
5.228085960E-1,-2.929474926E-3,-1.641837656E-1,-1.347558498E-1
5.252963050E-1,-1.864211401E-3,-1.577921808E-1,-1.304948032E-1
5.277840130E-1,2.663159103E-4,-1.492700726E-1,-1.241032109E-1
5.302717210E-1,2.396843163E-3,-1.396826953E-1,-1.177116334E-1
5.327594300E-1,3.462106921E-3,-1.290300637E-1,-1.113200486E-1
5.352471380E-1,5.592633970E-3,-1.162468940E-1,-1.038632020E-1
5.377348460E-1,6.657897960E-3,-1.023984700E-1,-9.747162461E-2
5.402225550E-1,7.723161485E-3,-8.961530030E-2,-8.894951642E-2
5.427102630E-1,9.853689000E-3,-7.576687634E-2,-8.042740822E-2
5.451979710E-1,9.853689000E-3,-6.404897571E-2,-7.190529257E-2
5.476856800E-1,9.853689000E-3,-5.020054802E-2,-6.231792271E-2
5.501733880E-1,9.853689000E-3,-3.635212034E-2,-5.486107618E-2
5.526610960E-1,1.091895252E-2,-2.143843099E-2,-4.633896798E-2
5.551488050E-1,1.198421605E-2,-6.524739787E-3,-3.994738683E-2
5.576365130E-1,1.304947957E-2,7.323687430E-3,-3.249054030E-2
5.601242210E-1,1.304947957E-2,1.904158667E-2,-2.716422267E-2
5.626119300E-1,1.304947957E-2,2.756369673E-2,-2.290316857E-2
5.650996380E-1,1.198421605E-2,3.395527974E-2,-1.864211448E-2
5.675873460E-1,1.091895252E-2,3.821633384E-2,-1.651158556E-2
5.700750550E-1,9.853689000E-3,4.034686089E-2,-1.438105945E-2
5.725627630E-1,8.788425475E-3,3.928159550E-2,-1.438105945E-2
5.750504710E-1,8.788425475E-3,3.715106845E-2,-1.544632297E-2
5.775381800E-1,7.723161485E-3,3.395527974E-2,-1.651158556E-2
5.800258880E-1,6.657897960E-3,2.969422378E-2,-1.864211448E-2
5.825135960E-1,5.592633970E-3,2.543316968E-2,-2.077264152E-2
5.850013050E-1,5.592633970E-3,2.010685205E-2,-2.290316857E-2
5.874890130E-1,4.527370445E-3,1.265000552E-2,-2.716422267E-2
5.899767210E-1,2.396843163E-3,6.258423906E-3,-3.036001325E-2
5.924644300E-1,2.663159103E-4,-3.328948980E-3,-3.355580568E-2
5.949521380E-1,-1.864211401E-3,-1.398158539E-2,-3.888212144E-2
5.974398460E-1,-3.994738683E-3,-2.569948509E-2,-4.314317927E-2
5.999275550E-1,-7.190529723E-3,-3.741738573E-2,-4.846949503E-2
6.024152630E-1,-8.255792782E-3,-5.020054802E-2,-5.273054913E-2
6.049029710E-1,-1.145158429E-2,-6.191844866E-2,-5.699160323E-2
6.073906800E-1,-1.358211134E-2,-7.363634557E-2,-6.231792271E-2
6.098783880E-1,-1.571263932E-2,-8.322372288E-2,-6.657897681E-2
6.123660960E-1,-1.784316637E-2,-9.068056941E-2,-7.084003091E-2
6.148538050E-1,-1.997369342E-2,-9.600688517E-2,-7.510108501E-2
6.173415130E-1,-2.103895694E-2,-9.920267761E-2,-7.829687744E-2
6.198292210E-1,-2.423474751E-2,-1.002679393E-1,-8.149266988E-2
6.223169300E-1,-2.530001104E-2,-9.813741595E-2,-8.468846232E-2
6.248046380E-1,-2.743053809E-2,-9.494162351E-2,-8.681898564E-2
6.272923460E-1,-3.062633052E-2,-8.961530030E-2,-8.788424730E-2
6.297800550E-1,-3.382211924E-2,-8.428898454E-2,-8.894951642E-2
6.322677630E-1,-3.808317333E-2,-7.789740711E-2,-8.894951642E-2
6.347554710E-1,-4.021370411E-2,-6.831002980E-2,-8.788424730E-2
6.372431800E-1,-4.234423116E-2,-5.765739456E-2,-8.575372398E-2
6.397309400E-1,-4.340949282E-2,-4.487423226E-2,-8.362319320E-2
6.422187010E-1,-4.340949282E-2,-3.102580272E-2,-8.042740822E-2
6.447064610E-1,-4.340949282E-2,-1.611211337E-2,-7.616634667E-2
6.471942210E-1,-4.340949282E-2,-1.331579551E-4,-7.084003091E-2
6.496819820E-1,-4.340949282E-2,1.584579609E-2,-6.657897681E-2
6.521697420E-1,-4.340949282E-2,3.075948730E-2,-6.231792271E-2
6.546575030E-1,-4.447475821E-2,4.460791498E-2,-5.699160323E-2
6.571452630E-1,-4.554001987E-2,5.845634267E-2,-5.379581451E-2
6.596330240E-1,-4.767054692E-2,6.910897791E-2,-4.846949503E-2
6.621207840E-1,-5.086633936E-2,7.869634777E-2,-4.420844093E-2
6.646085440E-1,-5.512739345E-2,8.402267098E-2,-4.101264849E-2
6.670963050E-1,-5.832318589E-2,8.828372508E-2,-3.675159439E-2
6.695840650E-1,-6.258423626E-2,8.934898674E-2,-3.355580568E-2
6.720718260E-1,-6.578002870E-2,8.934898674E-2,-3.142527863E-2
6.745595860E-1,-6.897582114E-2,8.721846342E-2,-3.036001325E-2
6.770473460E-1,-7.110634446E-2,8.402267098E-2,-2.929474972E-2
6.795351070E-1,-7.323687524E-2,7.976161689E-2,-2.822948620E-2
6.820228670E-1,-7.643266767E-2,7.337003201E-2,-2.716422267E-2
6.845106280E-1,-7.856319100E-2,6.484792382E-2,-2.716422267E-2
6.869983880E-1,-8.069372177E-2,5.632581562E-2,-2.716422267E-2
6.894861490E-1,-8.175898343E-2,4.567318037E-2,-2.822948620E-2
6.919739090E-1,-8.388951421E-2,3.502054140E-2,-2.929474972E-2
6.944616690E-1,-8.495477587E-2,2.436790615E-2,-3.036001325E-2
6.969494300E-1,-8.495477587E-2,1.371526904E-2,-3.249054030E-2
6.994371900E-1,-8.388951421E-2,5.193160381E-3,-3.568633273E-2
7.019249510E-1,-8.175898343E-2,-1.331579551E-4,-3.888212144E-2
7.044127110E-1,-7.749792933E-2,-1.198421582E-3,-4.420844093E-2
7.069004710E-1,-7.323687524E-2,9.321057005E-4,-5.060002208E-2
7.093882320E-1,-6.791055948E-2,5.193160381E-3,-5.699160323E-2
7.118759920E-1,-6.258423626E-2,1.158474199E-2,-6.444845349E-2
7.143637530E-1,-5.619265884E-2,1.691105962E-2,-7.190529257E-2
7.168515130E-1,-5.086633936E-2,2.010685205E-2,-8.042740822E-2
7.193392740E-1,-4.447475821E-2,2.223737910E-2,-8.894951642E-2
7.218270340E-1,-3.914843872E-2,2.117211558E-2,-9.534109384E-2
7.243147940E-1,-3.275685757E-2,2.010685205E-2,-1.017326787E-1
7.268025550E-1,-2.423474751E-2,2.010685205E-2,-1.081242561E-1
7.292902630E-1,-1.571263932E-2,2.117211558E-2,-1.145158410E-1
7.317779710E-1,-6.125265732E-3,2.330264263E-2,-1.209074259E-1
7.342656800E-1,2.396843163E-3,2.862896025E-2,-1.283642650E-1
7.367533880E-1,1.091895252E-2,3.821633384E-2,-1.358211190E-1
7.392410960E-1,1.837579720E-2,5.099949613E-2,-1.443432271E-1
7.417288050E-1,2.476738021E-2,6.697845459E-2,-1.528653353E-1
7.442165130E-1,3.009369783E-2,8.508793265E-2,-1.624527127E-1
7.467042210E-1,3.435475379E-2,1.031974182E-1,-1.720400751E-1
7.491919300E-1,3.755054250E-2,1.202416345E-1,-1.826927215E-1
7.516796380E-1,3.968106955E-2,1.351553202E-1,-1.912148297E-1
7.541673460E-1,4.181159660E-2,1.468732208E-1,-2.008021921E-1
7.566550550E-1,4.394212365E-2,1.543300748E-1,-2.093243003E-1
7.591427630E-1,4.394212365E-2,1.575258672E-1,-2.157158852E-1
7.616304710E-1,4.500738904E-2,1.575258672E-1,-2.221074700E-1
7.641181800E-1,4.500738904E-2,1.521995366E-1,-2.274337858E-1
7.666058880E-1,4.607265070E-2,1.426121742E-1,-2.306295782E-1
7.690935960E-1,4.820318148E-2,1.298290044E-1,-2.327601016E-1
7.715813050E-1,5.033370852E-2,1.138500497E-1,-2.359558940E-1
7.740690130E-1,5.352949724E-2,9.574057162E-2,-2.359558940E-1
7.765567210E-1,5.672528967E-2,7.550056279E-2,-2.359558940E-1
7.790444300E-1,5.992107838E-2,5.526055023E-2,-2.348906398E-1
7.815321380E-1,6.524740160E-2,3.608580679E-2,-2.327601016E-1
7.840198460E-1,6.950845569E-2,1.797632314E-2,-2.316948473E-1
7.865075550E-1,7.590003312E-2,1.997369342E-3,-2.295643091E-1
7.889952630E-1,8.122635633E-2,-1.398158539E-2,-2.274337858E-1
7.914829710E-1,8.761793375E-2,-2.889527567E-2,-2.263685167E-1
7.939706800E-1,9.294424951E-2,-4.274370521E-2,-2.242379934E-1
7.964583880E-1,9.933583438E-2,-5.446160212E-2,-2.231727391E-1
7.989460960E-1,1.067926809E-1,-6.298371404E-2,-2.210422009E-1
8.014338050E-1,1.142495275E-1,-6.724476814E-2,-2.189116776E-1
8.039215130E-1,1.206411049E-1,-6.937529147E-2,-2.157158852E-1
8.064092210E-1,1.249021590E-1,-6.724476814E-2,-2.125200927E-1
8.088969300E-1,1.302284747E-1,-6.298371404E-2,-2.093243003E-1
8.113846380E-1,1.344895363E-1,-5.552686751E-2,-2.071937770E-1
8.138723460E-1,1.355548054E-1,-4.807002097E-2,-2.039979845E-1
8.163600550E-1,1.376853287E-1,-3.954791278E-2,-2.008021921E-1
8.188477630E-1,1.366200596E-1,-2.996053919E-2,-1.976063997E-1
8.213354710E-1,1.355548054E-1,-2.037316747E-2,-1.933453530E-1
8.238231800E-1,1.334242672E-1,-1.078579482E-2,-1.890842915E-1
8.263108880E-1,1.302284747E-1,-1.331579551E-4,-1.869537681E-1
8.287985960E-1,1.259674281E-1,1.051947847E-2,-1.848232448E-1
8.312863050E-1,1.217063740E-1,2.117211558E-2,-1.826927215E-1
8.337740130E-1,1.163800508E-1,3.289001435E-2,-1.805621833E-1
8.362617210E-1,1.110537350E-1,4.354264960E-2,-1.794969290E-1
8.387494300E-1,1.046621501E-1,5.419528857E-2,-1.784316599E-1
8.412371380E-1,9.827057272E-2,6.165213138E-2,-1.773663908E-1
8.437248460E-1,9.081372619E-2,6.804371625E-2,-1.773663908E-1
8.462125550E-1,8.548741043E-2,7.230477035E-2,-1.773663908E-1
8.487002630E-1,7.909582555E-2,7.337003201E-2,-1.784316599E-1
8.511879710E-1,7.376950979E-2,7.230477035E-2,-1.805621833E-1
8.536756800E-1,6.950845569E-2,6.804371625E-2,-1.826927215E-1
8.561633880E-1,6.524740160E-2,6.165213138E-2,-1.858884990E-1
8.586510960E-1,6.311687082E-2,5.206476152E-2,-1.901495606E-1
8.611388050E-1,6.098634377E-2,4.247738793E-2,-1.965411454E-1
8.636265130E-1,5.885581672E-2,3.075948730E-2,-2.029327303E-1
8.661142210E-1,5.566002429E-2,2.117211558E-2,-2.103895694E-1
8.686019300E-1,5.246423557E-2,1.051947847E-2,-2.189116776E-1
8.710896380E-1,4.926844314E-2,9.321057005E-4,-2.284990549E-1
8.735773460E-1,4.607265070E-2,-8.655266836E-3,-2.380864173E-1
8.760650550E-1,4.287686199E-2,-1.717737690E-2,-2.487390637E-1
8.785527630E-1,3.861580789E-2,-2.356895804E-2,-2.583264410E-1
8.810404710E-1,3.328948840E-2,-2.889527567E-2,-2.689790726E-1
8.835281800E-1,3.009369783E-2,-3.422159329E-2,-2.775011659E-1
8.860158880E-1,2.583264373E-2,-3.848264739E-2,-2.838927507E-1
8.885035960E-1,2.050632425E-2,-4.061317816E-2,-2.913496196E-1
8.909913050E-1,1.624527015E-2,-4.167843983E-2,-2.966759205E-1
8.934790130E-1,1.198421605E-2,-4.274370521E-2,-3.009369671E-1
8.959667210E-1,8.788425475E-3,-4.167843983E-2,-3.030675054E-1
8.984544300E-1,5.592633970E-3,-3.954791278E-2,-3.041327596E-1
9.009421380E-1,2.396843163E-3,-3.741738573E-2,-3.051980436E-1
9.034298460E-1,2.663159103E-4,-3.422159329E-2,-3.051980436E-1
9.059175550E-1,-1.864211401E-3,-2.996053919E-2,-3.041327596E-1
9.084052630E-1,-2.929474926E-3,-2.676474862E-2,-3.020022511E-1
9.108929710E-1,-5.060002208E-3,-2.250369452E-2,-2.988064587E-1
9.133806800E-1,-5.060002208E-3,-1.611211337E-2,-2.956106663E-1
9.158684400E-1,-3.994738683E-3,-8.655266836E-3,-2.913496196E-1
9.183562010E-1,-3.994738683E-3,-1.331579551E-4,-2.870885432E-1
9.208439610E-1,-2.929474926E-3,9.454214945E-3,-2.806969583E-1
9.233317210E-1,-3.994738683E-3,1.904158667E-2,-2.753706574E-1
9.258194820E-1,-3.994738683E-3,2.862896025E-2,-2.689790726E-1
9.283072420E-1,-5.060002208E-3,3.821633384E-2,-2.625874877E-1
9.307950030E-1,-6.125265732E-3,4.567318037E-2,-2.572611570E-1
9.332827630E-1,-6.125265732E-3,4.993423447E-2,-2.519348562E-1
9.357705240E-1,-6.125265732E-3,5.419528857E-2,-2.476737946E-1
9.382582840E-1,-6.125265732E-3,5.526055023E-2,-2.434127480E-1
9.407460440E-1,-6.125265732E-3,5.419528857E-2,-2.412822098E-1
9.432338050E-1,-6.125265732E-3,5.099949613E-2,-2.380864173E-1
9.457215650E-1,-5.060002208E-3,4.567318037E-2,-2.370211631E-1
9.482093260E-1,-2.929474926E-3,3.821633384E-2,-2.359558940E-1
9.506970860E-1,2.663159103E-4,3.182475269E-2,-2.348906398E-1
9.531848460E-1,3.462106921E-3,2.649843320E-2,-2.348906398E-1
9.556726070E-1,8.788425475E-3,2.117211558E-2,-2.359558940E-1
9.581603670E-1,1.411474310E-2,1.691105962E-2,-2.370211631E-1
9.606481280E-1,1.837579720E-2,1.265000552E-2,-2.391516864E-1
9.631358880E-1,2.263685316E-2,7.323687430E-3,-2.423474789E-1
9.656236490E-1,2.476738021E-2,1.997369342E-3,-2.466085255E-1
9.681114090E-1,2.583264373E-2,-5.459476262E-3,-2.508696020E-1
9.705991690E-1,2.689790726E-2,-1.611211337E-2,-2.540653646E-1
9.730869300E-1,2.796317078E-2,-2.783001214E-2,-2.583264410E-1
9.755746900E-1,2.902843431E-2,-4.061317816E-2,-2.615222335E-1
9.780624510E-1,2.902843431E-2,-5.339634046E-2,-2.636527419E-1
9.805502110E-1,3.115896136E-2,-6.617950648E-2,-2.636527419E-1
9.830379710E-1,3.222422674E-2,-7.896266878E-2,-2.625874877E-1
9.855257320E-1,3.435475379E-2,-8.961530030E-2,-2.593916953E-1
9.880134920E-1,3.542001545E-2,-9.707214683E-2,-2.551306486E-1
9.905012530E-1,3.648528084E-2,-1.045289934E-1,-2.498043180E-1
9.929890130E-1,3.648528084E-2,-1.109205782E-1,-2.434127480E-1
9.954767740E-1,3.542001545E-2,-1.141163707E-1,-2.370211631E-1
9.979645340E-1,3.542001545E-2,-1.151816323E-1,-2.295643091E-1
1.000452294E0,3.435475379E-2,-1.141163707E-1,-2.231727391E-1
1.002940055E0,3.542001545E-2,-1.098553166E-1,-2.146506310E-1
1.005427815E0,3.435475379E-2,-1.023984700E-1,-2.050632536E-1
1.007915524E0,3.328948840E-2,-9.387636185E-2,-1.954758763E-1
1.010403232E0,3.115896136E-2,-8.535424620E-2,-1.869537681E-1
1.012890940E0,2.796317078E-2,-7.470161468E-2,-1.773663908E-1
1.015378649E0,2.476738021E-2,-6.404897571E-2,-1.677790284E-1
1.017866357E0,2.370211668E-2,-5.339634046E-2,-1.592569202E-1
1.020354065E0,2.370211668E-2,-4.061317816E-2,-1.507348120E-1
1.022841774E0,2.370211668E-2,-2.783001214E-2,-1.432779580E-1
1.025329482E0,2.263685316E-2,-1.398158539E-2,-1.347558498E-1
1.027817190E0,2.157158963E-2,-2.263685223E-3,-1.272990108E-1
1.030304899E0,1.731053367E-2,1.051947847E-2,-1.177116334E-1
1.032792607E0,1.411474310E-2,2.223737910E-2,-1.081242561E-1
1.035280315E0,1.091895252E-2,3.289001435E-2,-9.640636295E-2
1.037768024E0,8.788425475E-3,4.354264960E-2,-8.149266988E-2
1.040255732E0,9.853689000E-3,5.313002318E-2,-6.657897681E-2
1.042743440E0,1.304947957E-2,6.271740049E-2,-5.060002208E-2
1.045231149E0,1.837579720E-2,7.017423958E-2,-3.462106735E-2
1.047718857E0,2.370211668E-2,7.337003201E-2,-1.864211448E-2
1.050206565E0,2.902843431E-2,7.337003201E-2,-2.663159044E-3
1.052694274E0,3.115896136E-2,6.804371625E-2,1.331579592E-2
1.055181982E0,3.222422674E-2,6.058686972E-2,2.822948620E-2
1.057669690E0,3.222422674E-2,4.993423447E-2,4.207791388E-2
1.060157399E0,3.222422674E-2,3.715106845E-2,5.486107618E-2
1.062645107E0,3.328948840E-2,2.436790615E-2,6.764423847E-2
1.065132815E0,3.222422674E-2,1.158474199E-2,7.936213911E-2
1.067620524E0,3.115896136E-2,9.321057005E-4,9.001477808E-2
1.070108232E0,2.902843431E-2,-7.590003312E-3,9.960214794E-2
1.072595940E0,2.689790726E-2,-1.398158539E-2,1.049284711E-1
1.075083649E0,2.476738021E-2,-1.824264042E-2,1.091895252E-1
1.077571357E0,2.157158963E-2,-1.824264042E-2,1.123853177E-1
1.080059065E0,1.837579720E-2,-1.611211337E-2,1.145158410E-1
1.082546774E0,1.411474310E-2,-1.291632187E-2,1.166463718E-1
1.085034482E0,7.723161485E-3,-8.655266836E-3,1.177116334E-1
1.087522190E0,1.331579522E-3,-3.328948980E-3,1.177116334E-1
1.090009899E0,-7.190529723E-3,9.321057005E-4,1.187768951E-1
1.092497607E0,-1.464737486E-2,5.193160381E-3,1.209074259E-1
1.094985315E0,-2.103895694E-2,8.388951421E-3,1.251684725E-1
1.097473024E0,-2.743053809E-2,1.051947847E-2,1.304948032E-1
1.099960732E0,-3.169159219E-2,1.158474199E-2,1.368863732E-1
1.102448440E0,-3.382211924E-2,1.478053257E-2,1.454084814E-1
1.104936149E0,-3.595264629E-2,1.691105962E-2,1.539305896E-1
1.107423857E0,-3.808317333E-2,2.117211558E-2,1.613874435E-1
1.109911565E0,-4.127896577E-2,2.330264263E-2,1.688442826E-1
1.112399274E0,-4.660528526E-2,2.543316968E-2,1.773663908E-1
1.114886982E0,-5.193160102E-2,2.649843320E-2,1.858884990E-1
1.117374690E0,-5.832318589E-2,2.649843320E-2,1.954758763E-1
1.119862399E0,-6.578002870E-2,2.436790615E-2,2.050632536E-1
1.122350107E0,-7.323687524E-2,2.010685205E-2,2.146506310E-1
1.124837815E0,-7.962846011E-2,1.478053257E-2,2.263685167E-1
1.127325524E0,-8.708529919E-2,8.388951421E-3,2.380864173E-1
1.129813232E0,-9.347688407E-2,-1.331579551E-4,2.498043180E-1
1.132300940E0,-9.880319983E-2,-8.655266836E-3,2.615222335E-1
1.134788649E0,-1.030642539E-1,-1.611211337E-2,2.721748650E-1
1.137276357E0,-1.062600464E-1,-2.356895804E-2,2.828274965E-1
1.139764065E0,-1.115863696E-1,-2.996053919E-2,2.945453823E-1
1.142251774E0,-1.169126853E-1,-3.315633163E-2,3.062632978E-1
1.144739482E0,-1.222390011E-1,-3.528685868E-2,3.169159293E-1
1.147227190E0,-1.296958476E-1,-3.422159329E-2,3.275685608E-1
1.149714899E0,-1.371526867E-1,-3.102580272E-2,3.371559381E-1
1.152202607E0,-1.446095407E-1,-2.569948509E-2,3.446127772E-1
1.154690315E0,-1.520663798E-1,-2.037316747E-2,3.488738537E-1
1.157178024E0,-1.616537571E-1,-1.717737690E-2,3.510043621E-1
1.159665732E0,-1.712411344E-1,-1.504684892E-2,3.499391079E-1
1.162153440E0,-1.829590350E-1,-1.504684892E-2,3.467433155E-1
1.164641149E0,-1.946769357E-1,-1.717737690E-2,3.424822688E-1
1.167128857E0,-2.053295672E-1,-2.143843099E-2,3.382211924E-1
1.169616565E0,-2.159821987E-1,-2.569948509E-2,3.339601457E-1
1.172104274E0,-2.266348451E-1,-2.996053919E-2,3.328948915E-1
1.174591982E0,-2.351569533E-1,-3.209106624E-2,3.318296373E-1
1.177079690E0,-2.426137924E-1,-3.528685868E-2,3.339601457E-1
1.179567399E0,-2.479401082E-1,-3.635212034E-2,3.371559381E-1
1.182055107E0,-2.532664239E-1,-3.848264739E-2,3.414169848E-1
1.184542815E0,-2.575274706E-1,-4.274370521E-2,3.456780612E-1
1.187030524E0,-2.639190555E-1,-4.913528636E-2,3.499391079E-1
1.189518232E0,-2.703106403E-1,-5.872265995E-2,3.552654386E-1
1.192005992E0,-2.767022252E-1,-6.937529147E-2,3.595264852E-1
1.194493753E0,-2.841590643E-1,-8.002793044E-2,3.637875319E-1
1.196981513E0,-2.894853950E-1,-8.961530030E-2,3.680485785E-1
1.199469274E0,-2.937464416E-1,-9.813741595E-2,3.701791167E-1
1.201957034E0,-2.969422340E-1,-1.045289934E-1,3.712443709E-1
1.204444794E0,-3.012032807E-1,-1.087900475E-1,3.723096550E-1
1.206932555E0,-3.054643571E-1,-1.109205782E-1,3.733749092E-1
1.209420315E0,-3.107906580E-1,-1.098553166E-1,3.723096550E-1
1.211908076E0,-3.161169887E-1,-1.045289934E-1,3.701791167E-1
1.214395836E0,-3.214432895E-1,-9.813741595E-2,3.680485785E-1
1.216883596E0,-3.267696202E-1,-8.961530030E-2,3.659180701E-1
1.219371357E0,-3.331612051E-1,-8.322372288E-2,3.637875319E-1
1.221859117E0,-3.416832983E-1,-7.896266878E-2,3.627222776E-1
1.224346878E0,-3.544664681E-1,-7.683213800E-2,3.627222776E-1
1.226834638E0,-3.683148921E-1,-7.683213800E-2,3.659180701E-1
1.229322399E0,-3.810980618E-1,-7.576687634E-2,3.701791167E-1
1.231810159E0,-3.917506933E-1,-7.150582224E-2,3.787012100E-1
1.234297919E0,-3.992075622E-1,-6.511423737E-2,3.893538713E-1
1.236785680E0,-4.055991173E-1,-5.765739456E-2,4.032022953E-1
1.239273440E0,-4.109254479E-1,-5.233107507E-2,4.181159735E-1
1.241761201E0,-4.162517786E-1,-5.020054802E-2,4.340949357E-1
1.244248961E0,-4.226433635E-1,-5.339634046E-2,4.522044063E-1
1.246736721E0,-4.322307110E-1,-6.191844866E-2,4.713791609E-1
1.249224482E0,-4.418180883E-1,-7.363634557E-2,4.926844239E-1
1.251712242E0,-4.514054656E-1,-8.748477697E-2,5.161202550E-1
1.254200003E0,-4.609928429E-1,-1.013332009E-1,5.416865349E-1
1.256687763E0,-4.663191736E-1,-1.141163707E-1,5.672528744E-1
1.259175524E0,-4.684496820E-1,-1.237037405E-1,5.906887054E-1
1.261663284E0,-4.684496820E-1,-1.311605871E-1,6.141244769E-1
1.264151044E0,-4.673844278E-1,-1.364869028E-1,6.322339773E-1
1.266638805E0,-4.641886353E-1,-1.396826953E-1,6.471476555E-1
1.269126565E0,-4.620580971E-1,-1.428784877E-1,6.578003168E-1
1.271614326E0,-4.609928429E-1,-1.450090110E-1,6.641919017E-1
1.274102086E0,-4.599275887E-1,-1.471395344E-1,6.663224101E-1
1.276589846E0,-4.609928429E-1,-1.482048035E-1,6.631265879E-1
1.279077607E0,-4.609928429E-1,-1.471395344E-1,6.567350626E-1
1.281565367E0,-4.609928429E-1,-1.450090110E-1,6.482129097E-1
1.284053076E0,-4.609928429E-1,-1.418132186E-1,6.364950538E-1
1.286540784E0,-4.577970505E-1,-1.364869028E-1,6.205160618E-1
1.289028492E0,-4.546012580E-1,-1.311605871E-1,6.034718752E-1
1.291516201E0,-4.514054656E-1,-1.279647946E-1,5.853623748E-1
1.294003909E0,-4.492749274E-1,-1.247690022E-1,5.651223660E-1
1.296491617E0,-4.482096732E-1,-1.247690022E-1,5.459476113E-1
1.298979326E0,-4.492749274E-1,-1.279647946E-1,5.289034247E-1
1.301467034E0,-4.503402114E-1,-1.354216337E-1,5.161202550E-1
1.303954742E0,-4.535360038E-1,-1.450090110E-1,5.075981021E-1
1.306442451E0,-4.556665123E-1,-1.567269117E-1,5.033370852E-1
1.308930159E0,-4.567317963E-1,-1.705753356E-1,5.044023395E-1
1.311417867E0,-4.556665123E-1,-1.854890287E-1,5.086634159E-1
1.313905576E0,-4.546012580E-1,-2.035985142E-1,5.161202550E-1
1.316393284E0,-4.546012580E-1,-2.238385230E-1,5.246423483E-1
1.318880992E0,-4.535360038E-1,-2.462090552E-1,5.320991874E-1
1.321368701E0,-4.535360038E-1,-2.696448565E-1,5.427518487E-1
1.323856409E0,-4.535360038E-1,-2.920154035E-1,5.523391962E-1
1.326344117E0,-4.546012580E-1,-3.122554123E-1,5.640571117E-1
1.328831826E0,-4.556665123E-1,-3.261038363E-1,5.768402815E-1
1.331319534E0,-4.556665123E-1,-3.335606754E-1,5.928192139E-1
1.333807242E0,-4.567317963E-1,-3.324954212E-1,6.109287143E-1
1.336294951E0,-4.567317963E-1,-3.218427896E-1,6.301034689E-1
1.338782659E0,-4.535360038E-1,-3.037332892E-1,6.492781639E-1
1.341270367E0,-4.503402114E-1,-2.792322338E-1,6.673876643E-1
1.343758076E0,-4.450138807E-1,-2.515353858E-1,6.844319105E-1
1.346245784E0,-4.407528341E-1,-2.227732539E-1,6.993455887E-1
1.348733492E0,-4.354265034E-1,-1.950764060E-1,7.110635042E-1
1.351221201E0,-4.301002026E-1,-1.727058738E-1,7.206508517E-1
1.353708909E0,-4.269044101E-1,-1.556616426E-1,7.270424366E-1
1.356196617E0,-4.226433635E-1,-1.439437568E-1,7.323687673E-1
1.358684326E0,-4.183822870E-1,-1.375521719E-1,7.355645299E-1
1.361172034E0,-4.151864946E-1,-1.343563795E-1,7.398256063E-1
1.363659742E0,-4.098601937E-1,-1.332911104E-1,7.430213690E-1
1.366147451E0,-4.034686089E-1,-1.332911104E-1,7.451519370E-1
1.368635159E0,-3.949464858E-1,-1.322258562E-1,7.462171912E-1
1.371122867E0,-3.842938542E-1,-1.279647946E-1,7.451519370E-1
1.373610576E0,-3.725759685E-1,-1.247690022E-1,7.419561148E-1
1.376098284E0,-3.619233072E-1,-1.226384789E-1,7.344992757E-1
1.378585992E0,-3.544664681E-1,-1.247690022E-1,7.249119282E-1
1.381073701E0,-3.491401672E-1,-1.311605871E-1,7.110635042E-1
1.383561409E0,-3.459443748E-1,-1.418132186E-1,6.961497664E-1
1.386049117E0,-3.427485824E-1,-1.556616426E-1,6.812360883E-1
1.388536826E0,-3.395527899E-1,-1.705753356E-1,6.663224101E-1
1.391024534E0,-3.342264593E-1,-1.822932363E-1,6.524739861E-1
1.393512242E0,-3.289001584E-1,-1.908153445E-1,6.386255622E-1
1.395999951E0,-3.214432895E-1,-1.961416751E-1,6.258423924E-1
1.398487659E0,-3.150517344E-1,-1.961416751E-1,6.130592227E-1
1.400975367E0,-3.097254038E-1,-1.908153445E-1,6.002760530E-1
1.403463076E0,-3.033338189E-1,-1.822932363E-1,5.874928832E-1
1.405950784E0,-2.980075181E-1,-1.684448123E-1,5.736444592E-1
1.408438492E0,-2.948117256E-1,-1.524658650E-1,5.597960353E-1
1.410926201E0,-2.926811874E-1,-1.343563795E-1,5.459476113E-1
1.413413909E0,-2.937464416E-1,-1.194426864E-1,5.320991874E-1
1.415901617E0,-2.969422340E-1,-1.077247858E-1,5.193160176E-1
1.418389326E0,-3.022685647E-1,-1.002679393E-1,5.075981021E-1
1.420877034E0,-3.097254038E-1,-9.707214683E-2,4.990760088E-1
1.423364742E0,-3.171822429E-1,-9.494162351E-2,4.969455004E-1
1.425852451E0,-3.246390820E-1,-9.281109273E-2,4.980107546E-1
1.428340159E0,-3.299654126E-1,-8.961530030E-2,5.044023395E-1
1.430827867E0,-3.363569975E-1,-8.641951531E-2,5.139896870E-1
1.433315576E0,-3.438138366E-1,-8.322372288E-2,5.267728567E-1
1.435803284E0,-3.523359597E-1,-8.428898454E-2,5.438171029E-1
1.438290992E0,-3.608580530E-1,-8.641951531E-2,5.640571117E-1
1.440778701E0,-3.704454303E-1,-9.174583107E-2,5.874928832E-1
1.443266409E0,-3.800328076E-1,-9.707214683E-2,6.119939685E-1
1.445754117E0,-3.874896467E-1,-1.023984700E-1,6.354297400E-1
1.448241826E0,-3.938812315E-1,-1.077247858E-1,6.578003168E-1
1.450729534E0,-4.002728164E-1,-1.098553166E-1,6.780403256E-1
1.453217242E0,-4.055991173E-1,-1.098553166E-1,6.961497664E-1
1.455705003E0,-4.098601937E-1,-1.034637317E-1,7.099981904E-1
1.458192763E0,-4.130559862E-1,-9.494162351E-2,7.206508517E-1
1.460680524E0,-4.151864946E-1,-8.109319210E-2,7.291729450E-1
1.463168284E0,-4.162517786E-1,-6.617950648E-2,7.344992757E-1
1.465656044E0,-4.162517786E-1,-4.913528636E-2,7.366297841E-1
1.468143805E0,-4.173170328E-1,-3.102580272E-2,7.376950979E-1
1.470631565E0,-4.162517786E-1,-1.291632187E-2,7.355645299E-1
1.473119326E0,-4.151864946E-1,4.127896391E-3,7.334340215E-1
1.475607086E0,-4.151864946E-1,2.117211558E-2,7.302381992E-1
1.478094846E0,-4.151864946E-1,3.608580679E-2,7.259771824E-1
1.480582607E0,-4.151864946E-1,4.993423447E-2,7.206508517E-1
1.483070367E0,-4.151864946E-1,5.952160433E-2,7.131940126E-1
1.485558128E0,-4.151864946E-1,6.484792382E-2,7.057371736E-1
1.488045888E0,-4.151864946E-1,6.484792382E-2,6.950845122E-1
1.490533649E0,-4.141212404E-1,5.952160433E-2,6.844319105E-1
1.493021409E0,-4.119907022E-1,4.993423447E-2,6.716487408E-1
1.495509169E0,-4.066644013E-1,3.821633384E-2,6.578003168E-1
1.497996930E0,-4.002728164E-1,2.543316968E-2,6.428865790E-1
1.500484690E0,-3.917506933E-1,1.371526904E-2,6.269076467E-1
1.502972451E0,-3.821633458E-1,9.321057005E-4,6.109287143E-1
1.505460211E0,-3.704454303E-1,-1.185105834E-2,5.938844681E-1
1.507947971E0,-3.597927988E-1,-2.569948509E-2,5.757750273E-1
1.510435732E0,-3.512706757E-1,-4.167843983E-2,5.576655269E-1
1.512923492E0,-3.406180441E-1,-5.765739456E-2,5.416865349E-1
1.515411253E0,-3.310306668E-1,-7.470161468E-2,5.257076025E-1
1.517899013E0,-3.171822429E-1,-9.068056941E-2,5.107939243E-1
1.520386774E0,-3.043990731E-1,-1.045289934E-1,4.958802164E-1
1.522874534E0,-2.894853950E-1,-1.151816323E-1,4.799012840E-1
1.525362294E0,-2.745717168E-1,-1.237037405E-1,4.639223218E-1
1.527850055E0,-2.607232630E-1,-1.300953180E-1,4.468781054E-1
1.530337815E0,-2.479401082E-1,-1.343563795E-1,4.298338890E-1
1.532825576E0,-2.362222075E-1,-1.396826953E-1,4.138549268E-1
1.535313336E0,-2.255695760E-1,-1.439437568E-1,3.978759646E-1
1.537801096E0,-2.149169445E-1,-1.503353268E-1,3.808317482E-1
1.540288857E0,-2.042642981E-1,-1.567269117E-1,3.648527861E-1
1.542776617E0,-1.946769357E-1,-1.588574350E-1,3.478085697E-1
1.545264378E0,-1.840242893E-1,-1.567269117E-1,3.296990991E-1
1.547752138E0,-1.744369268E-1,-1.482048035E-1,3.105243444E-1
1.550239846E0,-1.648495495E-1,-1.332911104E-1,2.924148738E-1
1.552727555E0,-1.563274413E-1,-1.119858399E-1,2.743053734E-1
1.555215263E0,-1.478053331E-1,-8.535424620E-2,2.561959028E-1
1.557702971E0,-1.403484792E-1,-5.659212917E-2,2.402169555E-1
1.560190680E0,-1.318263710E-1,-2.676474862E-2,2.253032625E-1
1.562678388E0,-1.243695319E-1,9.321057005E-4,2.114548385E-1
1.565166096E0,-1.169126853E-1,2.862896025E-2,1.997369379E-1
1.567653805E0,-1.105211005E-1,5.313002318E-2,1.880190372E-1
1.570141513E0,-1.019989923E-1,7.656582445E-2,1.752358675E-1
1.572629221E0,-9.241162241E-2,9.680583328E-2,1.613874435E-1
1.575116930E0,-8.175898343E-2,1.149153188E-1,1.464737505E-1
1.577604638E0,-7.217161357E-2,1.298290044E-1,1.304948032E-1
1.580092346E0,-6.258423626E-2,1.394163817E-1,1.113200486E-1
1.582580055E0,-5.512739345E-2,1.447426975E-1,9.108003974E-2
1.585067763E0,-4.660528526E-2,1.436774284E-1,7.297056168E-2
1.587555471E0,-3.914843872E-2,1.383511126E-1,5.379581451E-2
1.590043180E0,-3.275685757E-2,1.287637353E-1,3.781685978E-2
1.592530888E0,-2.636527456E-2,1.159805804E-1,2.396843210E-2
1.595018596E0,-2.103895694E-2,1.010668874E-1,1.012000442E-2
1.597506305E0,-1.464737486E-2,8.508793265E-2,5.326318205E-4
1.599994013E0,-9.321057238E-3,6.910897791E-2,-6.924213842E-3
1.602481721E0,-3.994738683E-3,5.419528857E-2,-1.331579592E-2
1.604969430E0,2.396843163E-3,4.141212255E-2,-1.864211448E-2
1.607457138E0,8.788425475E-3,3.075948730E-2,-2.396843210E-2
1.609944846E0,1.304947957E-2,2.330264263E-2,-2.929474972E-2
1.612432555E0,1.731053367E-2,1.691105962E-2,-3.462106735E-2
1.614920263E0,2.157158963E-2,1.158474199E-2,-4.207791388E-2
1.617407971E0,2.370211668E-2,8.388951421E-3,-5.060002208E-2
1.619895680E0,2.583264373E-2,6.258423906E-3,-5.805686861E-2
1.622383388E0,2.796317078E-2,5.193160381E-3,-6.657897681E-2
1.624871096E0,3.115896136E-2,4.127896391E-3,-7.510108501E-2
1.627358805E0,3.328948840E-2,4.127896391E-3,-8.255793154E-2
1.629846513E0,3.542001545E-2,4.127896391E-3,-8.894951642E-2
1.632334221E0,3.755054250E-2,3.062632866E-3,-9.534109384E-2
1.634821930E0,3.861580789E-2,1.997369342E-3,-1.006674170E-1
1.637309638E0,3.755054250E-2,-1.331579551E-4,-1.059937328E-1
1.639797346E0,3.648528084E-2,-2.263685223E-3,-1.102547869E-1
1.642285055E0,3.328948840E-2,-3.328948980E-3,-1.123853177E-1
1.644772763E0,3.009369783E-2,-3.328948980E-3,-1.134505793E-1
1.647260471E0,2.583264373E-2,-2.263685223E-3,-1.134505793E-1
1.649748180E0,2.263685316E-2,-1.331579551E-4,-1.123853177E-1
1.652235888E0,1.837579720E-2,5.193160381E-3,-1.081242561E-1
1.654723596E0,1.518000662E-2,1.265000552E-2,-1.027979404E-1
1.657211305E0,1.198421605E-2,2.223737910E-2,-9.534109384E-2
1.659699013E0,7.723161485E-3,3.289001435E-2,-8.788424730E-2
1.662186721E0,2.396843163E-3,4.567318037E-2,-7.829687744E-2
1.664674430E0,-2.929474926E-3,5.632581562E-2,-6.870950758E-2
1.667162138E0,-8.255792782E-3,6.591318548E-2,-5.699160323E-2
1.669649846E0,-1.358211134E-2,7.230477035E-2,-4.527370632E-2
1.672137555E0,-1.784316637E-2,7.550056279E-2,-3.355580568E-2
1.674625263E0,-2.210422046E-2,7.763108611E-2,-2.183790505E-2
1.677112971E0,-2.530001104E-2,7.656582445E-2,-1.012000442E-2
1.679600680E0,-2.743053809E-2,7.337003201E-2,-5.326318205E-4
1.682088388E0,-3.062633052E-2,6.697845459E-2,7.989477366E-3
1.684576096E0,-3.275685757E-2,5.952160433E-2,1.438105945E-2
1.687063805E0,-3.382211924E-2,4.993423447E-2,1.757685095E-2
1.689551513E0,-3.382211924E-2,3.821633384E-2,1.970737800E-2
1.692039221E0,-3.382211924E-2,2.543316968E-2,1.864211448E-2
1.694526930E0,-3.488738462E-2,1.158474199E-2,1.544632297E-2
1.697014638E0,-3.595264629E-2,-1.198421582E-3,1.118526794E-2
1.699502346E0,-3.595264629E-2,-1.504684892E-2,5.858949851E-3
1.701990055E0,-3.701791167E-2,-2.783001214E-2,-1.597895520E-3
1.704477763E0,-3.914843872E-2,-3.954791278E-2,-7.989477366E-3
1.706965471E0,-3.914843872E-2,-5.233107507E-2,-1.438105945E-2
1.709453180E0,-3.914843872E-2,-6.191844866E-2,-2.077264152E-2
1.711940888E0,-3.914843872E-2,-7.044056058E-2,-2.822948620E-2
1.714428596E0,-3.914843872E-2,-7.576687634E-2,-3.249054030E-2
1.716916357E0,-3.914843872E-2,-7.789740711E-2,-3.675159439E-2
1.719404117E0,-3.914843872E-2,-7.576687634E-2,-3.994738683E-2
1.721891878E0,-3.914843872E-2,-7.044056058E-2,-4.207791388E-2
1.724379638E0,-3.914843872E-2,-6.298371404E-2,-4.207791388E-2
1.726867399E0,-3.914843872E-2,-5.233107507E-2,-4.207791388E-2
1.729355159E0,-4.021370411E-2,-4.061317816E-2,-4.101264849E-2
1.731842919E0,-4.021370411E-2,-2.783001214E-2,-3.781685978E-2
1.734330680E0,-4.127896577E-2,-1.611211337E-2,-3.355580568E-2
1.736818440E0,-4.127896577E-2,-4.394212738E-3,-2.929474972E-2
1.739306201E0,-4.234423116E-2,6.258423906E-3,-2.503369562E-2
1.741793961E0,-4.234423116E-2,1.478053257E-2,-1.970737800E-2
1.744281721E0,-4.340949282E-2,2.223737910E-2,-1.438105945E-2
1.746769482E0,-4.554001987E-2,2.756369673E-2,-9.054740891E-3
1.749257242E0,-4.660528526E-2,3.395527974E-2,-3.728422802E-3
1.751745003E0,-4.767054692E-2,3.821633384E-2,1.597895520E-3
1.754232763E0,-4.980107397E-2,4.247738793E-2,5.858949851E-3
1.756720524E0,-5.193160102E-2,4.460791498E-2,1.012000442E-2
1.759208284E0,-5.193160102E-2,4.460791498E-2,1.331579592E-2
1.761696044E0,-5.406212807E-2,4.354264960E-2,1.544632297E-2
1.764183805E0,-5.406212807E-2,4.034686089E-2,1.757685095E-2
1.766671565E0,-5.619265884E-2,3.502054140E-2,1.757685095E-2
1.769159326E0,-5.725792050E-2,2.969422378E-2,1.544632297E-2
1.771647086E0,-5.832318589E-2,2.330264263E-2,1.225053146E-2
1.774134846E0,-6.045371294E-2,1.478053257E-2,7.989477366E-3
1.776622607E0,-6.151897460E-2,4.127896391E-3,5.326318205E-4
1.779110367E0,-6.258423626E-2,-8.655266836E-3,-5.858949851E-3
1.781598128E0,-6.471476704E-2,-2.250369452E-2,-1.438105945E-2
1.784085888E0,-6.684529036E-2,-3.635212034E-2,-2.183790505E-2
1.786573649E0,-6.897582114E-2,-4.913528636E-2,-2.929474972E-2
1.789061409E0,-7.110634446E-2,-5.872265995E-2,-3.781685978E-2
1.791549169E0,-7.323687524E-2,-6.617950648E-2,-4.314317927E-2
1.794036930E0,-7.430213690E-2,-7.150582224E-2,-4.846949503E-2
1.796524690E0,-7.749792933E-2,-7.363634557E-2,-5.273054913E-2
1.799012451E0,-8.069372177E-2,-7.363634557E-2,-5.592634156E-2
1.801500211E0,-8.495477587E-2,-7.363634557E-2,-5.699160323E-2
1.803987971E0,-9.028109163E-2,-7.470161468E-2,-5.592634156E-2
1.806475732E0,-9.454214573E-2,-7.470161468E-2,-5.379581451E-2
1.808963492E0,-9.880319983E-2,-7.470161468E-2,-4.846949503E-2
1.811451201E0,-1.019989923E-1,-7.363634557E-2,-4.207791388E-2
1.813938909E0,-1.051947847E-1,-7.150582224E-2,-3.462106735E-2
1.816426617E0,-1.073253155E-1,-6.724476814E-2,-2.609895915E-2
1.818914326E0,-1.105211005E-1,-6.298371404E-2,-1.544632297E-2
1.821402034E0,-1.137168929E-1,-5.659212917E-2,-4.793686327E-3
1.823889742E0,-1.158474237E-1,-4.807002097E-2,6.924213842E-3
1.826377451E0,-1.190432087E-1,-3.848264739E-2,1.757685095E-2
1.828865159E0,-1.211737394E-1,-2.996053919E-2,2.822948620E-2
1.831352867E0,-1.233042628E-1,-1.930790395E-2,3.781685978E-2
1.833840576E0,-1.233042628E-1,-1.078579482E-2,4.740423337E-2
1.836328284E0,-1.233042628E-1,-4.394212738E-3,5.592634156E-2
1.838815992E0,-1.233042628E-1,9.321057005E-4,6.338318437E-2
1.841303701E0,-1.222390011E-1,3.062632866E-3,6.870950758E-2
1.843791409E0,-1.190432087E-1,1.997369342E-3,7.297056168E-2
1.846279117E0,-1.158474237E-1,-1.198421582E-3,7.403582335E-2
1.848766826E0,-1.126516312E-1,-5.459476262E-3,7.403582335E-2
1.851254534E0,-1.105211005E-1,-1.291632187E-2,7.084003091E-2
1.853742242E0,-1.094558388E-1,-2.143843099E-2,6.444845349E-2
1.856229951E0,-1.094558388E-1,-2.996053919E-2,5.699160323E-2
1.858717659E0,-1.094558388E-1,-3.954791278E-2,4.740423337E-2
1.861205367E0,-1.083905771E-1,-4.807002097E-2,3.781685978E-2
1.863693076E0,-1.073253155E-1,-5.552686751E-2,2.822948620E-2
1.866180784E0,-1.062600464E-1,-6.191844866E-2,1.864211448E-2
1.868668492E0,-1.041295230E-1,-6.724476814E-2,1.012000442E-2
1.871156201E0,-1.019989923E-1,-7.044056058E-2,5.326318205E-4
1.873643909E0,-1.009337306E-1,-7.257108390E-2,-7.989477366E-3
1.876131617E0,-9.986846894E-2,-7.150582224E-2,-1.544632297E-2
1.878619326E0,-9.986846894E-2,-6.937529147E-2,-2.183790505E-2
1.881107034E0,-9.986846894E-2,-6.617950648E-2,-2.609895915E-2
1.883594742E0,-9.986846894E-2,-6.085318699E-2,-3.036001325E-2
1.886082451E0,-9.986846894E-2,-5.339634046E-2,-3.249054030E-2
1.888570159E0,-9.880319983E-2,-4.487423226E-2,-3.249054030E-2
1.891057867E0,-9.880319983E-2,-3.422159329E-2,-3.142527863E-2
1.893545576E0,-9.773793817E-2,-2.250369452E-2,-2.716422267E-2
1.896033284E0,-9.667267650E-2,-1.078579482E-2,-2.290316857E-2
1.898520992E0,-9.454214573E-2,1.997369342E-3,-1.757685095E-2
1.901008701E0,-9.241162241E-2,1.371526904E-2,-1.118526794E-2
1.903496409E0,-9.028109163E-2,2.436790615E-2,-3.728422802E-3
1.905984117E0,-8.708529919E-2,3.395527974E-2,3.728422802E-3
1.908471826E0,-8.388951421E-2,4.354264960E-2,1.012000442E-2
1.910959534E0,-7.962846011E-2,5.099949613E-2,1.757685095E-2
1.913447242E0,-7.536740601E-2,5.952160433E-2,2.503369562E-2
1.915934951E0,-7.110634446E-2,6.484792382E-2,3.036001325E-2
1.918422659E0,-6.791055948E-2,7.017423958E-2,3.568633273E-2
1.920910367E0,-6.471476704E-2,7.337003201E-2,3.888212144E-2
1.923398076E0,-6.151897460E-2,7.443529367E-2,4.101264849E-2
1.925885784E0,-5.832318589E-2,7.337003201E-2,4.207791388E-2
1.928373492E0,-5.512739345E-2,7.017423958E-2,4.101264849E-2
1.930861201E0,-5.193160102E-2,6.484792382E-2,3.994738683E-2
1.933348909E0,-4.873581231E-2,5.632581562E-2,3.781685978E-2
1.935836617E0,-4.554001987E-2,4.673844203E-2,3.462106735E-2
1.938324326E0,-4.340949282E-2,3.608580679E-2,3.036001325E-2
1.940812034E0,-4.127896577E-2,2.649843320E-2,2.716422267E-2
1.943299742E0,-3.914843872E-2,1.797632314E-2,2.077264152E-2
1.945787451E0,-3.701791167E-2,1.051947847E-2,1.544632297E-2
1.948275159E0,-3.488738462E-2,5.193160381E-3,1.012000442E-2
1.950762867E0,-3.488738462E-2,-1.331579551E-4,3.728422802E-3
1.953250576E0,-3.488738462E-2,-2.263685223E-3,-1.597895520E-3
1.955738284E0,-3.595264629E-2,-3.328948980E-3,-5.858949851E-3
1.958225992E0,-3.701791167E-2,-5.459476262E-3,-7.989477366E-3
1.960713701E0,-3.914843872E-2,-7.590003312E-3,-1.012000442E-2
1.963201409E0,-4.021370411E-2,-9.720530361E-3,-1.118526794E-2
1.965689117E0,-4.127896577E-2,-9.720530361E-3,-1.012000442E-2
1.968176826E0,-4.234423116E-2,-1.078579482E-2,-7.989477366E-3
1.970664534E0,-4.340949282E-2,-9.720530361E-3,-3.728422802E-3
1.973152242E0,-4.447475821E-2,-7.590003312E-3,5.326318205E-4
1.975640003E0,-4.554001987E-2,-4.394212738E-3,5.858949851E-3
1.978127763E0,-4.447475821E-2,9.321057005E-4,1.118526794E-2
1.980615524E0,-4.447475821E-2,6.258423906E-3,1.757685095E-2
1.983103284E0,-4.340949282E-2,1.265000552E-2,2.396843210E-2
1.985591044E0,-4.234423116E-2,2.010685205E-2,3.036001325E-2
1.988078805E0,-4.127896577E-2,2.756369673E-2,3.675159439E-2
1.990566565E0,-3.914843872E-2,3.395527974E-2,4.207791388E-2
1.993054326E0,-3.701791167E-2,4.034686089E-2,4.633896798E-2
1.995542086E0,-3.488738462E-2,4.673844203E-2,4.953476042E-2
1.998029846E0,-3.275685757E-2,5.206476152E-2,5.060002208E-2
2.000517607E0,-3.062633052E-2,5.632581562E-2,5.060002208E-2
2.003005367E0,-2.849580161E-2,6.165213138E-2,4.846949503E-2
2.005493128E0,-2.636527456E-2,6.591318548E-2,4.633896798E-2
2.007980888E0,-2.423474751E-2,7.017423958E-2,4.314317927E-2
2.010468649E0,-2.316948399E-2,7.230477035E-2,3.888212144E-2
2.012956409E0,-2.103895694E-2,7.337003201E-2,3.355580568E-2
2.015444169E0,-1.890842989E-2,7.123950869E-2,2.929474972E-2
2.017931930E0,-1.677790284E-2,6.910897791E-2,2.503369562E-2
2.020419690E0,-1.571263932E-2,6.484792382E-2,1.970737800E-2
2.022907451E0,-1.464737486E-2,6.165213138E-2,1.544632297E-2
2.025395211E0,-1.251684781E-2,5.952160433E-2,1.118526794E-2
2.027882971E0,-1.145158429E-2,5.952160433E-2,5.858949851E-3
2.030370732E0,-1.145158429E-2,5.845634267E-2,2.663159044E-3
2.032858492E0,-1.251684781E-2,5.845634267E-2,-5.326318205E-4
2.035346253E0,-1.464737486E-2,5.739107728E-2,-2.663159044E-3
2.037834013E0,-1.677790284E-2,5.632581562E-2,-4.793686327E-3
2.040321774E0,-1.890842989E-2,5.526055023E-2,-2.663159044E-3
2.042809534E0,-2.103895694E-2,5.206476152E-2,5.326318205E-4
2.045297294E0,-2.210422046E-2,4.993423447E-2,6.924213842E-3
2.047785055E0,-2.316948399E-2,4.993423447E-2,1.438105945E-2
2.050272815E0,-2.423474751E-2,4.993423447E-2,2.290316857E-2
2.052760576E0,-2.530001104E-2,5.313002318E-2,3.355580568E-2
2.055248336E0,-2.530001104E-2,5.632581562E-2,4.420844093E-2
2.057736096E0,-2.530001104E-2,6.058686972E-2,5.379581451E-2
2.060223857E0,-2.423474751E-2,6.697845459E-2,6.338318437E-2
2.062711617E0,-2.423474751E-2,7.337003201E-2,7.190529257E-2
2.065199378E0,-2.210422046E-2,7.976161689E-2,7.936213911E-2
2.067687138E0,-2.210422046E-2,8.508793265E-2,8.681898564E-2
2.070174846E0,-1.890842989E-2,8.934898674E-2,9.214530140E-2
2.072662555E0,-1.784316637E-2,9.254477918E-2,9.534109384E-2
2.075150263E0,-1.464737486E-2,9.361004084E-2,9.640636295E-2
2.077637971E0,-1.145158429E-2,9.254477918E-2,9.747162461E-2
2.080125680E0,-7.190529723E-3,9.041424841E-2,9.747162461E-2
2.082613388E0,-2.929474926E-3,8.828372508E-2,9.640636295E-2
2.085101096E0,2.396843163E-3,8.508793265E-2,9.321057051E-2
2.087588805E0,5.592633970E-3,8.295740932E-2,8.894951642E-2
2.090076513E0,9.853689000E-3,7.976161689E-2,8.255793154E-2
2.092564221E0,1.304947957E-2,7.656582445E-2,7.510108501E-2
2.095051930E0,1.624527015E-2,7.337003201E-2,6.657897681E-2
2.097539638E0,1.944106072E-2,6.910897791E-2,5.699160323E-2
2.100027346E0,2.263685316E-2,6.484792382E-2,4.740423337E-2
2.102515055E0,2.583264373E-2,6.058686972E-2,3.781685978E-2
2.105002763E0,3.009369783E-2,5.739107728E-2,2.822948620E-2
2.107490471E0,3.435475379E-2,5.313002318E-2,1.864211448E-2
2.109978180E0,3.861580789E-2,4.993423447E-2,1.012000442E-2
2.112465888E0,4.394212365E-2,4.993423447E-2,5.326318205E-4
2.114953596E0,4.820318148E-2,4.993423447E-2,-9.054740891E-3
2.117441305E0,5.352949724E-2,5.313002318E-2,-1.864211448E-2
2.119929013E0,5.779055133E-2,5.739107728E-2,-2.822948620E-2
2.122416721E0,6.205160543E-2,6.378266215E-2,-3.781685978E-2
2.124904430E0,6.737792492E-2,7.230477035E-2,-4.740423337E-2
2.127392138E0,7.163897902E-2,7.976161689E-2,-5.592634156E-2
2.129879846E0,7.483477145E-2,8.828372508E-2,-6.231792271E-2
2.132367555E0,8.016108721E-2,9.574057162E-2,-6.870950758E-2
2.134855263E0,8.442214131E-2,1.031974182E-1,-7.403582335E-2
2.137342971E0,9.081372619E-2,1.095889956E-1,-7.723161578E-2
2.139830680E0,9.614004195E-2,1.149153188E-1,-8.042740822E-2
2.142318388E0,1.025316268E-1,1.202416345E-1,-8.255793154E-2
2.144806096E0,1.099884734E-1,1.255679578E-1,-8.575372398E-2
2.147293805E0,1.174453199E-1,1.308942735E-1,-8.681898564E-2
2.149781513E0,1.249021590E-1,1.362205893E-1,-9.108003974E-2
2.152269221E0,1.312937438E-1,1.415469050E-1,-9.427583218E-2
2.154756930E0,1.387505829E-1,1.447426975E-1,-9.960214794E-2
2.157244638E0,1.462074369E-1,1.479384899E-1,-1.049284711E-1
2.159732346E0,1.525990218E-1,1.479384899E-1,-1.113200486E-1
2.162220055E0,1.600558609E-1,1.468732208E-1,-1.166463718E-1
2.164707763E0,1.675127149E-1,1.426121742E-1,-1.241032109E-1
2.167195471E0,1.749695539E-1,1.372858584E-1,-1.304948032E-1
2.169683180E0,1.813611388E-1,1.298290044E-1,-1.379516423E-1
2.172170888E0,1.898832470E-1,1.213068962E-1,-1.454084814E-1
2.174658596E0,1.994706094E-1,1.127847880E-1,-1.539305896E-1
2.177146305E0,2.090579867E-1,1.053279415E-1,-1.624527127E-1
2.179634013E0,2.186453640E-1,9.787109494E-2,-1.720400751E-1
2.182121721E0,2.282327414E-1,9.254477918E-2,-1.837579757E-1
2.184609430E0,2.388853729E-1,8.721846342E-2,-1.933453530E-1
2.187097138E0,2.474074811E-1,8.402267098E-2,-2.061285079E-1
2.189584846E0,2.559295893E-1,8.082687855E-2,-2.189116776E-1
2.192072555E0,2.655169666E-1,7.763108611E-2,-2.316948473E-1
2.194560263E0,2.751043439E-1,7.656582445E-2,-2.434127480E-1
2.197047971E0,2.846917212E-1,7.763108611E-2,-2.551306486E-1
2.199535680E0,2.942790687E-1,7.976161689E-2,-2.668485343E-1
2.202023388E0,3.049317300E-1,8.508793265E-2,-2.785664499E-1
2.204511096E0,3.155843616E-1,9.254477918E-2,-2.892190814E-1
2.206998805E0,3.273022473E-1,1.010668874E-1,-3.009369671E-1
2.209486513E0,3.390201628E-1,1.127847880E-1,-3.137201369E-1
2.211974221E0,3.507380486E-1,1.255679578E-1,-3.275685608E-1
2.214461930E0,3.635212183E-1,1.404816359E-1,-3.414169848E-1
2.216949638E0,3.763043880E-1,1.564605981E-1,-3.552654386E-1
2.219437346E0,3.890875578E-1,1.724395454E-1,-3.701791167E-1
2.221925055E0,4.008054435E-1,1.894837767E-1,-3.850927949E-1
2.224412763E0,4.125233591E-1,2.054627240E-1,-4.010717571E-1
2.226900471E0,4.242412448E-1,2.214416862E-1,-4.181159735E-1
2.229388180E0,4.359591305E-1,2.374206334E-1,-4.351601899E-1
2.231875940E0,4.476770461E-1,2.512690723E-1,-4.522044063E-1
2.234363701E0,4.593949318E-1,2.661827505E-1,-4.692486227E-1
2.236851461E0,4.711128473E-1,2.779006660E-1,-4.862928391E-1
2.239339221E0,4.828307331E-1,2.885532975E-1,-5.022718310E-1
2.241826982E0,4.924181104E-1,2.949448824E-1,-5.171855092E-1
2.244314742E0,5.020055175E-1,2.992059290E-1,-5.299686790E-1
2.246802503E0,5.094623566E-1,3.002711833E-1,-5.416865349E-1
2.249290263E0,5.158539414E-1,2.970753908E-1,-5.512739420E-1
2.251778024E0,5.222455263E-1,2.906838059E-1,-5.587307811E-1
2.254265784E0,5.275717974E-1,2.800311744E-1,-5.640571117E-1
2.256753544E0,5.328981280E-1,2.672480047E-1,-5.661876202E-1
2.259241305E0,5.392897129E-1,2.523343265E-1,-5.672528744E-1
2.261729065E0,5.446160436E-1,2.363553643E-1,-5.683181286E-1
2.264216826E0,5.499423742E-1,2.214416862E-1,-5.672528744E-1
2.266704586E0,5.552686453E-1,2.065279931E-1,-5.672528744E-1
2.269192346E0,5.595297217E-1,1.926795542E-1,-5.661876202E-1
2.271680107E0,5.648560524E-1,1.798963994E-1,-5.651223660E-1
2.274167867E0,5.691171288E-1,1.692437679E-1,-5.651223660E-1
2.276655628E0,5.744433999E-1,1.607216448E-1,-5.661876202E-1
2.279143388E0,5.787044764E-1,1.543300748E-1,-5.683181286E-1
2.281631149E0,5.840308070E-1,1.479384899E-1,-5.704486966E-1
2.284118909E0,5.893571377E-1,1.447426975E-1,-5.747097135E-1
2.286606669E0,5.936181545E-1,1.426121742E-1,-5.811012983E-1
2.289094430E0,6.000097394E-1,1.447426975E-1,-5.885581374E-1
2.291582190E0,6.064013243E-1,1.500690132E-1,-5.970802903E-1
2.294069951E0,6.149234176E-1,1.607216448E-1,-6.077328920E-1
2.296557711E0,6.245108247E-1,1.756353378E-1,-6.205160618E-1
2.299045471E0,6.340981722E-1,1.958753467E-1,-6.343644857E-1
2.301533232E0,6.426202655E-1,2.214416862E-1,-6.503434777E-1
2.304020992E0,6.511424184E-1,2.502037883E-1,-6.684529185E-1
2.306508753E0,6.596645117E-1,2.810964286E-1,-6.865624189E-1
2.308996513E0,6.671213508E-1,3.098585606E-1,-7.057371736E-1
2.311484274E0,6.724476814E-1,3.375554085E-1,-7.238466144E-1
2.313972034E0,6.767086983E-1,3.599259555E-1,-7.408908606E-1
2.316459794E0,6.809697747E-1,3.791007102E-1,-7.568697929E-1
2.318947555E0,6.852308512E-1,3.961449265E-1,-7.717835307E-1
2.321435315E0,6.905571818E-1,4.131891429E-1,-7.835013866E-1
2.323923076E0,6.969487667E-1,4.312986135E-1,-7.930887938E-1
2.326410836E0,7.033402920E-1,4.504733682E-1,-8.016108871E-1
2.328898544E0,7.086666226E-1,4.675175846E-1,-8.080024719E-1
2.331386253E0,7.118624449E-1,4.834965467E-1,-8.111982346E-1
2.333873961E0,7.129276991E-1,4.941491783E-1,-8.143940568E-1
2.336361669E0,7.118624449E-1,4.984102249E-1,-8.154593110E-1
2.338849378E0,7.076013684E-1,4.920186400E-1,-8.143940568E-1
2.341337086E0,6.990792751E-1,4.771049619E-1,-8.101329803E-1
2.343824794E0,6.905571818E-1,4.515386224E-1,-8.048067093E-1
2.346312503E0,6.809697747E-1,4.153196514E-1,-7.962845564E-1
2.348800211E0,6.724476814E-1,3.727091253E-1,-7.845667005E-1
2.351287919E0,6.649908423E-1,3.247722387E-1,-7.707182169E-1
2.353775628E0,6.607297659E-1,2.757701278E-1,-7.558045387E-1
2.356263336E0,6.575340033E-1,2.267680019E-1,-7.408908606E-1
2.358751044E0,6.575340033E-1,1.809616536E-1,-7.249119282E-1
2.361238753E0,6.585992575E-1,1.372858584E-1,-7.110635042E-1
2.363726461E0,6.607297659E-1,9.893636405E-2,-6.982803345E-1
2.366214169E0,6.639255881E-1,6.484792382E-2,-6.886929274E-1
2.368701878E0,6.681866050E-1,3.395527974E-2,-6.812360883E-1
2.371189586E0,6.735129356E-1,7.323687430E-3,-6.769750714E-1
2.373677294E0,6.788392663E-1,-1.504684892E-2,-6.759097576E-1
2.376165003E0,6.862961054E-1,-3.102580272E-2,-6.791055799E-1
2.378652711E0,6.926876903E-1,-4.167843983E-2,-6.865624189E-1
2.381140419E0,7.012097836E-1,-4.380896688E-2,-6.972150803E-1
2.383628128E0,7.097318769E-1,-3.848264739E-2,-7.131940126E-1
2.386115836E0,7.182540298E-1,-2.356895804E-2,-7.302381992E-1
2.388603544E0,7.267761230E-1,1.997369342E-3,-7.504782081E-1
2.391091253E0,7.352982163E-1,3.395527974E-2,-7.707182169E-1
2.393578961E0,7.427550554E-1,7.337003201E-2,-7.920235395E-1
2.396066669E0,7.480813861E-1,1.159805804E-1,-8.122635484E-1
2.398554378E0,7.512772083E-1,1.607216448E-1,-8.314382434E-1
2.401042086E0,7.544729710E-1,2.043974549E-1,-8.474172354E-1
2.403529794E0,7.566034794E-1,2.459427416E-1,-8.591351509E-1
2.406017503E0,7.576687932E-1,2.832269669E-1,-8.687224984E-1
2.408505211E0,7.587340474E-1,3.162501454E-1,-8.751140833E-1
2.410992919E0,7.587340474E-1,3.450122476E-1,-8.783098459E-1
2.413480628E0,7.566034794E-1,3.684480488E-1,-8.793751597E-1
2.415968336E0,7.555382252E-1,3.876228034E-1,-8.772445917E-1
2.418456044E0,7.523424625E-1,3.993407190E-1,-8.751140833E-1
2.420943753E0,7.480813861E-1,4.067975581E-1,-8.708530068E-1
2.423431461E0,7.416898012E-1,4.067975581E-1,-8.665919900E-1
2.425919169E0,7.342329621E-1,3.982754350E-1,-8.612656593E-1
2.428406878E0,7.246456146E-1,3.822965026E-1,-8.548740745E-1
2.430894586E0,7.129276991E-1,3.588607013E-1,-8.484824896E-1
2.433382294E0,7.012097836E-1,3.290333152E-1,-8.399603963E-1
2.435870003E0,6.905571818E-1,2.938795984E-1,-8.314382434E-1
2.438357711E0,6.820350289E-1,2.565953732E-1,-8.218508959E-1
2.440845419E0,6.735129356E-1,2.171806246E-1,-8.122635484E-1
2.443333128E0,6.692518592E-1,1.767006069E-1,-8.026761413E-1
2.445820836E0,6.649908423E-1,1.330247968E-1,-7.941540480E-1
2.448308544E0,6.617950201E-1,8.934898674E-2,-7.845667005E-1
2.450796253E0,6.596645117E-1,4.354264960E-2,-7.771098018E-1
2.453283961E0,6.585992575E-1,-5.459476262E-3,-7.685877085E-1
2.455771669E0,6.575340033E-1,-5.659212917E-2,-7.611308694E-1
2.458259378E0,6.564686894E-1,-1.077247858E-1,-7.547392845E-1
2.460747086E0,6.543381810E-1,-1.556616426E-1,-7.483476996E-1
2.463234794E0,6.522076726E-1,-1.972069293E-1,-7.430213690E-1
2.465722503E0,6.522076726E-1,-2.291648388E-1,-7.387603521E-1
2.468210211E0,6.543381810E-1,-2.515353858E-1,-7.355645299E-1
2.470697919E0,6.575340033E-1,-2.621880174E-1,-7.355645299E-1
2.473185628E0,6.607297659E-1,-2.643185556E-1,-7.355645299E-1
2.475673336E0,6.617950201E-1,-2.579269707E-1,-7.376950979E-1
2.478161044E0,6.585992575E-1,-2.462090552E-1,-7.387603521E-1
2.480648753E0,6.532729268E-1,-2.280995846E-1,-7.398256063E-1
2.483136461E0,6.468813419E-1,-2.057290375E-1,-7.398256063E-1
2.485624169E0,6.394245028E-1,-1.769669205E-1,-7.376950979E-1
2.488111878E0,6.319676638E-1,-1.418132186E-1,-7.344992757E-1
2.490599586E0,6.255760789E-1,-1.023984700E-1,-7.302381992E-1
2.493087346E0,6.191844940E-1,-6.085318699E-2,-7.249119282E-1
2.495575107E0,6.138581634E-1,-1.930790395E-2,-7.195855975E-1
2.498062867E0,6.064013243E-1,1.797632314E-2,-7.131940126E-1
2.500550628E0,5.968139768E-1,5.099949613E-2,-7.057371736E-1
2.503038388E0,5.829655528E-1,7.443529367E-2,-6.982803345E-1
2.505526149E0,5.637907982E-1,9.041424841E-2,-6.886929274E-1
2.508013909E0,5.424855351E-1,1.000016257E-1,-6.769750714E-1
2.510501669E0,5.179844499E-1,1.021321490E-1,-6.641919017E-1
2.512989430E0,4.934833944E-1,1.000016257E-1,-6.492781639E-1
2.515477190E0,4.700475931E-1,9.254477918E-2,-6.332992315E-1
2.517964951E0,4.487423003E-1,8.082687855E-2,-6.162550449E-1
2.520452711E0,4.306328297E-1,6.591318548E-2,-5.981455445E-1
2.522940471E0,4.157191217E-1,4.673844203E-2,-5.811012983E-1
2.525428232E0,4.029359818E-1,2.436790615E-2,-5.629918575E-1
2.527915992E0,3.944138587E-1,-3.328948980E-3,-5.459476113E-1
2.530403753E0,3.880222738E-1,-3.315633163E-2,-5.310339332E-1
2.532891513E0,3.848264813E-1,-6.617950648E-2,-5.182507634E-1
2.535379274E0,3.826959729E-1,-1.013332009E-1,-5.075981021E-1
2.537867034E0,3.826959729E-1,-1.386174262E-1,-5.001412630E-1
2.540354794E0,3.826959729E-1,-1.759016514E-1,-4.958802164E-1
2.542842555E0,3.826959729E-1,-2.131858915E-1,-4.948149621E-1
2.545330315E0,3.837612271E-1,-2.472743243E-1,-4.958802164E-1
2.547818076E0,3.858917654E-1,-2.760364413E-1,-5.012065172E-1
2.550305836E0,3.901528120E-1,-2.984069884E-1,-5.097286701E-1
2.552793596E0,3.965443969E-1,-3.111901283E-1,-5.193160176E-1
2.555281357E0,4.029359818E-1,-3.133206666E-1,-5.299686790E-1
2.557769117E0,4.125233591E-1,-3.058638275E-1,-5.427518487E-1
2.560256878E0,4.221107066E-1,-2.877543271E-1,-5.566002727E-1
2.562744638E0,4.316980839E-1,-2.632532716E-1,-5.704486966E-1
2.565232399E0,4.402202070E-1,-2.323606312E-1,-5.853623748E-1
2.567720159E0,4.466117918E-1,-2.004027218E-1,-5.992107987E-1
2.570207919E0,4.508728385E-1,-1.684448123E-1,-6.141244769E-1
2.572695680E0,4.530033767E-1,-1.407479644E-1,-6.290381551E-1
2.575183440E0,4.530033767E-1,-1.183774248E-1,-6.428865790E-1
2.577671201E0,4.487423003E-1,-1.023984700E-1,-6.556697488E-1
2.580158961E0,4.423507154E-1,-9.494162351E-2,-6.673876643E-1
2.582646721E0,4.338286221E-1,-9.387636185E-2,-6.759097576E-1
2.585134482E0,4.231759906E-1,-9.707214683E-2,-6.801708341E-1
2.587622242E0,4.146538675E-1,-1.013332009E-1,-6.812360883E-1
2.590109951E0,4.050664902E-1,-1.066595241E-1,-6.780403256E-1
2.592597659E0,3.965443969E-1,-1.087900475E-1,-6.727139950E-1
2.595085367E0,3.880222738E-1,-1.066595241E-1,-6.652571559E-1
2.597573076E0,3.784348965E-1,-1.023984700E-1,-6.556697488E-1
2.600060784E0,3.688475490E-1,-9.600688517E-2,-6.439518929E-1
2.602548492E0,3.571296334E-1,-8.855003864E-2,-6.301034689E-1
2.605036201E0,3.454117477E-1,-8.322372288E-2,-6.141244769E-1
2.607523909E0,3.315632939E-1,-8.109319210E-2,-5.981455445E-1
2.610011617E0,3.187801540E-1,-8.535424620E-2,-5.800360441E-1
2.612499326E0,3.059969842E-1,-9.600688517E-2,-5.619265437E-1
2.614987034E0,2.942790687E-1,-1.130511016E-1,-5.416865349E-1
2.617474742E0,2.857569754E-1,-1.364869028E-1,-5.214465261E-1
2.619962451E0,2.772348523E-1,-1.631184965E-1,-4.990760088E-1
2.622450159E0,2.719085515E-1,-1.929458827E-1,-4.777707458E-1
2.624937867E0,2.697780132E-1,-2.249037921E-1,-4.564654827E-1
2.627425576E0,2.697780132E-1,-2.557964325E-1,-4.372907281E-1
2.629913284E0,2.719085515E-1,-2.845585644E-1,-4.191812575E-1
2.632400992E0,2.761695981E-1,-3.090596199E-1,-4.042675495E-1
2.634888701E0,2.825611830E-1,-3.282343447E-1,-3.936149180E-1
2.637376409E0,2.921485603E-1,-3.410175145E-1,-3.850927949E-1
2.639864117E0,3.038664460E-1,-3.474090993E-1,-3.808317482E-1
2.642351826E0,3.166496158E-1,-3.474090993E-1,-3.797664940E-1
2.644839534E0,3.283675313E-1,-3.410175145E-1,-3.829622865E-1
2.647327242E0,3.400854170E-1,-3.271690905E-1,-3.882885873E-1
2.649814951E0,3.528685868E-1,-3.090596199E-1,-3.957454562E-1
2.652302659E0,3.645864725E-1,-2.877543271E-1,-4.063980877E-1
2.654790367E0,3.763043880E-1,-2.643185556E-1,-4.181159735E-1
2.657278076E0,3.880222738E-1,-2.408827394E-1,-4.308991432E-1
2.659765784E0,3.997401893E-1,-2.185122073E-1,-4.447475672E-1
2.662253492E0,4.103928208E-1,-1.972069293E-1,-4.596612751E-1
2.664741201E0,4.210454524E-1,-1.812279820E-1,-4.724444151E-1
2.667228909E0,4.274370372E-1,-1.673795432E-1,-4.830970466E-1
2.669716617E0,4.327633679E-1,-1.577921808E-1,-4.926844239E-1
2.672204326E0,4.380896688E-1,-1.545963883E-1,-5.001412630E-1
2.674692034E0,4.412854612E-1,-1.535311192E-1,-5.054675937E-1
2.677179742E0,4.434159994E-1,-1.535311192E-1,-5.075981021E-1
2.679667451E0,4.455465078E-1,-1.545963883E-1,-5.065328479E-1
2.682155159E0,4.476770461E-1,-1.545963883E-1,-5.022718310E-1
2.684642867E0,4.476770461E-1,-1.535311192E-1,-4.969455004E-1
2.687130576E0,4.466117918E-1,-1.503353268E-1,-4.894886315E-1
2.689618284E0,4.455465078E-1,-1.460742801E-1,-4.820317924E-1
2.692105992E0,4.412854612E-1,-1.386174262E-1,-4.724444151E-1
2.694593701E0,4.370244145E-1,-1.300953180E-1,-4.617917836E-1
2.697081409E0,4.316980839E-1,-1.205079481E-1,-4.500738978E-1
2.699569117E0,4.253064990E-1,-1.109205782E-1,-4.383559823E-1
2.702056826E0,4.189149141E-1,-1.045289934E-1,-4.266380966E-1
2.704544534E0,4.135886133E-1,-1.013332009E-1,-4.149201810E-1
2.707032242E0,4.093275666E-1,-1.002679393E-1,-4.032022953E-1
2.709519951E0,4.071970284E-1,-1.045289934E-1,-3.914843798E-1
2.712007659E0,4.061317742E-1,-1.098553166E-1,-3.808317482E-1
2.714495367E0,4.071970284E-1,-1.183774248E-1,-3.712443709E-1
2.716983076E0,4.093275666E-1,-1.279647946E-1,-3.616569936E-1
2.719470784E0,4.135886133E-1,-1.386174262E-1,-3.520696461E-1
2.721958492E0,4.189149141E-1,-1.482048035E-1,-3.435475230E-1
2.724446201E0,4.242412448E-1,-1.577921808E-1,-3.360906839E-1
2.726933909E0,4.316980839E-1,-1.652490199E-1,-3.307643533E-1
2.729421617E0,4.380896688E-1,-1.716406047E-1,-3.254380524E-1
2.731909326E0,4.455465078E-1,-1.759016514E-1,-3.222422600E-1
2.734397034E0,4.530033767E-1,-1.780321896E-1,-3.190464675E-1
2.736884742E0,4.625907242E-1,-1.801627129E-1,-3.179811835E-1
2.739372451E0,4.721781015E-1,-1.790974438E-1,-3.179811835E-1
2.741860159E0,4.817654788E-1,-1.769669205E-1,-3.201117218E-1
2.744347867E0,4.913528562E-1,-1.737711281E-1,-3.211769760E-1
2.746835576E0,4.988096952E-1,-1.684448123E-1,-3.254380524E-1
2.749323284E0,5.041360259E-1,-1.631184965E-1,-3.286338449E-1
2.751810992E0,5.062665343E-1,-1.556616426E-1,-3.339601457E-1
2.754298753E0,5.052012801E-1,-1.492700726E-1,-3.360906839E-1
2.756786513E0,5.009402037E-1,-1.428784877E-1,-3.392864764E-1
2.759274274E0,4.956139028E-1,-1.364869028E-1,-3.414169848E-1
2.761762034E0,4.870918095E-1,-1.311605871E-1,-3.414169848E-1
2.764249794E0,4.785696864E-1,-1.268995255E-1,-3.392864764E-1
2.766737555E0,4.679170549E-1,-1.205079481E-1,-3.360906839E-1
2.769225315E0,4.561991692E-1,-1.141163707E-1,-3.307643533E-1
2.771713076E0,4.423507154E-1,-1.066595241E-1,-3.233075142E-1
2.774200836E0,4.285022914E-1,-9.813741595E-2,-3.137201369E-1
2.776688596E0,4.125233591E-1,-8.748477697E-2,-3.009369671E-1
2.779176357E0,3.965443969E-1,-7.576687634E-2,-2.870885432E-1
2.781664117E0,3.795001805E-1,-6.404897571E-2,-2.732401192E-1
2.784151878E0,3.645864725E-1,-5.233107507E-2,-2.583264410E-1
2.786639638E0,3.486075401E-1,-4.061317816E-2,-2.434127480E-1
2.789127399E0,3.336938322E-1,-2.996053919E-2,-2.284990549E-1
2.791615159E0,3.166496158E-1,-1.930790395E-2,-2.125200927E-1
2.794102919E0,3.006706536E-1,-1.078579482E-2,-1.976063997E-1
2.796590680E0,2.857569754E-1,-4.394212738E-3,-1.837579757E-1
2.799078440E0,2.708432674E-1,-1.331579551E-4,-1.688442826E-1
2.801566201E0,2.580601275E-1,1.997369342E-3,-1.549958587E-1
2.804053961E0,2.474074811E-1,3.062632866E-3,-1.432779580E-1
2.806541721E0,2.399506420E-1,3.062632866E-3,-1.294295341E-1
2.809029482E0,2.346243113E-1,5.193160381E-3,-1.177116334E-1
2.811517242E0,2.324937880E-1,9.454214945E-3,-1.070589945E-1
2.814005003E0,2.303632647E-1,1.265000552E-2,-9.853688627E-2
2.816492763E0,2.303632647E-1,1.797632314E-2,-9.108003974E-2
2.818980524E0,2.292979956E-1,2.223737910E-2,-8.681898564E-2
2.821468284E0,2.282327414E-1,2.543316968E-2,-8.362319320E-2
2.823956044E0,2.261022031E-1,2.649843320E-2,-8.149266988E-2
2.826443805E0,2.239716798E-1,2.436790615E-2,-8.042740822E-2
2.828931565E0,2.229064107E-1,1.904158667E-2,-8.149266988E-2
2.831419326E0,2.229064107E-1,1.158474199E-2,-8.149266988E-2
2.833907086E0,2.261022031E-1,1.997369342E-3,-8.362319320E-2
2.836394846E0,2.303632647E-1,-9.720530361E-3,-8.681898564E-2
2.838882607E0,2.335590571E-1,-2.250369452E-2,-9.001477808E-2
2.841370367E0,2.388853729E-1,-3.635212034E-2,-9.321057051E-2
2.843858128E0,2.410158962E-1,-5.126581341E-2,-9.640636295E-2
2.846345888E0,2.399506420E-1,-6.724476814E-2,-9.960214794E-2
2.848833649E0,2.356895804E-1,-8.428898454E-2,-1.027979404E-1
2.851321357E0,2.292979956E-1,-1.002679393E-1,-1.049284711E-1
2.853809065E0,2.207758874E-1,-1.162468940E-1,-1.059937328E-1
2.856296774E0,2.122537792E-1,-1.300953180E-1,-1.049284711E-1
2.858784482E0,2.037316710E-1,-1.396826953E-1,-1.017326787E-1
2.861272190E0,1.952095628E-1,-1.450090110E-1,-9.640636295E-2
2.863759899E0,1.866874546E-1,-1.450090110E-1,-9.108003974E-2
2.866247607E0,1.749695539E-1,-1.396826953E-1,-8.362319320E-2
2.868735315E0,1.611211300E-1,-1.290300637E-1,-7.616634667E-2
2.871223024E0,1.440769136E-1,-1.141163707E-1,-6.870950758E-2
2.873710732E0,1.238368973E-1,-9.813741595E-2,-5.912213027E-2
2.876198440E0,1.014663652E-1,-7.896266878E-2,-4.953476042E-2
2.878686149E0,7.909582555E-2,-5.872265995E-2,-3.888212144E-2
2.881173857E0,5.672528967E-2,-3.741738573E-2,-2.609895915E-2
2.883661565E0,3.542001545E-2,-1.291632187E-2,-1.331579592E-2
2.886149274E0,1.731053367E-2,1.051947847E-2,2.663159044E-3
2.888636982E0,2.396843163E-3,3.502054140E-2,1.757685095E-2
2.891124690E0,-1.038632076E-2,6.058686972E-2,3.355580568E-2
2.893612399E0,-2.103895694E-2,8.615319431E-2,4.846949503E-2
2.896100107E0,-2.956106514E-2,1.117195264E-1,6.551371515E-2
2.898587815E0,-3.808317333E-2,1.372858584E-1,8.149266988E-2
2.901075524E0,-4.554001987E-2,1.617869139E-1,9.534109384E-2
2.903563232E0,-5.299686641E-2,1.820269227E-1,1.091895252E-1
2.906050940E0,-6.045371294E-2,2.001364082E-1,1.198421568E-1
2.908538649E0,-6.471476704E-2,2.129195631E-1,1.294295341E-1
2.911026357E0,-6.791055948E-2,2.203764170E-1,1.358211190E-1
2.913514065E0,-7.217161357E-2,2.214416862E-1,1.379516423E-1
2.916001774E0,-7.323687524E-2,2.171806246E-1,1.379516423E-1
2.918489482E0,-7.536740601E-2,2.086585164E-1,1.336905807E-1
2.920977190E0,-7.749792933E-2,1.948100924E-1,1.262337416E-1
2.923464899E0,-8.069372177E-2,1.767006069E-1,1.166463718E-1
2.925952607E0,-8.282424510E-2,1.575258672E-1,1.038632020E-1
2.928440315E0,-8.495477587E-2,1.340900660E-1,8.894951642E-2
2.930928024E0,-8.708529919E-2,1.106542572E-1,7.084003091E-2
2.933415732E0,-8.921582997E-2,8.402267098E-2,4.953476042E-2
2.935903440E0,-9.347688407E-2,5.739107728E-2,2.716422267E-2
2.938391149E0,-9.880319983E-2,2.969422378E-2,2.663159044E-3
2.940878857E0,-1.051947847E-1,1.997369342E-3,-2.290316857E-2
2.943366565E0,-1.126516312E-1,-2.676474862E-2,-4.740423337E-2
2.945854274E0,-1.179779470E-1,-5.233107507E-2,-7.084003091E-2
2.948341982E0,-1.222390011E-1,-7.576687634E-2,-9.214530140E-2
2.950829690E0,-1.233042628E-1,-9.494162351E-2,-1.134505793E-1
2.953317399E0,-1.233042628E-1,-1.109205782E-1,-1.315600574E-1
2.955805107E0,-1.233042628E-1,-1.237037405E-1,-1.486042738E-1
2.958292815E0,-1.243695319E-1,-1.364869028E-1,-1.645832360E-1
2.960780524E0,-1.275653243E-1,-1.471395344E-1,-1.773663908E-1
2.963268232E0,-1.318263710E-1,-1.567269117E-1,-1.869537681E-1
2.965755940E0,-1.371526867E-1,-1.663142890E-1,-1.933453530E-1
2.968243649E0,-1.456748098E-1,-1.759016514E-1,-1.976063997E-1
2.970731357E0,-1.541969180E-1,-1.833585054E-1,-1.965411454E-1
2.973219065E0,-1.616537571E-1,-1.876195520E-1,-1.922800839E-1
2.975706774E0,-1.691105962E-1,-1.908153445E-1,-1.858884990E-1
2.978194482E0,-1.765674502E-1,-1.918806136E-1,-1.752358675E-1
2.980682190E0,-1.808284968E-1,-1.918806136E-1,-1.624527127E-1
2.983169899E0,-1.840242893E-1,-1.908153445E-1,-1.486042738E-1
2.985657607E0,-1.872200817E-1,-1.886848211E-1,-1.326253265E-1
2.988145315E0,-1.893506050E-1,-1.865542978E-1,-1.145158410E-1
2.990633024E0,-1.914811432E-1,-1.833585054E-1,-9.534109384E-2
2.993120732E0,-1.936116666E-1,-1.759016514E-1,-7.403582335E-2
2.995608440E0,-1.946769357E-1,-1.652490199E-1,-5.166528746E-2
2.998096149E0,-1.936116666E-1,-1.535311192E-1,-2.929474972E-2
3.000583857E0,-1.904158741E-1,-1.396826953E-1,-5.858949851E-3
3.003071565E0,-1.861548275E-1,-1.237037405E-1,1.651158556E-2
3.005559274E0,-1.808284968E-1,-1.066595241E-1,3.781685978E-2
3.008046982E0,-1.733716577E-1,-9.174583107E-2,5.699160323E-2
3.010534742E0,-1.648495495E-1,-7.683213800E-2,7.510108501E-2
3.013022503E0,-1.563274413E-1,-6.404897571E-2,9.321057051E-2
3.015510263E0,-1.499358565E-1,-5.446160212E-2,1.081242561E-1
3.017998024E0,-1.424790174E-1,-4.700475931E-2,1.230379492E-1
3.020485784E0,-1.360874325E-1,-4.061317816E-2,1.347558498E-1
3.022973544E0,-1.296958476E-1,-3.741738573E-2,1.475390196E-1
3.025461305E0,-1.254348010E-1,-3.422159329E-2,1.560611278E-1
3.027949065E0,-1.222390011E-1,-3.422159329E-2,1.645832360E-1
3.030436826E0,-1.190432087E-1,-3.635212034E-2,1.699095517E-1
3.032924586E0,-1.179779470E-1,-4.061317816E-2,1.731053442E-1
3.035412346E0,-1.169126853E-1,-4.807002097E-2,1.752358675E-1
3.037900107E0,-1.169126853E-1,-5.978792161E-2,1.752358675E-1
3.040387867E0,-1.169126853E-1,-7.257108390E-2,1.720400751E-1
3.042875628E0,-1.179779470E-1,-8.855003864E-2,1.667137593E-1
3.045363388E0,-1.201084778E-1,-1.045289934E-1,1.613874435E-1
3.047851149E0,-1.233042628E-1,-1.205079481E-1,1.539305896E-1
3.050338909E0,-1.286305785E-1,-1.343563795E-1,1.464737505E-1
3.052826669E0,-1.360874325E-1,-1.450090110E-1,1.411474347E-1
3.055314430E0,-1.435442716E-1,-1.524658650E-1,1.347558498E-1
3.057802190E0,-1.520663798E-1,-1.577921808E-1,1.294295341E-1
3.060289951E0,-1.595232338E-1,-1.609879732E-1,1.251684725E-1
3.062777711E0,-1.659148186E-1,-1.609879732E-1,1.209074259E-1
3.065265471E0,-1.701758653E-1,-1.577921808E-1,1.177116334E-1
3.067753232E0,-1.755021811E-1,-1.545963883E-1,1.155811027E-1
3.070240992E0,-1.797632426E-1,-1.492700726E-1,1.134505793E-1
3.072728753E0,-1.840242893E-1,-1.428784877E-1,1.113200486E-1
3.075216513E0,-1.882853508E-1,-1.354216337E-1,1.102547869E-1
3.077704274E0,-1.925463974E-1,-1.279647946E-1,1.091895252E-1
3.080192034E0,-1.978727281E-1,-1.215732098E-1,1.091895252E-1
3.082679794E0,-2.010685056E-1,-1.162468940E-1,1.102547869E-1
3.085167555E0,-2.053295672E-1,-1.130511016E-1,1.123853177E-1
3.087655315E0,-2.063948363E-1,-1.119858399E-1,1.166463718E-1
3.090143076E0,-2.074600905E-1,-1.109205782E-1,1.219726875E-1
3.092630836E0,-2.074600905E-1,-1.098553166E-1,1.304948032E-1
3.095118596E0,-2.042642981E-1,-1.077247858E-1,1.390169114E-1
3.097606357E0,-2.000032514E-1,-1.034637317E-1,1.496695429E-1
3.100094117E0,-1.946769357E-1,-9.707214683E-2,1.624527127E-1
3.102581878E0,-1.872200817E-1,-8.961530030E-2,1.752358675E-1
3.105069638E0,-1.786979735E-1,-8.109319210E-2,1.890842915E-1
3.107557399E0,-1.712411344E-1,-7.363634557E-2,2.018674612E-1
3.110045107E0,-1.637842804E-1,-6.831002980E-2,2.157158852E-1
3.112532815E0,-1.584579647E-1,-6.404897571E-2,2.274337858E-1
3.115020524E0,-1.541969180E-1,-6.298371404E-2,2.391516864E-1
3.117508232E0,-1.510011256E-1,-6.511423737E-2,2.498043180E-1
3.119995940E0,-1.478053331E-1,-6.831002980E-2,2.593916953E-1
3.122483649E0,-1.456748098E-1,-7.470161468E-2,2.679138184E-1
3.124971357E0,-1.414137483E-1,-8.322372288E-2,2.743053734E-1
3.127459065E0,-1.371526867E-1,-9.281109273E-2,2.796317041E-1
3.129946774E0,-1.318263710E-1,-1.013332009E-1,2.828274965E-1
3.132434482E0,-1.265000552E-1,-1.109205782E-1,2.849580348E-1
3.134922190E0,-1.201084778E-1,-1.173121557E-1,2.860232890E-1
3.137409899E0,-1.147821546E-1,-1.226384789E-1,2.860232890E-1
3.139897607E0,-1.094558388E-1,-1.258342713E-1,2.838927507E-1
3.142385315E0,-1.051947847E-1,-1.290300637E-1,2.806969583E-1
3.144873024E0,-1.009337306E-1,-1.300953180E-1,2.764359117E-1
3.147360732E0,-9.880319983E-2,-1.322258562E-1,2.711096108E-1
3.149848440E0,-9.667267650E-2,-1.354216337E-1,2.647180259E-1
3.152336149E0,-9.454214573E-2,-1.407479644E-1,2.593916953E-1
3.154823857E0,-9.134636074E-2,-1.471395344E-1,2.540653646E-1
3.157311565E0,-8.815056831E-2,-1.567269117E-1,2.487390637E-1
3.159799274E0,-8.388951421E-2,-1.663142890E-1,2.434127480E-1
3.162286982E0,-7.856319100E-2,-1.790974438E-1,2.380864173E-1
3.164774690E0,-7.430213690E-2,-1.940111369E-1,2.338253707E-1
3.167262399E0,-7.004108280E-2,-2.089248300E-1,2.316948473E-1
3.169750107E0,-6.578002870E-2,-2.259690464E-1,2.284990549E-1
3.172237815E0,-6.151897460E-2,-2.430132627E-1,2.274337858E-1
3.174725524E0,-5.619265884E-2,-2.589922249E-1,2.274337858E-1
3.177213232E0,-4.980107397E-2,-2.717753947E-1,2.295643091E-1
3.179700940E0,-4.340949282E-2,-2.824280262E-1,2.327601016E-1
3.182188649E0,-3.488738462E-2,-2.898848653E-1,2.391516864E-1
3.184676357E0,-2.743053809E-2,-2.930806577E-1,2.444780022E-1
3.187164065E0,-2.103895694E-2,-2.909501195E-1,2.540653646E-1
3.189651774E0,-1.358211134E-2,-2.866890728E-1,2.625874877E-1
3.192139482E0,-6.125265732E-3,-2.781669796E-1,2.721748650E-1
3.194627190E0,2.396843163E-3,-2.685796022E-1,2.817622423E-1
3.197114899E0,9.853689000E-3,-2.589922249E-1,2.913496196E-1
3.199602607E0,1.837579720E-2,-2.494048476E-1,3.020022511E-1
3.202090315E0,2.583264373E-2,-2.408827394E-1,3.115896285E-1
3.204578024E0,3.222422674E-2,-2.334259003E-1,3.211769760E-1
3.207065732E0,3.755054250E-2,-2.280995846E-1,3.307643533E-1
3.209553440E0,4.394212365E-2,-2.238385230E-1,3.392864764E-1
3.212041149E0,4.820318148E-2,-2.195774615E-1,3.488738537E-1
3.214528857E0,5.246423557E-2,-2.163816839E-1,3.563306928E-1
3.217016565E0,5.566002429E-2,-2.131858915E-1,3.637875319E-1
3.219504274E0,5.779055133E-2,-2.089248300E-1,3.701791167E-1
3.221991982E0,5.885581672E-2,-2.025332451E-1,3.765707016E-1
3.224479690E0,5.992107838E-2,-1.950764060E-1,3.808317482E-1
3.226967399E0,6.205160543E-2,-1.865542978E-1,3.850927949E-1
3.229455107E0,6.418213248E-2,-1.780321896E-1,3.882885873E-1
3.231942815E0,6.737792492E-2,-1.716406047E-1,3.904191256E-1
3.234430524E0,6.950845569E-2,-1.652490199E-1,3.925496638E-1
3.236918232E0,7.270424068E-2,-1.609879732E-1,3.936149180E-1
3.239405940E0,7.590003312E-2,-1.588574350E-1,3.946801722E-1
3.241893649E0,7.803056389E-2,-1.588574350E-1,3.957454562E-1
3.244381357E0,7.803056389E-2,-1.599227041E-1,3.968107104E-1
3.246869065E0,8.016108721E-2,-1.631184965E-1,3.968107104E-1
3.249356774E0,7.909582555E-2,-1.673795432E-1,3.968107104E-1
3.251844482E0,7.803056389E-2,-1.737711281E-1,3.978759646E-1
3.254332190E0,7.696529478E-2,-1.812279820E-1,3.968107104E-1
3.256819899E0,7.376950979E-2,-1.897500902E-1,3.968107104E-1
3.259307607E0,7.057371736E-2,-1.993374527E-1,3.968107104E-1
3.261795315E0,6.844318658E-2,-2.089248300E-1,3.989412189E-1
3.264283024E0,6.631266326E-2,-2.206427306E-1,4.000065029E-1
3.266770732E0,6.311687082E-2,-2.302301079E-1,4.032022953E-1
3.269258492E0,6.205160543E-2,-2.387522161E-1,4.063980877E-1
3.271746253E0,6.098634377E-2,-2.430132627E-1,4.106591344E-1
3.274234013E0,5.885581672E-2,-2.462090552E-1,4.138549268E-1
3.276721774E0,5.672528967E-2,-2.472743243E-1,4.170507193E-1
3.279209534E0,5.566002429E-2,-2.451438010E-1,4.191812575E-1
3.281697294E0,5.459476262E-2,-2.430132627E-1,4.213117659E-1
3.284185055E0,5.459476262E-2,-2.398174703E-1,4.223770201E-1
3.286672815E0,5.459476262E-2,-2.344911546E-1,4.223770201E-1
3.289160576E0,5.566002429E-2,-2.280995846E-1,4.223770201E-1
3.291648336E0,5.566002429E-2,-2.206427306E-1,4.202465117E-1
3.294136096E0,5.672528967E-2,-2.131858915E-1,4.191812575E-1
3.296623857E0,5.672528967E-2,-2.046637833E-1,4.170507193E-1
3.299111617E0,5.672528967E-2,-1.950764060E-1,4.149201810E-1
3.301599378E0,5.672528967E-2,-1.854890287E-1,4.117243886E-1
3.304087138E0,5.672528967E-2,-1.748363972E-1,4.085285962E-1
3.306574899E0,5.672528967E-2,-1.631184965E-1,4.063980877E-1
3.309062659E0,5.779055133E-2,-1.514005959E-1,4.021370113E-1
3.311550419E0,5.672528967E-2,-1.386174262E-1,3.989412189E-1
3.314038180E0,5.779055133E-2,-1.247690022E-1,3.946801722E-1
3.316525940E0,5.672528967E-2,-1.119858399E-1,3.914843798E-1
3.319013701E0,5.672528967E-2,-9.707214683E-2,3.882885873E-1
3.321501461E0,5.566002429E-2,-8.322372288E-2,3.850927949E-1
3.323989221E0,5.459476262E-2,-6.937529147E-2,3.829622865E-1
3.326476982E0,5.139897019E-2,-5.872265995E-2,3.797664940E-1
3.328964742E0,4.713791609E-2,-4.913528636E-2,3.776359558E-1
3.331452503E0,4.181159660E-2,-4.274370521E-2,3.733749092E-1
3.333940263E0,3.648528084E-2,-4.167843983E-2,3.701791167E-1
3.336428024E0,3.009369783E-2,-4.380896688E-2,3.669833243E-1
3.338915784E0,2.370211668E-2,-4.807002097E-2,3.648527861E-1
3.341403544E0,1.837579720E-2,-5.765739456E-2,3.616569936E-1
3.343891305E0,1.411474310E-2,-6.831002980E-2,3.595264852E-1
3.346379065E0,1.091895252E-2,-8.109319210E-2,3.563306928E-1
3.348866826E0,8.788425475E-3,-9.494162351E-2,3.542001545E-1
3.351354586E0,6.657897960E-3,-1.066595241E-1,3.520696461E-1
3.353842346E0,5.592633970E-3,-1.173121557E-1,3.499391079E-1
3.356330107E0,4.527370445E-3,-1.247690022E-1,3.478085697E-1
3.358817867E0,2.396843163E-3,-1.300953180E-1,3.456780612E-1
3.361305628E0,2.663159103E-4,-1.332911104E-1,3.424822688E-1
3.363793388E0,-7.989477599E-4,-1.354216337E-1,3.382211924E-1
3.366281149E0,-3.994738683E-3,-1.343563795E-1,3.339601457E-1
3.368768857E0,-7.190529723E-3,-1.332911104E-1,3.286338449E-1
3.371256565E0,-1.038632076E-2,-1.322258562E-1,3.243727684E-1
3.373744274E0,-1.251684781E-2,-1.322258562E-1,3.190464675E-1
3.376231982E0,-1.251684781E-2,-1.311605871E-1,3.137201369E-1
3.378719690E0,-1.145158429E-2,-1.300953180E-1,3.083938360E-1
3.381207399E0,-1.038632076E-2,-1.279647946E-1,3.030675054E-1
3.383695107E0,-9.321057238E-3,-1.268995255E-1,2.988064587E-1
3.386182815E0,-8.255792782E-3,-1.247690022E-1,2.945453823E-1
3.388670524E0,-6.125265732E-3,-1.226384789E-1,2.913496196E-1
3.391158232E0,-6.125265732E-3,-1.205079481E-1,2.892190814E-1
3.393645940E0,-5.060002208E-3,-1.173121557E-1,2.870885432E-1
3.396133649E0,-5.060002208E-3,-1.151816323E-1,2.860232890E-1
3.398621357E0,-5.060002208E-3,-1.130511016E-1,2.849580348E-1
3.401109065E0,-5.060002208E-3,-1.119858399E-1,2.849580348E-1
3.403596774E0,-5.060002208E-3,-1.119858399E-1,2.849580348E-1
3.406084482E0,-5.060002208E-3,-1.130511016E-1,2.849580348E-1
3.408572190E0,-5.060002208E-3,-1.141163707E-1,2.849580348E-1
3.411059899E0,-7.190529723E-3,-1.141163707E-1,2.849580348E-1
3.413547607E0,-9.321057238E-3,-1.141163707E-1,2.849580348E-1
3.416035315E0,-1.251684781E-2,-1.141163707E-1,2.849580348E-1
3.418523024E0,-1.464737486E-2,-1.141163707E-1,2.849580348E-1
3.421010732E0,-1.890842989E-2,-1.141163707E-1,2.838927507E-1
3.423498440E0,-2.316948399E-2,-1.162468940E-1,2.828274965E-1
3.425986149E0,-2.636527456E-2,-1.173121557E-1,2.817622423E-1
3.428473857E0,-3.169159219E-2,-1.194426864E-1,2.796317041E-1
3.430961565E0,-3.488738462E-2,-1.226384789E-1,2.775011659E-1
3.433449274E0,-4.021370411E-2,-1.258342713E-1,2.753706574E-1
3.435936982E0,-4.340949282E-2,-1.290300637E-1,2.711096108E-1
3.438424690E0,-4.660528526E-2,-1.332911104E-1,2.668485343E-1
3.440912399E0,-4.767054692E-2,-1.354216337E-1,2.615222335E-1
3.443400107E0,-5.086633936E-2,-1.375521719E-1,2.561959028E-1
3.445887815E0,-5.406212807E-2,-1.396826953E-1,2.508696020E-1
3.448375524E0,-5.832318589E-2,-1.396826953E-1,2.444780022E-1
3.450863232E0,-6.151897460E-2,-1.386174262E-1,2.391516864E-1
3.453350940E0,-6.578002870E-2,-1.375521719E-1,2.316948473E-1
3.455838649E0,-6.897582114E-2,-1.343563795E-1,2.253032625E-1
3.458326357E0,-7.004108280E-2,-1.311605871E-1,2.178464085E-1
3.460814065E0,-7.110634446E-2,-1.258342713E-1,2.103895694E-1
3.463301774E0,-7.004108280E-2,-1.194426864E-1,2.039979845E-1
3.465789482E0,-6.897582114E-2,-1.130511016E-1,1.976063997E-1
3.468277190E0,-6.791055948E-2,-1.055942550E-1,1.922800839E-1
3.470764899E0,-6.578002870E-2,-9.813741595E-2,1.869537681E-1
3.473252607E0,-6.364950538E-2,-9.174583107E-2,1.826927215E-1
3.475740315E0,-6.258423626E-2,-8.428898454E-2,1.773663908E-1
3.478228024E0,-6.258423626E-2,-7.789740711E-2,1.752358675E-1
3.480715732E0,-6.258423626E-2,-7.363634557E-2,1.731053442E-1
3.483203440E0,-6.364950538E-2,-7.044056058E-2,1.720400751E-1
3.485691149E0,-6.471476704E-2,-6.831002980E-2,1.720400751E-1
3.488178857E0,-6.471476704E-2,-6.937529147E-2,1.720400751E-1
3.490666565E0,-6.471476704E-2,-6.937529147E-2,1.731053442E-1
3.493154274E0,-6.471476704E-2,-7.150582224E-2,1.741705984E-1
3.495641982E0,-6.471476704E-2,-7.576687634E-2,1.763011366E-1
3.498129690E0,-6.364950538E-2,-8.002793044E-2,1.784316599E-1
3.500617399E0,-6.258423626E-2,-8.535424620E-2,1.784316599E-1
3.503105107E0,-6.258423626E-2,-9.068056941E-2,1.805621833E-1
3.505592815E0,-6.258423626E-2,-9.707214683E-2,1.826927215E-1
3.508080524E0,-6.151897460E-2,-1.045289934E-1,1.826927215E-1
3.510568232E0,-6.045371294E-2,-1.109205782E-1,1.837579757E-1
3.513055940E0,-5.938844755E-2,-1.162468940E-1,1.837579757E-1
3.515543649E0,-5.725792050E-2,-1.194426864E-1,1.826927215E-1
3.518031357E0,-5.299686641E-2,-1.215732098E-1,1.816274524E-1
3.520519065E0,-4.873581231E-2,-1.205079481E-1,1.805621833E-1
3.523006826E0,-4.554001987E-2,-1.173121557E-1,1.784316599E-1
3.525494586E0,-4.021370411E-2,-1.109205782E-1,1.773663908E-1
3.527982346E0,-3.488738462E-2,-1.023984700E-1,1.763011366E-1
3.530470107E0,-2.956106514E-2,-9.068056941E-2,1.741705984E-1
3.532957867E0,-2.423474751E-2,-8.002793044E-2,1.720400751E-1
3.535445628E0,-1.890842989E-2,-6.831002980E-2,1.699095517E-1
3.537933388E0,-1.358211134E-2,-5.659212917E-2,1.677790284E-1
3.540421149E0,-7.190529723E-3,-4.487423226E-2,1.645832360E-1
3.542908909E0,-2.929474926E-3,-3.315633163E-2,1.624527127E-1
3.545396669E0,1.331579522E-3,-2.143843099E-2,1.613874435E-1
3.547884430E0,6.657897960E-3,-1.078579482E-2,1.603221744E-1
3.550372190E0,9.853689000E-3,9.321057005E-4,1.581916511E-1
3.552859951E0,1.518000662E-2,1.265000552E-2,1.560611278E-1
3.555347711E0,2.050632425E-2,2.543316968E-2,1.549958587E-1
3.557835471E0,2.583264373E-2,3.608580679E-2,1.528653353E-1
3.560323232E0,3.115896136E-2,4.780370742E-2,1.507348120E-1
3.562810992E0,3.755054250E-2,6.058686972E-2,1.486042738E-1
3.565298753E0,4.287686199E-2,7.123950869E-2,1.464737505E-1
3.567786513E0,4.820318148E-2,8.189214021E-2,1.432779580E-1
3.570274274E0,5.139897019E-2,9.041424841E-2,1.390169114E-1
3.572762034E0,5.352949724E-2,9.893636405E-2,1.358211190E-1
3.575249794E0,5.566002429E-2,1.042626798E-1,1.294295341E-1
3.577737555E0,5.672528967E-2,1.085237339E-1,1.230379492E-1
3.580225315E0,5.779055133E-2,1.117195264E-1,1.155811027E-1
3.582713076E0,5.885581672E-2,1.138500497E-1,1.070589945E-1
3.585200836E0,5.992107838E-2,1.138500497E-1,9.853688627E-2
3.587688596E0,5.885581672E-2,1.149153188E-1,9.001477808E-2
3.590176357E0,5.885581672E-2,1.138500497E-1,8.042740822E-2
3.592664117E0,5.885581672E-2,1.117195264E-1,7.084003091E-2
3.595151878E0,5.885581672E-2,1.085237339E-1,6.125266105E-2
3.597639638E0,5.779055133E-2,1.053279415E-1,5.166528746E-2
3.600127399E0,5.779055133E-2,1.000016257E-1,4.314317927E-2
3.602615159E0,5.672528967E-2,9.467530251E-2,3.462106735E-2
3.605102919E0,5.566002429E-2,9.041424841E-2,2.716422267E-2
3.607590680E0,5.566002429E-2,8.508793265E-2,2.077264152E-2
3.610078440E0,5.566002429E-2,7.976161689E-2,1.438105945E-2
3.612566201E0,5.566002429E-2,7.550056279E-2,9.054740891E-3
3.615053961E0,5.566002429E-2,7.230477035E-2,4.793686327E-3
3.617541721E0,5.459476262E-2,7.123950869E-2,-5.326318205E-4
3.620029482E0,5.352949724E-2,7.017423958E-2,-4.793686327E-3
3.622517242E0,5.139897019E-2,7.017423958E-2,-7.989477366E-3
3.625004951E0,4.926844314E-2,7.123950869E-2,-1.118526794E-2
3.627492659E0,4.713791609E-2,7.230477035E-2,-1.544632297E-2
3.629980367E0,4.500738904E-2,7.550056279E-2,-1.864211448E-2
3.632468076E0,4.394212365E-2,7.763108611E-2,-2.183790505E-2
3.634955784E0,4.181159660E-2,8.189214021E-2,-2.609895915E-2
3.637443492E0,4.074633494E-2,8.721846342E-2,-2.822948620E-2
3.639931201E0,3.861580789E-2,9.254477918E-2,-3.142527863E-2
3.642418909E0,3.755054250E-2,9.680583328E-2,-3.462106735E-2
3.644906617E0,3.648528084E-2,1.021321490E-1,-3.781685978E-2
3.647394326E0,3.648528084E-2,1.063932031E-1,-4.101264849E-2
3.649882034E0,3.542001545E-2,1.106542572E-1,-4.420844093E-2
3.652369742E0,3.542001545E-2,1.149153188E-1,-4.633896798E-2
3.654857451E0,3.542001545E-2,1.181111038E-1,-4.953476042E-2
3.657345159E0,3.435475379E-2,1.213068962E-1,-5.273054913E-2
3.659832867E0,3.435475379E-2,1.234374270E-1,-5.486107618E-2
3.662320576E0,3.328948840E-2,1.234374270E-1,-5.699160323E-2
3.664808284E0,3.222422674E-2,1.234374270E-1,-5.912213027E-2
3.667295992E0,3.115896136E-2,1.202416345E-1,-6.018739566E-2
3.669783701E0,3.009369783E-2,1.170458421E-1,-6.018739566E-2
3.672271409E0,2.796317078E-2,1.127847880E-1,-6.231792271E-2
3.674759117E0,2.689790726E-2,1.085237339E-1,-6.444845349E-2
3.677246826E0,2.583264373E-2,1.053279415E-1,-6.551371515E-2
3.679734534E0,2.263685316E-2,1.021321490E-1,-6.764423847E-2
3.682222242E0,2.050632425E-2,1.010668874E-1,-6.977476925E-2
3.684709951E0,1.837579720E-2,9.893636405E-2,-7.190529257E-2
3.687197659E0,1.731053367E-2,9.893636405E-2,-7.403582335E-2
3.689685367E0,1.624527015E-2,9.893636405E-2,-7.723161578E-2
3.692173076E0,1.518000662E-2,9.893636405E-2,-7.936213911E-2
3.694660784E0,1.518000662E-2,1.000016257E-1,-8.042740822E-2
3.697148492E0,1.624527015E-2,1.000016257E-1,-8.149266988E-2
3.699636201E0,1.624527015E-2,1.021321490E-1,-8.362319320E-2
3.702123909E0,1.837579720E-2,1.031974182E-1,-8.362319320E-2
3.704611617E0,1.944106072E-2,1.063932031E-1,-8.255793154E-2
3.707099326E0,2.157158963E-2,1.117195264E-1,-8.149266988E-2
3.709587034E0,2.476738021E-2,1.181111038E-1,-7.936213911E-2
3.712074742E0,2.796317078E-2,1.266332120E-1,-7.723161578E-2
3.714562451E0,3.222422674E-2,1.362205893E-1,-7.510108501E-2
3.717050159E0,3.648528084E-2,1.490037590E-1,-7.190529257E-2
3.719537867E0,3.861580789E-2,1.617869139E-1,-6.977476925E-2
3.722025576E0,4.074633494E-2,1.756353378E-1,-6.764423847E-2
3.724513284E0,4.074633494E-2,1.884185076E-1,-6.657897681E-2
3.727000992E0,3.968106955E-2,2.012016773E-1,-6.657897681E-2
3.729488701E0,3.861580789E-2,2.118543088E-1,-6.657897681E-2
3.731976409E0,3.755054250E-2,2.225069404E-1,-6.870950758E-2
3.734464117E0,3.755054250E-2,2.310290486E-1,-7.084003091E-2
3.736951826E0,3.755054250E-2,2.395511568E-1,-7.403582335E-2
3.739439534E0,3.755054250E-2,2.470080107E-1,-7.829687744E-2
3.741927242E0,3.755054250E-2,2.544648647E-1,-8.362319320E-2
3.744414951E0,3.861580789E-2,2.597911656E-1,-8.894951642E-2
3.746902659E0,3.968106955E-2,2.661827505E-1,-9.534109384E-2
3.749390367E0,3.968106955E-2,2.704437971E-1,-1.017326787E-1
3.751878076E0,3.755054250E-2,2.725743353E-1,-1.081242561E-1
3.754365784E0,3.542001545E-2,2.747048736E-1,-1.166463718E-1
3.756853492E0,3.328948840E-2,2.736395895E-1,-1.241032109E-1
3.759341201E0,3.115896136E-2,2.715090811E-1,-1.315600574E-1
3.761828909E0,3.009369783E-2,2.683132887E-1,-1.390169114E-1
3.764316617E0,2.902843431E-2,2.640522122E-1,-1.464737505E-1
3.766804326E0,2.902843431E-2,2.576606572E-1,-1.560611278E-1
3.769292034E0,2.902843431E-2,2.512690723E-1,-1.645832360E-1
3.771779742E0,3.009369783E-2,2.448774725E-1,-1.720400751E-1
3.774267451E0,3.115896136E-2,2.374206334E-1,-1.794969290E-1
3.776755211E0,3.222422674E-2,2.299637944E-1,-1.858884990E-1
3.779242971E0,3.328948840E-2,2.235722095E-1,-1.933453530E-1
3.781730732E0,3.435475379E-2,2.161153555E-1,-1.986716688E-1
3.784218492E0,3.648528084E-2,2.097237855E-1,-2.039979845E-1
3.786706253E0,3.968106955E-2,2.033322006E-1,-2.103895694E-1
3.789194013E0,4.287686199E-2,1.958753467E-1,-2.167811543E-1
3.791681774E0,4.713791609E-2,1.894837767E-1,-2.221074700E-1
3.794169534E0,5.139897019E-2,1.852227151E-1,-2.274337858E-1
3.796657294E0,5.566002429E-2,1.809616536E-1,-2.327601016E-1
3.799145055E0,5.885581672E-2,1.788311303E-1,-2.391516864E-1
3.801632815E0,6.098634377E-2,1.777658761E-1,-2.434127480E-1
3.804120576E0,6.311687082E-2,1.788311303E-1,-2.498043180E-1
3.806608336E0,6.311687082E-2,1.809616536E-1,-2.540653646E-1
3.809096096E0,6.311687082E-2,1.830921918E-1,-2.593916953E-1
3.811583857E0,6.098634377E-2,1.841574460E-1,-2.647180259E-1
3.814071617E0,5.885581672E-2,1.830921918E-1,-2.711096108E-1
3.816559378E0,5.672528967E-2,1.798963994E-1,-2.764359117E-1
3.819047138E0,5.352949724E-2,1.756353378E-1,-2.828274965E-1
3.821534899E0,5.139897019E-2,1.692437679E-1,-2.881538272E-1
3.824022659E0,4.926844314E-2,1.617869139E-1,-2.934801280E-1
3.826510419E0,4.713791609E-2,1.532648057E-1,-2.966759205E-1
3.828998180E0,4.500738904E-2,1.458079666E-1,-2.988064587E-1
3.831485940E0,4.394212365E-2,1.383511126E-1,-3.009369671E-1
3.833973701E0,4.394212365E-2,1.298290044E-1,-3.020022511E-1
3.836461461E0,4.607265070E-2,1.213068962E-1,-3.051980436E-1
3.838949221E0,4.713791609E-2,1.127847880E-1,-3.073285520E-1
3.841436982E0,4.926844314E-2,1.021321490E-1,-3.094590902E-1
3.843924742E0,5.352949724E-2,9.147951752E-2,-3.115896285E-1
3.846412503E0,5.672528967E-2,7.976161689E-2,-3.137201369E-1
3.848900263E0,6.205160543E-2,6.697845459E-2,-3.137201369E-1
3.851388024E0,6.844318658E-2,5.419528857E-2,-3.147853911E-1
3.853875784E0,7.483477145E-2,4.141212255E-2,-3.158506751E-1
3.856363544E0,8.442214131E-2,2.969422378E-2,-3.169159293E-1
3.858851305E0,9.400951862E-2,2.010685205E-2,-3.158506751E-1
3.861339065E0,1.046621501E-1,1.371526904E-2,-3.169159293E-1
3.863826826E0,1.142495275E-1,9.454214945E-3,-3.169159293E-1
3.866314586E0,1.249021590E-1,9.454214945E-3,-3.169159293E-1
3.868802346E0,1.344895363E-1,1.371526904E-2,-3.179811835E-1
3.871290107E0,1.419463754E-1,2.117211558E-2,-3.179811835E-1
3.873777867E0,1.494032294E-1,2.969422378E-2,-3.201117218E-1
3.876265628E0,1.547295451E-1,3.928159550E-2,-3.211769760E-1
3.878753388E0,1.589905918E-1,4.886896908E-2,-3.233075142E-1
3.881241096E0,1.643169224E-1,5.739107728E-2,-3.243727684E-1
3.883728805E0,1.685779691E-1,6.484792382E-2,-3.265033066E-1
3.886216513E0,1.717737615E-1,6.910897791E-2,-3.275685608E-1
3.888704221E0,1.749695539E-1,7.123950869E-2,-3.296990991E-1
3.891191930E0,1.771000773E-1,7.230477035E-2,-3.307643533E-1
3.893679638E0,1.771000773E-1,7.017423958E-2,-3.318296373E-1
3.896167346E0,1.749695539E-1,6.697845459E-2,-3.328948915E-1
3.898655055E0,1.728390306E-1,6.271740049E-2,-3.328948915E-1
3.901142763E0,1.685779691E-1,5.739107728E-2,-3.339601457E-1
3.903630471E0,1.632516533E-1,4.993423447E-2,-3.339601457E-1
3.906118180E0,1.568600684E-1,4.354264960E-2,-3.318296373E-1
3.908605888E0,1.515337527E-1,3.608580679E-2,-3.307643533E-1
3.911093596E0,1.451421678E-1,2.862896025E-2,-3.286338449E-1
3.913581305E0,1.398158520E-1,2.223737910E-2,-3.265033066E-1
3.916069013E0,1.366200596E-1,1.691105962E-2,-3.233075142E-1
3.918556721E0,1.323590130E-1,1.265000552E-2,-3.190464675E-1
3.921044430E0,1.270326823E-1,1.158474199E-2,-3.158506751E-1
3.923532138E0,1.238368973E-1,1.371526904E-2,-3.115896285E-1
3.926019846E0,1.174453199E-1,1.797632314E-2,-3.051980436E-1
3.928507555E0,1.110537350E-1,2.543316968E-2,-2.977411747E-1
3.930995263E0,1.046621501E-1,3.502054140E-2,-2.902843356E-1
3.933482971E0,9.933583438E-2,4.780370742E-2,-2.817622423E-1
3.935970680E0,9.400951862E-2,6.165213138E-2,-2.732401192E-1
3.938458388E0,9.081372619E-2,7.763108611E-2,-2.636527419E-1
3.940946096E0,8.761793375E-2,9.574057162E-2,-2.551306486E-1
3.943433805E0,8.229161799E-2,1.159805804E-1,-2.455432713E-1
3.945921513E0,7.483477145E-2,1.394163817E-1,-2.327601016E-1
3.948409221E0,6.524740160E-2,1.649827063E-1,-2.199769467E-1
3.950896930E0,5.459476262E-2,1.894837767E-1,-2.061285079E-1
3.953384638E0,4.287686199E-2,2.129195631E-1,-1.912148297E-1
3.955872346E0,3.222422674E-2,2.331595868E-1,-1.752358675E-1
3.958360055E0,2.157158963E-2,2.502037883E-1,-1.581916511E-1
3.960847763E0,1.198421605E-2,2.587259114E-1,-1.411474347E-1
3.963335471E0,5.592633970E-3,2.587259114E-1,-1.251684725E-1
3.965823180E0,1.331579522E-3,2.512690723E-1,-1.102547869E-1
3.968310888E0,-1.864211401E-3,2.352901101E-1,-9.534109384E-2
3.970798596E0,-6.125265732E-3,2.118543088E-1,-8.255793154E-2
3.973286305E0,-1.145158429E-2,1.841574460E-1,-7.297056168E-2
3.975774013E0,-1.997369342E-2,1.511342824E-1,-6.444845349E-2
3.978261721E0,-2.956106514E-2,1.170458421E-1,-5.592634156E-2
3.980749430E0,-4.021370411E-2,8.402267098E-2,-4.953476042E-2
3.983237138E0,-4.873581231E-2,5.313002318E-2,-4.420844093E-2
3.985724846E0,-5.832318589E-2,2.649843320E-2,-3.994738683E-2
3.988212555E0,-6.471476704E-2,4.127896391E-3,-3.675159439E-2
3.990700263E0,-6.897582114E-2,-1.611211337E-2,-3.355580568E-2
3.993187971E0,-7.323687524E-2,-3.528685868E-2,-3.142527863E-2
3.995675680E0,-7.643266767E-2,-5.339634046E-2,-3.142527863E-2
3.998163388E0,-7.962846011E-2,-7.363634557E-2,-3.142527863E-2
4.000651096E0,-8.282424510E-2,-9.494162351E-2,-3.142527863E-2
4.003138805E0,-8.602003753E-2,-1.162468940E-1,-3.249054030E-2
4.005626513E0,-9.028109163E-2,-1.354216337E-1,-3.249054030E-2
4.008114221E0,-9.454214573E-2,-1.535311192E-1,-3.142527863E-2
4.010601930E0,-9.880319983E-2,-1.652490199E-1,-2.929474972E-2
4.013089638E0,-1.041295230E-1,-1.716406047E-1,-2.716422267E-2
4.015577346E0,-1.115863696E-1,-1.727058738E-1,-2.396843210E-2
4.018065055E0,-1.201084778E-1,-1.695100814E-1,-1.970737800E-2
4.020552763E0,-1.307611167E-1,-1.599227041E-1,-1.438105945E-2
4.023040471E0,-1.435442716E-1,-1.482048035E-1,-1.012000442E-2
4.025528180E0,-1.573926955E-1,-1.343563795E-1,-5.858949851E-3
4.028015888E0,-1.712411344E-1,-1.194426864E-1,-1.597895520E-3
4.030503596E0,-1.850895584E-1,-1.055942550E-1,3.728422802E-3
4.032991357E0,-1.989379823E-1,-9.387636185E-2,1.118526794E-2
4.035479117E0,-2.127864063E-1,-8.215846121E-2,1.757685095E-2
4.037966878E0,-2.298306376E-1,-7.363634557E-2,2.609895915E-2
4.040454638E0,-2.479401082E-1,-6.617950648E-2,3.462106735E-2
4.042942399E0,-2.681801319E-1,-6.191844866E-2,4.314317927E-2
4.045430159E0,-2.873548567E-1,-5.659212917E-2,5.379581451E-2
4.047917919E0,-3.054643571E-1,-5.339634046E-2,6.338318437E-2
4.050405680E0,-3.214432895E-1,-4.913528636E-2,7.297056168E-2
4.052893440E0,-3.342264593E-1,-4.700475931E-2,8.255793154E-2
4.055381201E0,-3.459443748E-1,-4.807002097E-2,9.214530140E-2
4.057868961E0,-3.565970063E-1,-5.233107507E-2,1.017326787E-1
4.060356721E0,-3.672496378E-1,-5.978792161E-2,1.113200486E-1
4.062844482E0,-3.800328076E-1,-7.150582224E-2,1.209074259E-1
4.065332242E0,-3.906854391E-1,-8.535424620E-2,1.304948032E-1
4.067820003E0,-3.992075622E-1,-9.920267761E-2,1.411474347E-1
4.070307763E0,-4.055991173E-1,-1.119858399E-1,1.528653353E-1
4.072795524E0,-4.098601937E-1,-1.205079481E-1,1.656484902E-1
4.075283284E0,-4.130559862E-1,-1.268995255E-1,1.794969290E-1
4.077771044E0,-4.162517786E-1,-1.322258562E-1,1.922800839E-1
4.080258805E0,-4.205128253E-1,-1.364869028E-1,2.050632536E-1
4.082746565E0,-4.258391261E-1,-1.418132186E-1,2.178464085E-1
4.085234326E0,-4.301002026E-1,-1.460742801E-1,2.316948473E-1
4.087722086E0,-4.332959950E-1,-1.503353268E-1,2.444780022E-1
4.090209846E0,-4.343612492E-1,-1.524658650E-1,2.593916953E-1
4.092697607E0,-4.354265034E-1,-1.524658650E-1,2.732401192E-1
4.095185367E0,-4.375570416E-1,-1.482048035E-1,2.870885432E-1
4.097673128E0,-4.418180883E-1,-1.386174262E-1,3.020022511E-1
4.100160888E0,-4.482096732E-1,-1.247690022E-1,3.169159293E-1
4.102648649E0,-4.588623047E-1,-1.055942550E-1,3.318296373E-1
4.105136409E0,-4.705802202E-1,-8.428898454E-2,3.456780612E-1
4.107624169E0,-4.833633900E-1,-6.085318699E-2,3.605917394E-1
4.110111930E0,-4.929507375E-1,-3.741738573E-2,3.744401634E-1
4.112599690E0,-5.025381446E-1,-1.504684892E-2,3.872233331E-1
4.115087451E0,-5.078644156E-1,4.127896391E-3,4.000065029E-1
4.117575211E0,-5.121254921E-1,2.117211558E-2,4.117243886E-1
4.120062971E0,-5.163865685E-1,3.395527974E-2,4.234423041E-1
4.122550732E0,-5.217128396E-1,4.460791498E-2,4.362254739E-1
4.125038492E0,-5.291697383E-1,5.313002318E-2,4.479433596E-1
4.127526253E0,-5.366265774E-1,5.952160433E-2,4.607265294E-1
4.130014013E0,-5.462139249E-1,6.591318548E-2,4.756402075E-1
4.132501774E0,-5.568665862E-1,6.804371625E-2,4.905539155E-1
4.134989482E0,-5.685844421E-1,6.804371625E-2,5.054675937E-1
4.137477190E0,-5.792371035E-1,6.484792382E-2,5.214465261E-1
4.139964899E0,-5.898897648E-1,5.845634267E-2,5.384907722E-1
4.142452607E0,-5.994771123E-1,4.780370742E-2,5.544697046E-1
4.144940315E0,-6.079992056E-1,3.502054140E-2,5.704486966E-1
4.147428024E0,-6.143907905E-1,1.797632314E-2,5.874928832E-1
4.149915732E0,-6.175866127E-1,-1.331579551E-4,6.034718752E-1
4.152403440E0,-6.207823753E-1,-2.037316747E-2,6.205160618E-1
4.154891149E0,-6.229129434E-1,-4.061317816E-2,6.375603080E-1
4.157378857E0,-6.250434518E-1,-5.978792161E-2,6.546044946E-1
4.159866565E0,-6.271739602E-1,-7.576687634E-2,6.716487408E-1
4.162354274E0,-6.293044686E-1,-8.961530030E-2,6.865624189E-1
4.164841982E0,-6.325002909E-1,-9.920267761E-2,6.993455887E-1
4.167329690E0,-6.367613673E-1,-1.055942550E-1,7.110635042E-1
4.169817399E0,-6.420876384E-1,-1.087900475E-1,7.217161059E-1
4.172305107E0,-6.484792233E-1,-1.098553166E-1,7.313035131E-1
4.174792815E0,-6.548708081E-1,-1.066595241E-1,7.376950979E-1
4.177280524E0,-6.591318846E-1,-1.002679393E-1,7.451519370E-1
4.179768232E0,-6.601971388E-1,-8.748477697E-2,7.515435219E-1
4.182255940E0,-6.580666304E-1,-6.937529147E-2,7.568697929E-1
4.184743649E0,-6.559360623E-1,-4.807002097E-2,7.600656152E-1
4.187231357E0,-6.559360623E-1,-2.569948509E-2,7.611308694E-1
4.189719065E0,-6.612623930E-1,-4.394212738E-3,7.600656152E-1
4.192206774E0,-6.697844863E-1,1.584579609E-2,7.579351068E-1
4.194694482E0,-6.857634783E-1,3.395527974E-2,7.558045387E-1
4.197182190E0,-7.028076649E-1,4.993423447E-2,7.558045387E-1
4.199669899E0,-7.209171653E-1,6.378266215E-2,7.568697929E-1
4.202157607E0,-7.368960977E-1,7.763108611E-2,7.590003610E-1
4.204645315E0,-7.496792674E-1,8.828372508E-2,7.643266916E-1
4.207133024E0,-7.582014203E-1,9.787109494E-2,7.685877085E-1
4.209620732E0,-7.624624372E-1,1.063932031E-1,7.749792933E-1
4.212108440E0,-7.635276914E-1,1.159805804E-1,7.813708782E-1
4.214596149E0,-7.603319287E-1,1.245026886E-1,7.877624631E-1
4.217083857E0,-7.560708523E-1,1.319595277E-1,7.952193022E-1
4.219571565E0,-7.518098354E-1,1.383511126E-1,8.026761413E-1
4.222059274E0,-7.475487590E-1,1.404816359E-1,8.111982346E-1
4.224546982E0,-7.475487590E-1,1.383511126E-1,8.197203875E-1
4.227034690E0,-7.507445216E-1,1.298290044E-1,8.293077350E-1
4.229522399E0,-7.539403439E-1,1.159805804E-1,8.410256505E-1
4.232010107E0,-7.592666745E-1,9.467530251E-2,8.516782522E-1
4.234497815E0,-7.635276914E-1,7.017423958E-2,8.644614220E-1
4.236985524E0,-7.656582594E-1,4.354264960E-2,8.783098459E-1
4.239473232E0,-7.656582594E-1,1.584579609E-2,8.910930157E-1
4.241960940E0,-7.613971829E-1,-1.185105834E-2,9.038761854E-1
4.244448649E0,-7.582014203E-1,-3.635212034E-2,9.166593552E-1
4.246936357E0,-7.518098354E-1,-5.978792161E-2,9.273120165E-1
4.249424065E0,-7.464835048E-1,-7.896266878E-2,9.368993640E-1
4.251911774E0,-7.379614115E-1,-9.387636185E-2,9.443562031E-1
4.254399482E0,-7.283740044E-1,-1.055942550E-1,9.486172795E-1
4.256887190E0,-7.177214026E-1,-1.119858399E-1,9.507477880E-1
4.259374899E0,-7.070687413E-1,-1.162468940E-1,9.486172795E-1
4.261862607E0,-6.974813938E-1,-1.183774248E-1,9.422256947E-1
4.264350315E0,-6.878939867E-1,-1.194426864E-1,9.326383471E-1
4.266838024E0,-6.772413850E-1,-1.162468940E-1,9.198551774E-1
4.269325732E0,-6.665887237E-1,-1.098553166E-1,9.038761854E-1
4.271813440E0,-6.559360623E-1,-1.013332009E-1,8.836361766E-1
4.274301149E0,-6.463487148E-1,-9.281109273E-2,8.602004051E-1
4.276788857E0,-6.399571300E-1,-8.641951531E-2,8.335688114E-1
4.279276565E0,-6.367613673E-1,-8.428898454E-2,8.037413955E-1
4.281764274E0,-6.367613673E-1,-8.748477697E-2,7.739140391E-1
4.284252034E0,-6.367613673E-1,-9.387636185E-2,7.430213690E-1
4.286739794E0,-6.378266215E-1,-1.045289934E-1,7.142592669E-1
4.289227555E0,-6.388918757E-1,-1.173121557E-1,6.886929274E-1
4.291715315E0,-6.378266215E-1,-1.311605871E-1,6.673876643E-1
4.294203076E0,-6.346307993E-1,-1.460742801E-1,6.524739861E-1
4.296690836E0,-6.303697824E-1,-1.620532274E-1,6.418213248E-1
4.299178596E0,-6.239781976E-1,-1.812279820E-1,6.364950538E-1
4.301666357E0,-6.165213585E-1,-2.035985142E-1,6.343644857E-1
4.304154117E0,-6.101297736E-1,-2.312953621E-1,6.364950538E-1
4.306641878E0,-6.058686972E-1,-2.653838098E-1,6.418213248E-1
4.309129638E0,-6.037381887E-1,-3.058638275E-1,6.514087319E-1
4.311617399E0,-6.005423665E-1,-3.506048918E-1,6.641919017E-1
4.314105159E0,-5.973466039E-1,-3.974764943E-1,6.780403256E-1
4.316592919E0,-5.909550190E-1,-4.411523044E-1,6.940192580E-1
4.319080680E0,-5.803023577E-1,-4.784365296E-1,7.121287584E-1
4.321568440E0,-5.664539337E-1,-5.061333776E-1,7.281076908E-1
4.324056201E0,-5.483444333E-1,-5.189165473E-1,7.419561148E-1
4.326543961E0,-5.270391703E-1,-5.199818015E-1,7.526087761E-1
4.329031721E0,-5.046686530E-1,-5.061333776E-1,7.579351068E-1
4.331519482E0,-4.844286442E-1,-4.826975763E-1,7.590003610E-1
4.334007242E0,-4.641886353E-1,-4.528702199E-1,7.547392845E-1
4.336495003E0,-4.460791349E-1,-4.187817574E-1,7.451519370E-1
4.338982763E0,-4.322307110E-1,-3.846933246E-1,7.323687673E-1
4.341470524E0,-4.194475710E-1,-3.506048918E-1,7.163897753E-1
4.343958284E0,-4.087949097E-1,-3.197122514E-1,7.004108429E-1
4.346446044E0,-4.002728164E-1,-2.909501195E-1,6.833665967E-1
4.348933805E0,-3.917506933E-1,-2.621880174E-1,6.673876643E-1
4.351421565E0,-3.832286000E-1,-2.344911546E-1,6.503434777E-1
4.353909326E0,-3.747064769E-1,-2.057290375E-1,6.311687231E-1
4.356397086E0,-3.672496378E-1,-1.769669205E-1,6.119939685E-1
4.358884846E0,-3.629885912E-1,-1.482048035E-1,5.917539597E-1
4.361372607E0,-3.629885912E-1,-1.226384789E-1,5.693834424E-1
4.363860367E0,-3.661843836E-1,-1.002679393E-1,5.470128655E-1
4.366348128E0,-3.725759685E-1,-8.215846121E-2,5.278381109E-1
4.368835888E0,-3.810980618E-1,-6.831002980E-2,5.086634159E-1
4.371323649E0,-3.896201849E-1,-5.872265995E-2,4.937497079E-1
4.373811409E0,-3.981422782E-1,-5.233107507E-2,4.799012840E-1
4.376299169E0,-4.066644013E-1,-4.913528636E-2,4.692486227E-1
4.378786930E0,-4.130559862E-1,-4.913528636E-2,4.617917836E-1
4.381274690E0,-4.226433635E-1,-5.233107507E-2,4.564654827E-1
4.383762451E0,-4.301002026E-1,-5.552686751E-2,4.543349445E-1
4.386250211E0,-4.375570416E-1,-6.085318699E-2,4.522044063E-1
4.388737919E0,-4.460791349E-1,-6.831002980E-2,4.532696903E-1
4.391225628E0,-4.556665123E-1,-7.576687634E-2,4.575307369E-1
4.393713336E0,-4.641886353E-1,-8.322372288E-2,4.628570378E-1
4.396201044E0,-4.705802202E-1,-9.068056941E-2,4.713791609E-1
4.398688753E0,-4.748412669E-1,-9.600688517E-2,4.799012840E-1
4.401176461E0,-4.759065211E-1,-9.920267761E-2,4.884233773E-1
4.403664169E0,-4.737760127E-1,-1.013332009E-1,4.958802164E-1
4.406151878E0,-4.684496820E-1,-1.002679393E-1,5.001412630E-1
4.408639586E0,-4.609928429E-1,-9.600688517E-2,5.001412630E-1
4.411127294E0,-4.514054656E-1,-9.174583107E-2,4.969455004E-1
4.413615003E0,-4.396875799E-1,-8.855003864E-2,4.905539155E-1
4.416102711E0,-4.301002026E-1,-8.748477697E-2,4.788360000E-1
4.418590419E0,-4.183822870E-1,-9.068056941E-2,4.649875760E-1
4.421078128E0,-4.077296555E-1,-9.813741595E-2,4.490086138E-1
4.423565836E0,-3.970770240E-1,-1.098553166E-1,4.340949357E-1
4.426053544E0,-3.853591084E-1,-1.247690022E-1,4.191812575E-1
4.428541253E0,-3.736412227E-1,-1.418132186E-1,4.042675495E-1
4.431028961E0,-3.608580530E-1,-1.609879732E-1,3.893538713E-1
4.433516669E0,-3.502054214E-1,-1.822932363E-1,3.733749092E-1
4.436004378E0,-3.384875357E-1,-2.035985142E-1,3.584612012E-1
4.438492086E0,-3.267696202E-1,-2.259690464E-1,3.424822688E-1
4.440979794E0,-3.171822429E-1,-2.462090552E-1,3.254380524E-1
4.443467503E0,-3.086601496E-1,-2.632532716E-1,3.083938360E-1
4.445955211E0,-3.022685647E-1,-2.781669796E-1,2.881538272E-1
4.448442919E0,-2.990727723E-1,-2.898848653E-1,2.689790726E-1
4.450930628E0,-2.980075181E-1,-2.952111959E-1,2.498043180E-1
4.453418336E0,-2.969422340E-1,-2.920154035E-1,2.306295782E-1
4.455906044E0,-2.969422340E-1,-2.802974880E-1,2.125200927E-1
4.458393753E0,-2.958769798E-1,-2.611227632E-1,1.954758763E-1
4.460881461E0,-2.969422340E-1,-2.376869470E-1,1.794969290E-1
4.463369169E0,-2.990727723E-1,-2.099900991E-1,1.645832360E-1
4.465856878E0,-3.033338189E-1,-1.801627129E-1,1.518000662E-1
4.468344586E0,-3.065296113E-1,-1.503353268E-1,1.432779580E-1
4.470832294E0,-3.097254038E-1,-1.215732098E-1,1.379516423E-1
4.473320003E0,-3.107906580E-1,-9.174583107E-2,1.368863732E-1
4.475807711E0,-3.107906580E-1,-6.404897571E-2,1.379516423E-1
4.478295419E0,-3.097254038E-1,-3.741738573E-2,1.422126889E-1
4.480783128E0,-3.054643571E-1,-1.398158539E-2,1.486042738E-1
4.483270836E0,-3.022685647E-1,6.258423906E-3,1.581916511E-1
4.485758544E0,-2.969422340E-1,2.117211558E-2,1.688442826E-1
4.488246253E0,-2.894853950E-1,3.502054140E-2,1.816274524E-1
4.490733961E0,-2.788327634E-1,4.354264960E-2,1.922800839E-1
4.493221669E0,-2.649843395E-1,5.099949613E-2,2.018674612E-1
4.495709378E0,-2.490053773E-1,5.632581562E-2,2.071937770E-1
4.498197086E0,-2.308958918E-1,5.952160433E-2,2.103895694E-1
4.500684794E0,-2.074600905E-1,6.697845459E-2,2.093243003E-1
4.503172503E0,-1.829590350E-1,7.337003201E-2,2.050632536E-1
4.505660211E0,-1.659148186E-1,7.337003201E-2,1.986716688E-1
4.508147919E0,-1.499358565E-1,6.378266215E-2,1.912148297E-1
4.510635628E0,-1.360874325E-1,4.673844203E-2,1.794969290E-1
4.513123336E0,-1.201084778E-1,2.543316968E-2,1.656484902E-1
4.515611044E0,-1.030642539E-1,4.127896391E-3,1.475390196E-1
4.518098753E0,-8.388951421E-2,-1.185105834E-2,1.272990108E-1
4.520586461E0,-6.471476704E-2,-2.356895804E-2,1.059937328E-1
4.523074169E0,-4.873581231E-2,-2.996053919E-2,8.255793154E-2
4.525561878E0,-3.701791167E-2,-3.422159329E-2,5.912213027E-2
4.528049586E0,-2.956106514E-2,-4.061317816E-2,3.568633273E-2
4.530537294E0,-2.636527456E-2,-4.913528636E-2,1.438105945E-2
4.533025003E0,-2.636527456E-2,-6.085318699E-2,-5.858949851E-3
4.535512711E0,-2.530001104E-2,-7.576687634E-2,-2.396843210E-2
4.538000471E0,-2.423474751E-2,-9.068056941E-2,-3.994738683E-2
4.540488232E0,-2.316948399E-2,-1.034637317E-1,-5.379581451E-2
4.542975992E0,-1.997369342E-2,-1.130511016E-1,-6.338318437E-2
4.545463753E0,-1.890842989E-2,-1.151816323E-1,-7.084003091E-2
4.547951513E0,-1.784316637E-2,-1.109205782E-1,-7.510108501E-2
4.550439274E0,-1.677790284E-2,-1.002679393E-1,-7.829687744E-2
4.552927034E0,-1.571263932E-2,-8.428898454E-2,-7.936213911E-2
4.555414794E0,-1.464737486E-2,-6.617950648E-2,-8.042740822E-2
4.557902555E0,-1.358211134E-2,-4.700475931E-2,-8.362319320E-2
4.560390315E0,-1.358211134E-2,-3.102580272E-2,-8.468846232E-2
4.562878076E0,-1.464737486E-2,-1.717737690E-2,-8.575372398E-2
4.565365836E0,-1.464737486E-2,-7.590003312E-3,-8.575372398E-2
4.567853596E0,-1.358211134E-2,-1.198421582E-3,-8.362319320E-2
4.570341357E0,-1.145158429E-2,1.997369342E-3,-8.149266988E-2
4.572829117E0,-7.190529723E-3,5.193160381E-3,-7.723161578E-2
4.575316878E0,-7.989477599E-4,7.323687430E-3,-7.084003091E-2
4.577804638E0,6.657897960E-3,7.323687430E-3,-6.444845349E-2
4.580292399E0,1.624527015E-2,4.127896391E-3,-5.699160323E-2
4.582780159E0,2.476738021E-2,-3.328948980E-3,-5.060002208E-2
4.585267919E0,3.222422674E-2,-1.398158539E-2,-4.420844093E-2
4.587755680E0,4.074633494E-2,-2.889527567E-2,-3.888212144E-2
4.590243440E0,4.820318148E-2,-4.807002097E-2,-3.355580568E-2
4.592731201E0,5.566002429E-2,-6.511423737E-2,-2.929474972E-2
4.595218961E0,6.311687082E-2,-8.109319210E-2,-2.609895915E-2
4.597706721E0,7.057371736E-2,-9.600688517E-2,-2.609895915E-2
4.600194482E0,7.803056389E-2,-1.055942550E-1,-2.822948620E-2
4.602682242E0,8.548741043E-2,-1.109205782E-1,-3.462106735E-2
4.605170003E0,9.187898785E-2,-1.119858399E-1,-4.420844093E-2
4.607657763E0,9.720530361E-2,-1.087900475E-1,-5.805686861E-2
4.610145524E0,1.004010960E-1,-1.034637317E-1,-7.297056168E-2
4.612633284E0,1.035968885E-1,-9.600688517E-2,-8.788424730E-2
4.615121044E0,1.057274193E-1,-8.961530030E-2,-1.027979404E-1
4.617608805E0,1.089232042E-1,-8.641951531E-2,-1.155811027E-1
4.620096565E0,1.110537350E-1,-8.535424620E-2,-1.272990108E-1
4.622584326E0,1.142495275E-1,-8.641951531E-2,-1.358211190E-1
4.625072086E0,1.174453199E-1,-8.855003864E-2,-1.422126889E-1
4.627559846E0,1.195758432E-1,-9.281109273E-2,-1.475390196E-1
4.630047607E0,1.227716357E-1,-9.600688517E-2,-1.518000662E-1
4.632535367E0,1.238368973E-1,-9.920267761E-2,-1.539305896E-1
4.635023128E0,1.249021590E-1,-1.034637317E-1,-1.571263820E-1
4.637510888E0,1.259674281E-1,-1.077247858E-1,-1.592569202E-1
4.639998649E0,1.238368973E-1,-1.119858399E-1,-1.603221744E-1
4.642486357E0,1.238368973E-1,-1.205079481E-1,-1.592569202E-1
4.644974065E0,1.217063740E-1,-1.300953180E-1,-1.571263820E-1
4.647461774E0,1.206411049E-1,-1.418132186E-1,-1.518000662E-1
4.649949482E0,1.195758432E-1,-1.535311192E-1,-1.432779580E-1
4.652437190E0,1.206411049E-1,-1.652490199E-1,-1.315600574E-1
4.654924899E0,1.217063740E-1,-1.759016514E-1,-1.177116334E-1
4.657412607E0,1.238368973E-1,-1.854890287E-1,-1.017326787E-1
4.659900315E0,1.249021590E-1,-1.940111369E-1,-8.468846232E-2
4.662388024E0,1.249021590E-1,-2.014679909E-1,-6.657897681E-2
4.664875732E0,1.238368973E-1,-2.067943066E-1,-4.953476042E-2
4.667363440E0,1.217063740E-1,-2.110553533E-1,-3.355580568E-2
4.669851149E0,1.185105816E-1,-2.110553533E-1,-1.757685095E-2
4.672338857E0,1.153147891E-1,-2.110553533E-1,-3.728422802E-3
4.674826565E0,1.110537350E-1,-2.099900991E-1,9.054740891E-3
4.677314274E0,1.057274193E-1,-2.078595608E-1,1.970737800E-2
4.679801982E0,9.933583438E-2,-2.035985142E-1,2.716422267E-2
4.682289690E0,9.294424951E-2,-1.961416751E-1,3.249054030E-2
4.684777399E0,8.548741043E-2,-1.865542978E-1,3.675159439E-2
4.687265107E0,7.909582555E-2,-1.759016514E-1,3.994738683E-2
4.689752815E0,7.270424068E-2,-1.620532274E-1,4.207791388E-2
4.692240524E0,6.631266326E-2,-1.471395344E-1,4.527370632E-2
4.694728232E0,6.098634377E-2,-1.332911104E-1,4.740423337E-2
4.697215940E0,5.459476262E-2,-1.194426864E-1,5.060002208E-2
4.699703649E0,4.926844314E-2,-1.055942550E-1,5.273054913E-2
4.702191357E0,4.500738904E-2,-9.281109273E-2,5.486107618E-2
4.704679065E0,4.181159660E-2,-8.109319210E-2,5.486107618E-2
4.707166774E0,3.968106955E-2,-6.937529147E-2,5.379581451E-2
4.709654482E0,3.968106955E-2,-5.872265995E-2,4.953476042E-2
4.712142190E0,4.181159660E-2,-4.807002097E-2,4.314317927E-2
4.714629899E0,4.500738904E-2,-3.848264739E-2,3.355580568E-2
4.717117607E0,5.033370852E-2,-3.102580272E-2,2.183790505E-2
4.719605315E0,5.672528967E-2,-2.569948509E-2,9.054740891E-3
4.722093024E0,6.311687082E-2,-2.356895804E-2,-4.793686327E-3
4.724580732E0,7.057371736E-2,-2.676474862E-2,-2.077264152E-2
4.727068440E0,7.803056389E-2,-3.102580272E-2,-3.568633273E-2
4.729556149E0,8.548741043E-2,-3.954791278E-2,-4.953476042E-2
4.732043857E0,9.400951862E-2,-4.913528636E-2,-6.338318437E-2
4.734531565E0,1.025316268E-1,-6.085318699E-2,-7.510108501E-2
4.737019274E0,1.099884734E-1,-7.257108390E-2,-8.468846232E-2
4.739506982E0,1.174453199E-1,-8.535424620E-2,-9.214530140E-2
4.741994690E0,1.270326823E-1,-9.813741595E-2,-9.853688627E-2
4.744482399E0,1.376853287E-1,-1.141163707E-1,-1.027979404E-1
4.746970107E0,1.302284747E-1,-1.386174262E-1,-9.853688627E-2
4.749457815E0,8.016108721E-2,-1.609879732E-1,-6.444845349E-2
4.751945524E0,-6.125265732E-3,-1.514005959E-1,1.757685095E-2
4.754433232E0,-9.028109163E-2,-8.855003864E-2,1.486042738E-1
4.756920940E0,-1.222390011E-1,1.478053257E-2,3.083938360E-1
4.759408649E0,-8.921582997E-2,1.149153188E-1,4.607265294E-1
4.761896357E0,-6.125265732E-3,1.703090221E-1,5.715139508E-1
4.764384065E0,8.016108721E-2,1.767006069E-1,6.194508076E-1
4.766871774E0,1.270326823E-1,1.596563905E-1,6.077328920E-1
4.769359482E0,1.206411049E-1,1.564605981E-1,5.523391962E-1
4.771847190E0,6.631266326E-2,1.820269227E-1,4.713791609E-1
4.774334899E0,-1.358211134E-2,2.171806246E-1,3.765707016E-1
4.776822607E0,-8.495477587E-2,2.342248410E-1,2.775011659E-1
4.779310315E0,-1.190432087E-1,2.065279931E-1,1.773663908E-1
4.781798024E0,-1.083905771E-1,1.234374270E-1,8.362319320E-2
4.784285732E0,-6.258423626E-2,4.127896391E-3,7.989477366E-3
4.786773440E0,-1.145158429E-2,-1.205079481E-1,-3.994738683E-2
4.789261149E0,1.944106072E-2,-2.195774615E-1,-5.486107618E-2
4.791748909E0,1.731053367E-2,-2.707101107E-1,-4.101264849E-2
4.794236669E0,-7.190529723E-3,-2.717753947E-1,-1.012000442E-2
4.796724430E0,-3.169159219E-2,-2.376869470E-1,2.290316857E-2
4.799212190E0,-3.595264629E-2,-1.876195520E-1,4.846949503E-2
4.801699951E0,-1.677790284E-2,-1.354216337E-1,5.912213027E-2
4.804187711E0,1.411474310E-2,-8.961530030E-2,5.699160323E-2
4.806675471E0,3.755054250E-2,-4.487423226E-2,4.953476042E-2
4.809163232E0,4.287686199E-2,6.258423906E-3,4.101264849E-2
4.811650992E0,3.222422674E-2,6.271740049E-2,3.888212144E-2
4.814138753E0,1.837579720E-2,1.213068962E-1,4.207791388E-2
4.816626513E0,1.731053367E-2,1.692437679E-1,5.060002208E-2
4.819114274E0,2.902843431E-2,2.012016773E-1,6.231792271E-2
4.821602034E0,4.820318148E-2,2.107890397E-1,7.829687744E-2
4.824089794E0,6.311687082E-2,2.075932473E-1,9.747162461E-2
4.826577555E0,6.737792492E-2,2.001364082E-1,1.198421568E-1
4.829065315E0,6.098634377E-2,1.948100924E-1,1.443432271E-1
4.831553076E0,5.352949724E-2,1.937448233E-1,1.645832360E-1
4.834040836E0,5.246423557E-2,1.948100924E-1,1.805621833E-1
4.836528596E0,5.779055133E-2,1.926795542E-1,1.890842915E-1
4.839016357E0,6.524740160E-2,1.820269227E-1,1.912148297E-1
4.841504117E0,6.844318658E-2,1.671132296E-1,1.901495606E-1
4.843991878E0,6.418213248E-2,1.521995366E-1,1.869537681E-1
4.846479638E0,5.246423557E-2,1.383511126E-1,1.837579757E-1
4.848967399E0,3.968106955E-2,1.266332120E-1,1.794969290E-1
4.851455159E0,3.009369783E-2,1.170458421E-1,1.752358675E-1
4.853942919E0,2.476738021E-2,1.053279415E-1,1.709748209E-1
4.856430680E0,2.157158963E-2,9.041424841E-2,1.667137593E-1
4.858918440E0,1.731053367E-2,7.443529367E-2,1.635179669E-1
4.861406201E0,8.788425475E-3,6.058686972E-2,1.635179669E-1
4.863893961E0,-2.929474926E-3,4.993423447E-2,1.656484902E-1
4.866381721E0,-1.571263932E-2,4.354264960E-2,1.688442826E-1
4.868869482E0,-2.423474751E-2,4.034686089E-2,1.709748209E-1
4.871357242E0,-2.956106514E-2,4.141212255E-2,1.731053442E-1
4.873845003E0,-3.275685757E-2,4.460791498E-2,1.752358675E-1
4.876332763E0,-3.488738462E-2,5.099949613E-2,1.752358675E-1
4.878820524E0,-3.914843872E-2,5.952160433E-2,1.752358675E-1
4.881308284E0,-4.447475821E-2,7.123950869E-2,1.763011366E-1
4.883796044E0,-4.873581231E-2,8.402267098E-2,1.763011366E-1
4.886283805E0,-5.086633936E-2,9.574057162E-2,1.741705984E-1
4.888771565E0,-4.873581231E-2,1.053279415E-1,1.731053442E-1
4.891259326E0,-4.447475821E-2,1.127847880E-1,1.699095517E-1
4.893747086E0,-3.914843872E-2,1.202416345E-1,1.677790284E-1
4.896234794E0,-3.595264629E-2,1.255679578E-1,1.635179669E-1
4.898722503E0,-3.382211924E-2,1.298290044E-1,1.603221744E-1
4.901210211E0,-3.169159219E-2,1.319595277E-1,1.549958587E-1
4.903697919E0,-2.636527456E-2,1.340900660E-1,1.475390196E-1
4.906185628E0,-2.103895694E-2,1.340900660E-1,1.390169114E-1
4.908673336E0,-1.358211134E-2,1.319595277E-1,1.304948032E-1
4.911161044E0,-7.190529723E-3,1.308942735E-1,1.219726875E-1
4.913648753E0,-2.929474926E-3,1.266332120E-1,1.113200486E-1
4.916136461E0,2.396843163E-3,1.223721579E-1,1.017326787E-1
4.918624169E0,7.723161485E-3,1.170458421E-1,9.214530140E-2
4.921111878E0,1.304947957E-2,1.106542572E-1,8.149266988E-2
4.923599586E0,2.050632425E-2,1.031974182E-1,7.297056168E-2
4.926087294E0,2.796317078E-2,9.574057162E-2,6.444845349E-2
4.928575003E0,3.328948840E-2,8.934898674E-2,5.699160323E-2
4.931062711E0,3.755054250E-2,8.402267098E-2,4.953476042E-2
4.933550419E0,4.074633494E-2,7.976161689E-2,4.207791388E-2
4.936038128E0,4.287686199E-2,7.337003201E-2,3.568633273E-2
4.938525836E0,4.500738904E-2,6.804371625E-2,3.036001325E-2
4.941013544E0,4.713791609E-2,6.165213138E-2,2.609895915E-2
4.943501253E0,4.820318148E-2,5.739107728E-2,2.290316857E-2
4.945988961E0,4.820318148E-2,5.313002318E-2,2.077264152E-2
4.948476669E0,4.926844314E-2,4.993423447E-2,1.970737800E-2
4.950964378E0,4.820318148E-2,4.886896908E-2,2.077264152E-2
4.953452086E0,4.820318148E-2,4.993423447E-2,2.183790505E-2
4.955939794E0,4.820318148E-2,5.206476152E-2,2.290316857E-2
4.958427503E0,4.713791609E-2,5.632581562E-2,2.396843210E-2
4.960915211E0,4.394212365E-2,5.952160433E-2,2.609895915E-2
4.963402919E0,4.074633494E-2,6.271740049E-2,2.822948620E-2
4.965890628E0,3.755054250E-2,6.591318548E-2,3.249054030E-2
4.968378336E0,3.222422674E-2,6.804371625E-2,3.568633273E-2
4.970866044E0,2.902843431E-2,6.910897791E-2,4.101264849E-2
4.973353753E0,2.476738021E-2,7.017423958E-2,4.527370632E-2
4.975841461E0,2.157158963E-2,7.337003201E-2,4.953476042E-2
4.978329169E0,1.731053367E-2,7.656582445E-2,5.379581451E-2
4.980816878E0,1.304947957E-2,8.082687855E-2,5.699160323E-2
4.983304586E0,8.788425475E-3,8.721846342E-2,5.912213027E-2
4.985792294E0,3.462106921E-3,9.361004084E-2,6.125266105E-2
