"Time (s)","Gyroscope x (rad/s)","Gyroscope y (rad/s)","Gyroscope z (rad/s)"
4.911411400E-2,-1.251684781E-2,-3.328948980E-3,3.994738683E-2
5.160182300E-2,-1.677790284E-2,-7.590003312E-3,3.462106735E-2
5.408953100E-2,-1.890842989E-2,-1.185105834E-2,3.036001325E-2
5.657723900E-2,-2.316948399E-2,-1.611211337E-2,2.716422267E-2
5.906494800E-2,-2.636527456E-2,-1.930790395E-2,2.290316857E-2
6.155265600E-2,-2.849580161E-2,-2.037316747E-2,2.077264152E-2
6.404036400E-2,-3.062633052E-2,-2.143843099E-2,1.864211448E-2
6.652807300E-2,-3.062633052E-2,-1.930790395E-2,1.651158556E-2
6.901578100E-2,-3.062633052E-2,-1.717737690E-2,1.651158556E-2
7.150348900E-2,-3.062633052E-2,-1.291632187E-2,1.544632297E-2
7.399119800E-2,-2.956106514E-2,-7.590003312E-3,1.544632297E-2
7.647890600E-2,-3.062633052E-2,-2.263685223E-3,1.438105945E-2
7.896661400E-2,-2.956106514E-2,3.062632866E-3,1.438105945E-2
8.145432300E-2,-2.956106514E-2,7.323687430E-3,1.225053146E-2
8.394203100E-2,-2.956106514E-2,1.158474199E-2,1.225053146E-2
8.642973900E-2,-2.849580161E-2,1.584579609E-2,1.118526794E-2
8.891744800E-2,-2.743053809E-2,2.117211558E-2,1.225053146E-2
9.140515600E-2,-2.530001104E-2,2.543316968E-2,1.438105945E-2
9.389286400E-2,-2.316948399E-2,2.969422378E-2,1.651158556E-2
9.638057300E-2,-1.997369342E-2,3.502054140E-2,1.864211448E-2
9.886828100E-2,-1.784316637E-2,3.928159550E-2,2.077264152E-2
1.013559890E-1,-1.571263932E-2,4.354264960E-2,2.396843210E-2
1.038436980E-1,-1.358211134E-2,4.780370742E-2,2.503369562E-2
1.063314060E-1,-1.145158429E-2,4.993423447E-2,2.609895915E-2
1.088191140E-1,-9.321057238E-3,5.313002318E-2,2.609895915E-2
1.113068230E-1,-7.190529723E-3,5.419528857E-2,2.396843210E-2
1.137945310E-1,-6.125265732E-3,5.419528857E-2,2.183790505E-2
1.162822390E-1,-5.060002208E-3,5.313002318E-2,1.970737800E-2
1.187699480E-1,-5.060002208E-3,4.886896908E-2,1.757685095E-2
1.212576560E-1,-7.190529723E-3,4.567318037E-2,1.544632297E-2
1.237453640E-1,-9.321057238E-3,4.034686089E-2,1.225053146E-2
1.262330730E-1,-1.145158429E-2,3.502054140E-2,1.012000442E-2
1.287207810E-1,-1.358211134E-2,2.862896025E-2,1.012000442E-2
1.312084890E-1,-1.571263932E-2,2.330264263E-2,7.989477366E-3
1.336961980E-1,-1.890842989E-2,1.691105962E-2,7.989477366E-3
1.361839060E-1,-1.997369342E-2,1.051947847E-2,5.858949851E-3
1.386716140E-1,-2.316948399E-2,4.127896391E-3,4.793686327E-3
1.411593750E-1,-2.530001104E-2,-1.198421582E-3,2.663159044E-3
1.436471350E-1,-2.849580161E-2,-6.524739787E-3,5.326318205E-4
1.461348960E-1,-3.275685757E-2,-8.655266836E-3,-5.326318205E-4
1.486226560E-1,-3.701791167E-2,-1.185105834E-2,-2.663159044E-3
1.511104160E-1,-3.914843872E-2,-1.398158539E-2,-4.793686327E-3
1.535981770E-1,-4.127896577E-2,-1.504684892E-2,-6.924213842E-3
1.560859370E-1,-4.340949282E-2,-1.398158539E-2,-5.858949851E-3
1.585736980E-1,-4.447475821E-2,-1.185105834E-2,-5.858949851E-3
1.610614580E-1,-4.340949282E-2,-7.590003312E-3,-3.728422802E-3
1.635492190E-1,-4.340949282E-2,-2.263685223E-3,5.326318205E-4
1.660369790E-1,-4.021370411E-2,4.127896391E-3,3.728422802E-3
1.685247390E-1,-3.808317333E-2,1.158474199E-2,6.924213842E-3
1.710125000E-1,-3.488738462E-2,2.010685205E-2,1.118526794E-2
1.735002600E-1,-3.275685757E-2,2.756369673E-2,1.438105945E-2
1.759880210E-1,-2.956106514E-2,3.395527974E-2,1.651158556E-2
1.784757810E-1,-2.636527456E-2,4.034686089E-2,1.864211448E-2
1.809635410E-1,-2.423474751E-2,4.460791498E-2,2.077264152E-2
1.834513020E-1,-2.210422046E-2,4.780370742E-2,2.290316857E-2
1.859390620E-1,-1.997369342E-2,4.886896908E-2,2.503369562E-2
1.884268230E-1,-1.890842989E-2,4.993423447E-2,2.609895915E-2
1.909145830E-1,-1.784316637E-2,4.993423447E-2,2.822948620E-2
1.934023440E-1,-1.677790284E-2,4.780370742E-2,3.036001325E-2
1.958901040E-1,-1.677790284E-2,4.354264960E-2,3.142527863E-2
1.983778640E-1,-1.784316637E-2,4.034686089E-2,3.142527863E-2
2.008656250E-1,-1.784316637E-2,3.608580679E-2,3.036001325E-2
2.033533850E-1,-1.784316637E-2,3.289001435E-2,2.929474972E-2
2.058411460E-1,-1.997369342E-2,2.969422378E-2,2.609895915E-2
2.083289060E-1,-2.103895694E-2,2.649843320E-2,2.290316857E-2
2.108166660E-1,-2.316948399E-2,2.436790615E-2,1.970737800E-2
2.133044270E-1,-2.530001104E-2,2.223737910E-2,1.544632297E-2
2.157921870E-1,-2.849580161E-2,2.117211558E-2,1.225053146E-2
2.182799480E-1,-3.169159219E-2,2.010685205E-2,1.012000442E-2
2.207677080E-1,-3.382211924E-2,1.904158667E-2,7.989477366E-3
2.232554690E-1,-3.595264629E-2,1.904158667E-2,6.924213842E-3
2.257432290E-1,-3.701791167E-2,1.691105962E-2,7.989477366E-3
2.282309890E-1,-3.808317333E-2,1.584579609E-2,9.054740891E-3
2.307187500E-1,-3.808317333E-2,1.371526904E-2,1.012000442E-2
2.332065100E-1,-4.021370411E-2,1.265000552E-2,1.118526794E-2
2.356942710E-1,-4.127896577E-2,1.158474199E-2,1.118526794E-2
2.381820310E-1,-4.234423116E-2,1.158474199E-2,1.225053146E-2
2.406697910E-1,-4.340949282E-2,1.265000552E-2,1.331579592E-2
2.431575520E-1,-4.340949282E-2,1.691105962E-2,1.544632297E-2
2.456453120E-1,-4.234423116E-2,2.223737910E-2,2.077264152E-2
2.481330730E-1,-4.127896577E-2,2.969422378E-2,2.609895915E-2
2.506208330E-1,-4.021370411E-2,3.821633384E-2,3.142527863E-2
2.531085940E-1,-3.595264629E-2,4.780370742E-2,3.888212144E-2
2.555963540E-1,-3.382211924E-2,5.632581562E-2,4.527370632E-2
2.580841140E-1,-2.849580161E-2,6.271740049E-2,5.166528746E-2
2.605718750E-1,-2.530001104E-2,6.804371625E-2,5.592634156E-2
2.630596350E-1,-2.210422046E-2,7.230477035E-2,5.805686861E-2
2.655473960E-1,-1.890842989E-2,7.550056279E-2,5.912213027E-2
2.680351560E-1,-1.677790284E-2,7.763108611E-2,6.018739566E-2
2.705229160E-1,-1.464737486E-2,7.869634777E-2,6.125266105E-2
2.730106250E-1,-1.251684781E-2,7.976161689E-2,6.125266105E-2
2.754983330E-1,-1.038632076E-2,7.976161689E-2,6.231792271E-2
2.779860410E-1,-9.321057238E-3,7.869634777E-2,6.231792271E-2
2.804737500E-1,-6.125265732E-3,7.550056279E-2,6.338318437E-2
2.829614580E-1,-3.994738683E-3,7.230477035E-2,6.444845349E-2
2.854491660E-1,-1.864211401E-3,6.804371625E-2,6.551371515E-2
2.879368750E-1,-7.989477599E-4,6.484792382E-2,6.551371515E-2
2.904245830E-1,1.331579522E-3,6.058686972E-2,6.551371515E-2
2.929122910E-1,1.331579522E-3,5.526055023E-2,6.444845349E-2
2.954000000E-1,1.331579522E-3,4.993423447E-2,6.338318437E-2
2.978877080E-1,2.663159103E-4,4.354264960E-2,6.125266105E-2
3.003754160E-1,-1.864211401E-3,3.608580679E-2,5.912213027E-2
3.028631250E-1,-2.929474926E-3,2.862896025E-2,5.592634156E-2
3.053508330E-1,-5.060002208E-3,2.117211558E-2,5.379581451E-2
3.078385410E-1,-8.255792782E-3,1.265000552E-2,5.060002208E-2
3.103262500E-1,-1.038632076E-2,4.127896391E-3,4.846949503E-2
3.128139580E-1,-1.251684781E-2,-3.328948980E-3,4.633896798E-2
3.153016660E-1,-1.464737486E-2,-1.078579482E-2,4.420844093E-2
3.177893750E-1,-1.571263932E-2,-1.717737690E-2,4.314317927E-2
3.202770830E-1,-1.677790284E-2,-2.356895804E-2,4.207791388E-2
3.227647910E-1,-1.890842989E-2,-2.783001214E-2,4.101264849E-2
3.252525000E-1,-1.890842989E-2,-3.209106624E-2,4.101264849E-2
3.277402080E-1,-1.890842989E-2,-3.315633163E-2,3.888212144E-2
3.302279160E-1,-1.784316637E-2,-3.422159329E-2,3.888212144E-2
3.327156250E-1,-1.677790284E-2,-3.315633163E-2,3.888212144E-2
3.352033330E-1,-1.464737486E-2,-3.209106624E-2,3.888212144E-2
3.376910410E-1,-1.145158429E-2,-2.889527567E-2,3.994738683E-2
3.401787500E-1,-9.321057238E-3,-2.463422157E-2,4.101264849E-2
3.426664580E-1,-7.190529723E-3,-2.250369452E-2,3.888212144E-2
3.451541660E-1,-3.994738683E-3,-1.930790395E-2,3.781685978E-2
3.476418750E-1,-2.929474926E-3,-1.717737690E-2,3.675159439E-2
3.501295830E-1,-1.864211401E-3,-1.824264042E-2,3.568633273E-2
3.526172910E-1,-7.989477599E-4,-1.930790395E-2,3.462106735E-2
3.551050000E-1,-7.989477599E-4,-2.356895804E-2,3.355580568E-2
3.575927080E-1,-7.989477599E-4,-2.783001214E-2,3.249054030E-2
3.600804160E-1,-1.864211401E-3,-3.315633163E-2,3.249054030E-2
3.625681250E-1,-1.864211401E-3,-3.848264739E-2,3.249054030E-2
3.650558330E-1,-1.864211401E-3,-4.274370521E-2,3.249054030E-2
3.675435410E-1,-2.929474926E-3,-4.593949392E-2,3.249054030E-2
3.700312500E-1,-3.994738683E-3,-4.913528636E-2,3.142527863E-2
3.725189580E-1,-2.929474926E-3,-5.020054802E-2,3.036001325E-2
3.750066660E-1,-1.864211401E-3,-4.913528636E-2,2.822948620E-2
3.774943750E-1,2.663159103E-4,-4.913528636E-2,2.716422267E-2
3.799820830E-1,1.331579522E-3,-4.593949392E-2,2.503369562E-2
3.824697910E-1,3.462106921E-3,-4.380896688E-2,2.077264152E-2
3.849575000E-1,6.657897960E-3,-4.167843983E-2,1.651158556E-2
3.874452600E-1,8.788425475E-3,-3.954791278E-2,1.225053146E-2
3.899330210E-1,1.198421605E-2,-3.741738573E-2,6.924213842E-3
3.924207810E-1,1.304947957E-2,-3.528685868E-2,2.663159044E-3
3.949085410E-1,1.411474310E-2,-3.315633163E-2,-3.728422802E-3
3.973963020E-1,1.411474310E-2,-3.102580272E-2,-9.054740891E-3
3.998840620E-1,1.411474310E-2,-2.889527567E-2,-1.331579592E-2
4.023718230E-1,1.518000662E-2,-2.569948509E-2,-1.651158556E-2
4.048595830E-1,1.624527015E-2,-2.250369452E-2,-1.970737800E-2
4.073473440E-1,1.837579720E-2,-1.717737690E-2,-2.183790505E-2
4.098351040E-1,2.263685316E-2,-1.185105834E-2,-2.183790505E-2
4.123228640E-1,2.796317078E-2,-4.394212738E-3,-2.077264152E-2
4.148106250E-1,3.328948840E-2,4.127896391E-3,-1.864211448E-2
4.172983850E-1,3.968106955E-2,1.265000552E-2,-1.864211448E-2
4.197861460E-1,4.607265070E-2,2.010685205E-2,-1.757685095E-2
4.222739060E-1,5.139897019E-2,2.649843320E-2,-1.651158556E-2
4.247616660E-1,5.779055133E-2,3.289001435E-2,-1.651158556E-2
4.272494270E-1,6.311687082E-2,3.821633384E-2,-1.757685095E-2
4.297371870E-1,6.844318658E-2,4.247738793E-2,-1.757685095E-2
4.322249480E-1,7.376950979E-2,4.460791498E-2,-1.757685095E-2
4.347127080E-1,7.696529478E-2,4.460791498E-2,-1.757685095E-2
4.372004690E-1,8.122635633E-2,4.247738793E-2,-1.651158556E-2
4.396882290E-1,8.335687965E-2,3.928159550E-2,-1.438105945E-2
4.421759890E-1,8.655267209E-2,3.502054140E-2,-1.118526794E-2
4.446637500E-1,8.868319541E-2,2.862896025E-2,-7.989477366E-3
4.471515100E-1,8.974846452E-2,2.330264263E-2,-5.858949851E-3
4.496392710E-1,9.081372619E-2,1.691105962E-2,-3.728422802E-3
4.521270310E-1,9.081372619E-2,1.265000552E-2,-1.597895520E-3
4.546147910E-1,9.081372619E-2,7.323687430E-3,-5.326318205E-4
4.571025520E-1,8.974846452E-2,4.127896391E-3,5.326318205E-4
4.595903120E-1,8.868319541E-2,1.997369342E-3,1.597895520E-3
4.620780730E-1,8.655267209E-2,-1.331579551E-4,3.728422802E-3
4.645658330E-1,8.442214131E-2,-2.263685223E-3,5.858949851E-3
4.670535940E-1,8.229161799E-2,-4.394212738E-3,6.924213842E-3
4.695419270E-1,8.016108721E-2,-7.590003312E-3,6.924213842E-3
4.720295310E-1,7.696529478E-2,-1.185105834E-2,6.924213842E-3
4.745171350E-1,7.376950979E-2,-1.504684892E-2,6.924213842E-3
4.770047390E-1,6.950845569E-2,-1.824264042E-2,4.793686327E-3
4.794923440E-1,6.524740160E-2,-2.037316747E-2,3.728422802E-3
4.819799480E-1,5.885581672E-2,-2.250369452E-2,2.663159044E-3
4.844675520E-1,5.459476262E-2,-2.143843099E-2,3.728422802E-3
4.869551560E-1,5.033370852E-2,-1.824264042E-2,5.858949851E-3
4.894427600E-1,4.713791609E-2,-1.078579482E-2,1.118526794E-2
4.919303640E-1,4.713791609E-2,-1.198421582E-3,1.970737800E-2
4.944179690E-1,4.713791609E-2,1.051947847E-2,3.036001325E-2
4.969056250E-1,4.926844314E-2,2.543316968E-2,4.207791388E-2
4.993933330E-1,5.246423557E-2,4.141212255E-2,5.273054913E-2
5.018810940E-1,5.779055133E-2,5.739107728E-2,6.338318437E-2
5.043688540E-1,6.311687082E-2,7.337003201E-2,7.084003091E-2
5.068566140E-1,6.737792492E-2,8.934898674E-2,7.616634667E-2
5.093447390E-1,7.270424068E-2,1.042626798E-1,7.936213911E-2
5.118328640E-1,7.696529478E-2,1.170458421E-1,8.042740822E-2
5.143209890E-1,8.016108721E-2,1.298290044E-1,8.042740822E-2
5.168088020E-1,8.335687965E-2,1.383511126E-1,8.149266988E-2
5.192965620E-1,8.442214131E-2,1.468732208E-1,8.362319320E-2
5.217842710E-1,8.655267209E-2,1.511342824E-1,8.575372398E-2
5.242719790E-1,8.655267209E-2,1.543300748E-1,9.001477808E-2
5.267596870E-1,8.548741043E-2,1.521995366E-1,9.427583218E-2
5.292473960E-1,8.442214131E-2,1.500690132E-1,9.747162461E-2
5.317351040E-1,8.335687965E-2,1.458079666E-1,9.960214794E-2
5.342228120E-1,8.229161799E-2,1.404816359E-1,1.006674170E-1
5.367105210E-1,8.229161799E-2,1.340900660E-1,9.853688627E-2
5.391982290E-1,8.229161799E-2,1.276984811E-1,9.534109384E-2
5.416859370E-1,8.229161799E-2,1.202416345E-1,9.001477808E-2
5.441736460E-1,8.335687965E-2,1.149153188E-1,8.149266988E-2
5.466613540E-1,8.442214131E-2,1.085237339E-1,6.977476925E-2
5.491490620E-1,8.335687965E-2,1.021321490E-1,5.912213027E-2
5.516367710E-1,8.335687965E-2,9.467530251E-2,4.633896798E-2
5.541244790E-1,8.016108721E-2,8.721846342E-2,3.355580568E-2
5.566121870E-1,7.696529478E-2,7.656582445E-2,1.970737800E-2
5.590998960E-1,7.483477145E-2,6.484792382E-2,9.054740891E-3
5.615876040E-1,6.950845569E-2,5.099949613E-2,-2.663159044E-3
5.640753120E-1,6.524740160E-2,3.608580679E-2,-1.438105945E-2
5.665630210E-1,5.992107838E-2,2.117211558E-2,-2.503369562E-2
5.690507290E-1,5.459476262E-2,6.258423906E-3,-3.462106735E-2
5.715384370E-1,5.033370852E-2,-5.459476262E-3,-4.420844093E-2
5.740261460E-1,4.607265070E-2,-1.504684892E-2,-5.379581451E-2
5.765138540E-1,4.287686199E-2,-2.037316747E-2,-6.231792271E-2
5.790015620E-1,3.968106955E-2,-2.250369452E-2,-7.084003091E-2
5.814892710E-1,3.755054250E-2,-2.143843099E-2,-7.829687744E-2
5.839769790E-1,3.755054250E-2,-1.717737690E-2,-8.362319320E-2
5.864646870E-1,3.861580789E-2,-8.655266836E-3,-8.681898564E-2
5.889523960E-1,4.181159660E-2,1.997369342E-3,-8.681898564E-2
5.914401040E-1,4.607265070E-2,1.584579609E-2,-8.575372398E-2
5.939278120E-1,5.139897019E-2,3.075948730E-2,-8.149266988E-2
5.964155210E-1,5.779055133E-2,4.673844203E-2,-7.723161578E-2
5.989032290E-1,6.524740160E-2,6.165213138E-2,-7.297056168E-2
6.013909370E-1,7.270424068E-2,7.656582445E-2,-6.977476925E-2
6.038786460E-1,8.016108721E-2,9.147951752E-2,-6.657897681E-2
6.063663540E-1,8.655267209E-2,1.053279415E-1,-6.551371515E-2
6.088540620E-1,9.187898785E-2,1.170458421E-1,-6.551371515E-2
6.113417710E-1,9.614004195E-2,1.287637353E-1,-6.657897681E-2
6.138294790E-1,1.004010960E-1,1.362205893E-1,-6.657897681E-2
6.163171870E-1,1.035968885E-1,1.404816359E-1,-6.657897681E-2
6.188048960E-1,1.046621501E-1,1.415469050E-1,-6.551371515E-2
6.212926040E-1,1.057274193E-1,1.394163817E-1,-6.338318437E-2
6.237803120E-1,1.057274193E-1,1.340900660E-1,-6.125266105E-2
6.262680210E-1,1.046621501E-1,1.255679578E-1,-5.805686861E-2
6.287557290E-1,1.025316268E-1,1.170458421E-1,-5.699160323E-2
6.312434370E-1,9.933583438E-2,1.063932031E-1,-5.592634156E-2
6.337311980E-1,9.614004195E-2,9.680583328E-2,-5.592634156E-2
6.362189580E-1,9.400951862E-2,8.721846342E-2,-5.699160323E-2
6.387067190E-1,9.187898785E-2,7.976161689E-2,-5.912213027E-2
6.411944790E-1,8.868319541E-2,7.230477035E-2,-6.231792271E-2
6.436822390E-1,8.548741043E-2,6.697845459E-2,-6.657897681E-2
6.461700000E-1,8.122635633E-2,6.165213138E-2,-7.084003091E-2
6.486577600E-1,7.696529478E-2,5.632581562E-2,-7.616634667E-2
6.511455210E-1,7.270424068E-2,5.206476152E-2,-8.042740822E-2
6.536332810E-1,6.844318658E-2,4.673844203E-2,-8.468846232E-2
6.561210410E-1,6.418213248E-2,4.247738793E-2,-8.894951642E-2
6.586088020E-1,6.205160543E-2,4.141212255E-2,-9.214530140E-2
6.610965620E-1,5.779055133E-2,3.928159550E-2,-9.321057051E-2
6.635843230E-1,5.459476262E-2,3.821633384E-2,-9.321057051E-2
6.660720830E-1,5.246423557E-2,3.821633384E-2,-9.214530140E-2
6.685598440E-1,5.033370852E-2,3.821633384E-2,-9.108003974E-2
6.710476040E-1,4.713791609E-2,3.928159550E-2,-8.788424730E-2
6.735353640E-1,4.394212365E-2,4.141212255E-2,-8.362319320E-2
6.760231250E-1,4.074633494E-2,4.567318037E-2,-7.829687744E-2
6.785108850E-1,3.861580789E-2,4.993423447E-2,-7.297056168E-2
6.809986460E-1,3.648528084E-2,5.632581562E-2,-6.657897681E-2
6.834864060E-1,3.328948840E-2,6.165213138E-2,-6.018739566E-2
6.859741660E-1,3.115896136E-2,6.804371625E-2,-5.379581451E-2
6.884619270E-1,3.009369783E-2,7.550056279E-2,-4.953476042E-2
6.909496870E-1,2.796317078E-2,8.189214021E-2,-4.633896798E-2
6.934374480E-1,2.476738021E-2,8.828372508E-2,-4.420844093E-2
6.959252080E-1,2.157158963E-2,9.467530251E-2,-4.207791388E-2
6.984129690E-1,1.624527015E-2,1.010668874E-1,-3.994738683E-2
7.009007290E-1,1.198421605E-2,1.074584723E-1,-3.888212144E-2
7.033884890E-1,6.657897960E-3,1.127847880E-1,-3.675159439E-2
7.058762500E-1,1.331579522E-3,1.170458421E-1,-3.568633273E-2
7.083640100E-1,-3.994738683E-3,1.213068962E-1,-3.355580568E-2
7.108517710E-1,-9.321057238E-3,1.245026886E-1,-3.142527863E-2
7.133395310E-1,-1.464737486E-2,1.266332120E-1,-2.929474972E-2
7.158272910E-1,-2.103895694E-2,1.266332120E-1,-2.822948620E-2
7.183150520E-1,-2.743053809E-2,1.266332120E-1,-2.822948620E-2
7.208028120E-1,-3.382211924E-2,1.245026886E-1,-2.822948620E-2
7.232905730E-1,-4.234423116E-2,1.213068962E-1,-3.036001325E-2
7.257783330E-1,-5.086633936E-2,1.149153188E-1,-3.355580568E-2
7.282660940E-1,-6.258423626E-2,1.074584723E-1,-3.675159439E-2
7.307538540E-1,-7.323687524E-2,9.787109494E-2,-4.207791388E-2
7.332416140E-1,-8.388951421E-2,8.828372508E-2,-4.846949503E-2
7.357293750E-1,-9.667267650E-2,7.869634777E-2,-5.486107618E-2
7.382171350E-1,-1.073253155E-1,7.123950869E-2,-5.912213027E-2
7.407048960E-1,-1.190432087E-1,6.484792382E-2,-6.231792271E-2
7.431926560E-1,-1.296958476E-1,6.165213138E-2,-6.444845349E-2
7.456804160E-1,-1.382179558E-1,6.058686972E-2,-6.551371515E-2
7.481681770E-1,-1.456748098E-1,6.165213138E-2,-6.551371515E-2
7.506559370E-1,-1.520663798E-1,6.697845459E-2,-6.338318437E-2
7.531436980E-1,-1.563274413E-1,7.337003201E-2,-6.125266105E-2
7.556314580E-1,-1.595232338E-1,8.189214021E-2,-5.912213027E-2
7.581192190E-1,-1.627190262E-1,9.254477918E-2,-5.699160323E-2
7.606069790E-1,-1.637842804E-1,1.053279415E-1,-5.486107618E-2
7.630947390E-1,-1.637842804E-1,1.170458421E-1,-5.379581451E-2
7.655825000E-1,-1.648495495E-1,1.287637353E-1,-5.486107618E-2
7.680702600E-1,-1.659148186E-1,1.394163817E-1,-5.592634156E-2
7.705580210E-1,-1.680453420E-1,1.479384899E-1,-5.699160323E-2
7.730457290E-1,-1.691105962E-1,1.543300748E-1,-6.018739566E-2
7.755334370E-1,-1.701758653E-1,1.585911214E-1,-6.231792271E-2
7.780211460E-1,-1.701758653E-1,1.628521830E-1,-6.444845349E-2
7.805088540E-1,-1.701758653E-1,1.649827063E-1,-6.551371515E-2
7.829965620E-1,-1.701758653E-1,1.671132296E-1,-6.444845349E-2
7.854842710E-1,-1.691105962E-1,1.692437679E-1,-6.231792271E-2
7.879719790E-1,-1.691105962E-1,1.713742912E-1,-6.018739566E-2
7.904596870E-1,-1.680453420E-1,1.724395454E-1,-5.912213027E-2
7.929473960E-1,-1.659148186E-1,1.724395454E-1,-5.912213027E-2
7.954351040E-1,-1.648495495E-1,1.713742912E-1,-6.018739566E-2
7.979228120E-1,-1.627190262E-1,1.703090221E-1,-6.338318437E-2
8.004105210E-1,-1.616537571E-1,1.692437679E-1,-6.657897681E-2
8.028982290E-1,-1.627190262E-1,1.671132296E-1,-6.977476925E-2
8.053859370E-1,-1.627190262E-1,1.649827063E-1,-7.297056168E-2
8.078736460E-1,-1.637842804E-1,1.617869139E-1,-7.403582335E-2
8.103613540E-1,-1.648495495E-1,1.575258672E-1,-7.297056168E-2
8.128490620E-1,-1.648495495E-1,1.532648057E-1,-7.190529257E-2
8.153367710E-1,-1.637842804E-1,1.479384899E-1,-6.870950758E-2
8.178244790E-1,-1.627190262E-1,1.426121742E-1,-6.551371515E-2
8.203121870E-1,-1.616537571E-1,1.383511126E-1,-6.444845349E-2
8.227998960E-1,-1.595232338E-1,1.340900660E-1,-6.231792271E-2
8.252876040E-1,-1.573926955E-1,1.330247968E-1,-6.231792271E-2
8.277753120E-1,-1.531316489E-1,1.362205893E-1,-6.231792271E-2
8.302630210E-1,-1.467400640E-1,1.436774284E-1,-6.231792271E-2
8.327507290E-1,-1.382179558E-1,1.553953290E-1,-5.912213027E-2
8.352384370E-1,-1.307611167E-1,1.724395454E-1,-5.273054913E-2
8.377261460E-1,-1.179779470E-1,1.916143000E-1,-4.314317927E-2
8.402138540E-1,-1.051947847E-1,2.118543088E-1,-3.142527863E-2
8.427015620E-1,-9.028109163E-2,2.320943177E-1,-1.864211448E-2
8.451892710E-1,-7.430213690E-2,2.523343265E-1,-5.858949851E-3
8.476769790E-1,-5.619265884E-2,2.704437971E-1,5.858949851E-3
8.501646870E-1,-3.808317333E-2,2.874880135E-1,1.544632297E-2
8.526523960E-1,-2.210422046E-2,3.024017215E-1,2.503369562E-2
8.551401040E-1,-6.125265732E-3,3.151848912E-1,3.355580568E-2
8.576278120E-1,9.853689000E-3,3.269027770E-1,4.207791388E-2
8.601155210E-1,2.476738021E-2,3.354249001E-1,4.953476042E-2
8.626032290E-1,3.861580789E-2,3.386206925E-1,5.912213027E-2
8.650909370E-1,5.139897019E-2,3.386206925E-1,6.870950758E-2
8.675786460E-1,6.098634377E-2,3.322291076E-1,7.829687744E-2
8.700663540E-1,7.057371736E-2,3.205111921E-1,8.468846232E-2
8.725540620E-1,7.909582555E-2,3.045322299E-1,9.108003974E-2
8.750417710E-1,8.655267209E-2,2.874880135E-1,9.534109384E-2
8.775294790E-1,9.507478029E-2,2.693785429E-1,9.640636295E-2
8.800171870E-1,1.025316268E-1,2.555301189E-1,9.747162461E-2
8.825049480E-1,1.110537350E-1,2.406164259E-1,9.853688627E-2
8.849927080E-1,1.206411049E-1,2.278332561E-1,9.747162461E-2
8.874804690E-1,1.291632205E-1,2.150501013E-1,9.534109384E-2
8.899682290E-1,1.355548054E-1,2.022669315E-1,9.427583218E-2
8.924559890E-1,1.408811212E-1,1.884185076E-1,9.321057051E-2
8.949437500E-1,1.440769136E-1,1.735048145E-1,9.108003974E-2
8.974315100E-1,1.462074369E-1,1.575258672E-1,8.788424730E-2
8.999192710E-1,1.483379602E-1,1.415469050E-1,8.575372398E-2
9.024070310E-1,1.515337527E-1,1.255679578E-1,8.255793154E-2
9.048947910E-1,1.568600684E-1,1.127847880E-1,8.042740822E-2
9.073825520E-1,1.600558609E-1,1.031974182E-1,7.723161578E-2
9.098703120E-1,1.600558609E-1,9.041424841E-2,7.510108501E-2
9.123580730E-1,1.611211300E-1,7.337003201E-2,7.297056168E-2
9.148458330E-1,1.621863842E-1,5.845634267E-2,7.084003091E-2
9.173335940E-1,1.632516533E-1,4.780370742E-2,6.870950758E-2
9.198213540E-1,1.643169224E-1,4.141212255E-2,6.657897681E-2
9.223091140E-1,1.675127149E-1,3.715106845E-2,6.657897681E-2
9.247968750E-1,1.707084924E-1,3.395527974E-2,6.551371515E-2
9.272846350E-1,1.739042848E-1,3.182475269E-2,6.444845349E-2
9.297723960E-1,1.771000773E-1,2.969422378E-2,6.551371515E-2
9.322601560E-1,1.813611388E-1,2.969422378E-2,6.764423847E-2
9.347479160E-1,1.845569313E-1,3.075948730E-2,6.870950758E-2
9.372356770E-1,1.888179779E-1,3.182475269E-2,7.084003091E-2
9.397234370E-1,1.930790395E-1,3.182475269E-2,7.297056168E-2
9.422111980E-1,1.973400861E-1,3.075948730E-2,7.510108501E-2
9.446989580E-1,2.016011477E-1,2.862896025E-2,7.723161578E-2
9.471867190E-1,2.047969401E-1,2.543316968E-2,8.042740822E-2
9.496744790E-1,2.058621943E-1,2.010685205E-2,8.149266988E-2
9.521622390E-1,2.058621943E-1,1.051947847E-2,8.255793154E-2
9.546500000E-1,2.047969401E-1,-1.198421582E-3,8.362319320E-2
9.571377600E-1,2.005358785E-1,-1.504684892E-2,8.362319320E-2
9.596255210E-1,1.952095628E-1,-3.102580272E-2,8.468846232E-2
9.621132810E-1,1.877527237E-1,-4.807002097E-2,8.681898564E-2
9.646010410E-1,1.792306006E-1,-6.298371404E-2,9.001477808E-2
9.670888020E-1,1.728390306E-1,-8.002793044E-2,9.534109384E-2
9.695765620E-1,1.675127149E-1,-9.494162351E-2,1.017326787E-1
9.720643230E-1,1.621863842E-1,-1.066595241E-1,1.081242561E-1
9.745520830E-1,1.600558609E-1,-1.162468940E-1,1.155811027E-1
9.770398440E-1,1.579253376E-1,-1.226384789E-1,1.219726875E-1
9.795276040E-1,1.568600684E-1,-1.247690022E-1,1.272990108E-1
9.820153640E-1,1.568600684E-1,-1.237037405E-1,1.326253265E-1
9.845031250E-1,1.568600684E-1,-1.194426864E-1,1.390169114E-1
9.869908850E-1,1.579253376E-1,-1.130511016E-1,1.443432271E-1
9.894786460E-1,1.589905918E-1,-1.045289934E-1,1.507348120E-1
9.919664060E-1,1.611211300E-1,-9.494162351E-2,1.581916511E-1
9.944541660E-1,1.632516533E-1,-8.535424620E-2,1.667137593E-1
9.969419270E-1,1.653821766E-1,-7.576687634E-2,1.752358675E-1
9.994296870E-1,1.675127149E-1,-6.724476814E-2,1.858884990E-1
1.001917448E0,1.707084924E-1,-5.872265995E-2,1.976063997E-1
1.004405208E0,1.749695539E-1,-5.020054802E-2,2.093243003E-1
1.006892969E0,1.792306006E-1,-4.167843983E-2,2.221074700E-1
1.009380729E0,1.866874546E-1,-3.528685868E-2,2.327601016E-1
1.011868489E0,1.962748319E-1,-2.783001214E-2,2.455432713E-1
1.014356250E0,2.079927325E-1,-1.930790395E-2,2.593916953E-1
1.016844010E0,2.197106332E-1,-1.078579482E-2,2.753706574E-1
1.019331771E0,2.314285189E-1,-3.328948980E-3,2.924148738E-1
1.021819531E0,2.431464195E-1,1.997369342E-3,3.094590902E-1
1.024307239E0,2.527337968E-1,4.127896391E-3,3.254380524E-1
1.026794948E0,2.612559199E-1,4.127896391E-3,3.392864764E-1
1.029282656E0,2.676474750E-1,1.997369342E-3,3.510043621E-1
1.031770364E0,2.719085515E-1,-3.328948980E-3,3.605917394E-1
1.034258073E0,2.751043439E-1,-9.720530361E-3,3.680485785E-1
1.036745781E0,2.772348523E-1,-1.717737690E-2,3.733749092E-1
1.039233489E0,2.804306448E-1,-2.463422157E-2,3.765707016E-1
1.041721198E0,2.836264372E-1,-3.102580272E-2,3.797664940E-1
1.044208906E0,2.889527678E-1,-3.635212034E-2,3.818970025E-1
1.046696614E0,2.942790687E-1,-3.954791278E-2,3.840275407E-1
1.049184323E0,3.006706536E-1,-4.061317816E-2,3.850927949E-1
1.051672031E0,3.070622385E-1,-4.061317816E-2,3.850927949E-1
1.054159739E0,3.134538233E-1,-4.061317816E-2,3.840275407E-1
1.056647448E0,3.187801540E-1,-4.167843983E-2,3.829622865E-1
1.059135156E0,3.230412006E-1,-4.700475931E-2,3.808317482E-1
1.061622864E0,3.251717389E-1,-5.552686751E-2,3.787012100E-1
1.064110573E0,3.251717389E-1,-6.511423737E-2,3.765707016E-1
1.066598281E0,3.251717389E-1,-7.789740711E-2,3.744401634E-1
1.069085989E0,3.273022473E-1,-9.068056941E-2,3.723096550E-1
1.071573698E0,3.304980397E-1,-1.034637317E-1,3.733749092E-1
1.074061406E0,3.358243704E-1,-1.141163707E-1,3.733749092E-1
1.076549114E0,3.411506712E-1,-1.215732098E-1,3.744401634E-1
1.079036823E0,3.496727943E-1,-1.237037405E-1,3.776359558E-1
1.081524531E0,3.592601717E-1,-1.237037405E-1,3.787012100E-1
1.084012239E0,3.699128032E-1,-1.194426864E-1,3.797664940E-1
1.086499948E0,3.826959729E-1,-1.130511016E-1,3.808317482E-1
1.088987656E0,3.954791129E-1,-1.055942550E-1,3.787012100E-1
1.091475364E0,4.093275666E-1,-9.600688517E-2,3.765707016E-1
1.093963073E0,4.242412448E-1,-8.641951531E-2,3.733749092E-1
1.096450781E0,4.380896688E-1,-7.683213800E-2,3.691138625E-1
1.098938489E0,4.530033767E-1,-7.044056058E-2,3.648527861E-1
1.101426198E0,4.689823091E-1,-6.511423737E-2,3.595264852E-1
1.103913906E0,4.838960171E-1,-6.085318699E-2,3.552654386E-1
1.106401614E0,4.977444410E-1,-5.659212917E-2,3.520696461E-1
1.108889323E0,5.105276108E-1,-5.446160212E-2,3.499391079E-1
1.111377031E0,5.243760347E-1,-5.339634046E-2,3.499391079E-1
1.113864739E0,5.382244587E-1,-5.552686751E-2,3.520696461E-1
1.116352448E0,5.520728827E-1,-5.872265995E-2,3.542001545E-1
1.118840156E0,5.669865608E-1,-6.298371404E-2,3.531349003E-1
1.121327864E0,5.797697306E-1,-6.724476814E-2,3.510043621E-1
1.123815573E0,5.914876461E-1,-6.937529147E-2,3.446127772E-1
1.126303281E0,6.021402478E-1,-7.044056058E-2,3.360906839E-1
1.128791041E0,6.117276549E-1,-6.937529147E-2,3.286338449E-1
1.131278802E0,6.202497482E-1,-6.724476814E-2,3.243727684E-1
1.133766562E0,6.277065873E-1,-6.511423737E-2,3.233075142E-1
1.136254323E0,6.362286806E-1,-6.404897571E-2,3.254380524E-1
1.138742083E0,6.447508335E-1,-6.724476814E-2,3.318296373E-1
1.141229844E0,6.532729268E-1,-7.257108390E-2,3.392864764E-1
1.143717604E0,6.617950201E-1,-8.002793044E-2,3.467433155E-1
1.146205364E0,6.692518592E-1,-8.855003864E-2,3.542001545E-1
1.148693125E0,6.777740121E-1,-9.494162351E-2,3.584612012E-1
1.151180885E0,6.852308512E-1,-9.707214683E-2,3.627222776E-1
1.153668646E0,6.958834529E-1,-9.600688517E-2,3.669833243E-1
1.156156406E0,7.076013684E-1,-8.961530030E-2,3.723096550E-1
1.158644166E0,7.203845382E-1,-8.002793044E-2,3.808317482E-1
1.161131927E0,7.363634706E-1,-6.831002980E-2,3.946801722E-1
1.163619687E0,7.555382252E-1,-5.339634046E-2,4.106591344E-1
1.166107448E0,7.779088020E-1,-3.635212034E-2,4.266380966E-1
1.168595208E0,8.056056499E-1,-1.504684892E-2,4.436823130E-1
1.171082969E0,8.364982605E-1,7.323687430E-3,4.617917836E-1
1.173570729E0,8.684561849E-1,3.289001435E-2,4.788360000E-1
1.176058489E0,9.004141092E-1,5.739107728E-2,4.948149621E-1
1.178546250E0,9.345025420E-1,8.189214021E-2,5.107939243E-1
1.181034010E0,9.664604664E-1,1.021321490E-1,5.235770941E-1
1.183521771E0,9.973530769E-1,1.159805804E-1,5.352949500E-1
1.186009531E0,1.025049925E0,1.223721579E-1,5.459476113E-1
1.188497291E0,1.047420502E0,1.213068962E-1,5.555350184E-1
1.190985052E0,1.062334180E0,1.117195264E-1,5.640571117E-1
1.193472812E0,1.071921587E0,9.254477918E-2,5.704486966E-1
1.195960573E0,1.076182604E0,6.378266215E-2,5.768402815E-1
1.198448333E0,1.076182604E0,2.756369673E-2,5.811012983E-1
1.200936094E0,1.071921587E0,-1.185105834E-2,5.864276290E-1
1.203423854E0,1.067660451E0,-5.020054802E-2,5.896234512E-1
1.205911614E0,1.062334180E0,-8.641951531E-2,5.949497223E-1
1.208399375E0,1.058073163E0,-1.183774248E-1,6.002760530E-1
1.210887135E0,1.054877281E0,-1.439437568E-1,6.066676378E-1
1.213374896E0,1.053812027E0,-1.620532274E-1,6.109287143E-1
1.215862656E0,1.055942535E0,-1.737711281E-1,6.162550449E-1
1.218350416E0,1.058073163E0,-1.769669205E-1,6.205160618E-1
1.220838177E0,1.062334180E0,-1.748363972E-1,6.269076467E-1
1.223325937E0,1.069790959E0,-1.663142890E-1,6.354297400E-1
1.225813698E0,1.080443621E0,-1.514005959E-1,6.482129097E-1
1.228301458E0,1.093226790E0,-1.343563795E-1,6.652571559E-1
1.230789219E0,1.110270977E0,-1.141163707E-1,6.854971647E-1
1.233276979E0,1.131576300E0,-8.748477697E-2,7.099981904E-1
1.235764739E0,1.158207893E0,-5.978792161E-2,7.366297841E-1
1.238252500E0,1.188035250E0,-2.889527567E-2,7.621961236E-1
1.240740260E0,1.222123742E0,5.193160381E-3,7.866972089E-1
1.243228021E0,1.257277369E0,4.141212255E-2,8.090677261E-1
1.245715781E0,1.292431116E0,7.976161689E-2,8.293077350E-1
1.248203541E0,1.324388981E0,1.170458421E-1,8.474172354E-1
1.250691302E0,1.354216456E0,1.553953290E-1,8.633961678E-1
1.253179062E0,1.381913304E0,1.905490309E-1,8.793751597E-1
1.255666823E0,1.405349016E0,2.235722095E-1,8.953540921E-1
1.258154583E0,1.424523830E0,2.544648647E-1,9.113330245E-1
1.260642344E0,1.440502763E0,2.800311744E-1,9.283772707E-1
1.263130104E0,1.452220678E0,3.002711833E-1,9.475520253E-1
1.265617864E0,1.462873340E0,3.151848912E-1,9.677920341E-1
1.268105625E0,1.473525882E0,3.258375227E-1,9.890972972E-1
1.270593385E0,1.484178543E0,3.354249001E-1,1.011467814E0
1.273081146E0,1.495896459E0,3.428817391E-1,1.032773137E0
1.275568854E0,1.510810137E0,3.471427858E-1,1.053013086E0
1.278056562E0,1.527854323E0,3.482080400E-1,1.072187901E0
1.280544271E0,1.545963883E0,3.471427858E-1,1.087101579E0
1.283031979E0,1.561942816E0,3.460775316E-1,1.099884748E0
1.285519687E0,1.578987002E0,3.418164849E-1,1.111602664E0
1.288007396E0,1.596031308E0,3.375554085E-1,1.122255206E0
1.290495104E0,1.612010241E0,3.343596160E-1,1.128646851E0
1.292982812E0,1.629054427E0,3.332943618E-1,1.136103630E0
1.295470521E0,1.647163868E0,3.343596160E-1,1.141430020E0
1.297958229E0,1.665273428E0,3.311638236E-1,1.144625783E0
1.300445937E0,1.684448123E0,3.247722387E-1,1.142495275E0
1.302933646E0,1.703622937E0,3.151848912E-1,1.135038376E0
1.305421354E0,1.720667124E0,3.013364673E-1,1.123320460E0
1.307909062E0,1.735580802E0,2.853575051E-1,1.104145765E0
1.310396771E0,1.747298717E0,2.651174963E-1,1.081775188E0
1.312884479E0,1.753690243E0,2.406164259E-1,1.054078341E0
1.315372187E0,1.757951379E0,2.118543088E-1,1.024250984E0
1.317859896E0,1.757951379E0,1.798963994E-1,9.954888821E-1
1.320347604E0,1.754755497E0,1.458079666E-1,9.677920341E-1
1.322835312E0,1.749429226E0,1.117195264E-1,9.422256947E-1
1.325323021E0,1.743037581E0,7.656582445E-2,9.209204316E-1
1.327810729E0,1.737711310E0,4.141212255E-2,9.017456770E-1
1.330298437E0,1.732385039E0,8.388951421E-3,8.868319988E-1
1.332786146E0,1.730254412E0,-2.143843099E-2,8.740488291E-1
1.335273854E0,1.728123903E0,-4.700475931E-2,8.633961678E-1
1.337761562E0,1.729189157E0,-6.617950648E-2,8.527435660E-1
1.340249271E0,1.731319785E0,-7.896266878E-2,8.431561589E-1
1.342736979E0,1.732385039E0,-8.748477697E-2,8.346340656E-1
1.345224687E0,1.734515548E0,-9.068056941E-2,8.250467181E-1
1.347712396E0,1.737711310E0,-9.068056941E-2,8.143940568E-1
1.350200104E0,1.739841819E0,-8.748477697E-2,8.037413955E-1
1.352687812E0,1.744102955E0,-7.896266878E-2,7.930887938E-1
1.355175521E0,1.746233463E0,-6.831002980E-2,7.866972089E-1
1.357663229E0,1.748363972E0,-5.233107507E-2,7.835013866E-1
1.360150937E0,1.751559734E0,-3.422159329E-2,7.835013866E-1
1.362638646E0,1.753690243E0,-1.185105834E-2,7.877624631E-1
1.365126354E0,1.756886005E0,1.158474199E-2,7.920235395E-1
1.367614062E0,1.759016633E0,3.608580679E-2,7.973498106E-1
1.370101771E0,1.762212396E0,6.271740049E-2,8.005456328E-1
1.372589479E0,1.764342904E0,9.147951752E-2,8.016108871E-1
1.375077187E0,1.764342904E0,1.202416345E-1,8.026761413E-1
1.377564948E0,1.761147141E0,1.511342824E-1,8.016108871E-1
1.380052708E0,1.755820751E0,1.798963994E-1,8.026761413E-1
1.382540469E0,1.749429226E0,2.086585164E-1,8.058719635E-1
1.385028229E0,1.741972327E0,2.363553643E-1,8.122635484E-1
1.387515989E0,1.734515548E0,2.619217038E-1,8.218508959E-1
1.390003750E0,1.725993395E0,2.864227593E-1,8.325035572E-1
1.392491510E0,1.718536615E0,3.109238148E-1,8.442214131E-1
1.394979271E0,1.712144971E0,3.343596160E-1,8.548740745E-1
1.397467031E0,1.707883954E0,3.556649089E-1,8.644614220E-1
1.399954791E0,1.704688191E0,3.759049177E-1,8.697877526E-1
1.402442552E0,1.700427055E0,3.940143883E-1,8.740488291E-1
1.404930312E0,1.695100784E0,4.099933505E-1,8.751140833E-1
1.407418073E0,1.685513377E0,4.227765203E-1,8.719182611E-1
1.409905833E0,1.672730207E0,4.323638678E-1,8.665919900E-1
1.412393594E0,1.654620767E0,4.376901984E-1,8.580698371E-1
1.414881354E0,1.635445952E0,4.376901984E-1,8.484824896E-1
1.417369114E0,1.612010241E0,4.355596602E-1,8.378298283E-1
1.419856875E0,1.587509155E0,4.291680753E-1,8.271772265E-1
1.422344635E0,1.560877562E0,4.206459820E-1,8.175898194E-1
1.424832396E0,1.531050205E0,4.110586047E-1,8.069372177E-1
1.427320156E0,1.500157475E0,3.982754350E-1,7.952193022E-1
1.429807916E0,1.466069102E0,3.844270110E-1,7.792403698E-1
1.432295677E0,1.430915356E0,3.673827946E-1,7.579351068E-1
1.434783437E0,1.394696474E0,3.492733240E-1,7.344992757E-1
1.437271198E0,1.356346965E0,3.279680312E-1,7.057371736E-1
1.439758958E0,1.315866947E0,3.066627681E-1,6.737792492E-1
1.442246719E0,1.274321675E0,2.874880135E-1,6.407560706E-1
1.444734479E0,1.233841658E0,2.736395895E-1,6.087981462E-1
1.447222239E0,1.192296386E0,2.619217038E-1,5.768402815E-1
1.449710000E0,1.151816368E0,2.491385341E-1,5.470128655E-1
1.452197760E0,1.112401605E0,2.384859025E-1,5.161202550E-1
1.454685521E0,1.072986841E0,2.416816950E-1,4.905539155E-1
1.457173281E0,1.048485756E0,2.810964286E-1,4.756402075E-1
1.459661041E0,1.019723654E0,3.226417303E-1,4.607265294E-1
1.462148802E0,9.867004752E-1,3.354249001E-1,4.394212663E-1
1.464636562E0,9.526119828E-1,3.173153996E-1,4.149201810E-1
1.467124323E0,9.142625332E-1,2.906838059E-1,3.893538713E-1
1.469612083E0,8.695214391E-1,2.693785429E-1,3.659180701E-1
1.472099844E0,8.215845823E-1,2.480732650E-1,3.467433155E-1
1.474587604E0,7.725824714E-1,2.278332561E-1,3.307643533E-1
1.477075364E0,7.235803008E-1,2.097237855E-1,3.179811835E-1
1.479563125E0,6.745781898E-1,1.958753467E-1,3.094590902E-1
1.482050885E0,6.266413331E-1,1.862879843E-1,3.030675054E-1
1.484538646E0,5.797697306E-1,1.830921918E-1,2.966759205E-1
1.487026406E0,5.350286365E-1,1.852227151E-1,2.902843356E-1
1.489514166E0,4.913528562E-1,1.937448233E-1,2.838927507E-1
1.492001927E0,4.519380927E-1,2.054627240E-1,2.743053734E-1
1.494489687E0,4.157191217E-1,2.193111479E-1,2.615222335E-1
1.496977448E0,3.805654347E-1,2.384859025E-1,2.455432713E-1
1.499465208E0,3.443464637E-1,2.587259114E-1,2.263685167E-1
1.501952969E0,3.081275225E-1,2.757701278E-1,2.061285079E-1
1.504440729E0,2.719085515E-1,2.874880135E-1,1.848232448E-1
1.506928489E0,2.356895804E-1,2.928143442E-1,1.635179669E-1
1.509416250E0,1.984053552E-1,2.885532975E-1,1.422126889E-1
1.511904010E0,1.600558609E-1,2.789659202E-1,1.209074259E-1
1.514391771E0,1.206411049E-1,2.608564198E-1,1.017326787E-1
1.516879531E0,8.229161799E-2,2.363553643E-1,8.468846232E-2
1.519367291E0,4.500738904E-2,2.065279931E-1,6.870950758E-2
1.521855052E0,9.853689000E-3,1.724395454E-1,5.486107618E-2
1.524342812E0,-2.210422046E-2,1.372858584E-1,4.420844093E-2
1.526830573E0,-5.193160102E-2,1.042626798E-1,3.568633273E-2
1.529318333E0,-8.069372177E-2,7.230477035E-2,2.822948620E-2
1.531806094E0,-1.051947847E-1,4.141212255E-2,2.077264152E-2
1.534293854E0,-1.265000552E-1,1.371526904E-2,1.331579592E-2
1.536781562E0,-1.446095407E-1,-1.078579482E-2,6.924213842E-3
1.539269271E0,-1.584579647E-1,-2.569948509E-2,-5.326318205E-4
1.541756979E0,-1.669800729E-1,-3.422159329E-2,-5.858949851E-3
1.544244687E0,-1.712411344E-1,-3.635212034E-2,-1.012000442E-2
1.546732396E0,-1.712411344E-1,-3.209106624E-2,-1.012000442E-2
1.549220104E0,-1.648495495E-1,-2.250369452E-2,-1.012000442E-2
1.551707812E0,-1.552621722E-1,-8.655266836E-3,-7.989477366E-3
1.554195521E0,-1.435442716E-1,9.454214945E-3,-4.793686327E-3
1.556683229E0,-1.318263710E-1,2.756369673E-2,-2.663159044E-3
1.559170937E0,-1.190432087E-1,4.460791498E-2,-5.326318205E-4
1.561658646E0,-1.073253155E-1,5.845634267E-2,1.597895520E-3
1.564146354E0,-9.454214573E-2,6.804371625E-2,2.663159044E-3
1.566634062E0,-8.282424510E-2,7.443529367E-2,3.728422802E-3
1.569121771E0,-7.217161357E-2,7.656582445E-2,4.793686327E-3
1.571609479E0,-6.258423626E-2,7.869634777E-2,5.858949851E-3
1.574097187E0,-5.299686641E-2,7.869634777E-2,6.924213842E-3
1.576584896E0,-4.554001987E-2,7.656582445E-2,9.054740891E-3
1.579072604E0,-3.914843872E-2,7.123950869E-2,1.118526794E-2
1.581560312E0,-3.595264629E-2,6.165213138E-2,1.225053146E-2
1.584048021E0,-3.382211924E-2,4.780370742E-2,1.331579592E-2
1.586535729E0,-3.488738462E-2,2.969422378E-2,1.225053146E-2
1.589023437E0,-3.808317333E-2,8.388951421E-3,1.225053146E-2
1.591511146E0,-4.234423116E-2,-1.398158539E-2,1.225053146E-2
1.593998854E0,-4.767054692E-2,-3.848264739E-2,1.331579592E-2
1.596486562E0,-5.406212807E-2,-6.191844866E-2,1.331579592E-2
1.598974271E0,-6.045371294E-2,-8.641951531E-2,1.544632297E-2
1.601461979E0,-6.471476704E-2,-1.087900475E-1,1.864211448E-2
1.603949687E0,-6.791055948E-2,-1.300953180E-1,2.183790505E-2
1.606437396E0,-6.791055948E-2,-1.460742801E-1,2.716422267E-2
1.608925104E0,-6.684529036E-2,-1.588574350E-1,3.355580568E-2
1.611412812E0,-6.364950538E-2,-1.663142890E-1,3.994738683E-2
1.613900521E0,-5.938844755E-2,-1.695100814E-1,4.740423337E-2
1.616388229E0,-5.512739345E-2,-1.673795432E-1,5.592634156E-2
1.618875937E0,-5.086633936E-2,-1.631184965E-1,6.231792271E-2
1.621363646E0,-4.660528526E-2,-1.556616426E-1,6.764423847E-2
1.623851354E0,-4.447475821E-2,-1.482048035E-1,7.510108501E-2
1.626339062E0,-4.127896577E-2,-1.407479644E-1,8.042740822E-2
1.628826771E0,-4.127896577E-2,-1.322258562E-1,8.468846232E-2
1.631314479E0,-4.234423116E-2,-1.258342713E-1,8.894951642E-2
1.633802239E0,-4.554001987E-2,-1.194426864E-1,9.108003974E-2
1.636290000E0,-4.980107397E-2,-1.130511016E-1,9.214530140E-2
1.638777760E0,-5.512739345E-2,-1.066595241E-1,9.214530140E-2
1.641265521E0,-6.258423626E-2,-1.013332009E-1,9.321057051E-2
1.643753281E0,-7.217161357E-2,-1.002679393E-1,9.321057051E-2
1.646241041E0,-8.388951421E-2,-1.013332009E-1,9.214530140E-2
1.648728802E0,-9.986846894E-2,-1.077247858E-1,9.214530140E-2
1.651216562E0,-1.179779470E-1,-1.173121557E-1,9.214530140E-2
1.653704323E0,-1.403484792E-1,-1.311605871E-1,9.427583218E-2
1.656192083E0,-1.659148186E-1,-1.492700726E-1,9.747162461E-2
1.658679844E0,-1.925463974E-1,-1.695100814E-1,9.960214794E-2
1.661167604E0,-2.191779912E-1,-1.918806136E-1,1.038632020E-1
1.663655364E0,-2.458095849E-1,-2.131858915E-1,1.059937328E-1
1.666143125E0,-2.703106403E-1,-2.344911546E-1,1.091895252E-1
1.668630885E0,-2.916159332E-1,-2.515353858E-1,1.134505793E-1
1.671118646E0,-3.097254038E-1,-2.632532716E-1,1.198421568E-1
1.673606406E0,-3.235738277E-1,-2.696448565E-1,1.251684725E-1
1.676094166E0,-3.331612051E-1,-2.707101107E-1,1.326253265E-1
1.678581927E0,-3.363569975E-1,-2.675143182E-1,1.411474347E-1
1.681069687E0,-3.363569975E-1,-2.600574791E-1,1.507348120E-1
1.683557448E0,-3.299654126E-1,-2.515353858E-1,1.613874435E-1
1.686045208E0,-3.203780353E-1,-2.419480085E-1,1.731053442E-1
1.688532969E0,-3.065296113E-1,-2.302301079E-1,1.848232448E-1
1.691020729E0,-2.916159332E-1,-2.153164148E-1,1.965411454E-1
1.693508489E0,-2.767022252E-1,-1.982721984E-1,2.082590461E-1
1.695996250E0,-2.617885470E-1,-1.801627129E-1,2.189116776E-1
1.698484010E0,-2.468748540E-1,-1.652490199E-1,2.284990549E-1
1.700971771E0,-2.340916842E-1,-1.524658650E-1,2.359558940E-1
1.703459531E0,-2.234390527E-1,-1.418132186E-1,2.423474789E-1
1.705947291E0,-2.117211521E-1,-1.354216337E-1,2.466085255E-1
1.708435052E0,-1.989379823E-1,-1.311605871E-1,2.487390637E-1
1.710922812E0,-1.872200817E-1,-1.279647946E-1,2.508696020E-1
1.713410573E0,-1.744369268E-1,-1.268995255E-1,2.530001104E-1
1.715898333E0,-1.637842804E-1,-1.290300637E-1,2.530001104E-1
1.718386094E0,-1.573926955E-1,-1.354216337E-1,2.540653646E-1
1.720873854E0,-1.520663798E-1,-1.450090110E-1,2.530001104E-1
1.723361614E0,-1.510011256E-1,-1.599227041E-1,2.519348562E-1
1.725849375E0,-1.531316489E-1,-1.780321896E-1,2.476737946E-1
1.728337135E0,-1.595232338E-1,-2.004027218E-1,2.434127480E-1
1.730824896E0,-1.669800729E-1,-2.249037921E-1,2.380864173E-1
1.733312656E0,-1.765674502E-1,-2.494048476E-1,2.327601016E-1
1.735800416E0,-1.861548275E-1,-2.749711871E-1,2.242379934E-1
1.738288177E0,-1.968074590E-1,-2.994722426E-1,2.167811543E-1
1.740775937E0,-2.085253596E-1,-3.229080439E-1,2.082590461E-1
1.743263698E0,-2.213085145E-1,-3.474090993E-1,1.997369379E-1
1.745751458E0,-2.308958918E-1,-3.708449006E-1,1.901495606E-1
1.748239219E0,-2.426137924E-1,-3.921501637E-1,1.816274524E-1
1.750726979E0,-2.532664239E-1,-4.134554565E-1,1.720400751E-1
1.753214739E0,-2.628538013E-1,-4.304996729E-1,1.635179669E-1
1.755702500E0,-2.724411786E-1,-4.432828426E-1,1.549958587E-1
1.758190260E0,-2.798980176E-1,-4.518049359E-1,1.475390196E-1
1.760678021E0,-2.862896025E-1,-4.560659826E-1,1.411474347E-1
1.763165781E0,-2.926811874E-1,-4.560659826E-1,1.347558498E-1
1.765653541E0,-2.980075181E-1,-4.550007284E-1,1.304948032E-1
1.768141302E0,-3.033338189E-1,-4.507396817E-1,1.262337416E-1
1.770629062E0,-3.097254038E-1,-4.464786351E-1,1.230379492E-1
1.773116823E0,-3.161169887E-1,-4.411523044E-1,1.209074259E-1
1.775604583E0,-3.214432895E-1,-4.336954653E-1,1.198421568E-1
1.778092344E0,-3.257043660E-1,-4.230428338E-1,1.198421568E-1
1.780580104E0,-3.278348744E-1,-4.070638716E-1,1.219726875E-1
1.783067864E0,-3.257043660E-1,-3.857586086E-1,1.262337416E-1
1.785555625E0,-3.214432895E-1,-3.612575233E-1,1.294295341E-1
1.788043385E0,-3.161169887E-1,-3.335606754E-1,1.347558498E-1
1.790531146E0,-3.086601496E-1,-3.047985733E-1,1.390169114E-1
1.793018906E0,-3.012032807E-1,-2.771016955E-1,1.411474347E-1
1.795506666E0,-2.948117256E-1,-2.515353858E-1,1.443432271E-1
1.797994427E0,-2.905506492E-1,-2.312953621E-1,1.464737505E-1
1.800482187E0,-2.884201407E-1,-2.153164148E-1,1.464737505E-1
1.802969896E0,-2.894853950E-1,-2.057290375E-1,1.454084814E-1
1.805457604E0,-2.916159332E-1,-2.025332451E-1,1.422126889E-1
1.807945312E0,-2.958769798E-1,-2.025332451E-1,1.411474347E-1
1.810433021E0,-2.990727723E-1,-2.035985142E-1,1.400821656E-1
1.812920729E0,-3.022685647E-1,-2.035985142E-1,1.390169114E-1
1.815408437E0,-3.043990731E-1,-2.014679909E-1,1.390169114E-1
1.817896146E0,-3.043990731E-1,-1.972069293E-1,1.390169114E-1
1.820383854E0,-3.043990731E-1,-1.897500902E-1,1.368863732E-1
1.822871562E0,-3.033338189E-1,-1.812279820E-1,1.347558498E-1
1.825359271E0,-3.022685647E-1,-1.727058738E-1,1.315600574E-1
1.827846979E0,-3.001380265E-1,-1.641837656E-1,1.251684725E-1
1.830334687E0,-3.001380265E-1,-1.577921808E-1,1.177116334E-1
1.832822396E0,-3.012032807E-1,-1.514005959E-1,1.102547869E-1
1.835310104E0,-3.012032807E-1,-1.460742801E-1,1.017326787E-1
1.837797812E0,-3.033338189E-1,-1.428784877E-1,9.321057051E-2
1.840285521E0,-3.054643571E-1,-1.418132186E-1,8.255793154E-2
1.842773229E0,-3.097254038E-1,-1.428784877E-1,7.084003091E-2
1.845260937E0,-3.171822429E-1,-1.471395344E-1,5.699160323E-2
1.847748646E0,-3.278348744E-1,-1.567269117E-1,4.101264849E-2
1.850236354E0,-3.406180441E-1,-1.705753356E-1,2.290316857E-2
1.852724062E0,-3.576622605E-1,-1.865542978E-1,3.728422802E-3
1.855211771E0,-3.779022694E-1,-2.067943066E-1,-1.757685095E-2
1.857699479E0,-4.002728164E-1,-2.280995846E-1,-3.675159439E-2
1.860187187E0,-4.237086177E-1,-2.504701018E-1,-5.592634156E-2
1.862674896E0,-4.482096732E-1,-2.728406489E-1,-7.297056168E-2
1.865162604E0,-4.727107286E-1,-2.941459119E-1,-8.894951642E-2
1.867650312E0,-4.940160215E-1,-3.154512048E-1,-1.027979404E-1
1.870138021E0,-5.142560005E-1,-3.324954212E-1,-1.155811027E-1
1.872625729E0,-5.323655009E-1,-3.431480527E-1,-1.251684725E-1
1.875113437E0,-5.472791791E-1,-3.506048918E-1,-1.336905807E-1
1.877601146E0,-5.589970946E-1,-3.516701460E-1,-1.390169114E-1
1.880088854E0,-5.675191879E-1,-3.463438451E-1,-1.432779580E-1
1.882576562E0,-5.728455186E-1,-3.378217220E-1,-1.443432271E-1
1.885064271E0,-5.749760270E-1,-3.250385821E-1,-1.443432271E-1
1.887551979E0,-5.749760270E-1,-3.079943359E-1,-1.422126889E-1
1.890039687E0,-5.739107728E-1,-2.888196111E-1,-1.390169114E-1
1.892527396E0,-5.707150102E-1,-2.675143182E-1,-1.347558498E-1
1.895015104E0,-5.664539337E-1,-2.472743243E-1,-1.294295341E-1
1.897502864E0,-5.611276031E-1,-2.259690464E-1,-1.251684725E-1
1.899990625E0,-5.568665862E-1,-2.057290375E-1,-1.198421568E-1
1.902478385E0,-5.547360182E-1,-1.876195520E-1,-1.155811027E-1
1.904966146E0,-5.536707640E-1,-1.695100814E-1,-1.123853177E-1
1.907453906E0,-5.547360182E-1,-1.567269117E-1,-1.113200486E-1
1.909941666E0,-5.589970946E-1,-1.460742801E-1,-1.102547869E-1
1.912429427E0,-5.643234253E-1,-1.364869028E-1,-1.113200486E-1
1.914917187E0,-5.728455186E-1,-1.311605871E-1,-1.145158410E-1
1.917404948E0,-5.834981799E-1,-1.258342713E-1,-1.177116334E-1
1.919892708E0,-5.952160358E-1,-1.226384789E-1,-1.219726875E-1
1.922380469E0,-6.090644598E-1,-1.205079481E-1,-1.294295341E-1
1.924868229E0,-6.239781976E-1,-1.205079481E-1,-1.368863732E-1
1.927355989E0,-6.388918757E-1,-1.226384789E-1,-1.454084814E-1
1.929843750E0,-6.548708081E-1,-1.268995255E-1,-1.560611278E-1
1.932331510E0,-6.708498001E-1,-1.311605871E-1,-1.656484902E-1
1.934819271E0,-6.878939867E-1,-1.375521719E-1,-1.763011366E-1
1.937307031E0,-7.049382329E-1,-1.450090110E-1,-1.869537681E-1
1.939794791E0,-7.219824195E-1,-1.535311192E-1,-1.976063997E-1
1.942282552E0,-7.379614115E-1,-1.620532274E-1,-2.071937770E-1
1.944770312E0,-7.518098354E-1,-1.684448123E-1,-2.157158852E-1
1.947258073E0,-7.624624372E-1,-1.727058738E-1,-2.231727391E-1
1.949745833E0,-7.699192762E-1,-1.737711281E-1,-2.295643091E-1
1.952233594E0,-7.752456069E-1,-1.727058738E-1,-2.370211631E-1
1.954721354E0,-7.784414291E-1,-1.695100814E-1,-2.423474789E-1
1.957209114E0,-7.805719376E-1,-1.663142890E-1,-2.466085255E-1
1.959696875E0,-7.805719376E-1,-1.620532274E-1,-2.508696020E-1
1.962184635E0,-7.805719376E-1,-1.577921808E-1,-2.551306486E-1
1.964672396E0,-7.795066833E-1,-1.545963883E-1,-2.583264410E-1
1.967160156E0,-7.773761153E-1,-1.492700726E-1,-2.604569495E-1
1.969647916E0,-7.731150985E-1,-1.428784877E-1,-2.604569495E-1
1.972135677E0,-7.677887678E-1,-1.343563795E-1,-2.593916953E-1
1.974623437E0,-7.613971829E-1,-1.226384789E-1,-2.561959028E-1
1.977111198E0,-7.528750896E-1,-1.087900475E-1,-2.519348562E-1
1.979598958E0,-7.432876825E-1,-9.281109273E-2,-2.466085255E-1
1.982086719E0,-7.337003350E-1,-7.576687634E-2,-2.412822098E-1
1.984574479E0,-7.230476737E-1,-5.978792161E-2,-2.359558940E-1
1.987062239E0,-7.134603262E-1,-4.487423226E-2,-2.316948473E-1
1.989550052E0,-7.070687413E-1,-3.102580272E-2,-2.284990549E-1
1.992037864E0,-7.017424107E-1,-2.143843099E-2,-2.274337858E-1
1.994525677E0,-6.996119022E-1,-1.291632187E-2,-2.284990549E-1
1.997013489E0,-6.996119022E-1,-8.655266836E-3,-2.316948473E-1
1.999501302E0,-7.028076649E-1,-7.590003312E-3,-2.370211631E-1
2.001989114E0,-7.091992497E-1,-6.524739787E-3,-2.434127480E-1
2.004476927E0,-7.177214026E-1,-8.655266836E-3,-2.519348562E-1
2.006964739E0,-7.294392586E-1,-1.185105834E-2,-2.593916953E-1
2.009452500E0,-7.443529963E-1,-1.611211337E-2,-2.689790726E-1
2.011940260E0,-7.613971829E-1,-2.356895804E-2,-2.775011659E-1
2.014428021E0,-7.827024460E-1,-3.209106624E-2,-2.870885432E-1
2.016915729E0,-8.050730228E-1,-4.380896688E-2,-2.966759205E-1
2.019403437E0,-8.285087943E-1,-5.872265995E-2,-3.051980436E-1
2.021891146E0,-8.530098796E-1,-7.470161468E-2,-3.137201369E-1
2.024378854E0,-8.775109053E-1,-9.174583107E-2,-3.201117218E-1
2.026866562E0,-8.998814821E-1,-1.077247858E-1,-3.243727684E-1
2.029354271E0,-9.211867452E-1,-1.237037405E-1,-3.296990991E-1
2.031841979E0,-9.403614998E-1,-1.364869028E-1,-3.328948915E-1
2.034329687E0,-9.563404322E-1,-1.450090110E-1,-3.339601457E-1
2.036817396E0,-9.712541103E-1,-1.471395344E-1,-3.350254297E-1
2.039305104E0,-9.829720259E-1,-1.450090110E-1,-3.350254297E-1
2.041792812E0,-9.914941192E-1,-1.354216337E-1,-3.318296373E-1
2.044280521E0,-9.978857040E-1,-1.215732098E-1,-3.265033066E-1
2.046768229E0,-1.002146721E0,-1.045289934E-1,-3.222422600E-1
2.049255937E0,-1.003211975E0,-8.535424620E-2,-3.169159293E-1
2.051743646E0,-1.001081467E0,-6.724476814E-2,-3.105243444E-1
2.054231354E0,-9.968204498E-1,-4.700475931E-2,-3.041327596E-1
2.056719062E0,-9.914941192E-1,-2.676474862E-2,-2.998717129E-1
2.059206771E0,-9.851025343E-1,-5.459476262E-3,-2.956106663E-1
2.061694479E0,-9.787109494E-1,1.371526904E-2,-2.924148738E-1
2.064182187E0,-9.723193645E-1,3.075948730E-2,-2.913496196E-1
2.066669896E0,-9.659277797E-1,4.460791498E-2,-2.913496196E-1
2.069157604E0,-9.606015086E-1,5.419528857E-2,-2.934801280E-1
2.071645312E0,-9.552751780E-1,5.952160433E-2,-2.966759205E-1
2.074133021E0,-9.520793557E-1,6.165213138E-2,-3.009369671E-1
2.076620729E0,-9.488835931E-1,5.845634267E-2,-3.073285520E-1
2.079108437E0,-9.478183389E-1,5.313002318E-2,-3.169159293E-1
2.081596146E0,-9.499488473E-1,4.567318037E-2,-3.265033066E-1
2.084083854E0,-9.531446695E-1,3.502054140E-2,-3.403517306E-1
2.086571562E0,-9.584709406E-1,2.223737910E-2,-3.542001545E-1
2.089059271E0,-9.659277797E-1,5.193160381E-3,-3.712443709E-1
2.091546979E0,-9.755151868E-1,-1.291632187E-2,-3.882885873E-1
2.094034687E0,-9.872331023E-1,-3.315633163E-2,-4.063980877E-1
2.096522396E0,-1.003211975E0,-5.552686751E-2,-4.245075583E-1
2.099010104E0,-1.020256281E0,-7.896266878E-2,-4.426170290E-1
2.101497812E0,-1.038365722E0,-1.045289934E-1,-4.607265294E-1
2.103985521E0,-1.056475163E0,-1.279647946E-1,-4.767054915E-1
2.106473229E0,-1.074584723E0,-1.503353268E-1,-4.905539155E-1
2.108960989E0,-1.089498401E0,-1.716406047E-1,-5.033370852E-1
2.111448750E0,-1.104412079E0,-1.897500902E-1,-5.118591785E-1
2.113936510E0,-1.118260503E0,-2.046637833E-1,-5.182507634E-1
2.116424271E0,-1.128913164E0,-2.153164148E-1,-5.214465261E-1
2.118912031E0,-1.136369944E0,-2.217079997E-1,-5.203812718E-1
2.121399791E0,-1.141696334E0,-2.206427306E-1,-5.171855092E-1
2.123887552E0,-1.141696334E0,-2.121206224E-1,-5.107939243E-1
2.126375312E0,-1.137435198E0,-1.982721984E-1,-5.012065172E-1
2.128863073E0,-1.128913164E0,-1.759016514E-1,-4.894886315E-1
2.131350833E0,-1.115064740E0,-1.492700726E-1,-4.745749533E-1
2.133838594E0,-1.095889926E0,-1.194426864E-1,-4.596612751E-1
2.136326354E0,-1.072454214E0,-8.961530030E-2,-4.426170290E-1
2.138814114E0,-1.044757366E0,-6.191844866E-2,-4.255728126E-1
2.141301875E0,-1.013864636E0,-3.741738573E-2,-4.095938802E-1
2.143789635E0,-9.808415174E-1,-1.504684892E-2,-3.957454562E-1
2.146277396E0,-9.478183389E-1,1.997369342E-3,-3.829622865E-1
2.148765156E0,-9.137299061E-1,1.478053257E-2,-3.723096550E-1
2.151252916E0,-8.796414733E-1,2.223737910E-2,-3.659180701E-1
2.153740677E0,-8.487488031E-1,2.330264263E-2,-3.616569936E-1
2.156228437E0,-8.189214468E-1,1.584579609E-2,-3.584612012E-1
2.158716198E0,-7.922898531E-1,1.997369342E-3,-3.595264852E-1
2.161203958E0,-7.677887678E-1,-1.611211337E-2,-3.627222776E-1
2.163691719E0,-7.464835048E-1,-4.061317816E-2,-3.680485785E-1
2.166179479E0,-7.283740044E-1,-6.937529147E-2,-3.755054474E-1
2.168667239E0,-7.134603262E-1,-9.920267761E-2,-3.850927949E-1
2.171155000E0,-7.017424107E-1,-1.332911104E-1,-3.957454562E-1
2.173642760E0,-6.942855716E-1,-1.684448123E-1,-4.095938802E-1
2.176130521E0,-6.910898089E-1,-2.025332451E-1,-4.255728126E-1
2.178618281E0,-6.921550632E-1,-2.355564237E-1,-4.426170290E-1
2.181106041E0,-6.974813938E-1,-2.653838098E-1,-4.607265294E-1
2.183593802E0,-7.049382329E-1,-2.909501195E-1,-4.788360000E-1
2.186081562E0,-7.145255804E-1,-3.143859208E-1,-4.958802164E-1
2.188569323E0,-7.251782417E-1,-3.346259296E-1,-5.107939243E-1
2.191057083E0,-7.358308434E-1,-3.516701460E-1,-5.235770941E-1
2.193544844E0,-7.464835048E-1,-3.665838540E-1,-5.342296958E-1
2.196032604E0,-7.571361065E-1,-3.793670237E-1,-5.427518487E-1
2.198520364E0,-7.688540220E-1,-3.868238628E-1,-5.491434336E-1
2.201008125E0,-7.805719376E-1,-3.910849094E-1,-5.523391962E-1
2.203495885E0,-7.933551073E-1,-3.910849094E-1,-5.534044504E-1
2.205983646E0,-8.061382771E-1,-3.878891170E-1,-5.502086878E-1
2.208471406E0,-8.178561330E-1,-3.793670237E-1,-5.406212807E-1
2.210959166E0,-8.274435401E-1,-3.665838540E-1,-5.267728567E-1
2.213446927E0,-8.338351250E-1,-3.484743834E-1,-5.075981021E-1
2.215934687E0,-8.338351250E-1,-3.239732981E-1,-4.852275848E-1
2.218422448E0,-8.274435401E-1,-2.930806577E-1,-4.628570378E-1
2.220910208E0,-8.157256246E-1,-2.579269707E-1,-4.404865205E-1
2.223397969E0,-7.986814380E-1,-2.217079997E-1,-4.213117659E-1
2.225885729E0,-7.784414291E-1,-1.865542978E-1,-4.053328037E-1
2.228373489E0,-7.571361065E-1,-1.545963883E-1,-3.925496638E-1
2.230861250E0,-7.368960977E-1,-1.268995255E-1,-3.808317482E-1
2.233349010E0,-7.198519111E-1,-1.055942550E-1,-3.723096550E-1
2.235836771E0,-7.070687413E-1,-9.174583107E-2,-3.637875319E-1
2.238324531E0,-6.985466480E-1,-8.641951531E-2,-3.563306928E-1
2.240812291E0,-6.921550632E-1,-8.961530030E-2,-3.478085697E-1
2.243300052E0,-6.878939867E-1,-9.920267761E-2,-3.392864764E-1
2.245787812E0,-6.857634783E-1,-1.151816323E-1,-3.318296373E-1
2.248275573E0,-6.846982241E-1,-1.343563795E-1,-3.243727684E-1
2.250763333E0,-6.857634783E-1,-1.556616426E-1,-3.201117218E-1
2.253251094E0,-6.889592409E-1,-1.769669205E-1,-3.190464675E-1
2.255738854E0,-6.942855716E-1,-1.982721984E-1,-3.190464675E-1
2.258226614E0,-7.006771564E-1,-2.185122073E-1,-3.222422600E-1
2.260714375E0,-7.091992497E-1,-2.366216928E-1,-3.275685608E-1
2.263202135E0,-7.219824195E-1,-2.526006401E-1,-3.339601457E-1
2.265689896E0,-7.347655892E-1,-2.675143182E-1,-3.403517306E-1
2.268177656E0,-7.486140132E-1,-2.813627720E-1,-3.478085697E-1
2.270665416E0,-7.635276914E-1,-2.941459119E-1,-3.563306928E-1
2.273153177E0,-7.795066833E-1,-3.079943359E-1,-3.648527861E-1
2.275640937E0,-7.965508699E-1,-3.207775056E-1,-3.733749092E-1
2.278128698E0,-8.135951161E-1,-3.314301372E-1,-3.797664940E-1
2.280616458E0,-8.306393027E-1,-3.410175145E-1,-3.850927949E-1
2.283104219E0,-8.444877267E-1,-3.474090993E-1,-3.893538713E-1
2.285591927E0,-8.562056422E-1,-3.506048918E-1,-3.904191256E-1
2.288079635E0,-8.657930493E-1,-3.474090993E-1,-3.893538713E-1
2.290567344E0,-8.711193204E-1,-3.378217220E-1,-3.872233331E-1
2.293055052E0,-8.732498884E-1,-3.218427896E-1,-3.808317482E-1
2.295542760E0,-8.700540662E-1,-2.994722426E-1,-3.723096550E-1
2.298030469E0,-8.647277355E-1,-2.728406489E-1,-3.616569936E-1
2.300518177E0,-8.551403880E-1,-2.430132627E-1,-3.488738537E-1
2.303005885E0,-8.402267098E-1,-2.121206224E-1,-3.339601457E-1
2.305493594E0,-8.199867010E-1,-1.812279820E-1,-3.190464675E-1
2.307981302E0,-7.954856157E-1,-1.514005959E-1,-3.030675054E-1
2.310469010E0,-7.667235136E-1,-1.237037405E-1,-2.892190814E-1
2.312956719E0,-7.368960977E-1,-9.707214683E-2,-2.764359117E-1
2.315444427E0,-7.049382329E-1,-7.150582224E-2,-2.647180259E-1
2.317932135E0,-6.729803085E-1,-4.700475931E-2,-2.551306486E-1
2.320419844E0,-6.420876384E-1,-2.356895804E-2,-2.455432713E-1
2.322907552E0,-6.133255363E-1,-4.394212738E-3,-2.391516864E-1
2.325395260E0,-5.834981799E-1,1.051947847E-2,-2.338253707E-1
2.327882969E0,-5.547360182E-1,1.904158667E-2,-2.306295782E-1
2.330370677E0,-5.291697383E-1,2.330264263E-2,-2.284990549E-1
2.332858385E0,-5.067991614E-1,1.904158667E-2,-2.306295782E-1
2.335346094E0,-4.854938984E-1,1.051947847E-2,-2.348906398E-1
2.337833802E0,-4.684496820E-1,-2.263685223E-3,-2.412822098E-1
2.340321510E0,-4.546012580E-1,-1.717737690E-2,-2.508696020E-1
2.342809219E0,-4.460791349E-1,-3.422159329E-2,-2.604569495E-1
2.345296927E0,-4.418180883E-1,-5.233107507E-2,-2.721748650E-1
2.347784635E0,-4.418180883E-1,-6.937529147E-2,-2.838927507E-1
2.350272344E0,-4.460791349E-1,-8.855003864E-2,-2.977411747E-1
2.352760052E0,-4.524707198E-1,-1.087900475E-1,-3.115896285E-1
2.355247760E0,-4.631233811E-1,-1.268995255E-1,-3.265033066E-1
2.357735469E0,-4.748412669E-1,-1.471395344E-1,-3.424822688E-1
2.360223177E0,-4.897549450E-1,-1.663142890E-1,-3.595264852E-1
2.362710885E0,-5.057339072E-1,-1.865542978E-1,-3.787012100E-1
2.365198594E0,-5.206475854E-1,-2.057290375E-1,-3.989412189E-1
2.367686302E0,-5.366265774E-1,-2.206427306E-1,-4.202465117E-1
2.370174010E0,-5.536707640E-1,-2.334259003E-1,-4.415517747E-1
2.372661719E0,-5.717802644E-1,-2.408827394E-1,-4.639223218E-1
2.375149427E0,-5.898897648E-1,-2.451438010E-1,-4.841623306E-1
2.377637135E0,-6.079992056E-1,-2.440785319E-1,-5.012065172E-1
2.380124896E0,-6.250434518E-1,-2.366216928E-1,-5.118591785E-1
2.382612656E0,-6.378266215E-1,-2.238385230E-1,-5.182507634E-1
2.385100416E0,-6.463487148E-1,-2.046637833E-1,-5.182507634E-1
2.387588177E0,-6.484792233E-1,-1.790974438E-1,-5.139896870E-1
2.390075937E0,-6.452834606E-1,-1.471395344E-1,-5.075981021E-1
2.392563698E0,-6.346307993E-1,-1.098553166E-1,-5.001412630E-1
2.395051458E0,-6.218476295E-1,-6.937529147E-2,-4.958802164E-1
2.397539219E0,-6.048034430E-1,-2.783001214E-2,-4.926844239E-1
2.400026979E0,-5.866939425E-1,1.265000552E-2,-4.916191697E-1
2.402514739E0,-5.707150102E-1,4.886896908E-2,-4.926844239E-1
2.405002500E0,-5.579318404E-1,8.189214021E-2,-4.937497079E-1
2.407490260E0,-5.494097471E-1,1.074584723E-1,-4.926844239E-1
2.409978021E0,-5.430181623E-1,1.245026886E-1,-4.884233773E-1
2.412465781E0,-5.387570858E-1,1.351553202E-1,-4.820317924E-1
2.414953541E0,-5.355613232E-1,1.394163817E-1,-4.724444151E-1
2.417441302E0,-5.313002467E-1,1.394163817E-1,-4.617917836E-1
2.419929062E0,-5.270391703E-1,1.383511126E-1,-4.500738978E-1
2.422416823E0,-5.206475854E-1,1.362205893E-1,-4.394212663E-1
2.424904583E0,-5.142560005E-1,1.340900660E-1,-4.319643974E-1
2.427392344E0,-5.067991614E-1,1.330247968E-1,-4.266380966E-1
2.429880104E0,-4.982770681E-1,1.340900660E-1,-4.245075583E-1
2.432367864E0,-4.929507375E-1,1.351553202E-1,-4.255728126E-1
2.434855625E0,-4.897549450E-1,1.372858584E-1,-4.287686050E-1
2.437343385E0,-4.886896908E-1,1.372858584E-1,-4.330296814E-1
2.439831146E0,-4.897549450E-1,1.351553202E-1,-4.383559823E-1
2.442318906E0,-4.940160215E-1,1.287637353E-1,-4.436823130E-1
2.444806666E0,-4.982770681E-1,1.181111038E-1,-4.511391521E-1
2.447294427E0,-5.036033988E-1,1.021321490E-1,-4.585959911E-1
2.449782187E0,-5.078644156E-1,8.402267098E-2,-4.660528302E-1
2.452269948E0,-5.121254921E-1,6.484792382E-2,-4.735096991E-1
2.454757708E0,-5.163865685E-1,4.780370742E-2,-4.799012840E-1
2.457245469E0,-5.185170770E-1,3.395527974E-2,-4.830970466E-1
2.459733229E0,-5.185170770E-1,2.436790615E-2,-4.841623306E-1
2.462220989E0,-5.163865685E-1,2.223737910E-2,-4.799012840E-1
2.464708750E0,-5.099949837E-1,2.756369673E-2,-4.724444151E-1
2.467196510E0,-4.993423223E-1,3.821633384E-2,-4.617917836E-1
2.469684271E0,-4.822981060E-1,5.419528857E-2,-4.500738978E-1
2.472172031E0,-4.609928429E-1,7.443529367E-2,-4.383559823E-1
2.474659791E0,-4.343612492E-1,9.467530251E-2,-4.298338890E-1
2.477147552E0,-4.055991173E-1,1.159805804E-1,-4.255728126E-1
2.479635312E0,-3.779022694E-1,1.383511126E-1,-4.234423041E-1
2.482123073E0,-3.512706757E-1,1.596563905E-1,-4.234423041E-1
2.484610833E0,-3.267696202E-1,1.767006069E-1,-4.223770201E-1
2.487098594E0,-3.075948656E-1,1.926795542E-1,-4.191812575E-1
2.489586354E0,-2.916159332E-1,2.043974549E-1,-4.127896726E-1
2.492074114E0,-2.777675092E-1,2.107890397E-1,-4.032022953E-1
2.494561875E0,-2.660495937E-1,2.129195631E-1,-3.893538713E-1
2.497049635E0,-2.553969622E-1,2.097237855E-1,-3.755054474E-1
2.499537396E0,-2.458095849E-1,2.054627240E-1,-3.605917394E-1
2.502025156E0,-2.372874767E-1,1.980058849E-1,-3.499391079E-1
2.504512916E0,-2.308958918E-1,1.873532385E-1,-3.435475230E-1
2.507000677E0,-2.266348451E-1,1.735048145E-1,-3.403517306E-1
2.509488437E0,-2.277000993E-1,1.585911214E-1,-3.414169848E-1
2.511976198E0,-2.330264151E-1,1.415469050E-1,-3.456780612E-1
2.514463958E0,-2.426137924E-1,1.234374270E-1,-3.499391079E-1
2.516951719E0,-2.564622164E-1,1.042626798E-1,-3.552654386E-1
2.519439479E0,-2.724411786E-1,8.402267098E-2,-3.605917394E-1
2.521927239E0,-2.894853950E-1,6.165213138E-2,-3.637875319E-1
2.524415000E0,-3.054643571E-1,3.821633384E-2,-3.659180701E-1
2.526902760E0,-3.225085735E-1,1.691105962E-2,-3.680485785E-1
2.529390521E0,-3.374222517E-1,-4.394212738E-3,-3.701791167E-1
2.531878281E0,-3.502054214E-1,-2.463422157E-2,-3.744401634E-1
2.534366041E0,-3.619233072E-1,-4.061317816E-2,-3.808317482E-1
2.536853802E0,-3.736412227E-1,-5.339634046E-2,-3.893538713E-1
2.539341562E0,-3.821633458E-1,-6.191844866E-2,-3.989412189E-1
2.541829323E0,-3.917506933E-1,-6.511423737E-2,-4.085285962E-1
2.544317083E0,-3.981422782E-1,-6.724476814E-2,-4.181159735E-1
2.546804844E0,-4.045338631E-1,-6.511423737E-2,-4.245075583E-1
2.549292604E0,-4.087949097E-1,-5.872265995E-2,-4.287686050E-1
2.551780364E0,-4.087949097E-1,-4.913528636E-2,-4.287686050E-1
2.554268125E0,-4.045338631E-1,-3.422159329E-2,-4.255728126E-1
2.556755833E0,-3.970770240E-1,-1.504684892E-2,-4.191812575E-1
2.559243541E0,-3.864243925E-1,9.454214945E-3,-4.106591344E-1
2.561731250E0,-3.715106845E-1,3.395527974E-2,-4.021370113E-1
2.564218958E0,-3.544664681E-1,6.058686972E-2,-3.936149180E-1
2.566706666E0,-3.384875357E-1,8.508793265E-2,-3.861580789E-1
2.569194375E0,-3.225085735E-1,1.042626798E-1,-3.808317482E-1
2.571682083E0,-3.097254038E-1,1.181111038E-1,-3.787012100E-1
2.574169791E0,-3.001380265E-1,1.255679578E-1,-3.787012100E-1
2.576657500E0,-2.948117256E-1,1.266332120E-1,-3.797664940E-1
2.579145208E0,-2.905506492E-1,1.223721579E-1,-3.776359558E-1
2.581632916E0,-2.873548567E-1,1.149153188E-1,-3.733749092E-1
2.584120625E0,-2.830938101E-1,1.074584723E-1,-3.627222776E-1
2.586608333E0,-2.756369710E-1,1.031974182E-1,-3.467433155E-1
2.589096041E0,-2.639190555E-1,1.031974182E-1,-3.275685608E-1
2.591583750E0,-2.500706315E-1,1.095889956E-1,-3.051980436E-1
2.594071458E0,-2.308958918E-1,1.213068962E-1,-2.849580348E-1
2.596559166E0,-2.095906287E-1,1.351553202E-1,-2.668485343E-1
2.599046875E0,-1.861548275E-1,1.511342824E-1,-2.540653646E-1
2.601534583E0,-1.637842804E-1,1.628521830E-1,-2.487390637E-1
2.604022291E0,-1.435442716E-1,1.692437679E-1,-2.487390637E-1
2.606510000E0,-1.265000552E-1,1.703090221E-1,-2.530001104E-1
2.608997708E0,-1.147821546E-1,1.660479754E-1,-2.604569495E-1
2.611485416E0,-1.083905771E-1,1.543300748E-1,-2.689790726E-1
2.613973125E0,-1.073253155E-1,1.351553202E-1,-2.775011659E-1
2.616460833E0,-1.105211005E-1,1.106542572E-1,-2.838927507E-1
2.618948541E0,-1.169126853E-1,8.082687855E-2,-2.902843356E-1
2.621436250E0,-1.275653243E-1,4.780370742E-2,-2.966759205E-1
2.623923958E0,-1.382179558E-1,1.265000552E-2,-3.030675054E-1
2.626411666E0,-1.510011256E-1,-2.250369452E-2,-3.137201369E-1
2.628899375E0,-1.637842804E-1,-5.446160212E-2,-3.254380524E-1
2.631387083E0,-1.776327193E-1,-8.109319210E-2,-3.403517306E-1
2.633874791E0,-1.904158741E-1,-1.023984700E-1,-3.563306928E-1
2.636362500E0,-2.042642981E-1,-1.162468940E-1,-3.723096550E-1
2.638850208E0,-2.181127369E-1,-1.247690022E-1,-3.872233331E-1
2.641337916E0,-2.319611609E-1,-1.279647946E-1,-3.989412189E-1
2.643825625E0,-2.447443157E-1,-1.268995255E-1,-4.063980877E-1
2.646313333E0,-2.575274706E-1,-1.237037405E-1,-4.117243886E-1
2.648801041E0,-2.692453861E-1,-1.173121557E-1,-4.117243886E-1
2.651288802E0,-2.820285559E-1,-1.087900475E-1,-4.074633420E-1
2.653776562E0,-2.916159332E-1,-9.813741595E-2,-3.978759646E-1
2.656264323E0,-3.001380265E-1,-8.641951531E-2,-3.861580789E-1
2.658752083E0,-3.054643571E-1,-7.257108390E-2,-3.701791167E-1
2.661239844E0,-3.065296113E-1,-5.765739456E-2,-3.520696461E-1
2.663727604E0,-3.065296113E-1,-3.741738573E-2,-3.318296373E-1
2.666215364E0,-3.033338189E-1,-1.504684892E-2,-3.115896285E-1
2.668703125E0,-2.990727723E-1,1.051947847E-2,-2.913496196E-1
2.671190885E0,-2.916159332E-1,3.395527974E-2,-2.732401192E-1
2.673678646E0,-2.852243483E-1,5.739107728E-2,-2.561959028E-1
2.676166406E0,-2.777675092E-1,7.869634777E-2,-2.412822098E-1
2.678654166E0,-2.713759243E-1,9.680583328E-2,-2.274337858E-1
2.681141927E0,-2.649843395E-1,1.106542572E-1,-2.157158852E-1
2.683629687E0,-2.607232630E-1,1.223721579E-1,-2.050632536E-1
2.686117448E0,-2.543317080E-1,1.308942735E-1,-1.944106072E-1
2.688605208E0,-2.479401082E-1,1.362205893E-1,-1.858884990E-1
2.691092969E0,-2.415485233E-1,1.383511126E-1,-1.784316599E-1
2.693580729E0,-2.340916842E-1,1.383511126E-1,-1.720400751E-1
2.696068489E0,-2.277000993E-1,1.351553202E-1,-1.699095517E-1
2.698556250E0,-2.234390527E-1,1.287637353E-1,-1.699095517E-1
2.701044010E0,-2.202432603E-1,1.191763729E-1,-1.731053442E-1
2.703531771E0,-2.181127369E-1,1.042626798E-1,-1.794969290E-1
2.706019531E0,-2.149169445E-1,8.828372508E-2,-1.858884990E-1
2.708507291E0,-2.127864063E-1,7.017423958E-2,-1.954758763E-1
2.710995052E0,-2.074600905E-1,5.099949613E-2,-2.061285079E-1
2.713482812E0,-2.010685056E-1,3.289001435E-2,-2.167811543E-1
2.715970573E0,-1.914811432E-1,1.478053257E-2,-2.306295782E-1
2.718458333E0,-1.808284968E-1,-5.459476262E-3,-2.423474789E-1
2.720946094E0,-1.701758653E-1,-2.569948509E-2,-2.551306486E-1
2.723433854E0,-1.595232338E-1,-4.913528636E-2,-2.668485343E-1
2.725921614E0,-1.488705873E-1,-7.257108390E-2,-2.785664499E-1
2.728409375E0,-1.382179558E-1,-9.707214683E-2,-2.881538272E-1
2.730897135E0,-1.275653243E-1,-1.194426864E-1,-2.977411747E-1
2.733384896E0,-1.158474237E-1,-1.386174262E-1,-3.030675054E-1
2.735872656E0,-1.009337306E-1,-1.567269117E-1,-3.073285520E-1
2.738360416E0,-8.388951421E-2,-1.705753356E-1,-3.073285520E-1
2.740848177E0,-6.471476704E-2,-1.801627129E-1,-3.062632978E-1
2.743335937E0,-4.340949282E-2,-1.854890287E-1,-3.041327596E-1
2.745823698E0,-2.210422046E-2,-1.854890287E-1,-3.009369671E-1
2.748311458E0,-1.864211401E-3,-1.812279820E-1,-2.966759205E-1
2.750799219E0,1.837579720E-2,-1.737711281E-1,-2.913496196E-1
2.753286979E0,3.648528084E-2,-1.652490199E-1,-2.849580348E-1
2.755774739E0,5.352949724E-2,-1.545963883E-1,-2.764359117E-1
2.758262500E0,6.950845569E-2,-1.439437568E-1,-2.679138184E-1
2.760750260E0,8.122635633E-2,-1.322258562E-1,-2.593916953E-1
2.763238021E0,8.974846452E-2,-1.205079481E-1,-2.487390637E-1
2.765725781E0,9.507478029E-2,-1.109205782E-1,-2.380864173E-1
2.768213541E0,9.720530361E-2,-1.013332009E-1,-2.263685167E-1
2.770701302E0,9.720530361E-2,-9.174583107E-2,-2.135853618E-1
2.773189062E0,9.614004195E-2,-8.641951531E-2,-2.029327303E-1
2.775676823E0,9.507478029E-2,-8.215846121E-2,-1.922800839E-1
2.778164583E0,9.507478029E-2,-8.002793044E-2,-1.826927215E-1
2.780652344E0,9.294424951E-2,-8.002793044E-2,-1.752358675E-1
2.783140104E0,9.081372619E-2,-8.109319210E-2,-1.688442826E-1
2.785627864E0,8.761793375E-2,-8.535424620E-2,-1.656484902E-1
2.788115625E0,8.548741043E-2,-9.068056941E-2,-1.645832360E-1
2.790603385E0,8.122635633E-2,-9.600688517E-2,-1.645832360E-1
2.793091146E0,7.590003312E-2,-1.013332009E-1,-1.667137593E-1
2.795578906E0,7.057371736E-2,-1.023984700E-1,-1.667137593E-1
2.798066666E0,6.631266326E-2,-1.034637317E-1,-1.667137593E-1
2.800554427E0,6.311687082E-2,-1.013332009E-1,-1.635179669E-1
2.803042187E0,6.311687082E-2,-9.920267761E-2,-1.603221744E-1
2.805529948E0,6.524740160E-2,-9.387636185E-2,-1.549958587E-1
2.808017708E0,6.844318658E-2,-8.748477697E-2,-1.486042738E-1
2.810505469E0,7.270424068E-2,-8.215846121E-2,-1.443432271E-1
2.812993229E0,7.803056389E-2,-7.789740711E-2,-1.411474347E-1
2.815480989E0,8.229161799E-2,-7.257108390E-2,-1.379516423E-1
2.817968750E0,8.655267209E-2,-6.937529147E-2,-1.358211190E-1
2.820456510E0,9.081372619E-2,-6.724476814E-2,-1.315600574E-1
2.822944219E0,9.294424951E-2,-6.617950648E-2,-1.262337416E-1
2.825431927E0,9.507478029E-2,-6.404897571E-2,-1.177116334E-1
2.827919635E0,9.614004195E-2,-6.404897571E-2,-1.070589945E-1
2.830407344E0,9.827057272E-2,-6.404897571E-2,-9.214530140E-2
2.832895052E0,9.933583438E-2,-6.511423737E-2,-7.403582335E-2
2.835382760E0,9.933583438E-2,-6.724476814E-2,-5.486107618E-2
2.837870469E0,9.933583438E-2,-6.937529147E-2,-3.462106735E-2
2.840358177E0,9.933583438E-2,-7.257108390E-2,-1.544632297E-2
2.842845885E0,9.933583438E-2,-7.789740711E-2,2.663159044E-3
2.845333594E0,9.933583438E-2,-8.215846121E-2,1.864211448E-2
2.847821302E0,9.827057272E-2,-8.535424620E-2,3.249054030E-2
2.850309010E0,9.720530361E-2,-8.748477697E-2,4.314317927E-2
2.852796719E0,9.614004195E-2,-8.961530030E-2,5.060002208E-2
2.855284427E0,9.507478029E-2,-9.174583107E-2,5.699160323E-2
2.857772135E0,9.400951862E-2,-9.281109273E-2,5.912213027E-2
2.860259844E0,9.187898785E-2,-9.494162351E-2,5.805686861E-2
2.862747552E0,8.761793375E-2,-9.920267761E-2,5.486107618E-2
2.865235260E0,8.122635633E-2,-1.034637317E-1,4.740423337E-2
2.867722969E0,7.483477145E-2,-1.098553166E-1,3.675159439E-2
2.870210677E0,6.524740160E-2,-1.194426864E-1,2.396843210E-2
2.872698385E0,5.459476262E-2,-1.300953180E-1,7.989477366E-3
2.875186094E0,4.394212365E-2,-1.418132186E-1,-9.054740891E-3
2.877673802E0,3.328948840E-2,-1.545963883E-1,-2.609895915E-2
2.880161510E0,2.157158963E-2,-1.652490199E-1,-4.207791388E-2
2.882649219E0,1.091895252E-2,-1.748363972E-1,-5.805686861E-2
2.885136927E0,1.331579522E-3,-1.833585054E-1,-7.190529257E-2
2.887624635E0,-8.255792782E-3,-1.897500902E-1,-8.575372398E-2
2.890112344E0,-1.677790284E-2,-1.940111369E-1,-9.853688627E-2
2.892600052E0,-2.423474751E-2,-1.961416751E-1,-1.091895252E-1
2.895087760E0,-3.169159219E-2,-1.972069293E-1,-1.198421568E-1
2.897575469E0,-3.914843872E-2,-1.950764060E-1,-1.283642650E-1
2.900063177E0,-4.554001987E-2,-1.897500902E-1,-1.347558498E-1
2.902550885E0,-5.086633936E-2,-1.812279820E-1,-1.368863732E-1
2.905038594E0,-5.512739345E-2,-1.695100814E-1,-1.358211190E-1
2.907526302E0,-5.832318589E-2,-1.567269117E-1,-1.326253265E-1
2.910014010E0,-5.938844755E-2,-1.418132186E-1,-1.262337416E-1
2.912501719E0,-5.832318589E-2,-1.268995255E-1,-1.187768951E-1
2.914989427E0,-5.725792050E-2,-1.141163707E-1,-1.102547869E-1
2.917477135E0,-5.512739345E-2,-1.013332009E-1,-1.017326787E-1
2.919964896E0,-5.299686641E-2,-9.174583107E-2,-9.427583218E-2
2.922452656E0,-5.193160102E-2,-8.322372288E-2,-8.681898564E-2
2.924940416E0,-5.086633936E-2,-7.576687634E-2,-8.042740822E-2
2.927428177E0,-4.873581231E-2,-6.937529147E-2,-7.297056168E-2
2.929915937E0,-4.554001987E-2,-6.191844866E-2,-6.444845349E-2
2.932403698E0,-4.127896577E-2,-5.339634046E-2,-5.592634156E-2
2.934891458E0,-3.595264629E-2,-4.380896688E-2,-4.633896798E-2
2.937379219E0,-2.956106514E-2,-3.422159329E-2,-3.888212144E-2
2.939866979E0,-2.316948399E-2,-2.569948509E-2,-3.249054030E-2
2.942354739E0,-1.571263932E-2,-1.824264042E-2,-2.716422267E-2
2.944842500E0,-8.255792782E-3,-1.078579482E-2,-2.396843210E-2
2.947330260E0,-7.989477599E-4,-6.524739787E-3,-2.290316857E-2
2.949818021E0,4.527370445E-3,-5.459476262E-3,-2.290316857E-2
2.952305781E0,9.853689000E-3,-6.524739787E-3,-2.609895915E-2
2.954793541E0,1.304947957E-2,-1.291632187E-2,-3.036001325E-2
2.957281302E0,1.411474310E-2,-2.250369452E-2,-3.462106735E-2
2.959769062E0,1.518000662E-2,-3.528685868E-2,-3.994738683E-2
2.962256823E0,1.624527015E-2,-4.913528636E-2,-4.527370632E-2
2.964744583E0,1.624527015E-2,-6.404897571E-2,-4.846949503E-2
2.967232344E0,1.624527015E-2,-7.896266878E-2,-5.060002208E-2
2.969720104E0,1.518000662E-2,-9.174583107E-2,-5.166528746E-2
2.972207864E0,1.518000662E-2,-1.023984700E-1,-5.166528746E-2
2.974695625E0,1.411474310E-2,-1.098553166E-1,-5.060002208E-2
2.977183385E0,1.304947957E-2,-1.151816323E-1,-4.846949503E-2
2.979671146E0,1.091895252E-2,-1.183774248E-1,-4.633896798E-2
2.982158906E0,8.788425475E-3,-1.183774248E-1,-4.420844093E-2
2.984646666E0,6.657897960E-3,-1.173121557E-1,-4.314317927E-2
2.987134427E0,3.462106921E-3,-1.141163707E-1,-4.207791388E-2
2.989622187E0,2.396843163E-3,-1.087900475E-1,-4.101264849E-2
2.992109948E0,2.396843163E-3,-1.002679393E-1,-3.994738683E-2
2.994597708E0,5.592633970E-3,-8.961530030E-2,-3.781685978E-2
2.997085469E0,8.788425475E-3,-7.576687634E-2,-3.568633273E-2
2.999573229E0,1.518000662E-2,-6.085318699E-2,-3.249054030E-2
3.002060989E0,2.050632425E-2,-4.274370521E-2,-3.036001325E-2
3.004548750E0,2.796317078E-2,-2.250369452E-2,-2.822948620E-2
3.007036510E0,3.542001545E-2,-3.328948980E-3,-2.609895915E-2
3.009524271E0,4.181159660E-2,1.691105962E-2,-2.396843210E-2
3.012012031E0,4.926844314E-2,3.502054140E-2,-2.183790505E-2
3.014499791E0,5.566002429E-2,5.313002318E-2,-2.077264152E-2
3.016987552E0,6.098634377E-2,6.804371625E-2,-2.077264152E-2
3.019475312E0,6.844318658E-2,7.976161689E-2,-2.183790505E-2
3.021963073E0,7.376950979E-2,8.934898674E-2,-2.290316857E-2
3.024450833E0,8.122635633E-2,9.574057162E-2,-2.503369562E-2
3.026938594E0,8.548741043E-2,9.893636405E-2,-2.609895915E-2
3.029426354E0,8.974846452E-2,9.893636405E-2,-2.822948620E-2
3.031914114E0,9.294424951E-2,9.787109494E-2,-3.036001325E-2
3.034401875E0,9.507478029E-2,9.467530251E-2,-3.142527863E-2
3.036889635E0,9.720530361E-2,9.041424841E-2,-3.036001325E-2
3.039377396E0,9.933583438E-2,8.508793265E-2,-2.929474972E-2
3.041865156E0,1.004010960E-1,7.976161689E-2,-2.503369562E-2
3.044352916E0,1.035968885E-1,7.443529367E-2,-2.183790505E-2
3.046840677E0,1.067926809E-1,6.910897791E-2,-1.970737800E-2
3.049328437E0,1.110537350E-1,6.378266215E-2,-1.757685095E-2
3.051816198E0,1.142495275E-1,6.058686972E-2,-1.651158556E-2
3.054303958E0,1.195758432E-1,5.526055023E-2,-1.651158556E-2
3.056791719E0,1.238368973E-1,5.099949613E-2,-1.757685095E-2
3.059279479E0,1.270326823E-1,4.886896908E-2,-1.651158556E-2
3.061767239E0,1.291632205E-1,4.567318037E-2,-1.757685095E-2
3.064255000E0,1.302284747E-1,4.354264960E-2,-1.544632297E-2
3.066742760E0,1.312937438E-1,4.141212255E-2,-1.225053146E-2
3.069230521E0,1.334242672E-1,3.715106845E-2,-9.054740891E-3
3.071718281E0,1.355548054E-1,3.289001435E-2,-5.858949851E-3
3.074206041E0,1.366200596E-1,2.862896025E-2,-5.326318205E-4
3.076693802E0,1.376853287E-1,2.543316968E-2,3.728422802E-3
3.079181562E0,1.387505829E-1,2.117211558E-2,6.924213842E-3
3.081669323E0,1.398158520E-1,1.584579609E-2,7.989477366E-3
3.084157083E0,1.408811212E-1,1.051947847E-2,9.054740891E-3
3.086644791E0,1.408811212E-1,5.193160381E-3,7.989477366E-3
3.089132500E0,1.398158520E-1,-1.331579551E-4,5.858949851E-3
3.091620208E0,1.398158520E-1,-5.459476262E-3,1.597895520E-3
3.094107916E0,1.398158520E-1,-9.720530361E-3,-2.663159044E-3
3.096595625E0,1.387505829E-1,-1.398158539E-2,-6.924213842E-3
3.099083333E0,1.366200596E-1,-1.824264042E-2,-1.118526794E-2
3.101571041E0,1.355548054E-1,-2.037316747E-2,-1.438105945E-2
3.104058750E0,1.334242672E-1,-2.250369452E-2,-1.864211448E-2
3.106546458E0,1.312937438E-1,-2.569948509E-2,-2.290316857E-2
3.109034166E0,1.291632205E-1,-2.783001214E-2,-2.609895915E-2
3.111521875E0,1.249021590E-1,-2.996053919E-2,-2.716422267E-2
3.114009583E0,1.206411049E-1,-2.996053919E-2,-2.822948620E-2
3.116497291E0,1.153147891E-1,-2.996053919E-2,-2.716422267E-2
3.118985000E0,1.099884734E-1,-2.889527567E-2,-2.503369562E-2
3.121472708E0,1.035968885E-1,-2.676474862E-2,-2.077264152E-2
3.123960416E0,9.720530361E-2,-2.569948509E-2,-1.544632297E-2
3.126448125E0,9.187898785E-2,-2.356895804E-2,-9.054740891E-3
3.128935833E0,8.655267209E-2,-2.143843099E-2,-2.663159044E-3
3.131423541E0,8.016108721E-2,-1.930790395E-2,4.793686327E-3
3.133911250E0,7.590003312E-2,-1.717737690E-2,1.012000442E-2
3.136398958E0,7.163897902E-2,-1.291632187E-2,1.438105945E-2
3.138886666E0,6.737792492E-2,-8.655266836E-3,1.757685095E-2
3.141374375E0,6.418213248E-2,-2.263685223E-3,1.864211448E-2
3.143862083E0,6.098634377E-2,5.193160381E-3,1.970737800E-2
3.146349791E0,5.779055133E-2,1.478053257E-2,2.077264152E-2
3.148837500E0,5.566002429E-2,2.543316968E-2,2.290316857E-2
3.151325208E0,5.459476262E-2,3.821633384E-2,2.609895915E-2
3.153812916E0,5.459476262E-2,5.206476152E-2,3.249054030E-2
3.156300625E0,5.672528967E-2,6.591318548E-2,3.994738683E-2
3.158788333E0,5.885581672E-2,7.869634777E-2,4.846949503E-2
3.161276041E0,6.311687082E-2,8.934898674E-2,5.805686861E-2
3.163763750E0,6.737792492E-2,9.893636405E-2,6.764423847E-2
3.166251458E0,7.376950979E-2,1.042626798E-1,7.510108501E-2
3.168739166E0,7.696529478E-2,1.074584723E-1,8.042740822E-2
3.171226875E0,8.122635633E-2,1.074584723E-1,8.468846232E-2
3.173714583E0,8.335687965E-2,1.063932031E-1,8.788424730E-2
3.176202291E0,8.548741043E-2,1.021321490E-1,8.894951642E-2
3.178690000E0,8.761793375E-2,9.574057162E-2,8.894951642E-2
3.181177708E0,8.868319541E-2,8.721846342E-2,8.894951642E-2
3.183665469E0,8.974846452E-2,7.763108611E-2,8.894951642E-2
3.186153229E0,9.081372619E-2,6.804371625E-2,8.894951642E-2
3.188640989E0,9.187898785E-2,5.845634267E-2,8.788424730E-2
3.191128750E0,9.400951862E-2,5.099949613E-2,8.788424730E-2
3.193616510E0,9.614004195E-2,4.460791498E-2,8.681898564E-2
3.196104271E0,9.827057272E-2,3.928159550E-2,8.575372398E-2
3.198592031E0,1.004010960E-1,3.395527974E-2,8.255793154E-2
3.201079791E0,1.025316268E-1,2.862896025E-2,7.936213911E-2
3.203567552E0,1.035968885E-1,2.436790615E-2,7.403582335E-2
3.206055312E0,1.035968885E-1,2.117211558E-2,6.764423847E-2
3.208543073E0,1.025316268E-1,1.691105962E-2,6.231792271E-2
3.211030833E0,1.004010960E-1,1.371526904E-2,5.592634156E-2
3.213518594E0,9.827057272E-2,9.454214945E-3,5.060002208E-2
3.216006354E0,9.720530361E-2,5.193160381E-3,4.527370632E-2
3.218494114E0,9.614004195E-2,-1.331579551E-4,4.101264849E-2
3.220981875E0,9.507478029E-2,-5.459476262E-3,3.675159439E-2
3.223469635E0,9.400951862E-2,-1.078579482E-2,3.355580568E-2
3.225957396E0,9.294424951E-2,-1.611211337E-2,2.929474972E-2
3.228445156E0,9.187898785E-2,-1.930790395E-2,2.609895915E-2
3.230932916E0,8.974846452E-2,-2.356895804E-2,1.970737800E-2
3.233420677E0,8.655267209E-2,-2.569948509E-2,1.544632297E-2
3.235908437E0,8.335687965E-2,-2.889527567E-2,1.012000442E-2
3.238396198E0,8.229161799E-2,-2.996053919E-2,4.793686327E-3
3.240883958E0,8.016108721E-2,-3.102580272E-2,5.326318205E-4
3.243371719E0,7.803056389E-2,-3.209106624E-2,-3.728422802E-3
3.245859479E0,7.590003312E-2,-3.209106624E-2,-7.989477366E-3
3.248347239E0,7.376950979E-2,-3.315633163E-2,-1.225053146E-2
3.250835000E0,6.950845569E-2,-3.315633163E-2,-1.544632297E-2
3.253322760E0,6.631266326E-2,-3.315633163E-2,-1.864211448E-2
3.255810521E0,6.205160543E-2,-3.422159329E-2,-2.077264152E-2
3.258298281E0,5.672528967E-2,-3.422159329E-2,-2.183790505E-2
3.260786041E0,5.352949724E-2,-3.315633163E-2,-2.183790505E-2
3.263273802E0,4.926844314E-2,-3.102580272E-2,-2.183790505E-2
3.265761562E0,4.607265070E-2,-2.569948509E-2,-1.864211448E-2
3.268249323E0,4.394212365E-2,-1.824264042E-2,-1.651158556E-2
3.270737083E0,4.181159660E-2,-8.655266836E-3,-1.225053146E-2
3.273224844E0,4.074633494E-2,3.062632866E-3,-6.924213842E-3
3.275712604E0,4.074633494E-2,1.584579609E-2,-5.326318205E-4
3.278200364E0,4.181159660E-2,2.862896025E-2,5.858949851E-3
3.280688125E0,4.500738904E-2,4.141212255E-2,1.118526794E-2
3.283175885E0,4.820318148E-2,5.526055023E-2,1.544632297E-2
3.285663646E0,5.246423557E-2,6.697845459E-2,1.864211448E-2
3.288151406E0,5.672528967E-2,7.869634777E-2,1.970737800E-2
3.290639166E0,5.992107838E-2,8.828372508E-2,1.970737800E-2
3.293126927E0,6.418213248E-2,9.361004084E-2,1.864211448E-2
3.295614687E0,6.737792492E-2,9.787109494E-2,1.757685095E-2
3.298102448E0,6.844318658E-2,9.787109494E-2,1.438105945E-2
3.300590208E0,7.057371736E-2,9.361004084E-2,1.225053146E-2
3.303077969E0,7.163897902E-2,8.615319431E-2,1.012000442E-2
3.305565729E0,7.163897902E-2,7.550056279E-2,6.924213842E-3
3.308053489E0,7.057371736E-2,6.165213138E-2,3.728422802E-3
3.310541250E0,7.057371736E-2,4.673844203E-2,-1.597895520E-3
3.313029010E0,6.844318658E-2,3.075948730E-2,-6.924213842E-3
3.315516771E0,6.737792492E-2,1.371526904E-2,-1.331579592E-2
3.318004531E0,6.524740160E-2,-4.394212738E-3,-2.183790505E-2
3.320492291E0,6.311687082E-2,-2.356895804E-2,-3.036001325E-2
3.322980052E0,5.992107838E-2,-4.380896688E-2,-4.101264849E-2
3.325467812E0,5.566002429E-2,-6.724476814E-2,-5.166528746E-2
3.327955573E0,4.820318148E-2,-9.174583107E-2,-6.444845349E-2
3.330443333E0,4.074633494E-2,-1.194426864E-1,-7.723161578E-2
3.332931094E0,3.222422674E-2,-1.471395344E-1,-8.894951642E-2
3.335418854E0,2.263685316E-2,-1.727058738E-1,-1.006674170E-1
3.337906614E0,1.304947957E-2,-1.972069293E-1,-1.091895252E-1
3.340394323E0,3.462106921E-3,-2.174469382E-1,-1.155811027E-1
3.342882031E0,-5.060002208E-3,-2.323606312E-1,-1.187768951E-1
3.345369739E0,-1.145158429E-2,-2.408827394E-1,-1.198421568E-1
3.347857448E0,-1.784316637E-2,-2.440785319E-1,-1.177116334E-1
3.350345156E0,-2.103895694E-2,-2.387522161E-1,-1.145158410E-1
3.352832864E0,-2.210422046E-2,-2.280995846E-1,-1.091895252E-1
3.355320573E0,-2.103895694E-2,-2.110553533E-1,-1.038632020E-1
3.357808281E0,-1.784316637E-2,-1.886848211E-1,-9.640636295E-2
3.360295989E0,-1.571263932E-2,-1.631184965E-1,-9.001477808E-2
3.362783698E0,-1.038632076E-2,-1.364869028E-1,-8.255793154E-2
3.365271406E0,-5.060002208E-3,-1.077247858E-1,-7.510108501E-2
3.367759114E0,2.663159103E-4,-8.002793044E-2,-6.764423847E-2
3.370246823E0,5.592633970E-3,-5.339634046E-2,-5.805686861E-2
3.372734531E0,1.091895252E-2,-2.996053919E-2,-5.060002208E-2
3.375222239E0,1.518000662E-2,-7.590003312E-3,-4.207791388E-2
3.377709948E0,1.837579720E-2,9.454214945E-3,-3.355580568E-2
3.380197656E0,1.944106072E-2,2.330264263E-2,-2.503369562E-2
3.382685364E0,1.944106072E-2,3.289001435E-2,-1.757685095E-2
3.385173073E0,1.731053367E-2,3.715106845E-2,-1.012000442E-2
3.387660781E0,1.518000662E-2,3.608580679E-2,-3.728422802E-3
3.390148489E0,1.091895252E-2,3.075948730E-2,1.597895520E-3
3.392636198E0,6.657897960E-3,2.117211558E-2,6.924213842E-3
3.395123906E0,1.331579522E-3,9.454214945E-3,1.012000442E-2
3.397611614E0,-5.060002208E-3,-2.263685223E-3,1.225053146E-2
3.400099323E0,-1.038632076E-2,-1.611211337E-2,1.118526794E-2
3.402587031E0,-1.784316637E-2,-2.783001214E-2,1.012000442E-2
3.405074739E0,-2.423474751E-2,-4.167843983E-2,5.858949851E-3
3.407562448E0,-3.062633052E-2,-5.339634046E-2,-5.326318205E-4
3.410050156E0,-3.701791167E-2,-6.617950648E-2,-6.924213842E-3
3.412537864E0,-4.447475821E-2,-7.683213800E-2,-1.331579592E-2
3.415025573E0,-4.980107397E-2,-8.748477697E-2,-2.077264152E-2
3.417513281E0,-5.619265884E-2,-9.813741595E-2,-2.822948620E-2
3.420000989E0,-6.258423626E-2,-1.087900475E-1,-3.355580568E-2
3.422488698E0,-6.791055948E-2,-1.205079481E-1,-3.994738683E-2
3.424976406E0,-7.323687524E-2,-1.300953180E-1,-4.420844093E-2
3.427464114E0,-7.856319100E-2,-1.396826953E-1,-4.740423337E-2
3.429951823E0,-8.282424510E-2,-1.460742801E-1,-4.846949503E-2
3.432439531E0,-8.602003753E-2,-1.492700726E-1,-4.846949503E-2
3.434927239E0,-8.708529919E-2,-1.482048035E-1,-4.527370632E-2
3.437414948E0,-8.708529919E-2,-1.439437568E-1,-4.101264849E-2
3.439902708E0,-8.602003753E-2,-1.364869028E-1,-3.568633273E-2
3.442390469E0,-8.495477587E-2,-1.268995255E-1,-2.929474972E-2
3.444878229E0,-8.282424510E-2,-1.151816323E-1,-2.183790505E-2
3.447365989E0,-7.856319100E-2,-1.023984700E-1,-1.544632297E-2
3.449853750E0,-7.536740601E-2,-8.961530030E-2,-9.054740891E-3
3.452341510E0,-7.004108280E-2,-7.896266878E-2,-5.858949851E-3
3.454829271E0,-6.471476704E-2,-6.724476814E-2,-2.663159044E-3
3.457317031E0,-6.045371294E-2,-5.765739456E-2,-5.326318205E-4
3.459804791E0,-5.406212807E-2,-4.807002097E-2,1.597895520E-3
3.462292552E0,-4.873581231E-2,-4.061317816E-2,1.597895520E-3
3.464780312E0,-4.447475821E-2,-3.528685868E-2,2.663159044E-3
3.467268073E0,-4.021370411E-2,-3.102580272E-2,4.793686327E-3
3.469755833E0,-3.808317333E-2,-2.783001214E-2,5.858949851E-3
3.472243594E0,-3.488738462E-2,-2.676474862E-2,6.924213842E-3
3.474731354E0,-3.275685757E-2,-2.676474862E-2,7.989477366E-3
3.477219114E0,-2.956106514E-2,-2.783001214E-2,9.054740891E-3
3.479706875E0,-2.743053809E-2,-2.783001214E-2,7.989477366E-3
3.482194635E0,-2.530001104E-2,-2.889527567E-2,5.858949851E-3
3.484682396E0,-2.210422046E-2,-2.889527567E-2,2.663159044E-3
3.487170156E0,-1.997369342E-2,-2.996053919E-2,-1.597895520E-3
3.489657916E0,-1.890842989E-2,-3.209106624E-2,-6.924213842E-3
3.492145677E0,-1.890842989E-2,-3.528685868E-2,-1.331579592E-2
3.494633437E0,-1.890842989E-2,-4.061317816E-2,-2.077264152E-2
3.497121198E0,-1.997369342E-2,-4.700475931E-2,-2.929474972E-2
3.499608958E0,-2.210422046E-2,-5.446160212E-2,-3.781685978E-2
3.502096719E0,-2.316948399E-2,-6.191844866E-2,-4.527370632E-2
3.504584479E0,-2.423474751E-2,-6.831002980E-2,-5.166528746E-2
3.507072239E0,-2.530001104E-2,-7.470161468E-2,-5.805686861E-2
3.509560416E0,-2.636527456E-2,-7.896266878E-2,-6.338318437E-2
3.512048385E0,-2.849580161E-2,-8.215846121E-2,-6.764423847E-2
3.514536146E0,-2.849580161E-2,-8.322372288E-2,-7.190529257E-2
3.517023854E0,-2.849580161E-2,-8.109319210E-2,-7.510108501E-2
3.519511562E0,-2.849580161E-2,-7.683213800E-2,-7.616634667E-2
3.521999271E0,-2.530001104E-2,-7.044056058E-2,-7.723161578E-2
3.524486979E0,-2.103895694E-2,-6.298371404E-2,-7.510108501E-2
3.526974687E0,-1.784316637E-2,-5.233107507E-2,-7.403582335E-2
3.529462396E0,-1.251684781E-2,-4.167843983E-2,-7.297056168E-2
3.531950104E0,-8.255792782E-3,-2.996053919E-2,-7.297056168E-2
3.534437812E0,-3.994738683E-3,-1.824264042E-2,-7.297056168E-2
3.536925521E0,2.396843163E-3,-6.524739787E-3,-7.297056168E-2
3.539413229E0,6.657897960E-3,4.127896391E-3,-7.190529257E-2
3.541900937E0,1.304947957E-2,1.478053257E-2,-6.977476925E-2
3.544388646E0,1.944106072E-2,2.436790615E-2,-6.657897681E-2
3.546876354E0,2.476738021E-2,3.395527974E-2,-6.444845349E-2
3.549364062E0,2.902843431E-2,4.247738793E-2,-6.018739566E-2
3.551851771E0,3.328948840E-2,5.099949613E-2,-5.592634156E-2
3.554339479E0,3.755054250E-2,5.739107728E-2,-5.166528746E-2
3.556827187E0,3.968106955E-2,6.271740049E-2,-4.740423337E-2
3.559314896E0,4.287686199E-2,6.697845459E-2,-4.314317927E-2
3.561802604E0,4.500738904E-2,6.910897791E-2,-3.994738683E-2
3.564290312E0,4.607265070E-2,7.123950869E-2,-3.675159439E-2
3.566778021E0,4.607265070E-2,7.017423958E-2,-3.249054030E-2
3.569265729E0,4.607265070E-2,6.804371625E-2,-3.036001325E-2
3.571753437E0,4.607265070E-2,6.378266215E-2,-2.822948620E-2
3.574241146E0,4.500738904E-2,5.845634267E-2,-2.716422267E-2
3.576728854E0,4.394212365E-2,5.099949613E-2,-2.609895915E-2
3.579216562E0,4.287686199E-2,4.354264960E-2,-2.503369562E-2
3.581704271E0,4.181159660E-2,3.608580679E-2,-2.396843210E-2
3.584191979E0,3.968106955E-2,2.969422378E-2,-2.396843210E-2
3.586679687E0,3.755054250E-2,2.223737910E-2,-2.290316857E-2
3.589167396E0,3.542001545E-2,1.371526904E-2,-2.290316857E-2
3.591655104E0,3.222422674E-2,5.193160381E-3,-2.183790505E-2
3.594142812E0,3.009369783E-2,-5.459476262E-3,-2.183790505E-2
3.596630521E0,2.689790726E-2,-1.504684892E-2,-2.183790505E-2
3.599118229E0,2.263685316E-2,-2.676474862E-2,-2.290316857E-2
3.601605937E0,1.731053367E-2,-3.741738573E-2,-2.290316857E-2
3.604093646E0,1.411474310E-2,-4.700475931E-2,-2.290316857E-2
3.606581354E0,9.853689000E-3,-5.552686751E-2,-2.183790505E-2
3.609069062E0,6.657897960E-3,-6.298371404E-2,-2.077264152E-2
3.611556771E0,4.527370445E-3,-6.831002980E-2,-1.757685095E-2
3.614044479E0,2.396843163E-3,-7.044056058E-2,-1.438105945E-2
3.616532187E0,2.663159103E-4,-7.044056058E-2,-1.118526794E-2
3.619019948E0,2.663159103E-4,-6.937529147E-2,-6.924213842E-3
3.621507708E0,-7.989477599E-4,-6.511423737E-2,-3.728422802E-3
3.623995469E0,-1.864211401E-3,-5.978792161E-2,-5.326318205E-4
3.626483229E0,-1.864211401E-3,-5.339634046E-2,3.728422802E-3
3.628970989E0,-7.989477599E-4,-4.700475931E-2,7.989477366E-3
3.631458750E0,2.663159103E-4,-3.848264739E-2,1.331579592E-2
3.633946510E0,2.663159103E-4,-3.102580272E-2,1.864211448E-2
3.636434271E0,2.663159103E-4,-2.356895804E-2,2.396843210E-2
3.638922031E0,2.663159103E-4,-1.717737690E-2,2.929474972E-2
3.641409791E0,2.663159103E-4,-9.720530361E-3,3.568633273E-2
3.643897552E0,2.663159103E-4,-1.198421582E-3,4.101264849E-2
3.646385312E0,-7.989477599E-4,6.258423906E-3,4.846949503E-2
3.648873073E0,-7.989477599E-4,1.265000552E-2,5.486107618E-2
3.651360833E0,-1.864211401E-3,1.797632314E-2,6.125266105E-2
3.653848594E0,-3.994738683E-3,2.330264263E-2,6.657897681E-2
3.656336354E0,-6.125265732E-3,2.649843320E-2,7.297056168E-2
3.658824114E0,-8.255792782E-3,3.075948730E-2,7.616634667E-2
3.661311875E0,-9.321057238E-3,3.395527974E-2,7.936213911E-2
3.663799635E0,-9.321057238E-3,3.928159550E-2,8.255793154E-2
3.666287396E0,-9.321057238E-3,4.354264960E-2,8.468846232E-2
3.668775156E0,-8.255792782E-3,4.673844203E-2,8.575372398E-2
3.671262916E0,-9.321057238E-3,4.993423447E-2,8.468846232E-2
3.673750677E0,-8.255792782E-3,4.886896908E-2,8.255793154E-2
3.676238437E0,-9.321057238E-3,4.567318037E-2,7.829687744E-2
3.678726198E0,-1.145158429E-2,3.821633384E-2,7.190529257E-2
3.681213958E0,-1.571263932E-2,2.756369673E-2,6.338318437E-2
3.683701719E0,-2.210422046E-2,1.478053257E-2,5.379581451E-2
3.686189479E0,-2.956106514E-2,-1.331579551E-4,4.314317927E-2
3.688677239E0,-3.808317333E-2,-1.504684892E-2,3.142527863E-2
3.691165000E0,-4.767054692E-2,-3.102580272E-2,1.970737800E-2
3.693652760E0,-5.725792050E-2,-4.593949392E-2,9.054740891E-3
3.696140521E0,-6.684529036E-2,-5.872265995E-2,5.326318205E-4
3.698628281E0,-7.430213690E-2,-7.044056058E-2,-7.989477366E-3
3.701116041E0,-8.069372177E-2,-7.896266878E-2,-1.438105945E-2
3.703603802E0,-8.602003753E-2,-8.428898454E-2,-2.183790505E-2
3.706091562E0,-9.028109163E-2,-8.748477697E-2,-2.716422267E-2
3.708579323E0,-9.347688407E-2,-8.855003864E-2,-3.355580568E-2
3.711067083E0,-9.667267650E-2,-8.748477697E-2,-3.888212144E-2
3.713554844E0,-9.986846894E-2,-8.322372288E-2,-4.314317927E-2
3.716042604E0,-1.019989923E-1,-7.683213800E-2,-4.740423337E-2
3.718530364E0,-1.051947847E-1,-7.044056058E-2,-4.953476042E-2
3.721018125E0,-1.073253155E-1,-6.298371404E-2,-5.166528746E-2
3.723505885E0,-1.083905771E-1,-5.339634046E-2,-5.166528746E-2
3.725993646E0,-1.073253155E-1,-4.380896688E-2,-4.846949503E-2
3.728481406E0,-1.062600464E-1,-3.315633163E-2,-4.527370632E-2
3.730969166E0,-1.030642539E-1,-2.143843099E-2,-4.101264849E-2
3.733456927E0,-9.986846894E-2,-9.720530361E-3,-3.675159439E-2
3.735944687E0,-9.773793817E-2,3.062632866E-3,-3.355580568E-2
3.738432448E0,-9.560741484E-2,1.584579609E-2,-3.249054030E-2
3.740920208E0,-9.454214573E-2,2.756369673E-2,-3.142527863E-2
3.743407969E0,-9.454214573E-2,3.715106845E-2,-3.249054030E-2
3.745895729E0,-9.667267650E-2,4.460791498E-2,-3.355580568E-2
3.748383489E0,-9.880319983E-2,4.993423447E-2,-3.462106735E-2
3.750871250E0,-1.041295230E-1,5.419528857E-2,-3.675159439E-2
3.753359010E0,-1.094558388E-1,5.845634267E-2,-3.781685978E-2
3.755846771E0,-1.137168929E-1,6.058686972E-2,-3.888212144E-2
3.758334531E0,-1.190432087E-1,6.271740049E-2,-3.994738683E-2
3.760822291E0,-1.233042628E-1,6.378266215E-2,-4.207791388E-2
3.763310052E0,-1.275653243E-1,6.271740049E-2,-4.420844093E-2
3.765797760E0,-1.328916401E-1,6.271740049E-2,-4.633896798E-2
3.768285469E0,-1.371526867E-1,6.058686972E-2,-4.953476042E-2
3.770773177E0,-1.424790174E-1,5.845634267E-2,-5.273054913E-2
3.773260885E0,-1.499358565E-1,5.739107728E-2,-5.592634156E-2
3.775748594E0,-1.573926955E-1,5.526055023E-2,-6.018739566E-2
3.778236302E0,-1.637842804E-1,5.206476152E-2,-6.338318437E-2
3.780724010E0,-1.691105962E-1,5.099949613E-2,-6.657897681E-2
3.783211719E0,-1.723063886E-1,5.313002318E-2,-6.870950758E-2
3.785699427E0,-1.723063886E-1,5.632581562E-2,-7.084003091E-2
3.788187135E0,-1.712411344E-1,6.484792382E-2,-7.190529257E-2
3.790674844E0,-1.680453420E-1,7.443529367E-2,-7.297056168E-2
3.793162552E0,-1.627190262E-1,8.721846342E-2,-7.403582335E-2
3.795650260E0,-1.563274413E-1,9.893636405E-2,-7.723161578E-2
3.798137969E0,-1.488705873E-1,1.095889956E-1,-8.149266988E-2
3.800625677E0,-1.414137483E-1,1.181111038E-1,-8.788424730E-2
3.803113385E0,-1.350221634E-1,1.234374270E-1,-9.534109384E-2
3.805601094E0,-1.296958476E-1,1.276984811E-1,-1.027979404E-1
3.808088802E0,-1.243695319E-1,1.319595277E-1,-1.102547869E-1
3.810576510E0,-1.179779470E-1,1.362205893E-1,-1.166463718E-1
3.813064219E0,-1.115863696E-1,1.415469050E-1,-1.198421568E-1
3.815551927E0,-1.062600464E-1,1.468732208E-1,-1.230379492E-1
3.818039635E0,-9.773793817E-2,1.521995366E-1,-1.230379492E-1
3.820527344E0,-9.028109163E-2,1.585911214E-1,-1.230379492E-1
3.823015052E0,-8.069372177E-2,1.649827063E-1,-1.219726875E-1
3.825502760E0,-7.110634446E-2,1.692437679E-1,-1.209074259E-1
3.827990469E0,-6.258423626E-2,1.703090221E-1,-1.209074259E-1
3.830478177E0,-5.299686641E-2,1.681784987E-1,-1.219726875E-1
3.832965885E0,-4.767054692E-2,1.628521830E-1,-1.241032109E-1
3.835453594E0,-4.447475821E-2,1.553953290E-1,-1.272990108E-1
3.837941302E0,-4.234423116E-2,1.468732208E-1,-1.294295341E-1
3.840429010E0,-4.340949282E-2,1.383511126E-1,-1.294295341E-1
3.842916719E0,-4.447475821E-2,1.298290044E-1,-1.294295341E-1
3.845404427E0,-4.660528526E-2,1.245026886E-1,-1.262337416E-1
3.847892135E0,-4.660528526E-2,1.191763729E-1,-1.230379492E-1
3.850379844E0,-4.767054692E-2,1.159805804E-1,-1.198421568E-1
3.852867552E0,-4.767054692E-2,1.127847880E-1,-1.177116334E-1
3.855355260E0,-4.660528526E-2,1.106542572E-1,-1.166463718E-1
3.857842969E0,-4.660528526E-2,1.095889956E-1,-1.177116334E-1
3.860330677E0,-4.767054692E-2,1.085237339E-1,-1.187768951E-1
3.862818385E0,-4.873581231E-2,1.074584723E-1,-1.209074259E-1
3.865306094E0,-5.086633936E-2,1.095889956E-1,-1.230379492E-1
3.867793802E0,-5.193160102E-2,1.117195264E-1,-1.219726875E-1
3.870281562E0,-5.193160102E-2,1.159805804E-1,-1.209074259E-1
3.872769323E0,-5.086633936E-2,1.223721579E-1,-1.187768951E-1
3.875257083E0,-4.873581231E-2,1.308942735E-1,-1.155811027E-1
3.877744844E0,-4.447475821E-2,1.404816359E-1,-1.123853177E-1
3.880232604E0,-3.914843872E-2,1.490037590E-1,-1.081242561E-1
3.882720364E0,-3.382211924E-2,1.564605981E-1,-1.049284711E-1
3.885208125E0,-2.849580161E-2,1.617869139E-1,-1.017326787E-1
3.887695885E0,-2.530001104E-2,1.628521830E-1,-9.960214794E-2
3.890183646E0,-2.316948399E-2,1.596563905E-1,-9.853688627E-2
3.892671406E0,-1.890842989E-2,1.553953290E-1,-9.534109384E-2
3.895159166E0,-1.464737486E-2,1.490037590E-1,-9.001477808E-2
3.897646927E0,-8.255792782E-3,1.458079666E-1,-8.362319320E-2
3.900134687E0,-7.989477599E-4,1.447426975E-1,-7.723161578E-2
3.902622448E0,9.853689000E-3,1.468732208E-1,-6.977476925E-2
3.905110208E0,2.157158963E-2,1.511342824E-1,-6.231792271E-2
3.907597969E0,3.435475379E-2,1.575258672E-1,-5.592634156E-2
3.910085729E0,4.820318148E-2,1.660479754E-1,-5.166528746E-2
3.912573489E0,6.098634377E-2,1.767006069E-1,-4.846949503E-2
3.915061250E0,7.376950979E-2,1.873532385E-1,-4.633896798E-2
3.917549010E0,8.442214131E-2,1.980058849E-1,-4.420844093E-2
3.920036771E0,9.400951862E-2,2.075932473E-1,-4.101264849E-2
3.922524531E0,1.025316268E-1,2.150501013E-1,-3.781685978E-2
3.925012291E0,1.089232042E-1,2.193111479E-1,-3.462106735E-2
3.927500052E0,1.142495275E-1,2.193111479E-1,-3.249054030E-2
3.929987812E0,1.163800508E-1,2.161153555E-1,-3.036001325E-2
3.932475573E0,1.174453199E-1,2.086585164E-1,-2.929474972E-2
3.934963333E0,1.163800508E-1,2.001364082E-1,-2.822948620E-2
3.937451094E0,1.142495275E-1,1.894837767E-1,-2.822948620E-2
3.939938854E0,1.110537350E-1,1.788311303E-1,-2.929474972E-2
3.942426614E0,1.067926809E-1,1.660479754E-1,-2.929474972E-2
3.944914375E0,1.035968885E-1,1.532648057E-1,-2.822948620E-2
3.947402135E0,1.004010960E-1,1.415469050E-1,-2.929474972E-2
3.949889896E0,9.720530361E-2,1.308942735E-1,-3.036001325E-2
3.952377656E0,9.507478029E-2,1.202416345E-1,-3.142527863E-2
3.954865416E0,9.294424951E-2,1.095889956E-1,-3.355580568E-2
3.957353177E0,9.081372619E-2,1.000016257E-1,-3.675159439E-2
3.959840937E0,8.974846452E-2,8.828372508E-2,-4.101264849E-2
3.962328698E0,8.868319541E-2,7.763108611E-2,-4.527370632E-2
3.964816458E0,8.868319541E-2,6.697845459E-2,-4.953476042E-2
3.967304219E0,8.868319541E-2,5.526055023E-2,-5.166528746E-2
3.969791979E0,8.868319541E-2,4.354264960E-2,-5.486107618E-2
3.972279739E0,8.761793375E-2,3.182475269E-2,-5.486107618E-2
3.974767500E0,8.655267209E-2,1.904158667E-2,-5.486107618E-2
3.977255260E0,8.548741043E-2,5.193160381E-3,-5.379581451E-2
3.979743021E0,8.442214131E-2,-8.655266836E-3,-5.273054913E-2
3.982230781E0,8.229161799E-2,-2.143843099E-2,-5.060002208E-2
3.984718541E0,8.229161799E-2,-3.209106624E-2,-4.846949503E-2
3.987206302E0,8.229161799E-2,-4.061317816E-2,-4.420844093E-2
3.989694062E0,8.442214131E-2,-4.593949392E-2,-3.994738683E-2
3.992181823E0,8.761793375E-2,-5.020054802E-2,-3.568633273E-2
3.994669583E0,9.187898785E-2,-5.339634046E-2,-3.249054030E-2
3.997157344E0,9.720530361E-2,-5.552686751E-2,-2.822948620E-2
3.999645104E0,1.014663652E-1,-5.552686751E-2,-2.396843210E-2
4.002132864E0,1.057274193E-1,-5.339634046E-2,-1.651158556E-2
4.004620625E0,1.121189967E-1,-4.913528636E-2,-7.989477366E-3
4.007108385E0,1.174453199E-1,-4.487423226E-2,4.793686327E-3
4.009596146E0,1.227716357E-1,-3.848264739E-2,1.970737800E-2
4.012083906E0,1.291632205E-1,-3.209106624E-2,3.675159439E-2
4.014571614E0,1.344895363E-1,-2.250369452E-2,5.486107618E-2
4.017059323E0,1.398158520E-1,-1.291632187E-2,7.403582335E-2
4.019547031E0,1.462074369E-1,-3.328948980E-3,9.214530140E-2
4.022034739E0,1.536642760E-1,5.193160381E-3,1.081242561E-1
4.024522448E0,1.611211300E-1,1.051947847E-2,1.198421568E-1
4.027010156E0,1.685779691E-1,1.371526904E-2,1.294295341E-1
4.029498229E0,1.760348231E-1,1.584579609E-2,1.368863732E-1
4.031985781E0,1.834916621E-1,1.584579609E-2,1.422126889E-1
4.034473333E0,1.898832470E-1,1.478053257E-2,1.475390196E-1
4.036960885E0,1.962748319E-1,1.265000552E-2,1.518000662E-1
4.039448437E0,2.047969401E-1,9.454214945E-3,1.571263820E-1
4.041935989E0,2.122537792E-1,5.193160381E-3,1.635179669E-1
4.044423541E0,2.197106332E-1,-2.263685223E-3,1.677790284E-1
4.046911094E0,2.250369489E-1,-1.291632187E-2,1.731053442E-1
4.049398698E0,2.282327414E-1,-2.889527567E-2,1.752358675E-1
4.051886354E0,2.292979956E-1,-4.913528636E-2,1.763011366E-1
4.054374062E0,2.282327414E-1,-7.363634557E-2,1.763011366E-1
4.056861823E0,2.250369489E-1,-1.013332009E-1,1.763011366E-1
4.059349635E0,2.207758874E-1,-1.311605871E-1,1.752358675E-1
4.061837448E0,2.175800949E-1,-1.609879732E-1,1.773663908E-1
4.064325260E0,2.154495716E-1,-1.908153445E-1,1.794969290E-1
4.066813073E0,2.133190483E-1,-2.163816839E-1,1.837579757E-1
4.069300885E0,2.122537792E-1,-2.376869470E-1,1.901495606E-1
4.071788698E0,2.122537792E-1,-2.536658943E-1,1.965411454E-1
4.074276510E0,2.122537792E-1,-2.643185556E-1,2.029327303E-1
4.076764323E0,2.122537792E-1,-2.707101107E-1,2.103895694E-1
4.079252135E0,2.154495716E-1,-2.749711871E-1,2.189116776E-1
4.081739948E0,2.197106332E-1,-2.771016955E-1,2.284990549E-1
4.084227760E0,2.250369489E-1,-2.771016955E-1,2.391516864E-1
4.086715573E0,2.314285189E-1,-2.749711871E-1,2.508696020E-1
4.089203385E0,2.399506420E-1,-2.717753947E-1,2.636527419E-1
4.091691198E0,2.484727502E-1,-2.664490640E-1,2.775011659E-1
4.094179010E0,2.580601275E-1,-2.589922249E-1,2.924148738E-1
4.096666823E0,2.687127590E-1,-2.504701018E-1,3.083938360E-1
4.099154635E0,2.783001363E-1,-2.408827394E-1,3.243727684E-1
4.101642448E0,2.878875136E-1,-2.312953621E-1,3.392864764E-1
4.104130156E0,2.964096069E-1,-2.238385230E-1,3.510043621E-1
4.106617864E0,3.038664460E-1,-2.185122073E-1,3.616569936E-1
4.109105573E0,3.113232851E-1,-2.163816839E-1,3.701791167E-1
4.111593281E0,3.198454082E-1,-2.153164148E-1,3.765707016E-1
4.114080989E0,3.262369931E-1,-2.163816839E-1,3.818970025E-1
4.116568698E0,3.326285779E-1,-2.185122073E-1,3.872233331E-1
4.119056406E0,3.390201628E-1,-2.217079997E-1,3.936149180E-1
4.121544114E0,3.454117477E-1,-2.238385230E-1,4.010717571E-1
4.124031823E0,3.518033028E-1,-2.270343155E-1,4.085285962E-1
4.126519531E0,3.603254259E-1,-2.312953621E-1,4.170507193E-1
4.129007239E0,3.688475490E-1,-2.334259003E-1,4.255728126E-1
4.131494948E0,3.784348965E-1,-2.355564237E-1,4.340949357E-1
4.133982656E0,3.880222738E-1,-2.376869470E-1,4.394212663E-1
4.136470364E0,3.965443969E-1,-2.366216928E-1,4.436823130E-1
4.138958073E0,4.071970284E-1,-2.344911546E-1,4.468781054E-1
4.141445781E0,4.167844057E-1,-2.291648388E-1,4.490086138E-1
4.143933489E0,4.253064990E-1,-2.227732539E-1,4.511391521E-1
4.146421198E0,4.348938763E-1,-2.153164148E-1,4.522044063E-1
4.148908906E0,4.434159994E-1,-2.067943066E-1,4.532696903E-1
4.151396614E0,4.498075843E-1,-2.014679909E-1,4.543349445E-1
4.153884323E0,4.551338851E-1,-1.982721984E-1,4.564654827E-1
4.156372031E0,4.593949318E-1,-2.014679909E-1,4.585959911E-1
4.158859739E0,4.615254700E-1,-2.089248300E-1,4.596612751E-1
4.161347448E0,4.636560082E-1,-2.217079997E-1,4.607265294E-1
4.163835156E0,4.636560082E-1,-2.366216928E-1,4.596612751E-1
4.166322864E0,4.636560082E-1,-2.515353858E-1,4.585959911E-1
4.168810573E0,4.625907242E-1,-2.643185556E-1,4.585959911E-1
4.171298281E0,4.615254700E-1,-2.728406489E-1,4.596612751E-1
4.173785989E0,4.615254700E-1,-2.771016955E-1,4.639223218E-1
4.176273698E0,4.636560082E-1,-2.781669796E-1,4.703139067E-1
4.178761406E0,4.657865167E-1,-2.739059031E-1,4.788360000E-1
4.181249114E0,4.711128473E-1,-2.685796022E-1,4.884233773E-1
4.183736823E0,4.764391780E-1,-2.600574791E-1,4.980107546E-1
4.186224531E0,4.807002246E-1,-2.494048476E-1,5.065328479E-1
4.188712239E0,4.849612713E-1,-2.398174703E-1,5.129244328E-1
4.191199948E0,4.870918095E-1,-2.312953621E-1,5.182507634E-1
4.193687656E0,4.892223179E-1,-2.249037921E-1,5.193160176E-1
4.196175364E0,4.902876019E-1,-2.217079997E-1,5.171855092E-1
4.198663073E0,4.913528562E-1,-2.206427306E-1,5.150549412E-1
4.201150781E0,4.892223179E-1,-2.217079997E-1,5.107939243E-1
4.203638489E0,4.881570637E-1,-2.249037921E-1,5.054675937E-1
4.206126198E0,4.860265255E-1,-2.291648388E-1,5.012065172E-1
4.208613906E0,4.838960171E-1,-2.334259003E-1,4.958802164E-1
4.211101666E0,4.807002246E-1,-2.366216928E-1,4.905539155E-1
4.213589427E0,4.775044322E-1,-2.387522161E-1,4.862928391E-1
4.216077187E0,4.721781015E-1,-2.387522161E-1,4.820317924E-1
4.218564948E0,4.679170549E-1,-2.376869470E-1,4.799012840E-1
4.221052708E0,4.615254700E-1,-2.355564237E-1,4.788360000E-1
4.223540469E0,4.572644234E-1,-2.312953621E-1,4.799012840E-1
4.226028229E0,4.540686309E-1,-2.259690464E-1,4.809665382E-1
4.228515989E0,4.508728385E-1,-2.206427306E-1,4.820317924E-1
4.231003750E0,4.487423003E-1,-2.153164148E-1,4.830970466E-1
4.233491510E0,4.466117918E-1,-2.078595608E-1,4.830970466E-1
4.235979271E0,4.434159994E-1,-2.004027218E-1,4.830970466E-1
4.238467031E0,4.402202070E-1,-1.908153445E-1,4.830970466E-1
4.240954791E0,4.370244145E-1,-1.801627129E-1,4.852275848E-1
4.243442552E0,4.327633679E-1,-1.705753356E-1,4.884233773E-1
4.245930312E0,4.306328297E-1,-1.620532274E-1,4.937497079E-1
4.248418073E0,4.285022914E-1,-1.545963883E-1,5.022718310E-1
4.250905833E0,4.295675755E-1,-1.514005959E-1,5.118591785E-1
4.253393594E0,4.295675755E-1,-1.524658650E-1,5.225118399E-1
4.255881354E0,4.295675755E-1,-1.556616426E-1,5.342296958E-1
4.258369114E0,4.306328297E-1,-1.588574350E-1,5.448823571E-1
4.260856875E0,4.316980839E-1,-1.620532274E-1,5.534044504E-1
4.263344635E0,4.338286221E-1,-1.620532274E-1,5.629918575E-1
4.265832396E0,4.348938763E-1,-1.588574350E-1,5.693834424E-1
4.268320156E0,4.370244145E-1,-1.524658650E-1,5.757750273E-1
4.270807916E0,4.380896688E-1,-1.450090110E-1,5.811012983E-1
4.273295677E0,4.402202070E-1,-1.375521719E-1,5.842971206E-1
4.275783437E0,4.423507154E-1,-1.311605871E-1,5.874928832E-1
4.278271198E0,4.444812536E-1,-1.279647946E-1,5.874928832E-1
4.280758958E0,4.466117918E-1,-1.268995255E-1,5.853623748E-1
4.283246719E0,4.476770461E-1,-1.279647946E-1,5.789707899E-1
4.285734479E0,4.476770461E-1,-1.332911104E-1,5.693834424E-1
4.288222239E0,4.466117918E-1,-1.407479644E-1,5.576655269E-1
4.290710000E0,4.444812536E-1,-1.482048035E-1,5.448823571E-1
4.293197760E0,4.402202070E-1,-1.556616426E-1,5.299686790E-1
4.295685521E0,4.348938763E-1,-1.631184965E-1,5.171855092E-1
4.298173281E0,4.295675755E-1,-1.695100814E-1,5.054675937E-1
4.300661041E0,4.221107066E-1,-1.748363972E-1,4.969455004E-1
4.303148802E0,4.146538675E-1,-1.812279820E-1,4.894886315E-1
4.305636562E0,4.061317742E-1,-1.865542978E-1,4.852275848E-1
4.308124323E0,3.976096511E-1,-1.918806136E-1,4.830970466E-1
4.310612083E0,3.890875578E-1,-1.972069293E-1,4.820317924E-1
4.313099844E0,3.826959729E-1,-2.025332451E-1,4.809665382E-1
4.315587604E0,3.773696423E-1,-2.089248300E-1,4.809665382E-1
4.318075364E0,3.731085956E-1,-2.142511457E-1,4.820317924E-1
4.320563125E0,3.699128032E-1,-2.195774615E-1,4.820317924E-1
4.323050885E0,3.699128032E-1,-2.206427306E-1,4.830970466E-1
4.325538646E0,3.731085956E-1,-2.206427306E-1,4.841623306E-1
4.328026406E0,3.795001805E-1,-2.185122073E-1,4.873581231E-1
4.330514166E0,3.880222738E-1,-2.142511457E-1,4.916191697E-1
4.333001927E0,4.008054435E-1,-2.089248300E-1,4.980107546E-1
4.335489687E0,4.167844057E-1,-2.035985142E-1,5.054675937E-1
4.337977448E0,4.338286221E-1,-1.982721984E-1,5.129244328E-1
4.340465208E0,4.530033767E-1,-1.929458827E-1,5.214465261E-1
4.342952969E0,4.732433856E-1,-1.886848211E-1,5.278381109E-1
4.345440729E0,4.934833944E-1,-1.844237745E-1,5.331644416E-1
4.347928437E0,5.158539414E-1,-1.833585054E-1,5.374255180E-1
4.350416146E0,5.371592045E-1,-1.822932363E-1,5.374255180E-1
4.352903854E0,5.584644675E-1,-1.822932363E-1,5.342296958E-1
4.355391562E0,5.787044764E-1,-1.844237745E-1,5.278381109E-1
4.357879271E0,5.978792310E-1,-1.876195520E-1,5.182507634E-1
4.360366979E0,6.149234176E-1,-1.908153445E-1,5.065328479E-1
4.362854687E0,6.319676638E-1,-1.929458827E-1,4.937497079E-1
4.365342396E0,6.436855793E-1,-1.940111369E-1,4.809665382E-1
4.367830104E0,6.543381810E-1,-1.918806136E-1,4.681833684E-1
4.370317812E0,6.617950201E-1,-1.865542978E-1,4.575307369E-1
4.372805521E0,6.671213508E-1,-1.801627129E-1,4.490086138E-1
4.375293229E0,6.681866050E-1,-1.716406047E-1,4.415517747E-1
4.377780937E0,6.660560966E-1,-1.652490199E-1,4.351601899E-1
4.380268646E0,6.639255881E-1,-1.609879732E-1,4.287686050E-1
4.382756354E0,6.596645117E-1,-1.588574350E-1,4.234423041E-1
4.385244062E0,6.522076726E-1,-1.567269117E-1,4.191812575E-1
4.387731771E0,6.458160877E-1,-1.503353268E-1,4.170507193E-1
4.390219479E0,6.383592486E-1,-1.418132186E-1,4.181159735E-1
4.392707187E0,6.319676638E-1,-1.268995255E-1,4.223770201E-1
4.395194896E0,6.277065873E-1,-1.066595241E-1,4.308991432E-1
4.397682604E0,6.277065873E-1,-8.322372288E-2,4.415517747E-1
4.400170312E0,6.309024096E-1,-5.339634046E-2,4.554001987E-1
4.402658021E0,6.404897571E-1,-1.930790395E-2,4.713791609E-1
4.405145729E0,6.564686894E-1,1.797632314E-2,4.894886315E-1
4.407633437E0,6.767086983E-1,5.845634267E-2,5.054675937E-1
4.410121146E0,7.001445293E-1,1.000016257E-1,5.193160176E-1
4.412608854E0,7.246456146E-1,1.394163817E-1,5.289034247E-1
4.415096562E0,7.480813861E-1,1.735048145E-1,5.331644416E-1
4.417584271E0,7.672561407E-1,2.012016773E-1,5.352949500E-1
4.420071979E0,7.821698189E-1,2.203764170E-1,5.310339332E-1
4.422559687E0,7.896266580E-1,2.288985252E-1,5.257076025E-1
4.425047396E0,7.917572260E-1,2.288985252E-1,5.203812718E-1
4.427535104E0,7.864308953E-1,2.203764170E-1,5.161202550E-1
4.430022812E0,7.779088020E-1,2.065279931E-1,5.118591785E-1
4.432510521E0,7.672561407E-1,1.862879843E-1,5.086634159E-1
4.434998229E0,7.534077168E-1,1.617869139E-1,5.065328479E-1
4.437485937E0,7.395592928E-1,1.340900660E-1,5.012065172E-1
4.439973646E0,7.246456146E-1,1.053279415E-1,4.926844239E-1
4.442461354E0,7.086666226E-1,7.976161689E-2,4.799012840E-1
4.444949062E0,6.916224360E-1,5.526055023E-2,4.628570378E-1
4.447436771E0,6.724476814E-1,3.502054140E-2,4.415517747E-1
4.449924479E0,6.500771642E-1,2.117211558E-2,4.191812575E-1
4.452412187E0,6.277065873E-1,1.051947847E-2,3.957454562E-1
4.454899896E0,6.042708158E-1,4.127896391E-3,3.733749092E-1
4.457387604E0,5.819002390E-1,1.997369342E-3,3.531349003E-1
4.459875364E0,5.595297217E-1,3.062632866E-3,3.371559381E-1
4.462363125E0,5.392897129E-1,5.193160381E-3,3.222422600E-1
4.464850885E0,5.211802125E-1,9.454214945E-3,3.115896285E-1
4.467338646E0,5.041360259E-1,1.584579609E-2,3.030675054E-1
4.469826406E0,4.892223179E-1,2.330264263E-2,2.956106663E-1
4.472314166E0,4.743086398E-1,3.502054140E-2,2.870885432E-1
4.474801927E0,4.604602158E-1,4.673844203E-2,2.796317041E-1
4.477289687E0,4.455465078E-1,5.845634267E-2,2.711096108E-1
4.479777448E0,4.295675755E-1,7.123950869E-2,2.615222335E-1
4.482265208E0,4.135886133E-1,8.082687855E-2,2.540653646E-1
4.484752969E0,3.965443969E-1,9.041424841E-2,2.466085255E-1
4.487240729E0,3.826959729E-1,9.787109494E-2,2.423474789E-1
4.489728489E0,3.688475490E-1,1.074584723E-1,2.402169555E-1
4.492216250E0,3.571296334E-1,1.170458421E-1,2.391516864E-1
4.494704010E0,3.496727943E-1,1.266332120E-1,2.391516864E-1
4.497191771E0,3.432812095E-1,1.372858584E-1,2.391516864E-1
4.499679531E0,3.379548788E-1,1.490037590E-1,2.391516864E-1
4.502167291E0,3.326285779E-1,1.596563905E-1,2.359558940E-1
4.504655052E0,3.273022473E-1,1.671132296E-1,2.306295782E-1
4.507142812E0,3.230412006E-1,1.735048145E-1,2.253032625E-1
4.509630573E0,3.198454082E-1,1.788311303E-1,2.199769467E-1
4.512118333E0,3.187801540E-1,1.830921918E-1,2.167811543E-1
4.514606094E0,3.177148700E-1,1.852227151E-1,2.146506310E-1
4.517093854E0,3.177148700E-1,1.894837767E-1,2.146506310E-1
4.519581614E0,3.166496158E-1,1.926795542E-1,2.146506310E-1
4.522069375E0,3.166496158E-1,1.948100924E-1,2.167811543E-1
4.524557135E0,3.155843616E-1,1.969406158E-1,2.199769467E-1
4.527044896E0,3.155843616E-1,1.990711391E-1,2.242379934E-1
4.529532656E0,3.166496158E-1,2.022669315E-1,2.295643091E-1
4.532020416E0,3.187801540E-1,2.054627240E-1,2.359558940E-1
4.534508177E0,3.219759464E-1,2.086585164E-1,2.434127480E-1
4.536995937E0,3.283675313E-1,2.150501013E-1,2.508696020E-1
4.539483698E0,3.368896246E-1,2.203764170E-1,2.593916953E-1
4.541971458E0,3.475422561E-1,2.257027328E-1,2.689790726E-1
4.544459219E0,3.603254259E-1,2.331595868E-1,2.796317041E-1
4.546946979E0,3.741738498E-1,2.406164259E-1,2.934801280E-1
4.549434739E0,3.912180662E-1,2.480732650E-1,3.094590902E-1
4.551922500E0,4.103928208E-1,2.555301189E-1,3.265033066E-1
4.554410260E0,4.295675755E-1,2.629869580E-1,3.446127772E-1
4.556898021E0,4.508728385E-1,2.683132887E-1,3.627222776E-1
4.559385781E0,4.732433856E-1,2.715090811E-1,3.787012100E-1
4.561873541E0,4.934833944E-1,2.725743353E-1,3.936149180E-1
4.564361302E0,5.137233734E-1,2.704437971E-1,4.042675495E-1
4.566849062E0,5.297023654E-1,2.683132887E-1,4.127896726E-1
4.569336823E0,5.435507894E-1,2.640522122E-1,4.181159735E-1
4.571824583E0,5.542033911E-1,2.576606572E-1,4.191812575E-1
4.574312344E0,5.616602302E-1,2.502037883E-1,4.170507193E-1
4.576800104E0,5.680518150E-1,2.416816950E-1,4.127896726E-1
4.579287864E0,5.712476373E-1,2.331595868E-1,4.085285962E-1
4.581775625E0,5.701823831E-1,2.225069404E-1,4.000065029E-1
4.584263385E0,5.659213066E-1,2.097237855E-1,3.893538713E-1
4.586751146E0,5.584644675E-1,1.937448233E-1,3.755054474E-1
4.589238906E0,5.488771200E-1,1.767006069E-1,3.595264852E-1
4.591726666E0,5.371592045E-1,1.564605981E-1,3.403517306E-1
4.594214375E0,5.233107805E-1,1.372858584E-1,3.190464675E-1
4.596702083E0,5.073317885E-1,1.191763729E-1,2.977411747E-1
4.599189791E0,4.902876019E-1,1.063932031E-1,2.785664499E-1
4.601677500E0,4.732433856E-1,1.000016257E-1,2.625874877E-1
4.604165208E0,4.572644234E-1,1.000016257E-1,2.530001104E-1
4.606652916E0,4.423507154E-1,1.053279415E-1,2.498043180E-1
4.609140625E0,4.306328297E-1,1.149153188E-1,2.519348562E-1
4.611628333E0,4.221107066E-1,1.255679578E-1,2.583264410E-1
4.614116041E0,4.167844057E-1,1.383511126E-1,2.689790726E-1
4.616603750E0,4.157191217E-1,1.511342824E-1,2.796317041E-1
4.619091458E0,4.178496599E-1,1.649827063E-1,2.902843356E-1
4.621579166E0,4.199801981E-1,1.798963994E-1,3.020022511E-1
4.624066875E0,4.242412448E-1,1.980058849E-1,3.147853911E-1
4.626554583E0,4.295675755E-1,2.203764170E-1,3.318296373E-1
4.629042291E0,4.380896688E-1,2.480732650E-1,3.542001545E-1
4.631530000E0,4.498075843E-1,2.789659202E-1,3.829622865E-1
4.634017708E0,4.647212625E-1,3.109238148E-1,4.159854650E-1
4.636505416E0,4.838960171E-1,3.450122476E-1,4.522044063E-1
4.638993125E0,5.062665343E-1,3.759049177E-1,4.894886315E-1
4.641480833E0,5.297023654E-1,4.067975581E-1,5.257076025E-1
4.643968541E0,5.531381369E-1,4.376901984E-1,5.576655269E-1
4.646456250E0,5.755086541E-1,4.675175846E-1,5.853623748E-1
4.648943958E0,5.957486629E-1,4.984102249E-1,6.066676378E-1
4.651431666E0,6.149234176E-1,5.282375813E-1,6.247771382E-1
4.653919375E0,6.330329180E-1,5.580649972E-1,6.375603080E-1
4.656407083E0,6.511424184E-1,5.868270993E-1,6.460824013E-1
4.658894791E0,6.703171730E-1,6.134586930E-1,6.514087319E-1
4.661382500E0,6.884266138E-1,6.368945241E-1,6.514087319E-1
4.663870208E0,7.022750378E-1,6.550039649E-1,6.460824013E-1
4.666357916E0,7.129276991E-1,6.635261178E-1,6.343644857E-1
4.668845625E0,7.193192840E-1,6.624608040E-1,6.141244769E-1
4.671333333E0,7.214497924E-1,6.528734565E-1,5.864276290E-1
4.673821041E0,7.182540298E-1,6.358292103E-1,5.534044504E-1
4.676308750E0,7.097318769E-1,6.123934388E-1,5.139896870E-1
4.678796458E0,6.990792751E-1,5.846965909E-1,4.724444151E-1
4.681284166E0,6.852308512E-1,5.538039207E-1,4.277033508E-1
4.683771875E0,6.703171730E-1,5.229113102E-1,3.840275407E-1
4.686259583E0,6.543381810E-1,4.930838943E-1,3.392864764E-1
4.688747291E0,6.383592486E-1,4.643217921E-1,2.977411747E-1
4.691235000E0,6.234455705E-1,4.366249442E-1,2.561959028E-1
4.693722708E0,6.074665785E-1,4.110586047E-1,2.167811543E-1
4.696210416E0,5.914876461E-1,3.854922652E-1,1.773663908E-1
4.698698125E0,5.744433999E-1,3.631217480E-1,1.411474347E-1
4.701185833E0,5.584644675E-1,3.428817391E-1,1.070589945E-1
4.703673541E0,5.414202213E-1,3.247722387E-1,7.829687744E-2
4.706161302E0,5.265065432E-1,3.109238148E-1,5.486107618E-2
4.708649062E0,5.137233734E-1,3.002711833E-1,3.781685978E-2
4.711136823E0,5.052012801E-1,2.928143442E-1,2.716422267E-2
4.713624583E0,5.009402037E-1,2.885532975E-1,2.183790505E-2
4.716112344E0,4.998749495E-1,2.864227593E-1,1.970737800E-2
4.718600104E0,4.998749495E-1,2.874880135E-1,2.077264152E-2
4.721087864E0,5.020055175E-1,2.896185517E-1,2.396843210E-2
4.723575625E0,5.030707717E-1,2.917490900E-1,2.716422267E-2
4.726063385E0,5.030707717E-1,2.938795984E-1,3.142527863E-2
4.728551146E0,5.020055175E-1,2.960101366E-1,3.781685978E-2
4.731038906E0,5.009402037E-1,2.992059290E-1,4.527370632E-2
4.733526666E0,4.998749495E-1,3.066627681E-1,5.379581451E-2
4.736014427E0,4.988096952E-1,3.173153996E-1,6.444845349E-2
4.738502187E0,4.966791868E-1,3.300985694E-1,7.510108501E-2
4.740989948E0,4.956139028E-1,3.439469934E-1,8.362319320E-2
4.743477708E0,4.924181104E-1,3.556649089E-1,9.214530140E-2
4.745965469E0,4.881570637E-1,3.673827946E-1,9.640636295E-2
4.748453229E0,4.796349406E-1,3.769701719E-1,9.853688627E-2
4.750940989E0,4.668518007E-1,3.822965026E-1,9.640636295E-2
4.753428750E0,4.498075843E-1,3.854922652E-1,9.321057051E-2
4.755916510E0,4.274370372E-1,3.876228034E-1,8.894951642E-2
4.758404271E0,4.029359818E-1,3.886880577E-1,8.468846232E-2
4.760892031E0,3.752391040E-1,3.908185959E-1,8.255793154E-2
4.763379791E0,3.475422561E-1,3.940143883E-1,7.936213911E-2
4.765867552E0,3.198454082E-1,3.993407190E-1,7.616634667E-2
4.768355312E0,2.921485603E-1,4.078628123E-1,7.190529257E-2
4.770843073E0,2.633864284E-1,4.195807278E-1,6.551371515E-2
4.773330833E0,2.356895804E-1,4.323638678E-1,5.699160323E-2
4.775818594E0,2.079927325E-1,4.451470375E-1,4.740423337E-2
4.778306354E0,1.824263930E-1,4.579302073E-1,3.781685978E-2
4.780794114E0,1.589905918E-1,4.707133770E-1,2.822948620E-2
4.783281875E0,1.376853287E-1,4.834965467E-1,2.183790505E-2
4.785769635E0,1.185105816E-1,4.984102249E-1,1.651158556E-2
4.788257396E0,1.014663652E-1,5.122586489E-1,1.225053146E-2
4.790745156E0,8.655267209E-2,5.250418186E-1,9.054740891E-3
4.793232916E0,7.483477145E-2,5.356944799E-1,5.858949851E-3
4.795721510E0,6.205160543E-2,5.420860648E-1,3.728422802E-3
4.798208750E0,5.246423557E-2,5.463470817E-1,2.663159044E-3
4.800695989E0,4.287686199E-2,5.474123359E-1,2.663159044E-3
4.803183229E0,3.755054250E-2,5.463470817E-1,3.728422802E-3
4.805670521E0,3.435475379E-2,5.431513190E-1,6.924213842E-3
4.808157864E0,3.648528084E-2,5.399554968E-1,1.225053146E-2
4.810645260E0,4.394212365E-2,5.388902426E-1,1.864211448E-2
4.813132708E0,5.672528967E-2,5.410207510E-1,2.716422267E-2
4.815620260E0,7.376950979E-2,5.463470817E-1,3.568633273E-2
4.818107916E0,9.400951862E-2,5.548691750E-1,4.633896798E-2
4.820595677E0,1.185105816E-1,5.633913279E-1,5.592634156E-2
4.823083541E0,1.430116445E-1,5.697829127E-1,6.444845349E-2
4.825571458E0,1.675127149E-1,5.719134212E-1,7.297056168E-2
4.828059427E0,1.909485012E-1,5.697829127E-1,7.829687744E-2
4.830547448E0,2.143843025E-1,5.633913279E-1,8.149266988E-2
4.833035521E0,2.367548496E-1,5.516734123E-1,8.362319320E-2
4.835523594E0,2.580601275E-1,5.356944799E-1,8.468846232E-2
4.838011666E0,2.793653905E-1,5.175849795E-1,8.468846232E-2
4.840499739E0,2.985401452E-1,4.984102249E-1,8.255793154E-2
4.842987812E0,3.145190775E-1,4.781702161E-1,7.936213911E-2
4.845475729E0,3.294327855E-1,4.568649530E-1,7.403582335E-2
4.847963489E0,3.390201628E-1,4.334291518E-1,6.764423847E-2
4.850451198E0,3.464770019E-1,4.089280665E-1,5.805686861E-2
4.852938906E0,3.486075401E-1,3.822965026E-1,4.527370632E-2
4.855426614E0,3.486075401E-1,3.556649089E-1,3.142527863E-2
4.857914323E0,3.443464637E-1,3.279680312E-1,1.544632297E-2
4.860402031E0,3.358243704E-1,3.002711833E-1,-2.663159044E-3
4.862889739E0,3.241064548E-1,2.725743353E-1,-2.183790505E-2
4.865377448E0,3.070622385E-1,2.438122183E-1,-4.207791388E-2
4.867865156E0,2.857569754E-1,2.150501013E-1,-6.444845349E-2
4.870352864E0,2.612559199E-1,1.884185076E-1,-8.788424730E-2
4.872840573E0,2.335590571E-1,1.649827063E-1,-1.102547869E-1
4.875328281E0,2.047969401E-1,1.458079666E-1,-1.315600574E-1
4.877815989E0,1.749695539E-1,1.319595277E-1,-1.496695429E-1
4.880303698E0,1.462074369E-1,1.245026886E-1,-1.645832360E-1
4.882791406E0,1.195758432E-1,1.234374270E-1,-1.741705984E-1
4.885279114E0,9.507478029E-2,1.276984811E-1,-1.816274524E-1
4.887766823E0,7.590003312E-2,1.362205893E-1,-1.848232448E-1
4.890254531E0,5.992107838E-2,1.479384899E-1,-1.837579757E-1
4.892742239E0,4.820318148E-2,1.639174372E-1,-1.794969290E-1
4.895229948E0,3.968106955E-2,1.809616536E-1,-1.709748209E-1
4.897717656E0,3.648528084E-2,1.990711391E-1,-1.592569202E-1
4.900205364E0,3.755054250E-2,2.161153555E-1,-1.454084814E-1
4.902693073E0,4.500738904E-2,2.363553643E-1,-1.283642650E-1
4.905180781E0,5.566002429E-2,2.587259114E-1,-1.091895252E-1
4.907668489E0,7.057371736E-2,2.832269669E-1,-8.788424730E-2
4.910156198E0,8.868319541E-2,3.087933064E-1,-6.444845349E-2
4.912643906E0,1.078579426E-1,3.343596160E-1,-3.994738683E-2
4.915131614E0,1.291632205E-1,3.599259555E-1,-1.544632297E-2
4.917619323E0,1.494032294E-1,3.833617568E-1,9.054740891E-3
4.920107031E0,1.675127149E-1,4.036017656E-1,3.355580568E-2
4.922594739E0,1.824263930E-1,4.195807278E-1,5.486107618E-2
4.925082448E0,1.941442937E-1,4.302333593E-1,7.510108501E-2
4.927570156E0,2.026664019E-1,4.366249442E-1,9.214530140E-2
4.930057864E0,2.069274634E-1,4.376901984E-1,1.059937328E-1
4.932545573E0,2.069274634E-1,4.334291518E-1,1.166463718E-1
4.935033281E0,2.047969401E-1,4.249070287E-1,1.241032109E-1
4.937520989E0,1.994706094E-1,4.110586047E-1,1.294295341E-1
4.940008698E0,1.930790395E-1,3.929491341E-1,1.304948032E-1
4.942496406E0,1.845569313E-1,3.727091253E-1,1.272990108E-1
4.944984114E0,1.771000773E-1,3.482080400E-1,1.219726875E-1
4.947471823E0,1.696432382E-1,3.247722387E-1,1.145158410E-1
4.949959531E0,1.621863842E-1,3.024017215E-1,1.038632020E-1
4.952447239E0,1.547295451E-1,2.810964286E-1,9.321057051E-2
4.954934948E0,1.483379602E-1,2.608564198E-1,8.255793154E-2
4.957422656E0,1.408811212E-1,2.438122183E-1,7.190529257E-2
4.959910364E0,1.334242672E-1,2.267680019E-1,6.018739566E-2
4.962398073E0,1.259674281E-1,2.107890397E-1,5.060002208E-2
4.964885781E0,1.185105816E-1,1.937448233E-1,4.207791388E-2
4.967373541E0,1.121189967E-1,1.767006069E-1,3.568633273E-2
4.969861302E0,1.078579426E-1,1.617869139E-1,3.142527863E-2
4.972349062E0,1.057274193E-1,1.490037590E-1,3.036001325E-2
4.974836823E0,1.057274193E-1,1.372858584E-1,3.249054030E-2
