"Time (s)","Gyroscope x (rad/s)","Gyroscope y (rad/s)","Gyroscope z (rad/s)"
7.375746900E-2,-2.617885470E-1,-6.787061095E-1,-9.614004493E-1
7.628398000E-2,-2.628538013E-1,-6.712492704E-1,-9.582046270E-1
7.880496900E-2,-2.628538013E-1,-6.574008465E-1,-9.539436102E-1
8.129283400E-2,-2.628538013E-1,-6.392913461E-1,-9.496825337E-1
8.378069900E-2,-2.628538013E-1,-6.201165915E-1,-9.454214573E-1
8.626856300E-2,-2.607232630E-1,-6.009418368E-1,-9.379646182E-1
8.875642800E-2,-2.575274706E-1,-5.817670822E-1,-9.305077791E-1
9.124429200E-2,-2.543317080E-1,-5.625923872E-1,-9.219856858E-1
9.373215700E-2,-2.490053773E-1,-5.434176326E-1,-9.113330245E-1
9.622002100E-2,-2.447443157E-1,-5.231776237E-1,-9.006804228E-1
9.870788600E-2,-2.415485233E-1,-5.008070469E-1,-8.889625072E-1
1.011957510E-1,-2.383527458E-1,-4.773712754E-1,-8.772445917E-1
1.036836150E-1,-2.362222075E-1,-4.528702199E-1,-8.655267358E-1
1.061714800E-1,-2.362222075E-1,-4.294344187E-1,-8.548740745E-1
1.086593440E-1,-2.351569533E-1,-4.070638716E-1,-8.463519812E-1
1.111472090E-1,-2.351569533E-1,-3.878891170E-1,-8.378298283E-1
1.136350740E-1,-2.362222075E-1,-3.729754388E-1,-8.325035572E-1
1.161229380E-1,-2.362222075E-1,-3.612575233E-1,-8.261119723E-1
1.186108030E-1,-2.372874767E-1,-3.538006842E-1,-8.218508959E-1
1.210986670E-1,-2.383527458E-1,-3.506048918E-1,-8.186551332E-1
1.235865320E-1,-2.415485233E-1,-3.495396376E-1,-8.165245652E-1
1.260743960E-1,-2.458095849E-1,-3.538006842E-1,-8.143940568E-1
1.285622610E-1,-2.532664239E-1,-3.612575233E-1,-8.090677261E-1
1.310501260E-1,-2.617885470E-1,-3.719101548E-1,-8.048067093E-1
1.335379900E-1,-2.681801319E-1,-3.825628161E-1,-7.984151244E-1
1.360258550E-1,-2.745717168E-1,-3.921501637E-1,-7.920235395E-1
1.385137190E-1,-2.777675092E-1,-4.006722867E-1,-7.856319547E-1
1.410015840E-1,-2.788327634E-1,-4.006722867E-1,-7.781751156E-1
1.434894490E-1,-2.767022252E-1,-3.953459561E-1,-7.739140391E-1
1.459773130E-1,-2.703106403E-1,-3.878891170E-1,-7.717835307E-1
1.484651780E-1,-2.628538013E-1,-3.772364855E-1,-7.696529627E-1
1.509530420E-1,-2.532664239E-1,-3.655185997E-1,-7.707182169E-1
1.534409070E-1,-2.447443157E-1,-3.527354300E-1,-7.717835307E-1
1.559287710E-1,-2.362222075E-1,-3.378217220E-1,-7.728487849E-1
1.584166360E-1,-2.277000993E-1,-3.229080439E-1,-7.728487849E-1
1.609045010E-1,-2.213085145E-1,-3.058638275E-1,-7.728487849E-1
1.633923650E-1,-2.149169445E-1,-2.877543271E-1,-7.717835307E-1
1.658802300E-1,-2.085253596E-1,-2.707101107E-1,-7.685877085E-1
1.683680940E-1,-2.021337748E-1,-2.547311783E-1,-7.653919458E-1
1.708559590E-1,-1.957421899E-1,-2.398174703E-1,-7.600656152E-1
1.733438240E-1,-1.914811432E-1,-2.259690464E-1,-7.558045387E-1
1.758316880E-1,-1.850895584E-1,-2.142511457E-1,-7.515435219E-1
1.783195530E-1,-1.797632426E-1,-2.025332451E-1,-7.472824454E-1
1.808074170E-1,-1.744369268E-1,-1.908153445E-1,-7.440866828E-1
1.832952820E-1,-1.680453420E-1,-1.790974438E-1,-7.419561148E-1
1.857831460E-1,-1.616537571E-1,-1.663142890E-1,-7.398256063E-1
1.882710110E-1,-1.552621722E-1,-1.514005959E-1,-7.376950979E-1
1.907588760E-1,-1.488705873E-1,-1.354216337E-1,-7.334340215E-1
1.932467400E-1,-1.424790174E-1,-1.183774248E-1,-7.281076908E-1
1.957346050E-1,-1.382179558E-1,-1.002679393E-1,-7.217161059E-1
1.982224690E-1,-1.350221634E-1,-8.215846121E-2,-7.153245211E-1
2.007103340E-1,-1.318263710E-1,-6.617950648E-2,-7.089329362E-1
2.031981990E-1,-1.286305785E-1,-5.339634046E-2,-7.014760971E-1
2.056860630E-1,-1.254348010E-1,-4.380896688E-2,-6.961497664E-1
2.081739280E-1,-1.233042628E-1,-3.528685868E-2,-6.897581816E-1
2.106617920E-1,-1.211737394E-1,-2.996053919E-2,-6.833665967E-1
2.131496570E-1,-1.201084778E-1,-2.463422157E-2,-6.769750714E-1
2.156375210E-1,-1.190432087E-1,-1.930790395E-2,-6.727139950E-1
2.181253860E-1,-1.179779470E-1,-1.504684892E-2,-6.684529185E-1
2.206132510E-1,-1.158474237E-1,-8.655266836E-3,-6.620613337E-1
2.231011150E-1,-1.137168929E-1,-2.263685223E-3,-6.578003168E-1
2.255889800E-1,-1.126516312E-1,7.323687430E-3,-6.535392404E-1
2.280768440E-1,-1.105211005E-1,1.584579609E-2,-6.503434777E-1
2.305647090E-1,-1.083905771E-1,2.436790615E-2,-6.460824013E-1
2.330525740E-1,-1.062600464E-1,3.289001435E-2,-6.418213248E-1
2.355404380E-1,-1.030642539E-1,3.821633384E-2,-6.375603080E-1
2.380283030E-1,-9.880319983E-2,4.247738793E-2,-6.343644857E-1
2.405161670E-1,-9.560741484E-2,4.354264960E-2,-6.311687231E-1
2.430040320E-1,-9.134636074E-2,4.247738793E-2,-6.279729009E-1
2.454918960E-1,-8.495477587E-2,4.034686089E-2,-6.258423924E-1
2.479797610E-1,-7.962846011E-2,3.608580679E-2,-6.258423924E-1
2.504676260E-1,-7.323687524E-2,3.289001435E-2,-6.258423924E-1
2.529554900E-1,-6.684529036E-2,2.969422378E-2,-6.258423924E-1
2.554433550E-1,-6.151897460E-2,2.756369673E-2,-6.269076467E-1
2.579312190E-1,-5.725792050E-2,2.756369673E-2,-6.269076467E-1
2.604190840E-1,-5.406212807E-2,2.969422378E-2,-6.279729009E-1
2.629069490E-1,-5.299686641E-2,3.289001435E-2,-6.279729009E-1
2.653948130E-1,-4.980107397E-2,3.715106845E-2,-6.258423924E-1
2.678826780E-1,-4.767054692E-2,4.034686089E-2,-6.237118840E-1
2.703705420E-1,-4.340949282E-2,4.354264960E-2,-6.183855534E-1
2.728584070E-1,-3.914843872E-2,4.460791498E-2,-6.109287143E-1
2.753462710E-1,-3.275685757E-2,4.460791498E-2,-6.013413072E-1
2.778341360E-1,-2.636527456E-2,4.567318037E-2,-5.885581374E-1
2.803220010E-1,-1.997369342E-2,4.780370742E-2,-5.725792050E-1
2.828098650E-1,-1.251684781E-2,5.099949613E-2,-5.555350184E-1
2.852977300E-1,-5.060002208E-3,5.526055023E-2,-5.363602638E-1
2.877855940E-1,3.462106921E-3,6.165213138E-2,-5.171855092E-1
2.902734590E-1,1.198421605E-2,7.017423958E-2,-4.969455004E-1
2.927613240E-1,2.050632425E-2,8.189214021E-2,-4.767054915E-1
2.952491880E-1,3.009369783E-2,9.467530251E-2,-4.564654827E-1
2.977370530E-1,4.074633494E-2,1.095889956E-1,-4.351601899E-1
3.002249170E-1,5.139897019E-2,1.266332120E-1,-4.138549268E-1
3.027127820E-1,6.205160543E-2,1.436774284E-1,-3.936149180E-1
3.052006460E-1,7.376950979E-2,1.617869139E-1,-3.733749092E-1
3.076885110E-1,8.442214131E-2,1.788311303E-1,-3.552654386E-1
3.101763760E-1,9.400951862E-2,1.948100924E-1,-3.371559381E-1
3.126642400E-1,1.025316268E-1,2.097237855E-1,-3.211769760E-1
3.151521050E-1,1.099884734E-1,2.225069404E-1,-3.062632978E-1
3.176399690E-1,1.153147891E-1,2.331595868E-1,-2.945453823E-1
3.201278340E-1,1.195758432E-1,2.416816950E-1,-2.828274965E-1
3.226156990E-1,1.206411049E-1,2.491385341E-1,-2.743053734E-1
3.251035630E-1,1.206411049E-1,2.533995807E-1,-2.679138184E-1
3.275914280E-1,1.185105816E-1,2.565953732E-1,-2.625874877E-1
3.300792920E-1,1.142495275E-1,2.576606572E-1,-2.583264410E-1
3.325671570E-1,1.089232042E-1,2.576606572E-1,-2.540653646E-1
3.350550210E-1,1.025316268E-1,2.565953732E-1,-2.508696020E-1
3.375428860E-1,9.720530361E-2,2.533995807E-1,-2.455432713E-1
3.400307510E-1,8.974846452E-2,2.470080107E-1,-2.412822098E-1
3.425186150E-1,8.229161799E-2,2.406164259E-1,-2.380864173E-1
3.450064800E-1,7.376950979E-2,2.331595868E-1,-2.338253707E-1
3.474943440E-1,6.631266326E-2,2.257027328E-1,-2.306295782E-1
3.499822090E-1,5.992107838E-2,2.182458937E-1,-2.274337858E-1
3.524700740E-1,5.459476262E-2,2.118543088E-1,-2.221074700E-1
3.549579380E-1,5.033370852E-2,2.075932473E-1,-2.157158852E-1
3.574458030E-1,4.820318148E-2,2.022669315E-1,-2.093243003E-1
3.599336670E-1,4.713791609E-2,1.980058849E-1,-2.008021921E-1
3.624215320E-1,4.820318148E-2,1.926795542E-1,-1.922800839E-1
3.649093960E-1,5.139897019E-2,1.873532385E-1,-1.837579757E-1
3.673972610E-1,5.459476262E-2,1.830921918E-1,-1.752358675E-1
3.698851260E-1,5.885581672E-2,1.777658761E-1,-1.667137593E-1
3.723729900E-1,6.418213248E-2,1.724395454E-1,-1.613874435E-1
3.748608550E-1,7.057371736E-2,1.671132296E-1,-1.560611278E-1
3.773487190E-1,7.803056389E-2,1.617869139E-1,-1.528653353E-1
3.798365840E-1,8.442214131E-2,1.575258672E-1,-1.507348120E-1
3.823244490E-1,9.187898785E-2,1.553953290E-1,-1.496695429E-1
3.848123130E-1,9.933583438E-2,1.543300748E-1,-1.507348120E-1
3.873001780E-1,1.078579426E-1,1.553953290E-1,-1.518000662E-1
3.897880420E-1,1.153147891E-1,1.564605981E-1,-1.539305896E-1
3.922759070E-1,1.227716357E-1,1.607216448E-1,-1.560611278E-1
3.947637710E-1,1.291632205E-1,1.628521830E-1,-1.571263820E-1
3.972516360E-1,1.355548054E-1,1.660479754E-1,-1.571263820E-1
3.997395010E-1,1.408811212E-1,1.692437679E-1,-1.571263820E-1
4.022273650E-1,1.462074369E-1,1.713742912E-1,-1.560611278E-1
4.047152300E-1,1.515337527E-1,1.735048145E-1,-1.560611278E-1
4.072030940E-1,1.557948142E-1,1.756353378E-1,-1.539305896E-1
4.096909590E-1,1.589905918E-1,1.788311303E-1,-1.518000662E-1
4.121788240E-1,1.611211300E-1,1.820269227E-1,-1.464737505E-1
4.146666880E-1,1.621863842E-1,1.884185076E-1,-1.432779580E-1
4.171545530E-1,1.696432382E-1,2.257027328E-1,-1.315600574E-1
4.196424170E-1,1.802958697E-1,2.992059290E-1,-1.113200486E-1
4.221302820E-1,1.877527237E-1,3.705785871E-1,-9.108003974E-2
4.246181460E-1,1.952095628E-1,4.036017656E-1,-7.723161578E-2
4.271060110E-1,1.994706094E-1,4.014712274E-1,-7.084003091E-2
4.295938760E-1,2.016011477E-1,3.801659644E-1,-6.657897681E-2
4.320817400E-1,2.016011477E-1,3.503385782E-1,-6.125266105E-2
4.345696050E-1,1.962748319E-1,3.226417303E-1,-5.379581451E-2
4.370574690E-1,1.866874546E-1,2.981406748E-1,-4.527370632E-2
4.395453340E-1,1.728390306E-1,2.757701278E-1,-3.568633273E-2
4.420331990E-1,1.589905918E-1,2.512690723E-1,-2.822948620E-2
4.445210630E-1,1.451421678E-1,2.267680019E-1,-2.183790505E-2
4.470089280E-1,1.334242672E-1,2.022669315E-1,-1.757685095E-2
4.494967920E-1,1.227716357E-1,1.809616536E-1,-1.544632297E-2
4.519846570E-1,1.121189967E-1,1.628521830E-1,-1.544632297E-2
4.544725210E-1,9.933583438E-2,1.479384899E-1,-1.864211448E-2
4.569603860E-1,8.655267209E-2,1.319595277E-1,-2.290316857E-2
4.594482510E-1,7.376950979E-2,1.149153188E-1,-2.929474972E-2
4.619361150E-1,6.311687082E-2,9.680583328E-2,-3.675159439E-2
4.644239800E-1,5.459476262E-2,7.976161689E-2,-4.420844093E-2
4.669118440E-1,4.713791609E-2,6.378266215E-2,-4.846949503E-2
4.693997090E-1,4.287686199E-2,4.993423447E-2,-5.166528746E-2
4.718875740E-1,3.861580789E-2,3.928159550E-2,-5.273054913E-2
4.743754380E-1,3.542001545E-2,2.969422378E-2,-5.060002208E-2
4.768633030E-1,3.222422674E-2,2.117211558E-2,-4.953476042E-2
4.793511670E-1,3.009369783E-2,1.265000552E-2,-4.846949503E-2
4.818390320E-1,2.796317078E-2,1.997369342E-3,-4.633896798E-2
4.843268960E-1,2.583264373E-2,-5.459476262E-3,-4.527370632E-2
4.868147610E-1,2.370211668E-2,-1.078579482E-2,-4.314317927E-2
4.893026260E-1,2.370211668E-2,-1.611211337E-2,-4.101264849E-2
4.917904900E-1,2.583264373E-2,-2.037316747E-2,-3.888212144E-2
4.942783550E-1,2.796317078E-2,-2.250369452E-2,-3.462106735E-2
4.967662190E-1,3.115896136E-2,-2.143843099E-2,-2.929474972E-2
4.992540840E-1,3.328948840E-2,-1.717737690E-2,-2.396843210E-2
5.017419490E-1,3.542001545E-2,-1.078579482E-2,-1.864211448E-2
5.042298130E-1,3.755054250E-2,-1.198421582E-3,-1.331579592E-2
5.067176780E-1,4.181159660E-2,8.388951421E-3,-7.989477366E-3
5.092055420E-1,4.500738904E-2,1.797632314E-2,-2.663159044E-3
5.116934070E-1,4.820318148E-2,2.756369673E-2,1.597895520E-3
5.141812710E-1,5.033370852E-2,3.608580679E-2,5.858949851E-3
5.166691360E-1,5.246423557E-2,4.354264960E-2,7.989477366E-3
5.191570010E-1,5.352949724E-2,4.886896908E-2,9.054740891E-3
5.216448650E-1,5.246423557E-2,4.993423447E-2,1.118526794E-2
5.241327300E-1,5.139897019E-2,4.673844203E-2,1.225053146E-2
5.266205940E-1,4.926844314E-2,3.821633384E-2,1.438105945E-2
5.291084590E-1,4.607265070E-2,2.649843320E-2,1.651158556E-2
5.315963240E-1,4.181159660E-2,1.265000552E-2,1.970737800E-2
5.340841880E-1,3.648528084E-2,-2.263685223E-3,2.290316857E-2
5.365720530E-1,3.009369783E-2,-1.824264042E-2,2.609895915E-2
5.390599170E-1,2.263685316E-2,-3.315633163E-2,2.822948620E-2
5.415477820E-1,1.411474310E-2,-4.807002097E-2,2.929474972E-2
5.440356460E-1,6.657897960E-3,-6.191844866E-2,2.822948620E-2
5.465235110E-1,2.663159103E-4,-7.470161468E-2,2.609895915E-2
5.490113760E-1,-6.125265732E-3,-8.641951531E-2,2.396843210E-2
5.514992400E-1,-1.145158429E-2,-9.920267761E-2,2.290316857E-2
5.539871050E-1,-1.677790284E-2,-1.119858399E-1,2.077264152E-2
5.564749690E-1,-1.997369342E-2,-1.247690022E-1,2.077264152E-2
5.589628340E-1,-2.316948399E-2,-1.375521719E-1,1.970737800E-2
5.614506990E-1,-2.636527456E-2,-1.492700726E-1,1.970737800E-2
5.639385630E-1,-2.849580161E-2,-1.599227041E-1,2.183790505E-2
5.664264280E-1,-2.956106514E-2,-1.684448123E-1,2.396843210E-2
5.689142920E-1,-3.169159219E-2,-1.748363972E-1,2.716422267E-2
5.714021570E-1,-3.169159219E-2,-1.790974438E-1,2.929474972E-2
5.738900210E-1,-3.275685757E-2,-1.790974438E-1,3.142527863E-2
5.763778860E-1,-3.275685757E-2,-1.780321896E-1,3.462106735E-2
5.788657510E-1,-3.169159219E-2,-1.748363972E-1,3.888212144E-2
5.813536150E-1,-3.062633052E-2,-1.684448123E-1,4.314317927E-2
5.838414800E-1,-2.849580161E-2,-1.609879732E-1,4.740423337E-2
5.863293440E-1,-2.743053809E-2,-1.535311192E-1,5.273054913E-2
5.888172090E-1,-2.636527456E-2,-1.450090110E-1,5.805686861E-2
5.913050740E-1,-2.530001104E-2,-1.375521719E-1,6.338318437E-2
5.937929380E-1,-2.636527456E-2,-1.290300637E-1,6.870950758E-2
5.962808030E-1,-2.636527456E-2,-1.205079481E-1,7.190529257E-2
5.987686670E-1,-2.743053809E-2,-1.141163707E-1,7.510108501E-2
6.012565320E-1,-2.849580161E-2,-1.077247858E-1,7.616634667E-2
6.037443960E-1,-2.956106514E-2,-1.023984700E-1,7.723161578E-2
6.062322610E-1,-2.956106514E-2,-9.920267761E-2,7.936213911E-2
6.087201260E-1,-3.169159219E-2,-9.813741595E-2,8.042740822E-2
6.112079900E-1,-3.382211924E-2,-9.920267761E-2,8.255793154E-2
6.136958550E-1,-3.595264629E-2,-1.013332009E-1,8.362319320E-2
6.161837190E-1,-3.808317333E-2,-1.066595241E-1,8.362319320E-2
6.186715840E-1,-4.021370411E-2,-1.151816323E-1,8.255793154E-2
6.211594490E-1,-4.340949282E-2,-1.247690022E-1,8.042740822E-2
6.236473130E-1,-4.660528526E-2,-1.364869028E-1,7.723161578E-2
6.261351780E-1,-5.086633936E-2,-1.492700726E-1,7.403582335E-2
6.286230420E-1,-5.406212807E-2,-1.620532274E-1,7.084003091E-2
6.311109070E-1,-5.938844755E-2,-1.748363972E-1,6.764423847E-2
6.335987710E-1,-6.364950538E-2,-1.876195520E-1,6.444845349E-2
6.360866360E-1,-6.791055948E-2,-2.004027218E-1,5.912213027E-2
6.385745010E-1,-7.110634446E-2,-2.121206224E-1,5.486107618E-2
6.410623650E-1,-7.430213690E-2,-2.238385230E-1,4.953476042E-2
6.435502300E-1,-7.643266767E-2,-2.334259003E-1,4.527370632E-2
6.460380940E-1,-7.856319100E-2,-2.419480085E-1,4.207791388E-2
6.485259590E-1,-8.069372177E-2,-2.462090552E-1,3.994738683E-2
6.510138240E-1,-8.282424510E-2,-2.483395934E-1,3.781685978E-2
6.535016880E-1,-8.495477587E-2,-2.462090552E-1,3.568633273E-2
6.559895530E-1,-8.708529919E-2,-2.419480085E-1,3.355580568E-2
6.584774170E-1,-8.708529919E-2,-2.355564237E-1,3.249054030E-2
6.609652820E-1,-8.708529919E-2,-2.280995846E-1,3.142527863E-2
6.634531460E-1,-8.815056831E-2,-2.195774615E-1,3.036001325E-2
6.659410110E-1,-8.921582997E-2,-2.089248300E-1,3.036001325E-2
6.684288760E-1,-9.134636074E-2,-1.961416751E-1,3.036001325E-2
6.709167400E-1,-9.347688407E-2,-1.822932363E-1,3.036001325E-2
6.734046050E-1,-9.667267650E-2,-1.684448123E-1,3.249054030E-2
6.758924690E-1,-9.986846894E-2,-1.545963883E-1,3.355580568E-2
6.783803340E-1,-1.030642539E-1,-1.428784877E-1,3.568633273E-2
6.808681990E-1,-1.051947847E-1,-1.322258562E-1,3.675159439E-2
6.833560630E-1,-1.083905771E-1,-1.247690022E-1,3.781685978E-2
6.858439280E-1,-1.105211005E-1,-1.183774248E-1,3.675159439E-2
6.883317920E-1,-1.115863696E-1,-1.162468940E-1,3.675159439E-2
6.908196570E-1,-1.147821546E-1,-1.162468940E-1,3.781685978E-2
6.933075210E-1,-1.190432087E-1,-1.183774248E-1,3.781685978E-2
6.957953860E-1,-1.233042628E-1,-1.205079481E-1,3.994738683E-2
6.982832510E-1,-1.275653243E-1,-1.247690022E-1,4.101264849E-2
7.007711150E-1,-1.328916401E-1,-1.279647946E-1,4.101264849E-2
7.032589800E-1,-1.360874325E-1,-1.322258562E-1,4.101264849E-2
7.057468440E-1,-1.382179558E-1,-1.343563795E-1,3.888212144E-2
7.082347090E-1,-1.403484792E-1,-1.375521719E-1,3.462106735E-2
7.107225740E-1,-1.414137483E-1,-1.418132186E-1,3.036001325E-2
7.132104380E-1,-1.424790174E-1,-1.460742801E-1,2.396843210E-2
7.156983030E-1,-1.446095407E-1,-1.503353268E-1,1.544632297E-2
7.181861670E-1,-1.456748098E-1,-1.535311192E-1,7.989477366E-3
7.206740320E-1,-1.446095407E-1,-1.567269117E-1,5.326318205E-4
7.231618960E-1,-1.446095407E-1,-1.599227041E-1,-4.793686327E-3
7.256497610E-1,-1.446095407E-1,-1.641837656E-1,-1.012000442E-2
7.281376260E-1,-1.424790174E-1,-1.684448123E-1,-1.651158556E-2
7.306254900E-1,-1.414137483E-1,-1.716406047E-1,-2.183790505E-2
7.331133550E-1,-1.403484792E-1,-1.759016514E-1,-2.716422267E-2
7.356012190E-1,-1.392832249E-1,-1.790974438E-1,-3.355580568E-2
7.380890840E-1,-1.382179558E-1,-1.822932363E-1,-3.888212144E-2
7.405769490E-1,-1.360874325E-1,-1.854890287E-1,-4.420844093E-2
7.430648130E-1,-1.328916401E-1,-1.876195520E-1,-4.740423337E-2
7.455526780E-1,-1.286305785E-1,-1.897500902E-1,-4.953476042E-2
7.480405420E-1,-1.254348010E-1,-1.918806136E-1,-4.953476042E-2
7.505284070E-1,-1.222390011E-1,-1.918806136E-1,-4.740423337E-2
7.530162710E-1,-1.190432087E-1,-1.908153445E-1,-4.527370632E-2
7.555041360E-1,-1.169126853E-1,-1.908153445E-1,-4.101264849E-2
7.579920010E-1,-1.137168929E-1,-1.886848211E-1,-3.781685978E-2
7.604798650E-1,-1.115863696E-1,-1.865542978E-1,-3.462106735E-2
7.629677300E-1,-1.083905771E-1,-1.854890287E-1,-3.249054030E-2
7.654555940E-1,-1.051947847E-1,-1.822932363E-1,-3.036001325E-2
7.679434590E-1,-1.019989923E-1,-1.780321896E-1,-2.929474972E-2
7.704313240E-1,-9.986846894E-2,-1.748363972E-1,-2.822948620E-2
7.729191880E-1,-9.773793817E-2,-1.716406047E-1,-2.716422267E-2
7.754070530E-1,-9.773793817E-2,-1.705753356E-1,-2.822948620E-2
7.778949170E-1,-9.773793817E-2,-1.705753356E-1,-2.822948620E-2
7.803827820E-1,-9.880319983E-2,-1.705753356E-1,-2.822948620E-2
7.828706460E-1,-1.009337306E-1,-1.705753356E-1,-2.929474972E-2
7.853585110E-1,-1.030642539E-1,-1.705753356E-1,-3.036001325E-2
7.878463760E-1,-1.030642539E-1,-1.514005959E-1,-3.036001325E-2
7.903342400E-1,-8.602003753E-2,-7.150582224E-2,-1.864211448E-2
7.928221050E-1,-7.004108280E-2,3.928159550E-2,-2.663159044E-3
7.953099690E-1,-5.832318589E-2,1.191763729E-1,5.858949851E-3
7.977978340E-1,-4.980107397E-2,1.394163817E-1,3.728422802E-3
8.002856990E-1,-4.660528526E-2,1.170458421E-1,-4.793686327E-3
8.027735630E-1,-4.873581231E-2,7.550056279E-2,-1.438105945E-2
8.052614280E-1,-5.938844755E-2,3.075948730E-2,-2.290316857E-2
8.077492920E-1,-7.749792933E-2,-7.590003312E-3,-2.609895915E-2
8.102371570E-1,-1.041295230E-1,-4.700475931E-2,-2.716422267E-2
8.127250210E-1,-1.318263710E-1,-8.535424620E-2,-2.503369562E-2
8.152128860E-1,-1.520663798E-1,-1.173121557E-1,-2.077264152E-2
8.177007510E-1,-1.627190262E-1,-1.407479644E-1,-1.864211448E-2
8.201886150E-1,-1.669800729E-1,-1.556616426E-1,-1.757685095E-2
8.226764800E-1,-1.691105962E-1,-1.567269117E-1,-1.864211448E-2
8.251643440E-1,-1.712411344E-1,-1.492700726E-1,-2.183790505E-2
8.276522090E-1,-1.733716577E-1,-1.418132186E-1,-2.716422267E-2
8.301400740E-1,-1.765674502E-1,-1.386174262E-1,-3.249054030E-2
8.326279380E-1,-1.797632426E-1,-1.418132186E-1,-3.675159439E-2
8.351158030E-1,-1.840242893E-1,-1.471395344E-1,-3.888212144E-2
8.376036670E-1,-1.872200817E-1,-1.556616426E-1,-3.888212144E-2
8.400915320E-1,-1.925463974E-1,-1.737711281E-1,-3.781685978E-2
8.425793960E-1,-2.010685056E-1,-1.972069293E-1,-3.675159439E-2
8.450672610E-1,-2.117211521E-1,-2.035985142E-1,-2.929474972E-2
8.475551260E-1,-2.170474678E-1,-2.046637833E-1,-2.183790505E-2
8.500429900E-1,-2.159821987E-1,-2.067943066E-1,-1.651158556E-2
8.525308550E-1,-2.127864063E-1,-2.078595608E-1,-1.438105945E-2
8.550187190E-1,-2.095906287E-1,-2.067943066E-1,-1.331579592E-2
8.575065840E-1,-2.063948363E-1,-2.057290375E-1,-1.331579592E-2
8.599944490E-1,-2.042642981E-1,-2.057290375E-1,-1.438105945E-2
8.624823130E-1,-2.010685056E-1,-2.067943066E-1,-1.438105945E-2
8.649701780E-1,-1.957421899E-1,-2.110553533E-1,-1.331579592E-2
8.674580420E-1,-1.904158741E-1,-2.174469382E-1,-1.118526794E-2
8.699459070E-1,-1.850895584E-1,-2.249037921E-1,-9.054740891E-3
8.724337710E-1,-1.786979735E-1,-2.312953621E-1,-5.858949851E-3
8.749216360E-1,-1.733716577E-1,-2.334259003E-1,-5.326318205E-4
8.774095010E-1,-1.691105962E-1,-2.334259003E-1,4.793686327E-3
8.798973650E-1,-1.648495495E-1,-2.312953621E-1,1.118526794E-2
8.823852300E-1,-1.595232338E-1,-2.280995846E-1,1.651158556E-2
8.848730940E-1,-1.531316489E-1,-2.238385230E-1,2.183790505E-2
8.873609590E-1,-1.446095407E-1,-2.174469382E-1,2.609895915E-2
8.898488240E-1,-1.360874325E-1,-2.089248300E-1,3.142527863E-2
8.923366880E-1,-1.254348010E-1,-1.993374527E-1,3.675159439E-2
8.948245530E-1,-1.147821546E-1,-1.854890287E-1,4.207791388E-2
8.973124170E-1,-1.051947847E-1,-1.705753356E-1,4.740423337E-2
8.998002820E-1,-9.454214573E-2,-1.545963883E-1,5.379581451E-2
9.022881460E-1,-8.602003753E-2,-1.396826953E-1,5.805686861E-2
9.047760110E-1,-7.749792933E-2,-1.258342713E-1,6.444845349E-2
9.072638760E-1,-7.004108280E-2,-1.141163707E-1,6.870950758E-2
9.097517400E-1,-6.471476704E-2,-1.066595241E-1,7.297056168E-2
9.122396050E-1,-6.045371294E-2,-1.002679393E-1,7.829687744E-2
9.147274690E-1,-5.725792050E-2,-9.600688517E-2,8.255793154E-2
9.172153340E-1,-5.406212807E-2,-9.387636185E-2,8.681898564E-2
9.197031990E-1,-5.086633936E-2,-9.174583107E-2,9.108003974E-2
9.221910630E-1,-4.660528526E-2,-9.281109273E-2,9.640636295E-2
9.246789280E-1,-4.127896577E-2,-9.494162351E-2,1.006674170E-1
9.271667920E-1,-3.595264629E-2,-9.707214683E-2,1.049284711E-1
9.296546570E-1,-3.275685757E-2,-9.920267761E-2,1.102547869E-1
9.321425210E-1,-2.849580161E-2,-1.002679393E-1,1.145158410E-1
9.346303860E-1,-2.743053809E-2,-1.013332009E-1,1.198421568E-1
9.371182510E-1,-2.636527456E-2,-1.034637317E-1,1.262337416E-1
9.396061150E-1,-2.636527456E-2,-1.077247858E-1,1.326253265E-1
9.420939800E-1,-2.530001104E-2,-1.141163707E-1,1.390169114E-1
9.445818440E-1,-2.316948399E-2,-1.226384789E-1,1.443432271E-1
9.470697090E-1,-2.316948399E-2,-1.311605871E-1,1.496695429E-1
9.495575740E-1,-2.316948399E-2,-1.396826953E-1,1.549958587E-1
9.520454380E-1,-2.530001104E-2,-1.471395344E-1,1.592569202E-1
9.545333030E-1,-2.743053809E-2,-1.524658650E-1,1.645832360E-1
9.570211670E-1,-3.062633052E-2,-1.545963883E-1,1.699095517E-1
9.595090320E-1,-3.169159219E-2,-1.556616426E-1,1.763011366E-1
9.619968960E-1,-3.062633052E-2,-1.567269117E-1,1.826927215E-1
9.644847610E-1,-2.636527456E-2,-1.556616426E-1,1.912148297E-1
9.669726260E-1,-2.103895694E-2,-1.556616426E-1,1.965411454E-1
9.694604900E-1,-1.358211134E-2,-1.535311192E-1,2.008021921E-1
9.719483550E-1,-5.060002208E-3,-1.492700726E-1,2.050632536E-1
9.744362190E-1,3.462106921E-3,-1.439437568E-1,2.093243003E-1
9.769240840E-1,1.304947957E-2,-1.332911104E-1,2.157158852E-1
9.794119490E-1,2.263685316E-2,-1.205079481E-1,2.231727391E-1
9.818998130E-1,3.222422674E-2,-1.066595241E-1,2.348906398E-1
9.843876780E-1,4.287686199E-2,-9.281109273E-2,2.455432713E-1
9.868755420E-1,5.246423557E-2,-8.215846121E-2,2.572611570E-1
9.893634070E-1,6.311687082E-2,-7.470161468E-2,2.689790726E-1
9.918512710E-1,7.376950979E-2,-7.150582224E-2,2.785664499E-1
9.943391360E-1,8.335687965E-2,-7.044056058E-2,2.870885432E-1
9.968270010E-1,9.081372619E-2,-7.150582224E-2,2.945453823E-1
9.993148650E-1,9.827057272E-2,-7.576687634E-2,2.998717129E-1
1.001802730E0,1.035968885E-1,-8.215846121E-2,3.062632978E-1
1.004290594E0,1.078579426E-1,-9.174583107E-2,3.126548827E-1
1.006778459E0,1.099884734E-1,-1.045289934E-1,3.222422600E-1
1.009266324E0,1.121189967E-1,-1.162468940E-1,3.307643533E-1
1.011754188E0,1.142495275E-1,-1.300953180E-1,3.414169848E-1
1.014242053E0,1.163800508E-1,-1.407479644E-1,3.520696461E-1
1.016729917E0,1.174453199E-1,-1.514005959E-1,3.627222776E-1
1.019217782E0,1.185105816E-1,-1.588574350E-1,3.701791167E-1
1.021705646E0,1.195758432E-1,-1.652490199E-1,3.765707016E-1
1.024193511E0,1.206411049E-1,-1.695100814E-1,3.797664940E-1
1.026681376E0,1.238368973E-1,-1.727058738E-1,3.818970025E-1
1.029169240E0,1.280979514E-1,-1.759016514E-1,3.829622865E-1
1.031657105E0,1.344895363E-1,-1.790974438E-1,3.850927949E-1
1.034144969E0,1.398158520E-1,-1.801627129E-1,3.872233331E-1
1.036632834E0,1.462074369E-1,-1.780321896E-1,3.925496638E-1
1.039120699E0,1.494032294E-1,-1.737711281E-1,3.978759646E-1
1.041608563E0,1.536642760E-1,-1.695100814E-1,4.063980877E-1
1.044096428E0,1.547295451E-1,-1.673795432E-1,4.159854650E-1
1.046584292E0,1.536642760E-1,-1.727058738E-1,4.266380966E-1
1.049072157E0,1.525990218E-1,-1.801627129E-1,4.372907281E-1
1.051560021E0,1.536642760E-1,-1.865542978E-1,4.490086138E-1
1.054047886E0,1.579253376E-1,-1.897500902E-1,4.585959911E-1
1.056535751E0,1.653821766E-1,-1.908153445E-1,4.671181142E-1
1.059023615E0,1.707084924E-1,-1.897500902E-1,4.735096991E-1
1.061511480E0,1.771000773E-1,-1.897500902E-1,4.799012840E-1
1.063999344E0,1.856221855E-1,-1.886848211E-1,4.852275848E-1
1.066487209E0,1.962748319E-1,-1.833585054E-1,4.894886315E-1
1.068975074E0,2.090579867E-1,-1.759016514E-1,4.905539155E-1
1.071462938E0,2.239716798E-1,-1.673795432E-1,4.905539155E-1
1.073950803E0,2.367548496E-1,-1.577921808E-1,4.905539155E-1
1.076438667E0,2.506032586E-1,-1.471395344E-1,4.894886315E-1
1.078926532E0,2.612559199E-1,-1.396826953E-1,4.884233773E-1
1.081414396E0,2.708432674E-1,-1.364869028E-1,4.873581231E-1
1.083902261E0,2.804306448E-1,-1.396826953E-1,4.862928391E-1
1.086390126E0,2.868222296E-1,-1.492700726E-1,4.841623306E-1
1.088877990E0,2.910832763E-1,-1.620532274E-1,4.820317924E-1
1.091365855E0,2.932138145E-1,-1.801627129E-1,4.767054915E-1
1.093853719E0,2.953443527E-1,-1.972069293E-1,4.703139067E-1
1.096341584E0,2.964096069E-1,-2.153164148E-1,4.596612751E-1
1.098829449E0,2.964096069E-1,-2.312953621E-1,4.490086138E-1
1.101317313E0,2.974748611E-1,-2.440785319E-1,4.383559823E-1
1.103805178E0,2.996053994E-1,-2.547311783E-1,4.277033508E-1
1.106293042E0,3.028011918E-1,-2.632532716E-1,4.202465117E-1
1.108780907E0,3.070622385E-1,-2.675143182E-1,4.159854650E-1
1.111268771E0,3.134538233E-1,-2.707101107E-1,4.149201810E-1
1.113756636E0,3.219759464E-1,-2.707101107E-1,4.181159735E-1
1.116244501E0,3.304980397E-1,-2.707101107E-1,4.213117659E-1
1.118732365E0,3.390201628E-1,-2.675143182E-1,4.266380966E-1
1.121220230E0,3.464770019E-1,-2.611227632E-1,4.308991432E-1
1.123708094E0,3.528685868E-1,-2.515353858E-1,4.362254739E-1
1.126195959E0,3.581948876E-1,-2.376869470E-1,4.415517747E-1
1.128683824E0,3.645864725E-1,-2.206427306E-1,4.500738978E-1
1.131171688E0,3.709780574E-1,-2.014679909E-1,4.585959911E-1
1.133659553E0,3.805654347E-1,-1.822932363E-1,4.692486227E-1
1.136147417E0,3.912180662E-1,-1.663142890E-1,4.788360000E-1
1.138635282E0,4.018706977E-1,-1.535311192E-1,4.894886315E-1
1.141123146E0,4.135886133E-1,-1.460742801E-1,4.980107546E-1
1.143611011E0,4.242412448E-1,-1.418132186E-1,5.044023395E-1
1.146098876E0,4.338286221E-1,-1.396826953E-1,5.097286701E-1
1.148586740E0,4.412854612E-1,-1.375521719E-1,5.139896870E-1
1.151074605E0,4.476770461E-1,-1.375521719E-1,5.171855092E-1
1.153562469E0,4.540686309E-1,-1.364869028E-1,5.203812718E-1
1.156050334E0,4.572644234E-1,-1.364869028E-1,5.235770941E-1
1.158538199E0,4.593949318E-1,-1.386174262E-1,5.267728567E-1
1.161026063E0,4.625907242E-1,-1.428784877E-1,5.299686790E-1
1.163513928E0,4.657865167E-1,-1.503353268E-1,5.310339332E-1
1.166001792E0,4.689823091E-1,-1.620532274E-1,5.299686790E-1
1.168489657E0,4.732433856E-1,-1.737711281E-1,5.267728567E-1
1.170977521E0,4.775044322E-1,-1.854890287E-1,5.225118399E-1
1.173465386E0,4.817654788E-1,-1.972069293E-1,5.193160176E-1
1.175953251E0,4.849612713E-1,-2.067943066E-1,5.161202550E-1
1.178441115E0,4.892223179E-1,-2.142511457E-1,5.129244328E-1
1.180928980E0,4.945486486E-1,-2.206427306E-1,5.118591785E-1
1.183416844E0,4.998749495E-1,-2.259690464E-1,5.107939243E-1
1.185904709E0,5.062665343E-1,-2.312953621E-1,5.118591785E-1
1.188392574E0,5.126581192E-1,-2.355564237E-1,5.139896870E-1
1.190880438E0,5.179844499E-1,-2.387522161E-1,5.161202550E-1
1.193368303E0,5.233107805E-1,-2.398174703E-1,5.171855092E-1
1.195856167E0,5.286371112E-1,-2.366216928E-1,5.182507634E-1
1.198344032E0,5.328981280E-1,-2.312953621E-1,5.203812718E-1
1.200831896E0,5.371592045E-1,-2.238385230E-1,5.246423483E-1
1.203319761E0,5.424855351E-1,-2.142511457E-1,5.320991874E-1
1.205807626E0,5.478118062E-1,-2.046637833E-1,5.416865349E-1
1.208295490E0,5.531381369E-1,-1.950764060E-1,5.512739420E-1
1.210783355E0,5.595297217E-1,-1.876195520E-1,5.597960353E-1
1.213271219E0,5.648560524E-1,-1.833585054E-1,5.651223660E-1
1.215759084E0,5.723128915E-1,-1.801627129E-1,5.672528744E-1
1.218246949E0,5.776392221E-1,-1.748363972E-1,5.693834424E-1
1.220734813E0,5.850960612E-1,-1.673795432E-1,5.704486966E-1
1.223222678E0,5.914876461E-1,-1.556616426E-1,5.736444592E-1
1.225710542E0,5.989444852E-1,-1.407479644E-1,5.800360441E-1
1.228198407E0,6.085318327E-1,-1.247690022E-1,5.896234512E-1
1.230686271E0,6.181192398E-1,-1.130511016E-1,6.013413072E-1
1.233174136E0,6.266413331E-1,-1.045289934E-1,6.162550449E-1
1.235662001E0,6.362286806E-1,-1.034637317E-1,6.290381551E-1
1.238149865E0,6.426202655E-1,-1.066595241E-1,6.418213248E-1
1.240637730E0,6.468813419E-1,-1.151816323E-1,6.514087319E-1
1.243125594E0,6.500771642E-1,-1.268995255E-1,6.567350626E-1
1.245613459E0,6.532729268E-1,-1.407479644E-1,6.609960794E-1
1.248101324E0,6.543381810E-1,-1.556616426E-1,6.620613337E-1
1.250589188E0,6.554034352E-1,-1.716406047E-1,6.631265879E-1
1.253077053E0,6.554034352E-1,-1.876195520E-1,6.641919017E-1
1.255564917E0,6.564686894E-1,-2.025332451E-1,6.641919017E-1
1.258052782E0,6.575340033E-1,-2.195774615E-1,6.631265879E-1
1.260540646E0,6.596645117E-1,-2.355564237E-1,6.599308252E-1
1.263028511E0,6.628602743E-1,-2.526006401E-1,6.567350626E-1
1.265516376E0,6.649908423E-1,-2.707101107E-1,6.503434777E-1
1.268004240E0,6.681866050E-1,-2.888196111E-1,6.428865790E-1
1.270492105E0,6.692518592E-1,-3.047985733E-1,6.343644857E-1
1.272979969E0,6.671213508E-1,-3.175817132E-1,6.258423924E-1
1.275467834E0,6.639255881E-1,-3.271690905E-1,6.183855534E-1
1.277955699E0,6.607297659E-1,-3.303648829E-1,6.130592227E-1
1.280443563E0,6.596645117E-1,-3.314301372E-1,6.109287143E-1
1.282931428E0,6.585992575E-1,-3.335606754E-1,6.109287143E-1
1.285419292E0,6.596645117E-1,-3.378217220E-1,6.119939685E-1
1.287907157E0,6.585992575E-1,-3.410175145E-1,6.130592227E-1
1.290395021E0,6.564686894E-1,-3.420827985E-1,6.130592227E-1
1.292882886E0,6.532729268E-1,-3.388870060E-1,6.119939685E-1
1.295370751E0,6.500771642E-1,-3.303648829E-1,6.130592227E-1
1.297858615E0,6.490118504E-1,-3.154512048E-1,6.194508076E-1
1.300346480E0,6.511424184E-1,-2.952111959E-1,6.311687231E-1
1.302834344E0,6.575340033E-1,-2.696448565E-1,6.514087319E-1
1.305322209E0,6.671213508E-1,-2.398174703E-1,6.780403256E-1
1.307810074E0,6.799045205E-1,-2.089248300E-1,7.099981904E-1
1.310297938E0,6.958834529E-1,-1.790974438E-1,7.419561148E-1
1.312785803E0,7.107971907E-1,-1.545963883E-1,7.717835307E-1
1.315273667E0,7.257108688E-1,-1.364869028E-1,7.973498106E-1
1.317761532E0,7.395592928E-1,-1.237037405E-1,8.197203875E-1
1.320249396E0,7.512772083E-1,-1.162468940E-1,8.378298283E-1
1.322737261E0,7.619298100E-1,-1.109205782E-1,8.538088202E-1
1.325225126E0,7.715172172E-1,-1.077247858E-1,8.676572442E-1
1.327712990E0,7.811045647E-1,-1.077247858E-1,8.825709224E-1
1.330200855E0,7.896266580E-1,-1.109205782E-1,8.964193463E-1
1.332688719E0,7.970834970E-1,-1.215732098E-1,9.102677703E-1
1.335176584E0,8.034750819E-1,-1.354216337E-1,9.219856858E-1
1.337664449E0,8.088014126E-1,-1.524658650E-1,9.305077791E-1
1.340152313E0,8.109319210E-1,-1.705753356E-1,9.368993640E-1
1.342640178E0,8.109319210E-1,-1.886848211E-1,9.379646182E-1
1.345128042E0,8.077361584E-1,-2.067943066E-1,9.358341098E-1
1.347615907E0,8.024098277E-1,-2.270343155E-1,9.294425249E-1
1.350103771E0,7.949529886E-1,-2.472743243E-1,9.209204316E-1
1.352591636E0,7.874961495E-1,-2.653838098E-1,9.113330245E-1
1.355079501E0,7.747129798E-1,-2.888196111E-1,9.017456770E-1
1.357567365E0,7.512772083E-1,-3.292996287E-1,8.921582699E-1
1.360055230E0,7.267761230E-1,-3.719101548E-1,8.836361766E-1
1.362543094E0,7.076013684E-1,-4.123901725E-1,8.740488291E-1
1.365030959E0,6.948181987E-1,-4.454133511E-1,8.623309135E-1
1.367518824E0,6.852308512E-1,-4.667186439E-1,8.484824896E-1
1.370006688E0,6.767086983E-1,-4.763059914E-1,8.335688114E-1
1.372494553E0,6.692518592E-1,-4.741754830E-1,8.197203875E-1
1.374982417E0,6.617950201E-1,-4.613923132E-1,8.069372177E-1
1.377470282E0,6.543381810E-1,-4.422175586E-1,8.005456328E-1
1.379958146E0,6.511424184E-1,-4.198470414E-1,7.994803786E-1
1.382446011E0,6.500771642E-1,-3.985417485E-1,8.058719635E-1
1.384933876E0,6.532729268E-1,-3.783017397E-1,8.175898194E-1
1.387421740E0,6.575340033E-1,-3.612575233E-1,8.314382434E-1
1.389909605E0,6.617950201E-1,-3.452785909E-1,8.452867270E-1
1.392397469E0,6.649908423E-1,-3.292996287E-1,8.570045829E-1
1.394885334E0,6.649908423E-1,-3.133206666E-1,8.655267358E-1
1.397373199E0,6.639255881E-1,-2.973417044E-1,8.708530068E-1
1.399861063E0,6.617950201E-1,-2.802974880E-1,8.751140833E-1
1.402348928E0,6.617950201E-1,-2.653838098E-1,8.783098459E-1
1.404836792E0,6.724476814E-1,-2.089248300E-1,8.910930157E-1
1.407324657E0,7.065361142E-1,-7.363634557E-2,9.209204316E-1
1.409812521E0,7.459508777E-1,9.254477918E-2,9.571393728E-1
1.412300386E0,7.853656411E-1,2.363553643E-1,9.901625514E-1
1.414788251E0,7.843003273E-1,2.928143442E-1,1.017859459E0
1.417276115E0,7.544729710E-1,2.608564198E-1,1.045556307E0
1.419763980E0,7.267761230E-1,1.479384899E-1,1.066861510E0
1.422251844E0,7.129276991E-1,5.193160381E-3,1.079644680E0
1.424739709E0,7.118624449E-1,-1.119858399E-1,1.088166833E0
1.427227574E0,7.161234617E-1,-1.961416751E-1,1.086036325E0
1.429715438E0,7.161234617E-1,-2.440785319E-1,1.074318409E0
1.432203303E0,7.076013684E-1,-2.621880174E-1,1.051947832E0
1.434691167E0,6.958834529E-1,-2.653838098E-1,1.018924713E0
1.437179032E0,6.841655970E-1,-2.632532716E-1,9.784446359E-1
1.439666896E0,6.735129356E-1,-2.653838098E-1,9.337036014E-1
1.442154761E0,6.617950201E-1,-2.760364413E-1,8.868319988E-1
1.444642626E0,6.468813419E-1,-2.973417044E-1,8.378298283E-1
1.447130490E0,6.245108247E-1,-3.250385821E-1,7.888277173E-1
1.449618355E0,5.968139768E-1,-3.601922691E-1,7.419561148E-1
1.452106219E0,5.605949759E-1,-4.059986174E-1,6.940192580E-1
1.454594084E0,5.179844499E-1,-4.656533599E-1,6.471476555E-1
1.457081949E0,4.679170549E-1,-5.178512931E-1,6.045371294E-1
1.459569813E0,4.231759906E-1,-5.657881498E-1,5.640571117E-1
1.462057678E0,3.826959729E-1,-6.169208288E-1,5.246423483E-1
1.464545542E0,3.454117477E-1,-6.627271175E-1,4.852275848E-1
1.467033407E0,3.081275225E-1,-7.000113726E-1,4.458128214E-1
1.469521271E0,2.729738057E-1,-7.266429663E-1,4.074633420E-1
1.472009136E0,2.388853729E-1,-7.415566444E-1,3.701791167E-1
1.474497001E0,2.101232558E-1,-7.447524667E-1,3.350254297E-1
1.476984865E0,1.845569313E-1,-7.372955680E-1,3.020022511E-1
1.479472730E0,1.643169224E-1,-7.234471440E-1,2.732401192E-1
1.481960594E0,1.483379602E-1,-7.064029574E-1,2.476737946E-1
1.484448459E0,1.344895363E-1,-6.882934570E-1,2.253032625E-1
1.486936324E0,1.238368973E-1,-6.691187024E-1,2.093243003E-1
1.489424188E0,1.142495275E-1,-6.467481852E-1,1.976063997E-1
1.491912053E0,1.046621501E-1,-6.222470999E-1,1.890842915E-1
1.494399917E0,9.400951862E-2,-5.956155062E-1,1.837579757E-1
1.496887782E0,8.229161799E-2,-5.679186583E-1,1.794969290E-1
1.499375646E0,6.844318658E-2,-5.391565561E-1,1.752358675E-1
1.501863511E0,5.459476262E-2,-5.103944540E-1,1.731053442E-1
1.504351376E0,3.968106955E-2,-4.805670679E-1,1.699095517E-1
1.506839240E0,2.370211668E-2,-4.518049359E-1,1.667137593E-1
1.509327105E0,6.657897960E-3,-4.251733422E-1,1.613874435E-1
1.511814969E0,-1.038632076E-2,-4.028028250E-1,1.560611278E-1
1.514302834E0,-2.849580161E-2,-3.825628161E-1,1.507348120E-1
1.516790699E0,-4.660528526E-2,-3.655185997E-1,1.454084814E-1
1.519278563E0,-6.471476704E-2,-3.495396376E-1,1.411474347E-1
1.521766428E0,-8.175898343E-2,-3.346259296E-1,1.368863732E-1
1.524254292E0,-9.880319983E-2,-3.197122514E-1,1.358211190E-1
1.526742157E0,-1.137168929E-1,-3.037332892E-1,1.358211190E-1
1.529230021E0,-1.286305785E-1,-2.866890728E-1,1.368863732E-1
1.531717886E0,-1.435442716E-1,-2.707101107E-1,1.390169114E-1
1.534205751E0,-1.573926955E-1,-2.547311783E-1,1.422126889E-1
1.536693615E0,-1.712411344E-1,-2.408827394E-1,1.443432271E-1
1.539181480E0,-1.850895584E-1,-2.302301079E-1,1.454084814E-1
1.541669344E0,-2.010685056E-1,-2.259690464E-1,1.454084814E-1
1.544157209E0,-2.202432603E-1,-2.291648388E-1,1.432779580E-1
1.546645074E0,-2.426137924E-1,-2.344911546E-1,1.400821656E-1
1.549132938E0,-2.671148479E-1,-2.398174703E-1,1.336905807E-1
1.551620803E0,-2.905506492E-1,-2.440785319E-1,1.230379492E-1
1.554108667E0,-3.139864504E-1,-2.440785319E-1,1.091895252E-1
1.556596532E0,-3.342264593E-1,-2.387522161E-1,9.321057051E-2
1.559084396E0,-3.512706757E-1,-2.302301079E-1,7.403582335E-2
1.561572261E0,-3.672496378E-1,-2.174469382E-1,5.379581451E-2
1.564060126E0,-3.821633458E-1,-2.046637833E-1,3.142527863E-2
1.566548042E0,-3.960117698E-1,-1.908153445E-1,1.012000442E-2
1.569035959E0,-4.109254479E-1,-1.769669205E-1,-1.118526794E-2
1.571523876E0,-4.237086177E-1,-1.652490199E-1,-3.142527863E-2
1.574011792E0,-4.364917874E-1,-1.556616426E-1,-5.060002208E-2
1.576499709E0,-4.482096732E-1,-1.503353268E-1,-6.870950758E-2
1.578987626E0,-4.588623047E-1,-1.482048035E-1,-8.468846232E-2
1.581475542E0,-4.684496820E-1,-1.471395344E-1,-1.006674170E-1
1.583963459E0,-4.780370593E-1,-1.460742801E-1,-1.177116334E-1
1.586451376E0,-4.865591824E-1,-1.439437568E-1,-1.347558498E-1
1.588939292E0,-4.950812757E-1,-1.407479644E-1,-1.507348120E-1
1.591427209E0,-5.014728308E-1,-1.354216337E-1,-1.677790284E-1
1.593915126E0,-5.067991614E-1,-1.279647946E-1,-1.837579757E-1
1.596403042E0,-5.089297295E-1,-1.183774248E-1,-1.965411454E-1
1.598890959E0,-5.089297295E-1,-1.077247858E-1,-2.082590461E-1
1.601378876E0,-5.067991614E-1,-9.707214683E-2,-2.167811543E-1
1.603866792E0,-5.025381446E-1,-8.641951531E-2,-2.221074700E-1
1.606354709E0,-4.993423223E-1,-7.470161468E-2,-2.274337858E-1
1.608842626E0,-4.950812757E-1,-6.298371404E-2,-2.316948473E-1
1.611330542E0,-4.929507375E-1,-5.020054802E-2,-2.348906398E-1
1.613818459E0,-4.908202291E-1,-3.741738573E-2,-2.380864173E-1
1.616306376E0,-4.897549450E-1,-2.463422157E-2,-2.402169555E-1
1.618794292E0,-4.897549450E-1,-1.504684892E-2,-2.423474789E-1
1.621282209E0,-4.918854833E-1,-7.590003312E-3,-2.423474789E-1
1.623770126E0,-4.950812757E-1,-3.328948980E-3,-2.423474789E-1
1.626258042E0,-5.004075766E-1,-4.394212738E-3,-2.402169555E-1
1.628745959E0,-5.067991614E-1,-8.655266836E-3,-2.402169555E-1
1.631233824E0,-5.153213143E-1,-1.611211337E-2,-2.402169555E-1
1.633721688E0,-5.270391703E-1,-2.356895804E-2,-2.412822098E-1
1.636209553E0,-5.398223400E-1,-3.102580272E-2,-2.444780022E-1
1.638697417E0,-5.547360182E-1,-3.635212034E-2,-2.508696020E-1
1.641185282E0,-5.728455186E-1,-3.954791278E-2,-2.593916953E-1
1.643673146E0,-5.898897648E-1,-4.167843983E-2,-2.689790726E-1
1.646161011E0,-6.079992056E-1,-4.061317816E-2,-2.806969583E-1
1.648648876E0,-6.250434518E-1,-3.848264739E-2,-2.934801280E-1
1.651136740E0,-6.431529522E-1,-3.528685868E-2,-3.073285520E-1
1.653624605E0,-6.591318846E-1,-3.209106624E-2,-3.233075142E-1
1.656112469E0,-6.751108170E-1,-2.996053919E-2,-3.392864764E-1
1.658600334E0,-6.889592409E-1,-2.783001214E-2,-3.563306928E-1
1.661088199E0,-7.017424107E-1,-2.676474862E-2,-3.733749092E-1
1.663576063E0,-7.134603262E-1,-2.463422157E-2,-3.893538713E-1
1.666063928E0,-7.241129875E-1,-2.143843099E-2,-4.053328037E-1
1.668551792E0,-7.347655892E-1,-1.824264042E-2,-4.181159735E-1
1.671039657E0,-7.443529963E-1,-1.398158539E-2,-4.298338890E-1
1.673527521E0,-7.528750896E-1,-8.655266836E-3,-4.404865205E-1
1.676015386E0,-7.603319287E-1,-2.263685223E-3,-4.479433596E-1
1.678503251E0,-7.667235136E-1,4.127896391E-3,-4.543349445E-1
1.680991115E0,-7.709845304E-1,1.158474199E-2,-4.575307369E-1
1.683478980E0,-7.720498443E-1,2.010685205E-2,-4.585959911E-1
1.685966844E0,-7.699192762E-1,2.969422378E-2,-4.564654827E-1
1.688454709E0,-7.656582594E-1,3.928159550E-2,-4.532696903E-1
1.690942574E0,-7.582014203E-1,4.993423447E-2,-4.479433596E-1
1.693430438E0,-7.496792674E-1,6.271740049E-2,-4.426170290E-1
1.695918303E0,-7.390266657E-1,7.656582445E-2,-4.362254739E-1
1.698406167E0,-7.294392586E-1,9.147951752E-2,-4.277033508E-1
1.700894032E0,-7.187866569E-1,1.063932031E-1,-4.202465117E-1
1.703381896E0,-7.081339955E-1,1.213068962E-1,-4.095938802E-1
1.705869761E0,-6.964160800E-1,1.330247968E-1,-3.989412189E-1
1.708357626E0,-6.857634783E-1,1.426121742E-1,-3.882885873E-1
1.710845490E0,-6.751108170E-1,1.500690132E-1,-3.787012100E-1
1.713333355E0,-6.655234694E-1,1.532648057E-1,-3.680485785E-1
1.715821219E0,-6.559360623E-1,1.532648057E-1,-3.595264852E-1
1.718309084E0,-6.495444775E-1,1.490037590E-1,-3.542001545E-1
1.720796949E0,-6.431529522E-1,1.436774284E-1,-3.499391079E-1
1.723284813E0,-6.399571300E-1,1.362205893E-1,-3.478085697E-1
1.725772678E0,-6.378266215E-1,1.287637353E-1,-3.488738537E-1
1.728260542E0,-6.378266215E-1,1.213068962E-1,-3.510043621E-1
1.730748407E0,-6.399571300E-1,1.149153188E-1,-3.542001545E-1
1.733236271E0,-6.420876384E-1,1.063932031E-1,-3.584612012E-1
1.735724136E0,-6.463487148E-1,9.787109494E-2,-3.627222776E-1
1.738212001E0,-6.506097913E-1,8.828372508E-2,-3.691138625E-1
1.740699865E0,-6.548708081E-1,7.763108611E-2,-3.776359558E-1
1.743187730E0,-6.601971388E-1,6.378266215E-2,-3.872233331E-1
1.745675594E0,-6.665887237E-1,4.886896908E-2,-4.000065029E-1
1.748163459E0,-6.740455627E-1,3.395527974E-2,-4.138549268E-1
1.750651324E0,-6.815024018E-1,2.223737910E-2,-4.298338890E-1
1.753139188E0,-6.889592409E-1,1.478053257E-2,-4.468781054E-1
1.755627053E0,-6.953508258E-1,1.265000552E-2,-4.617917836E-1
1.758114917E0,-7.006771564E-1,1.691105962E-2,-4.756402075E-1
1.760602782E0,-7.038729787E-1,2.543316968E-2,-4.873581231E-1
1.763090646E0,-7.060034871E-1,3.821633384E-2,-4.937497079E-1
1.765578511E0,-7.028076649E-1,5.419528857E-2,-4.969455004E-1
1.768066376E0,-6.964160800E-1,7.337003201E-2,-4.958802164E-1
1.770554240E0,-6.857634783E-1,9.467530251E-2,-4.926844239E-1
1.773042105E0,-6.729803085E-1,1.181111038E-1,-4.862928391E-1
1.775529969E0,-6.570013762E-1,1.415469050E-1,-4.788360000E-1
1.778017834E0,-6.399571300E-1,1.649827063E-1,-4.713791609E-1
1.780505699E0,-6.239781976E-1,1.884185076E-1,-4.649875760E-1
1.782993563E0,-6.079992056E-1,2.086585164E-1,-4.585959911E-1
1.785481428E0,-5.930855274E-1,2.257027328E-1,-4.522044063E-1
1.787969292E0,-5.781718493E-1,2.374206334E-1,-4.447475672E-1
1.790457157E0,-5.664539337E-1,2.448774725E-1,-4.340949357E-1
1.792945021E0,-5.568665862E-1,2.448774725E-1,-4.223770201E-1
1.795432886E0,-5.494097471E-1,2.384859025E-1,-4.085285962E-1
1.797920751E0,-5.462139249E-1,2.278332561E-1,-3.936149180E-1
1.800408615E0,-5.430181623E-1,2.139848322E-1,-3.818970025E-1
1.802896480E0,-5.419528484E-1,1.969406158E-1,-3.712443709E-1
1.805384344E0,-5.387570858E-1,1.777658761E-1,-3.659180701E-1
1.807872209E0,-5.366265774E-1,1.585911214E-1,-3.648527861E-1
1.810360074E0,-5.355613232E-1,1.383511126E-1,-3.659180701E-1
1.812847938E0,-5.334307551E-1,1.191763729E-1,-3.712443709E-1
1.815335803E0,-5.344960093E-1,1.021321490E-1,-3.787012100E-1
1.817823667E0,-5.366265774E-1,8.828372508E-2,-3.872233331E-1
1.820311532E0,-5.376918316E-1,7.656582445E-2,-3.968107104E-1
1.822799396E0,-5.387570858E-1,6.697845459E-2,-4.074633420E-1
1.825287261E0,-5.398223400E-1,5.739107728E-2,-4.191812575E-1
1.827775126E0,-5.408875942E-1,4.993423447E-2,-4.298338890E-1
1.830262990E0,-5.398223400E-1,4.354264960E-2,-4.415517747E-1
1.832750855E0,-5.366265774E-1,3.928159550E-2,-4.522044063E-1
1.835238719E0,-5.323655009E-1,3.715106845E-2,-4.628570378E-1
1.837726584E0,-5.259739161E-1,3.821633384E-2,-4.745749533E-1
1.840214449E0,-5.174518228E-1,4.354264960E-2,-4.841623306E-1
1.842702313E0,-5.078644156E-1,5.206476152E-2,-4.937497079E-1
1.845190178E0,-4.972118139E-1,6.697845459E-2,-5.001412630E-1
1.847678042E0,-4.844286442E-1,8.615319431E-2,-5.044023395E-1
1.850165907E0,-4.716454744E-1,1.085237339E-1,-5.022718310E-1
1.852653771E0,-4.577970505E-1,1.298290044E-1,-4.958802164E-1
1.855141636E0,-4.450138807E-1,1.521995366E-1,-4.830970466E-1
1.857629501E0,-4.322307110E-1,1.703090221E-1,-4.681833684E-1
1.860117365E0,-4.194475710E-1,1.841574460E-1,-4.511391521E-1
1.862605230E0,-4.077296555E-1,1.948100924E-1,-4.351601899E-1
1.865093094E0,-3.970770240E-1,2.001364082E-1,-4.202465117E-1
1.867580959E0,-3.864243925E-1,2.043974549E-1,-4.074633420E-1
1.870068824E0,-3.757717609E-1,2.065279931E-1,-3.957454562E-1
1.872556688E0,-3.651190996E-1,2.097237855E-1,-3.861580789E-1
1.875044553E0,-3.565970063E-1,2.129195631E-1,-3.755054474E-1
1.877532417E0,-3.491401672E-1,2.161153555E-1,-3.659180701E-1
1.880020282E0,-3.416832983E-1,2.182458937E-1,-3.563306928E-1
1.882508146E0,-3.342264593E-1,2.161153555E-1,-3.467433155E-1
1.884996011E0,-3.267696202E-1,2.086585164E-1,-3.403517306E-1
1.887483876E0,-3.203780353E-1,1.980058849E-1,-3.360906839E-1
1.889971740E0,-3.150517344E-1,1.830921918E-1,-3.360906839E-1
1.892459605E0,-3.118559420E-1,1.660479754E-1,-3.392864764E-1
1.894947469E0,-3.118559420E-1,1.500690132E-1,-3.467433155E-1
1.897435334E0,-3.161169887E-1,1.340900660E-1,-3.552654386E-1
1.899923199E0,-3.225085735E-1,1.202416345E-1,-3.648527861E-1
1.902411063E0,-3.310306668E-1,1.085237339E-1,-3.755054474E-1
1.904898928E0,-3.416832983E-1,9.467530251E-2,-3.850927949E-1
1.907386792E0,-3.534012139E-1,7.869634777E-2,-3.946801722E-1
1.909874657E0,-3.651190996E-1,5.952160433E-2,-4.053328037E-1
1.912362521E0,-3.789675534E-1,4.034686089E-2,-4.181159735E-1
1.914850386E0,-3.917506933E-1,2.330264263E-2,-4.330296814E-1
1.917338251E0,-4.045338631E-1,1.051947847E-2,-4.490086138E-1
1.919826115E0,-4.183822870E-1,6.258423906E-3,-4.660528302E-1
1.922313980E0,-4.311654568E-1,1.265000552E-2,-4.799012840E-1
1.924801844E0,-4.418180883E-1,2.649843320E-2,-4.894886315E-1
1.927289709E0,-4.492749274E-1,4.673844203E-2,-4.948149621E-1
1.929777574E0,-4.535360038E-1,7.123950869E-2,-4.948149621E-1
1.932265438E0,-4.546012580E-1,9.893636405E-2,-4.905539155E-1
1.934753303E0,-4.546012580E-1,1.266332120E-1,-4.830970466E-1
1.937241167E0,-4.546012580E-1,1.532648057E-1,-4.735096991E-1
1.939729032E0,-4.546012580E-1,1.767006069E-1,-4.649875760E-1
1.942216896E0,-4.556665123E-1,1.980058849E-1,-4.575307369E-1
1.944704761E0,-4.556665123E-1,2.171806246E-1,-4.522044063E-1
1.947192626E0,-4.546012580E-1,2.352901101E-1,-4.468781054E-1
1.949680490E0,-4.535360038E-1,2.523343265E-1,-4.426170290E-1
1.952168355E0,-4.503402114E-1,2.693785429E-1,-4.362254739E-1
1.954656219E0,-4.460791349E-1,2.842922211E-1,-4.298338890E-1
1.957144084E0,-4.418180883E-1,2.960101366E-1,-4.213117659E-1
1.959631949E0,-4.364917874E-1,3.055975139E-1,-4.117243886E-1
1.962119813E0,-4.322307110E-1,3.130543530E-1,-4.032022953E-1
1.964607678E0,-4.290349185E-1,3.173153996E-1,-3.946801722E-1
1.967095542E0,-4.269044101E-1,3.205111921E-1,-3.914843798E-1
1.969583407E0,-4.279696643E-1,3.194459379E-1,-3.914843798E-1
1.972071271E0,-4.279696643E-1,3.162501454E-1,-3.946801722E-1
1.974559136E0,-4.301002026E-1,3.098585606E-1,-4.000065029E-1
1.977047001E0,-4.332959950E-1,3.002711833E-1,-4.095938802E-1
1.979534865E0,-4.396875799E-1,2.874880135E-1,-4.202465117E-1
1.982022730E0,-4.460791349E-1,2.725743353E-1,-4.319643974E-1
1.984510594E0,-4.546012580E-1,2.555301189E-1,-4.447475672E-1
1.986998459E0,-4.641886353E-1,2.374206334E-1,-4.575307369E-1
1.989486324E0,-4.748412669E-1,2.182458937E-1,-4.713791609E-1
1.991974188E0,-4.854938984E-1,1.980058849E-1,-4.852275848E-1
1.994462053E0,-4.961465299E-1,1.767006069E-1,-4.980107546E-1
1.996949917E0,-5.057339072E-1,1.543300748E-1,-5.129244328E-1
1.999437782E0,-5.153213143E-1,1.330247968E-1,-5.257076025E-1
2.001925646E0,-5.259739161E-1,1.149153188E-1,-5.395560265E-1
2.004413511E0,-5.334307551E-1,1.000016257E-1,-5.523391962E-1
2.006901376E0,-5.408875942E-1,8.828372508E-2,-5.619265437E-1
2.009389240E0,-5.451486707E-1,8.082687855E-2,-5.683181286E-1
2.011877105E0,-5.472791791E-1,7.976161689E-2,-5.704486966E-1
2.014364969E0,-5.472791791E-1,8.295740932E-2,-5.693834424E-1
2.016852834E0,-5.430181623E-1,9.041424841E-2,-5.651223660E-1
2.019340699E0,-5.355613232E-1,1.000016257E-1,-5.576655269E-1
2.021828563E0,-5.249086618E-1,1.106542572E-1,-5.491434336E-1
2.024316428E0,-5.110602379E-1,1.245026886E-1,-5.395560265E-1
2.026804292E0,-4.961465299E-1,1.404816359E-1,-5.299686790E-1
2.029292157E0,-4.801675975E-1,1.585911214E-1,-5.214465261E-1
2.031780021E0,-4.641886353E-1,1.767006069E-1,-5.150549412E-1
2.034267886E0,-4.514054656E-1,1.958753467E-1,-5.086634159E-1
2.036755751E0,-4.386222959E-1,2.161153555E-1,-5.022718310E-1
2.039243615E0,-4.269044101E-1,2.363553643E-1,-4.969455004E-1
2.041731480E0,-4.173170328E-1,2.544648647E-1,-4.916191697E-1
2.044219344E0,-4.087949097E-1,2.725743353E-1,-4.862928391E-1
2.046707209E0,-4.002728164E-1,2.885532975E-1,-4.799012840E-1
2.049195074E0,-3.917506933E-1,3.024017215E-1,-4.756402075E-1
2.051682938E0,-3.810980618E-1,3.151848912E-1,-4.735096991E-1
2.054170803E0,-3.704454303E-1,3.258375227E-1,-4.735096991E-1
2.056658667E0,-3.608580530E-1,3.364901543E-1,-4.756402075E-1
2.059146532E0,-3.523359597E-1,3.450122476E-1,-4.777707458E-1
2.061634396E0,-3.448790908E-1,3.503385782E-1,-4.820317924E-1
2.064122261E0,-3.406180441E-1,3.524691164E-1,-4.862928391E-1
2.066610126E0,-3.395527899E-1,3.492733240E-1,-4.916191697E-1
2.069097990E0,-3.406180441E-1,3.407512009E-1,-4.980107546E-1
2.071585855E0,-3.448790908E-1,3.269027770E-1,-5.054675937E-1
2.074073719E0,-3.502054214E-1,3.066627681E-1,-5.139896870E-1
2.076561584E0,-3.565970063E-1,2.821617126E-1,-5.246423483E-1
2.079049449E0,-3.629885912E-1,2.533995807E-1,-5.374255180E-1
2.081537313E0,-3.693801761E-1,2.235722095E-1,-5.534044504E-1
2.084025178E0,-3.747064769E-1,1.926795542E-1,-5.683181286E-1
2.086513042E0,-3.800328076E-1,1.628521830E-1,-5.832318664E-1
2.089000907E0,-3.853591084E-1,1.351553202E-1,-5.938844681E-1
2.091488771E0,-3.917506933E-1,1.095889956E-1,-6.002760530E-1
2.093976636E0,-3.970770240E-1,8.828372508E-2,-6.024065614E-1
2.096464501E0,-4.013380706E-1,7.017423958E-2,-6.013413072E-1
2.098952365E0,-4.066644013E-1,5.526055023E-2,-5.981455445E-1
2.101440230E0,-4.098601937E-1,4.141212255E-2,-5.928192139E-1
2.103928094E0,-4.141212404E-1,2.756369673E-2,-5.896234512E-1
2.106415959E0,-4.173170328E-1,1.797632314E-2,-5.874928832E-1
2.108903824E0,-4.183822870E-1,1.158474199E-2,-5.864276290E-1
2.111391688E0,-4.173170328E-1,1.265000552E-2,-5.853623748E-1
2.113879553E0,-4.130559862E-1,2.330264263E-2,-5.832318664E-1
2.116367417E0,-4.055991173E-1,4.354264960E-2,-5.779055357E-1
2.118855282E0,-3.960117698E-1,7.123950869E-2,-5.683181286E-1
2.121343146E0,-3.842938542E-1,1.021321490E-1,-5.544697046E-1
2.123831011E0,-3.715106845E-1,1.372858584E-1,-5.384907722E-1
2.126318876E0,-3.587275445E-1,1.724395454E-1,-5.203812718E-1
2.128806740E0,-3.459443748E-1,2.054627240E-1,-5.022718310E-1
2.131294605E0,-3.342264593E-1,2.352901101E-1,-4.852275848E-1
2.133782469E0,-3.246390820E-1,2.597911656E-1,-4.703139067E-1
2.136270334E0,-3.171822429E-1,2.821617126E-1,-4.575307369E-1
2.138758199E0,-3.107906580E-1,3.013364673E-1,-4.468781054E-1
2.141246063E0,-3.065296113E-1,3.183806837E-1,-4.372907281E-1
2.143733928E0,-3.054643571E-1,3.311638236E-1,-4.287686050E-1
2.146221792E0,-3.054643571E-1,3.407512009E-1,-4.213117659E-1
2.148709657E0,-3.065296113E-1,3.460775316E-1,-4.138549268E-1
2.151197521E0,-3.097254038E-1,3.460775316E-1,-4.074633420E-1
2.153685386E0,-3.118559420E-1,3.407512009E-1,-4.021370113E-1
2.156173251E0,-3.161169887E-1,3.279680312E-1,-4.000065029E-1
2.158661115E0,-3.214432895E-1,3.109238148E-1,-4.010717571E-1
2.161148980E0,-3.289001584E-1,2.874880135E-1,-4.021370113E-1
2.163636844E0,-3.384875357E-1,2.587259114E-1,-4.053328037E-1
2.166124709E0,-3.512706757E-1,2.257027328E-1,-4.095938802E-1
2.168612574E0,-3.693801761E-1,1.894837767E-1,-4.117243886E-1
2.171100438E0,-3.896201849E-1,1.532648057E-1,-4.149201810E-1
2.173588303E0,-4.109254479E-1,1.138500497E-1,-4.170507193E-1
2.176076167E0,-4.322307110E-1,7.443529367E-2,-4.181159735E-1
2.178564032E0,-4.492749274E-1,3.502054140E-2,-4.202465117E-1
2.181051896E0,-4.652538896E-1,9.321057005E-4,-4.213117659E-1
2.183539761E0,-4.759065211E-1,-2.569948509E-2,-4.202465117E-1
2.186027626E0,-4.833633900E-1,-4.274370521E-2,-4.170507193E-1
2.188515490E0,-4.865591824E-1,-5.126581341E-2,-4.095938802E-1
2.191003355E0,-4.844286442E-1,-5.020054802E-2,-4.010717571E-1
2.193491219E0,-4.769718051E-1,-4.167843983E-2,-3.882885873E-1
2.195979084E0,-4.663191736E-1,-2.783001214E-2,-3.733749092E-1
2.198466949E0,-4.535360038E-1,-1.078579482E-2,-3.563306928E-1
2.200954813E0,-4.396875799E-1,1.051947847E-2,-3.392864764E-1
2.203442678E0,-4.237086177E-1,3.821633384E-2,-3.222422600E-1
2.205930542E0,-4.066644013E-1,7.017423958E-2,-3.030675054E-1
2.208418407E0,-3.874896467E-1,1.053279415E-1,-2.849580348E-1
2.210906271E0,-3.651190996E-1,1.426121742E-1,-2.647180259E-1
2.213394136E0,-3.384875357E-1,1.820269227E-1,-2.444780022E-1
2.215882001E0,-3.107906580E-1,2.203764170E-1,-2.242379934E-1
2.218369865E0,-2.820285559E-1,2.565953732E-1,-2.050632536E-1
2.220857730E0,-2.553969622E-1,2.874880135E-1,-1.848232448E-1
2.223345594E0,-2.298306376E-1,3.119890988E-1,-1.667137593E-1
2.225833459E0,-2.095906287E-1,3.290333152E-1,-1.496695429E-1
2.228321324E0,-1.925463974E-1,3.343596160E-1,-1.326253265E-1
2.230809188E0,-1.829590350E-1,3.290333152E-1,-1.187768951E-1
2.233297053E0,-1.776327193E-1,3.151848912E-1,-1.081242561E-1
2.235784917E0,-1.776327193E-1,2.928143442E-1,-9.960214794E-2
2.238272782E0,-1.818937659E-1,2.651174963E-1,-9.534109384E-2
2.240760646E0,-1.893506050E-1,2.342248410E-1,-9.534109384E-2
2.243248511E0,-1.968074590E-1,1.980058849E-1,-9.853688627E-2
2.245736376E0,-2.063948363E-1,1.596563905E-1,-1.049284711E-1
2.248224240E0,-2.159821987E-1,1.191763729E-1,-1.123853177E-1
2.250712105E0,-2.277000993E-1,7.869634777E-2,-1.219726875E-1
2.253199969E0,-2.404832691E-1,4.141212255E-2,-1.336905807E-1
2.255687834E0,-2.532664239E-1,6.258423906E-3,-1.464737505E-1
2.258175699E0,-2.660495937E-1,-2.463422157E-2,-1.603221744E-1
2.260663563E0,-2.777675092E-1,-5.339634046E-2,-1.752358675E-1
2.263151428E0,-2.905506492E-1,-7.896266878E-2,-1.890842915E-1
2.265639292E0,-3.033338189E-1,-1.034637317E-1,-2.039979845E-1
2.268127157E0,-3.150517344E-1,-1.247690022E-1,-2.199769467E-1
2.270615021E0,-3.257043660E-1,-1.428784877E-1,-2.380864173E-1
2.273102886E0,-3.331612051E-1,-1.556616426E-1,-2.551306486E-1
2.275590751E0,-3.384875357E-1,-1.620532274E-1,-2.711096108E-1
2.278078615E0,-3.427485824E-1,-1.599227041E-1,-2.849580348E-1
2.280566480E0,-3.448790908E-1,-1.471395344E-1,-2.956106663E-1
2.283054344E0,-3.427485824E-1,-1.247690022E-1,-3.009369671E-1
2.285542209E0,-3.384875357E-1,-9.281109273E-2,-2.998717129E-1
2.288030074E0,-3.299654126E-1,-5.446160212E-2,-2.924148738E-1
2.290517938E0,-3.150517344E-1,-9.720530361E-3,-2.785664499E-1
2.293005803E0,-2.980075181E-1,3.608580679E-2,-2.615222335E-1
2.295493667E0,-2.788327634E-1,7.976161689E-2,-2.412822098E-1
2.297981532E0,-2.596580088E-1,1.181111038E-1,-2.210422009E-1
2.300469396E0,-2.426137924E-1,1.490037590E-1,-2.018674612E-1
2.302957261E0,-2.277000993E-1,1.713742912E-1,-1.869537681E-1
2.305445126E0,-2.149169445E-1,1.862879843E-1,-1.731053442E-1
2.307932990E0,-2.042642981E-1,1.980058849E-1,-1.603221744E-1
2.310420855E0,-1.957421899E-1,2.086585164E-1,-1.486042738E-1
2.312908719E0,-1.872200817E-1,2.171806246E-1,-1.347558498E-1
2.315396584E0,-1.776327193E-1,2.278332561E-1,-1.198421568E-1
2.317884449E0,-1.659148186E-1,2.374206334E-1,-1.038632020E-1
2.320372313E0,-1.531316489E-1,2.448774725E-1,-9.001477808E-2
2.322860178E0,-1.371526867E-1,2.502037883E-1,-7.829687744E-2
2.325348042E0,-1.201084778E-1,2.555301189E-1,-6.977476925E-2
2.327835907E0,-1.019989923E-1,2.576606572E-1,-6.444845349E-2
2.330323771E0,-8.495477587E-2,2.597911656E-1,-6.444845349E-2
2.332811636E0,-6.791055948E-2,2.608564198E-1,-6.657897681E-2
2.335299501E0,-5.193160102E-2,2.597911656E-1,-7.084003091E-2
2.337787365E0,-3.914843872E-2,2.533995807E-1,-7.723161578E-2
2.340275230E0,-2.956106514E-2,2.438122183E-1,-8.468846232E-2
2.342763094E0,-2.210422046E-2,2.267680019E-1,-9.214530140E-2
2.345250959E0,-1.890842989E-2,2.054627240E-1,-1.006674170E-1
2.347738824E0,-1.997369342E-2,1.788311303E-1,-1.102547869E-1
2.350226688E0,-2.316948399E-2,1.500690132E-1,-1.219726875E-1
2.352714553E0,-2.849580161E-2,1.181111038E-1,-1.326253265E-1
2.355202417E0,-3.488738462E-2,8.508793265E-2,-1.454084814E-1
2.357690282E0,-4.340949282E-2,5.099949613E-2,-1.571263820E-1
2.360178146E0,-5.193160102E-2,1.797632314E-2,-1.667137593E-1
2.362666011E0,-6.258423626E-2,-1.185105834E-2,-1.741705984E-1
2.365153876E0,-7.323687524E-2,-3.848264739E-2,-1.805621833E-1
2.367641740E0,-8.495477587E-2,-6.085318699E-2,-1.848232448E-1
2.370129605E0,-9.454214573E-2,-8.002793044E-2,-1.880190372E-1
2.372617469E0,-1.051947847E-1,-9.600688517E-2,-1.880190372E-1
2.375105334E0,-1.115863696E-1,-1.066595241E-1,-1.869537681E-1
2.377593199E0,-1.179779470E-1,-1.109205782E-1,-1.848232448E-1
2.380081063E0,-1.211737394E-1,-1.087900475E-1,-1.805621833E-1
2.382568928E0,-1.222390011E-1,-9.813741595E-2,-1.731053442E-1
2.385056792E0,-1.222390011E-1,-8.215846121E-2,-1.635179669E-1
2.387544657E0,-1.201084778E-1,-6.191844866E-2,-1.528653353E-1
2.390032521E0,-1.158474237E-1,-3.635212034E-2,-1.400821656E-1
2.392520386E0,-1.083905771E-1,-8.655266836E-3,-1.251684725E-1
2.395008251E0,-1.009337306E-1,2.010685205E-2,-1.102547869E-1
2.397496115E0,-9.347688407E-2,4.780370742E-2,-9.321057051E-2
2.399983980E0,-8.602003753E-2,7.123950869E-2,-7.723161578E-2
2.402471844E0,-7.856319100E-2,8.934898674E-2,-6.018739566E-2
2.404959709E0,-7.217161357E-2,1.031974182E-1,-4.314317927E-2
2.407447574E0,-6.684529036E-2,1.127847880E-1,-2.929474972E-2
2.409935438E0,-6.151897460E-2,1.181111038E-1,-1.651158556E-2
2.412423303E0,-5.725792050E-2,1.202416345E-1,-4.793686327E-3
2.414911167E0,-5.406212807E-2,1.202416345E-1,3.728422802E-3
2.417399032E0,-5.193160102E-2,1.181111038E-1,1.012000442E-2
2.419886896E0,-5.086633936E-2,1.149153188E-1,1.331579592E-2
2.422374761E0,-4.980107397E-2,1.095889956E-1,1.438105945E-2
2.424862626E0,-4.873581231E-2,1.021321490E-1,1.225053146E-2
2.427350490E0,-4.554001987E-2,9.147951752E-2,6.924213842E-3
2.429838355E0,-4.234423116E-2,7.976161689E-2,-5.326318205E-4
2.432326219E0,-4.021370411E-2,6.484792382E-2,-9.054740891E-3
2.434814084E0,-3.914843872E-2,4.780370742E-2,-1.864211448E-2
2.437301949E0,-3.914843872E-2,2.756369673E-2,-2.716422267E-2
2.439789813E0,-4.021370411E-2,5.193160381E-3,-3.781685978E-2
2.442277678E0,-4.234423116E-2,-2.037316747E-2,-4.740423337E-2
2.444765542E0,-4.447475821E-2,-4.913528636E-2,-5.805686861E-2
2.447253407E0,-4.767054692E-2,-8.002793044E-2,-6.764423847E-2
2.449741271E0,-5.193160102E-2,-1.130511016E-1,-7.936213911E-2
2.452229136E0,-5.619265884E-2,-1.471395344E-1,-9.108003974E-2
2.454717001E0,-6.258423626E-2,-1.790974438E-1,-1.017326787E-1
2.457204865E0,-7.004108280E-2,-2.089248300E-1,-1.123853177E-1
2.459692730E0,-7.643266767E-2,-2.334259003E-1,-1.219726875E-1
2.462180594E0,-8.069372177E-2,-2.515353858E-1,-1.272990108E-1
2.464668459E0,-8.282424510E-2,-2.621880174E-1,-1.315600574E-1
2.467156324E0,-8.282424510E-2,-2.643185556E-1,-1.315600574E-1
2.469644188E0,-8.069372177E-2,-2.589922249E-1,-1.272990108E-1
2.472132053E0,-7.749792933E-2,-2.472743243E-1,-1.219726875E-1
2.474619917E0,-7.110634446E-2,-2.334259003E-1,-1.155811027E-1
2.477107782E0,-6.258423626E-2,-2.163816839E-1,-1.102547869E-1
2.479595646E0,-5.299686641E-2,-1.993374527E-1,-1.049284711E-1
2.482083511E0,-4.234423116E-2,-1.790974438E-1,-9.960214794E-2
2.484571376E0,-3.169159219E-2,-1.567269117E-1,-9.427583218E-2
2.487059240E0,-1.890842989E-2,-1.300953180E-1,-8.788424730E-2
2.489547105E0,-8.255792782E-3,-1.002679393E-1,-8.042740822E-2
2.492034969E0,4.527370445E-3,-6.724476814E-2,-6.870950758E-2
2.494522834E0,1.944106072E-2,-3.635212034E-2,-5.592634156E-2
2.497010699E0,3.328948840E-2,-7.590003312E-3,-4.207791388E-2
2.499498563E0,4.820318148E-2,1.691105962E-2,-2.929474972E-2
2.501986428E0,6.205160543E-2,3.608580679E-2,-1.757685095E-2
2.504474292E0,7.483477145E-2,5.099949613E-2,-9.054740891E-3
2.506962157E0,8.548741043E-2,6.165213138E-2,-3.728422802E-3
2.509450021E0,9.400951862E-2,7.017423958E-2,-2.663159044E-3
2.511937886E0,1.025316268E-1,7.550056279E-2,-3.728422802E-3
2.514425751E0,1.089232042E-1,7.763108611E-2,-5.858949851E-3
2.516913615E0,1.174453199E-1,7.656582445E-2,-1.012000442E-2
2.519401480E0,1.249021590E-1,7.230477035E-2,-1.331579592E-2
2.521889344E0,1.312937438E-1,6.271740049E-2,-1.544632297E-2
2.524377209E0,1.366200596E-1,4.886896908E-2,-1.970737800E-2
2.526865074E0,1.419463754E-1,3.075948730E-2,-2.290316857E-2
2.529352938E0,1.451421678E-1,9.454214945E-3,-2.822948620E-2
2.531840803E0,1.451421678E-1,-1.611211337E-2,-3.462106735E-2
2.534328667E0,1.440769136E-1,-4.274370521E-2,-4.420844093E-2
2.536816532E0,1.398158520E-1,-7.044056058E-2,-5.592634156E-2
2.539304396E0,1.355548054E-1,-9.920267761E-2,-6.977476925E-2
2.541792261E0,1.312937438E-1,-1.290300637E-1,-8.575372398E-2
2.544280126E0,1.270326823E-1,-1.588574350E-1,-1.027979404E-1
2.546767990E0,1.238368973E-1,-1.854890287E-1,-1.198421568E-1
2.549255855E0,1.195758432E-1,-2.078595608E-1,-1.347558498E-1
2.551743719E0,1.163800508E-1,-2.259690464E-1,-1.464737505E-1
2.554231584E0,1.153147891E-1,-2.355564237E-1,-1.560611278E-1
2.556719449E0,1.142495275E-1,-2.408827394E-1,-1.624527127E-1
2.559207313E0,1.142495275E-1,-2.419480085E-1,-1.677790284E-1
2.561695178E0,1.153147891E-1,-2.398174703E-1,-1.709748209E-1
2.564183042E0,1.163800508E-1,-2.344911546E-1,-1.741705984E-1
2.566670907E0,1.185105816E-1,-2.270343155E-1,-1.752358675E-1
2.569158771E0,1.195758432E-1,-2.174469382E-1,-1.773663908E-1
2.571646636E0,1.206411049E-1,-2.067943066E-1,-1.773663908E-1
2.574134501E0,1.227716357E-1,-1.950764060E-1,-1.752358675E-1
2.576622365E0,1.249021590E-1,-1.801627129E-1,-1.731053442E-1
2.579110230E0,1.249021590E-1,-1.641837656E-1,-1.688442826E-1
2.581598094E0,1.270326823E-1,-1.482048035E-1,-1.635179669E-1
2.584085959E0,1.280979514E-1,-1.322258562E-1,-1.571263820E-1
2.586573824E0,1.312937438E-1,-1.183774248E-1,-1.507348120E-1
2.589061688E0,1.344895363E-1,-1.066595241E-1,-1.432779580E-1
2.591549553E0,1.387505829E-1,-9.494162351E-2,-1.358211190E-1
2.594037417E0,1.419463754E-1,-8.322372288E-2,-1.283642650E-1
2.596525282E0,1.472726911E-1,-7.257108390E-2,-1.219726875E-1
2.599013146E0,1.504684836E-1,-6.191844866E-2,-1.155811027E-1
2.601501011E0,1.547295451E-1,-5.126581341E-2,-1.091895252E-1
2.603988876E0,1.589905918E-1,-4.167843983E-2,-1.027979404E-1
2.606476740E0,1.632516533E-1,-3.422159329E-2,-9.640636295E-2
2.608964605E0,1.675127149E-1,-2.676474862E-2,-9.001477808E-2
2.611452469E0,1.696432382E-1,-2.250369452E-2,-8.255793154E-2
2.613940334E0,1.707084924E-1,-2.037316747E-2,-7.723161578E-2
2.616428199E0,1.685779691E-1,-2.037316747E-2,-7.190529257E-2
2.618916063E0,1.664474458E-1,-2.250369452E-2,-6.764423847E-2
2.621403928E0,1.621863842E-1,-2.676474862E-2,-6.444845349E-2
2.623891792E0,1.589905918E-1,-3.209106624E-2,-6.125266105E-2
2.626379657E0,1.547295451E-1,-3.848264739E-2,-5.912213027E-2
2.628867521E0,1.504684836E-1,-4.593949392E-2,-5.592634156E-2
2.631355386E0,1.462074369E-1,-5.339634046E-2,-5.379581451E-2
2.633843251E0,1.419463754E-1,-6.404897571E-2,-5.166528746E-2
2.636331115E0,1.376853287E-1,-7.257108390E-2,-4.953476042E-2
2.638818980E0,1.312937438E-1,-8.215846121E-2,-4.846949503E-2
2.641306844E0,1.249021590E-1,-9.068056941E-2,-4.740423337E-2
2.643794709E0,1.163800508E-1,-9.813741595E-2,-4.740423337E-2
2.646282574E0,1.078579426E-1,-1.045289934E-1,-4.846949503E-2
2.648770438E0,1.004010960E-1,-1.119858399E-1,-5.060002208E-2
2.651258303E0,9.400951862E-2,-1.194426864E-1,-5.166528746E-2
2.653746167E0,8.868319541E-2,-1.258342713E-1,-5.379581451E-2
2.656234032E0,8.548741043E-2,-1.311605871E-1,-5.592634156E-2
2.658721896E0,8.229161799E-2,-1.354216337E-1,-5.699160323E-2
2.661209761E0,8.016108721E-2,-1.386174262E-1,-5.699160323E-2
2.663697626E0,7.803056389E-2,-1.386174262E-1,-5.592634156E-2
2.666185490E0,7.696529478E-2,-1.364869028E-1,-5.379581451E-2
2.668673355E0,7.590003312E-2,-1.311605871E-1,-5.273054913E-2
2.671161219E0,7.483477145E-2,-1.237037405E-1,-4.846949503E-2
2.673649084E0,7.590003312E-2,-1.173121557E-1,-4.527370632E-2
2.676136949E0,7.696529478E-2,-1.119858399E-1,-4.101264849E-2
2.678624813E0,7.909582555E-2,-1.066595241E-1,-3.781685978E-2
2.681112678E0,8.016108721E-2,-1.023984700E-1,-3.462106735E-2
2.683600542E0,8.016108721E-2,-9.920267761E-2,-3.142527863E-2
2.686088407E0,8.122635633E-2,-9.813741595E-2,-3.036001325E-2
2.688576271E0,8.229161799E-2,-9.707214683E-2,-2.929474972E-2
2.691064136E0,8.442214131E-2,-9.600688517E-2,-2.609895915E-2
2.693552001E0,8.761793375E-2,-9.494162351E-2,-2.290316857E-2
2.696039865E0,9.081372619E-2,-9.387636185E-2,-1.970737800E-2
2.698527730E0,9.507478029E-2,-9.174583107E-2,-1.651158556E-2
2.701015594E0,9.720530361E-2,-8.961530030E-2,-1.331579592E-2
2.703503459E0,1.004010960E-1,-8.748477697E-2,-9.054740891E-3
2.705991324E0,1.025316268E-1,-8.535424620E-2,-6.924213842E-3
2.708479188E0,1.046621501E-1,-8.428898454E-2,-5.858949851E-3
2.710967053E0,1.078579426E-1,-8.322372288E-2,-3.728422802E-3
2.713454917E0,1.099884734E-1,-8.215846121E-2,-2.663159044E-3
2.715942782E0,1.121189967E-1,-8.215846121E-2,-5.326318205E-4
2.718430646E0,1.131842583E-1,-8.428898454E-2,-5.326318205E-4
2.720918511E0,1.142495275E-1,-8.641951531E-2,-5.326318205E-4
2.723406376E0,1.153147891E-1,-9.068056941E-2,-1.597895520E-3
2.725894240E0,1.153147891E-1,-9.707214683E-2,-1.597895520E-3
2.728382105E0,1.142495275E-1,-1.023984700E-1,-2.663159044E-3
2.730869969E0,1.142495275E-1,-1.077247858E-1,-2.663159044E-3
2.733357834E0,1.142495275E-1,-1.130511016E-1,-3.728422802E-3
2.735845699E0,1.142495275E-1,-1.173121557E-1,-3.728422802E-3
2.738333563E0,1.121189967E-1,-1.194426864E-1,-3.728422802E-3
2.740821428E0,1.110537350E-1,-1.215732098E-1,-4.793686327E-3
2.743309292E0,1.078579426E-1,-1.226384789E-1,-4.793686327E-3
2.745797157E0,1.057274193E-1,-1.258342713E-1,-5.858949851E-3
2.748285021E0,1.035968885E-1,-1.290300637E-1,-5.858949851E-3
2.750772886E0,1.014663652E-1,-1.311605871E-1,-6.924213842E-3
2.753260751E0,1.004010960E-1,-1.322258562E-1,-7.989477366E-3
2.755748615E0,9.827057272E-2,-1.322258562E-1,-7.989477366E-3
2.758236480E0,9.614004195E-2,-1.311605871E-1,-7.989477366E-3
2.760724344E0,9.400951862E-2,-1.300953180E-1,-6.924213842E-3
2.763212209E0,9.187898785E-2,-1.279647946E-1,-5.858949851E-3
2.765700074E0,8.974846452E-2,-1.258342713E-1,-4.793686327E-3
2.768187938E0,8.761793375E-2,-1.226384789E-1,-2.663159044E-3
2.770675803E0,8.442214131E-2,-1.183774248E-1,5.326318205E-4
2.773163667E0,8.229161799E-2,-1.151816323E-1,2.663159044E-3
2.775651532E0,7.909582555E-2,-1.098553166E-1,6.924213842E-3
2.778139396E0,7.803056389E-2,-1.055942550E-1,9.054740891E-3
2.780627261E0,7.696529478E-2,-1.002679393E-1,1.225053146E-2
2.783115126E0,7.590003312E-2,-9.387636185E-2,1.651158556E-2
2.785602990E0,7.590003312E-2,-8.748477697E-2,1.970737800E-2
2.788090855E0,7.483477145E-2,-8.109319210E-2,2.183790505E-2
2.790578719E0,7.483477145E-2,-7.576687634E-2,2.503369562E-2
2.793066584E0,7.376950979E-2,-6.937529147E-2,2.716422267E-2
2.795554449E0,7.376950979E-2,-6.404897571E-2,2.929474972E-2
2.798042313E0,7.376950979E-2,-5.978792161E-2,3.142527863E-2
2.800530178E0,7.376950979E-2,-5.446160212E-2,3.355580568E-2
2.803018042E0,7.483477145E-2,-5.020054802E-2,3.568633273E-2
2.805505907E0,7.590003312E-2,-4.487423226E-2,3.781685978E-2
2.807993771E0,7.696529478E-2,-4.167843983E-2,3.888212144E-2
2.810481636E0,7.909582555E-2,-3.848264739E-2,4.207791388E-2
2.812969501E0,8.016108721E-2,-3.635212034E-2,4.314317927E-2
2.815457365E0,8.016108721E-2,-3.422159329E-2,4.420844093E-2
2.817945230E0,8.016108721E-2,-3.528685868E-2,4.420844093E-2
2.820433094E0,7.909582555E-2,-3.635212034E-2,4.314317927E-2
2.822920959E0,7.590003312E-2,-4.061317816E-2,4.101264849E-2
2.825408876E0,7.270424068E-2,-4.593949392E-2,3.888212144E-2
2.827896792E0,6.950845569E-2,-5.126581341E-2,3.568633273E-2
2.830384709E0,6.524740160E-2,-5.765739456E-2,3.249054030E-2
2.832872626E0,6.205160543E-2,-6.404897571E-2,3.036001325E-2
2.835360542E0,5.885581672E-2,-6.937529147E-2,2.822948620E-2
2.837848459E0,5.459476262E-2,-7.363634557E-2,2.716422267E-2
2.840336376E0,5.139897019E-2,-7.683213800E-2,2.503369562E-2
2.842824292E0,4.820318148E-2,-7.683213800E-2,2.290316857E-2
2.845312209E0,4.500738904E-2,-7.789740711E-2,2.183790505E-2
2.847800126E0,4.181159660E-2,-7.683213800E-2,2.077264152E-2
2.850288042E0,3.968106955E-2,-7.683213800E-2,2.077264152E-2
2.852775959E0,3.755054250E-2,-7.576687634E-2,2.077264152E-2
2.855263876E0,3.435475379E-2,-7.363634557E-2,2.290316857E-2
2.857751792E0,3.328948840E-2,-7.150582224E-2,2.503369562E-2
2.860239709E0,3.115896136E-2,-6.937529147E-2,2.716422267E-2
2.862727626E0,2.796317078E-2,-6.724476814E-2,3.142527863E-2
2.865215542E0,2.689790726E-2,-6.404897571E-2,3.462106735E-2
2.867703459E0,2.476738021E-2,-6.191844866E-2,3.781685978E-2
2.870191376E0,2.370211668E-2,-5.978792161E-2,4.101264849E-2
2.872679292E0,2.157158963E-2,-5.659212917E-2,4.420844093E-2
2.875167209E0,2.050632425E-2,-5.339634046E-2,4.633896798E-2
2.877655126E0,1.944106072E-2,-4.913528636E-2,4.846949503E-2
2.880143042E0,1.944106072E-2,-4.487423226E-2,5.273054913E-2
2.882630959E0,1.837579720E-2,-4.061317816E-2,5.592634156E-2
2.885118876E0,1.731053367E-2,-3.635212034E-2,5.912213027E-2
2.887606792E0,1.411474310E-2,-3.315633163E-2,6.338318437E-2
2.890094709E0,1.304947957E-2,-2.996053919E-2,6.657897681E-2
2.892582574E0,1.091895252E-2,-2.783001214E-2,7.084003091E-2
2.895070438E0,9.853689000E-3,-2.569948509E-2,7.403582335E-2
2.897558303E0,7.723161485E-3,-2.356895804E-2,7.616634667E-2
2.900046167E0,5.592633970E-3,-2.356895804E-2,7.616634667E-2
2.902534032E0,3.462106921E-3,-2.143843099E-2,7.723161578E-2
2.905021896E0,2.396843163E-3,-2.037316747E-2,7.829687744E-2
2.907509761E0,-7.989477599E-4,-1.824264042E-2,7.723161578E-2
2.909997626E0,-3.994738683E-3,-1.398158539E-2,7.723161578E-2
2.912485490E0,-6.125265732E-3,-1.078579482E-2,7.510108501E-2
2.914973355E0,-8.255792782E-3,-7.590003312E-3,7.297056168E-2
2.917461219E0,-1.038632076E-2,-6.524739787E-3,6.977476925E-2
2.919949084E0,-1.145158429E-2,-4.394212738E-3,6.764423847E-2
2.922436949E0,-1.358211134E-2,-2.263685223E-3,6.657897681E-2
2.924924813E0,-1.571263932E-2,9.321057005E-4,6.551371515E-2
2.927412678E0,-1.890842989E-2,4.127896391E-3,6.444845349E-2
2.929900542E0,-2.210422046E-2,7.323687430E-3,6.338318437E-2
2.932388407E0,-2.530001104E-2,1.158474199E-2,6.231792271E-2
2.934876271E0,-2.956106514E-2,1.478053257E-2,6.231792271E-2
2.937364136E0,-3.382211924E-2,1.797632314E-2,6.125266105E-2
2.939852001E0,-3.701791167E-2,2.223737910E-2,6.018739566E-2
2.942339865E0,-4.127896577E-2,2.543316968E-2,6.018739566E-2
2.944827730E0,-4.447475821E-2,2.862896025E-2,6.018739566E-2
2.947315594E0,-4.873581231E-2,3.182475269E-2,5.912213027E-2
2.949803459E0,-5.086633936E-2,3.395527974E-2,5.805686861E-2
2.952291324E0,-5.086633936E-2,3.502054140E-2,5.805686861E-2
2.954779188E0,-5.193160102E-2,3.608580679E-2,5.699160323E-2
2.957267053E0,-5.299686641E-2,3.608580679E-2,5.592634156E-2
2.959754917E0,-5.406212807E-2,3.608580679E-2,5.379581451E-2
2.962242782E0,-5.512739345E-2,3.608580679E-2,5.273054913E-2
2.964730646E0,-5.619265884E-2,3.608580679E-2,5.273054913E-2
2.967218511E0,-5.512739345E-2,3.608580679E-2,5.166528746E-2
2.969706376E0,-5.299686641E-2,3.502054140E-2,5.166528746E-2
2.972194240E0,-4.980107397E-2,3.395527974E-2,5.273054913E-2
2.974682105E0,-4.767054692E-2,3.395527974E-2,5.273054913E-2
2.977169969E0,-4.340949282E-2,3.289001435E-2,5.166528746E-2
2.979657834E0,-4.021370411E-2,3.075948730E-2,5.060002208E-2
2.982145699E0,-3.701791167E-2,2.862896025E-2,4.846949503E-2
2.984633563E0,-3.488738462E-2,2.756369673E-2,4.420844093E-2
2.987121428E0,-3.275685757E-2,2.756369673E-2,3.888212144E-2
2.989609292E0,-3.169159219E-2,2.862896025E-2,3.249054030E-2
2.992097157E0,-3.169159219E-2,3.075948730E-2,2.503369562E-2
2.994585021E0,-3.275685757E-2,3.608580679E-2,1.970737800E-2
2.997072886E0,-3.275685757E-2,4.354264960E-2,1.438105945E-2
2.999560751E0,-3.382211924E-2,5.099949613E-2,9.054740891E-3
3.002048615E0,-3.595264629E-2,5.952160433E-2,4.793686327E-3
3.004536480E0,-3.808317333E-2,6.910897791E-2,1.597895520E-3
3.007024344E0,-4.127896577E-2,7.763108611E-2,-2.663159044E-3
3.009512209E0,-4.447475821E-2,8.189214021E-2,-7.989477366E-3
3.012000074E0,-4.873581231E-2,8.615319431E-2,-1.438105945E-2
3.014487938E0,-5.299686641E-2,8.934898674E-2,-2.077264152E-2
3.016975803E0,-5.725792050E-2,9.254477918E-2,-2.609895915E-2
3.019463667E0,-6.151897460E-2,9.467530251E-2,-2.929474972E-2
3.021951532E0,-6.471476704E-2,9.893636405E-2,-3.142527863E-2
3.024439396E0,-6.897582114E-2,1.021321490E-1,-3.142527863E-2
3.026927261E0,-7.323687524E-2,1.063932031E-1,-2.822948620E-2
3.029415126E0,-7.856319100E-2,1.074584723E-1,-2.396843210E-2
3.031902990E0,-8.282424510E-2,1.063932031E-1,-1.864211448E-2
3.034390855E0,-8.708529919E-2,1.021321490E-1,-1.225053146E-2
3.036878719E0,-9.134636074E-2,9.361004084E-2,-4.793686327E-3
3.039366584E0,-9.560741484E-2,8.295740932E-2,5.326318205E-4
3.041854449E0,-9.986846894E-2,7.123950869E-2,5.858949851E-3
3.044342313E0,-1.041295230E-1,5.845634267E-2,1.118526794E-2
3.046830178E0,-1.073253155E-1,4.567318037E-2,1.651158556E-2
3.049318042E0,-1.115863696E-1,3.502054140E-2,2.290316857E-2
3.051805907E0,-1.158474237E-1,2.649843320E-2,2.822948620E-2
3.054293771E0,-1.190432087E-1,2.117211558E-2,3.355580568E-2
3.056781636E0,-1.222390011E-1,1.691105962E-2,3.888212144E-2
3.059269501E0,-1.243695319E-1,1.584579609E-2,4.314317927E-2
3.061757365E0,-1.265000552E-1,1.691105962E-2,4.527370632E-2
3.064245230E0,-1.275653243E-1,1.904158667E-2,4.740423337E-2
3.066733094E0,-1.275653243E-1,2.223737910E-2,4.846949503E-2
3.069220959E0,-1.275653243E-1,2.862896025E-2,4.953476042E-2
3.071708824E0,-1.265000552E-1,3.502054140E-2,4.740423337E-2
3.074196688E0,-1.254348010E-1,4.247738793E-2,4.633896798E-2
3.076684553E0,-1.233042628E-1,5.206476152E-2,4.420844093E-2
3.079172417E0,-1.190432087E-1,6.165213138E-2,4.314317927E-2
3.081660282E0,-1.169126853E-1,7.230477035E-2,4.207791388E-2
3.084148146E0,-1.126516312E-1,8.189214021E-2,4.101264849E-2
3.086636011E0,-1.083905771E-1,9.254477918E-2,4.101264849E-2
3.089123876E0,-1.030642539E-1,1.031974182E-1,4.207791388E-2
3.091611740E0,-9.667267650E-2,1.127847880E-1,4.420844093E-2
3.094099605E0,-9.134636074E-2,1.202416345E-1,4.740423337E-2
3.096587469E0,-8.602003753E-2,1.255679578E-1,4.953476042E-2
3.099075334E0,-7.962846011E-2,1.276984811E-1,5.273054913E-2
3.101563199E0,-7.536740601E-2,1.266332120E-1,5.699160323E-2
3.104051063E0,-7.004108280E-2,1.223721579E-1,6.338318437E-2
3.106538928E0,-6.684529036E-2,1.149153188E-1,6.977476925E-2
3.109026792E0,-6.471476704E-2,1.053279415E-1,7.829687744E-2
3.111514657E0,-6.364950538E-2,9.467530251E-2,8.788424730E-2
3.114002521E0,-6.364950538E-2,8.295740932E-2,9.960214794E-2
3.116490386E0,-6.364950538E-2,6.804371625E-2,1.123853177E-1
3.118978251E0,-6.364950538E-2,5.206476152E-2,1.262337416E-1
3.121466115E0,-6.364950538E-2,3.715106845E-2,1.400821656E-1
3.123953980E0,-6.258423626E-2,2.436790615E-2,1.528653353E-1
3.126441844E0,-6.258423626E-2,1.478053257E-2,1.645832360E-1
3.128929709E0,-6.258423626E-2,8.388951421E-3,1.763011366E-1
3.131417574E0,-6.364950538E-2,5.193160381E-3,1.869537681E-1
3.133905438E0,-6.471476704E-2,4.127896391E-3,1.965411454E-1
3.136393303E0,-6.578002870E-2,3.062632866E-3,2.039979845E-1
3.138881167E0,-6.578002870E-2,3.062632866E-3,2.114548385E-1
3.141369032E0,-6.578002870E-2,3.062632866E-3,2.199769467E-1
3.143856896E0,-6.578002870E-2,3.062632866E-3,2.263685167E-1
3.146344761E0,-6.471476704E-2,5.193160381E-3,2.327601016E-1
3.148832626E0,-6.258423626E-2,7.323687430E-3,2.402169555E-1
3.151320490E0,-6.258423626E-2,1.265000552E-2,2.487390637E-1
3.153808355E0,-6.364950538E-2,1.904158667E-2,2.572611570E-1
3.156296219E0,-6.471476704E-2,2.649843320E-2,2.657832801E-1
3.158784084E0,-6.684529036E-2,3.289001435E-2,2.732401192E-1
3.161271949E0,-6.897582114E-2,3.821633384E-2,2.806969583E-1
3.163759813E0,-6.897582114E-2,4.460791498E-2,2.881538272E-1
3.166247678E0,-6.791055948E-2,5.099949613E-2,2.956106663E-1
3.168735542E0,-6.684529036E-2,5.632581562E-2,3.030675054E-1
3.171223407E0,-6.471476704E-2,6.378266215E-2,3.115896285E-1
3.173711271E0,-6.364950538E-2,7.017423958E-2,3.190464675E-1
3.176199136E0,-6.258423626E-2,7.763108611E-2,3.275685608E-1
3.178687001E0,-6.364950538E-2,8.508793265E-2,3.360906839E-1
3.181174865E0,-6.471476704E-2,9.147951752E-2,3.435475230E-1
3.183662730E0,-6.684529036E-2,9.574057162E-2,3.510043621E-1
3.186150594E0,-6.897582114E-2,9.787109494E-2,3.584612012E-1
3.188638459E0,-7.110634446E-2,9.680583328E-2,3.659180701E-1
3.191126324E0,-7.430213690E-2,9.254477918E-2,3.744401634E-1
3.193614188E0,-7.749792933E-2,8.615319431E-2,3.808317482E-1
3.196102053E0,-7.962846011E-2,7.337003201E-2,3.872233331E-1
3.198589917E0,-8.175898343E-2,5.739107728E-2,3.925496638E-1
3.201077782E0,-8.282424510E-2,4.034686089E-2,3.968107104E-1
3.203565646E0,-8.388951421E-2,2.330264263E-2,4.010717571E-1
3.206053511E0,-8.388951421E-2,7.323687430E-3,4.053328037E-1
3.208541376E0,-8.495477587E-2,-5.459476262E-3,4.085285962E-1
3.211029240E0,-8.602003753E-2,-1.611211337E-2,4.117243886E-1
3.213517105E0,-8.602003753E-2,-2.676474862E-2,4.149201810E-1
3.216004969E0,-8.388951421E-2,-3.528685868E-2,4.170507193E-1
3.218492834E0,-8.282424510E-2,-4.274370521E-2,4.202465117E-1
3.220980699E0,-8.069372177E-2,-4.807002097E-2,4.223770201E-1
3.223468563E0,-7.856319100E-2,-5.126581341E-2,4.266380966E-1
3.225956428E0,-7.536740601E-2,-5.126581341E-2,4.298338890E-1
3.228444292E0,-7.217161357E-2,-4.807002097E-2,4.351601899E-1
3.230932157E0,-6.897582114E-2,-4.167843983E-2,4.404865205E-1
3.233420021E0,-6.471476704E-2,-3.315633163E-2,4.468781054E-1
3.235907886E0,-5.938844755E-2,-2.463422157E-2,4.554001987E-1
3.238395751E0,-5.299686641E-2,-1.611211337E-2,4.628570378E-1
3.240883615E0,-4.767054692E-2,-7.590003312E-3,4.703139067E-1
3.243371480E0,-4.127896577E-2,-1.331579551E-4,4.767054915E-1
3.245859344E0,-3.382211924E-2,7.323687430E-3,4.852275848E-1
3.248347209E0,-2.743053809E-2,1.478053257E-2,4.937497079E-1
3.250835074E0,-1.997369342E-2,2.117211558E-2,5.022718310E-1
3.253322938E0,-1.251684781E-2,2.756369673E-2,5.139896870E-1
3.255810803E0,-3.994738683E-3,3.289001435E-2,5.246423483E-1
3.258298667E0,4.527370445E-3,3.608580679E-2,5.342296958E-1
3.260786532E0,1.411474310E-2,3.821633384E-2,5.448823571E-1
3.263274396E0,2.689790726E-2,4.034686089E-2,5.544697046E-1
3.265762261E0,4.074633494E-2,4.141212255E-2,5.640571117E-1
3.268250126E0,5.566002429E-2,4.567318037E-2,5.757750273E-1
3.270737990E0,7.163897902E-2,5.099949613E-2,5.874928832E-1
3.273225855E0,8.655267209E-2,5.845634267E-2,6.002760530E-1
3.275713719E0,1.014663652E-1,6.804371625E-2,6.130592227E-1
3.278201584E0,1.131842583E-1,7.976161689E-2,6.247771382E-1
3.280689449E0,1.227716357E-1,9.041424841E-2,6.364950538E-1
3.283177313E0,1.312937438E-1,9.893636405E-2,6.450171471E-1
3.285665178E0,1.398158520E-1,1.010668874E-1,6.503434777E-1
3.288153042E0,1.462074369E-1,9.893636405E-2,6.503434777E-1
3.290640907E0,1.504684836E-1,9.254477918E-2,6.471476555E-1
3.293128771E0,1.536642760E-1,8.295740932E-2,6.418213248E-1
3.295616636E0,1.547295451E-1,7.017423958E-2,6.332992315E-1
3.298104501E0,1.547295451E-1,5.419528857E-2,6.237118840E-1
3.300592365E0,1.525990218E-1,3.715106845E-2,6.141244769E-1
3.303080230E0,1.494032294E-1,2.010685205E-2,6.045371294E-1
3.305568094E0,1.462074369E-1,1.997369342E-3,5.970802903E-1
3.308055959E0,1.440769136E-1,-1.611211337E-2,5.917539597E-1
3.310543824E0,1.430116445E-1,-3.209106624E-2,5.874928832E-1
3.313031688E0,1.430116445E-1,-4.593949392E-2,5.853623748E-1
3.315519553E0,1.451421678E-1,-5.552686751E-2,5.874928832E-1
3.318007417E0,1.494032294E-1,-6.085318699E-2,5.917539597E-1
3.320495282E0,1.547295451E-1,-6.085318699E-2,5.992107987E-1
3.322983146E0,1.621863842E-1,-5.446160212E-2,6.077328920E-1
3.325471011E0,1.707084924E-1,-4.274370521E-2,6.194508076E-1
3.327958876E0,1.792306006E-1,-2.569948509E-2,6.322339773E-1
3.330446740E0,1.888179779E-1,-5.459476262E-3,6.450171471E-1
3.332934605E0,1.984053552E-1,1.478053257E-2,6.578003168E-1
3.335422469E0,2.069274634E-1,3.395527974E-2,6.695181727E-1
3.337910334E0,2.143843025E-1,5.206476152E-2,6.791055799E-1
3.340398199E0,2.218411565E-1,6.591318548E-2,6.865624189E-1
3.342886063E0,2.271674722E-1,7.656582445E-2,6.929540038E-1
3.345373928E0,2.335590571E-1,8.402267098E-2,6.982803345E-1
3.347861792E0,2.399506420E-1,8.828372508E-2,7.036066055E-1
3.350349657E0,2.452769578E-1,9.147951752E-2,7.099981904E-1
3.352837521E0,2.527337968E-1,9.361004084E-2,7.174550891E-1
3.355325386E0,2.601906359E-1,9.467530251E-2,7.259771824E-1
3.357813251E0,2.687127590E-1,9.574057162E-2,7.355645299E-1
3.360301115E0,2.772348523E-1,9.787109494E-2,7.440866828E-1
3.362788980E0,2.846917212E-1,1.000016257E-1,7.526087761E-1
3.365276844E0,2.910832763E-1,1.010668874E-1,7.590003610E-1
3.367764761E0,2.964096069E-1,1.042626798E-1,7.643266916E-1
3.370252678E0,3.017359376E-1,1.063932031E-1,7.675224543E-1
3.372740594E0,3.070622385E-1,1.106542572E-1,7.696529627E-1
3.375228511E0,3.145190775E-1,1.149153188E-1,7.696529627E-1
3.377716428E0,3.219759464E-1,1.202416345E-1,7.696529627E-1
3.380204344E0,3.294327855E-1,1.266332120E-1,7.696529627E-1
3.382692261E0,3.379548788E-1,1.340900660E-1,7.685877085E-1
3.385180178E0,3.443464637E-1,1.394163817E-1,7.664572001E-1
3.387668094E0,3.496727943E-1,1.447426975E-1,7.632613778E-1
3.390156011E0,3.539338410E-1,1.511342824E-1,7.600656152E-1
3.392643928E0,3.571296334E-1,1.553953290E-1,7.568697929E-1
3.395131844E0,3.581948876E-1,1.607216448E-1,7.558045387E-1
3.397619761E0,3.592601717E-1,1.639174372E-1,7.526087761E-1
3.400107678E0,3.592601717E-1,1.660479754E-1,7.494129539E-1
3.402595594E0,3.603254259E-1,1.681784987E-1,7.462171912E-1
3.405083511E0,3.603254259E-1,1.692437679E-1,7.419561148E-1
3.407571428E0,3.603254259E-1,1.703090221E-1,7.376950979E-1
3.410059344E0,3.603254259E-1,1.703090221E-1,7.323687673E-1
3.412547261E0,3.592601717E-1,1.713742912E-1,7.249119282E-1
3.415035178E0,3.592601717E-1,1.735048145E-1,7.174550891E-1
3.417523094E0,3.603254259E-1,1.767006069E-1,7.099981904E-1
3.420011011E0,3.635212183E-1,1.820269227E-1,7.036066055E-1
3.422498928E0,3.688475490E-1,1.884185076E-1,6.982803345E-1
3.424986844E0,3.773696423E-1,1.980058849E-1,6.961497664E-1
3.427474761E0,3.890875578E-1,2.075932473E-1,6.929540038E-1
3.429962678E0,4.029359818E-1,2.171806246E-1,6.918887496E-1
3.432450594E0,4.178496599E-1,2.246374637E-1,6.918887496E-1
3.434938511E0,4.316980839E-1,2.310290486E-1,6.897581816E-1
3.437426428E0,4.455465078E-1,2.363553643E-1,6.876276731E-1
3.439914344E0,4.551338851E-1,2.427469492E-1,6.844319105E-1
3.442402209E0,4.625907242E-1,2.512690723E-1,6.801708341E-1
3.444890074E0,4.689823091E-1,2.565953732E-1,6.748445034E-1
3.447377938E0,4.753738940E-1,2.587259114E-1,6.673876643E-1
3.449865803E0,4.817654788E-1,2.565953732E-1,6.609960794E-1
3.452353667E0,4.870918095E-1,2.512690723E-1,6.546044946E-1
3.454841532E0,4.913528562E-1,2.459427416E-1,6.492781639E-1
3.457329396E0,4.934833944E-1,2.406164259E-1,6.439518929E-1
3.459817261E0,4.913528562E-1,2.352901101E-1,6.396908164E-1
3.462305126E0,4.870918095E-1,2.288985252E-1,6.332992315E-1
3.464792990E0,4.817654788E-1,2.203764170E-1,6.247771382E-1
3.467280855E0,4.764391780E-1,2.075932473E-1,6.151897311E-1
3.469768719E0,4.721781015E-1,1.937448233E-1,6.034718752E-1
3.472256584E0,4.679170549E-1,1.788311303E-1,5.906887054E-1
3.474744449E0,4.636560082E-1,1.639174372E-1,5.768402815E-1
3.477232313E0,4.604602158E-1,1.511342824E-1,5.640571117E-1
3.479720178E0,4.572644234E-1,1.415469050E-1,5.512739420E-1
3.482208042E0,4.561991692E-1,1.330247968E-1,5.384907722E-1
3.484695907E0,4.530033767E-1,1.276984811E-1,5.278381109E-1
3.487183771E0,4.519380927E-1,1.266332120E-1,5.193160176E-1
3.489671636E0,4.498075843E-1,1.266332120E-1,5.107939243E-1
3.492159501E0,4.487423003E-1,1.287637353E-1,5.033370852E-1
3.494647365E0,4.487423003E-1,1.287637353E-1,4.937497079E-1
3.497135230E0,4.487423003E-1,1.276984811E-1,4.830970466E-1
3.499623094E0,4.498075843E-1,1.245026886E-1,4.713791609E-1
3.502110959E0,4.519380927E-1,1.223721579E-1,4.596612751E-1
3.504598824E0,4.551338851E-1,1.234374270E-1,4.500738978E-1
3.507086688E0,4.583296776E-1,1.287637353E-1,4.436823130E-1
3.509574553E0,4.647212625E-1,1.383511126E-1,4.415517747E-1
3.512062417E0,4.711128473E-1,1.532648057E-1,4.426170290E-1
3.514550282E0,4.785696864E-1,1.692437679E-1,4.490086138E-1
3.517038146E0,4.892223179E-1,1.852227151E-1,4.564654827E-1
3.519526011E0,4.998749495E-1,1.980058849E-1,4.660528302E-1
3.522013876E0,5.126581192E-1,2.075932473E-1,4.767054915E-1
3.524501740E0,5.243760347E-1,2.139848322E-1,4.852275848E-1
3.526989605E0,5.371592045E-1,2.193111479E-1,4.916191697E-1
3.529477469E0,5.499423742E-1,2.225069404E-1,4.980107546E-1
3.531965334E0,5.627255440E-1,2.267680019E-1,5.033370852E-1
3.534453199E0,5.744433999E-1,2.320943177E-1,5.075981021E-1
3.536941063E0,5.872265697E-1,2.352901101E-1,5.118591785E-1
3.539428928E0,5.989444852E-1,2.374206334E-1,5.161202550E-1
3.541916792E0,6.106624007E-1,2.352901101E-1,5.193160176E-1
3.544404657E0,6.223802567E-1,2.288985252E-1,5.214465261E-1
3.546892521E0,6.319676638E-1,2.193111479E-1,5.235770941E-1
3.549380386E0,6.372939944E-1,2.054627240E-1,5.246423483E-1
3.551868251E0,6.404897571E-1,1.884185076E-1,5.235770941E-1
3.554356115E0,6.426202655E-1,1.671132296E-1,5.203812718E-1
3.556843980E0,6.426202655E-1,1.436774284E-1,5.139896870E-1
3.559331844E0,6.426202655E-1,1.191763729E-1,5.075981021E-1
3.561819709E0,6.404897571E-1,9.787109494E-2,5.012065172E-1
3.564307574E0,6.394245028E-1,8.082687855E-2,4.969455004E-1
3.566795438E0,6.383592486E-1,7.017423958E-2,4.958802164E-1
3.569283303E0,6.372939944E-1,6.378266215E-2,4.980107546E-1
3.571771167E0,6.372939944E-1,5.952160433E-2,5.012065172E-1
3.574259032E0,6.362286806E-1,5.419528857E-2,5.044023395E-1
3.576746896E0,6.340981722E-1,4.780370742E-2,5.054675937E-1
3.579234761E0,6.319676638E-1,3.928159550E-2,5.033370852E-1
3.581722626E0,6.309024096E-1,2.969422378E-2,4.990760088E-1
3.584210490E0,6.298371553E-1,2.117211558E-2,4.937497079E-1
3.586698355E0,6.319676638E-1,1.797632314E-2,4.905539155E-1
3.589186219E0,6.340981722E-1,2.117211558E-2,4.905539155E-1
3.591674084E0,6.383592486E-1,2.862896025E-2,4.948149621E-1
3.594161949E0,6.436855793E-1,4.034686089E-2,5.022718310E-1
3.596649813E0,6.500771642E-1,4.886896908E-2,5.118591785E-1
3.599137678E0,6.575340033E-1,5.206476152E-2,5.225118399E-1
3.601625542E0,6.639255881E-1,5.099949613E-2,5.320991874E-1
3.604113407E0,6.692518592E-1,4.460791498E-2,5.395560265E-1
3.606601271E0,6.713824272E-1,3.715106845E-2,5.448823571E-1
3.609089136E0,6.735129356E-1,3.075948730E-2,5.480781198E-1
3.611577001E0,6.756434441E-1,2.756369673E-2,5.491434336E-1
3.614064865E0,6.788392663E-1,2.756369673E-2,5.502086878E-1
3.616552730E0,6.831002831E-1,3.182475269E-2,5.512739420E-1
3.619040594E0,6.894918680E-1,3.821633384E-2,5.544697046E-1
3.621528459E0,6.958834529E-1,4.460791498E-2,5.576655269E-1
3.624016324E0,7.012097836E-1,4.886896908E-2,5.597960353E-1
3.626504188E0,7.054708600E-1,4.886896908E-2,5.608612895E-1
3.628992053E0,7.065361142E-1,4.673844203E-2,5.597960353E-1
3.631479917E0,7.054708600E-1,4.141212255E-2,5.555350184E-1
3.633967782E0,7.022750378E-1,3.289001435E-2,5.491434336E-1
3.636455646E0,6.980140209E-1,2.649843320E-2,5.395560265E-1
3.638943511E0,6.937529445E-1,2.117211558E-2,5.331644416E-1
3.641431376E0,6.905571818E-1,1.904158667E-2,5.267728567E-1
3.643919240E0,6.873613596E-1,2.010685205E-2,5.246423483E-1
3.646407105E0,6.852308512E-1,2.436790615E-2,5.257076025E-1
3.648894969E0,6.820350289E-1,2.862896025E-2,5.289034247E-1
3.651382834E0,6.788392663E-1,3.075948730E-2,5.331644416E-1
3.653870699E0,6.745781898E-1,2.756369673E-2,5.363602638E-1
3.656358563E0,6.692518592E-1,1.904158667E-2,5.363602638E-1
3.658846428E0,6.607297659E-1,6.258423906E-3,5.342296958E-1
3.661334292E0,6.511424184E-1,-7.590003312E-3,5.289034247E-1
3.663822157E0,6.404897571E-1,-2.143843099E-2,5.214465261E-1
3.666310021E0,6.319676638E-1,-3.102580272E-2,5.150549412E-1
3.668797886E0,6.255760789E-1,-3.741738573E-2,5.107939243E-1
3.671285751E0,6.223802567E-1,-3.741738573E-2,5.097286701E-1
3.673773615E0,6.213150024E-1,-3.315633163E-2,5.139896870E-1
3.676261480E0,6.213150024E-1,-2.996053919E-2,5.203812718E-1
3.678749344E0,6.213150024E-1,-2.783001214E-2,5.257076025E-1
3.681237209E0,6.202497482E-1,-2.783001214E-2,5.299686790E-1
3.683725074E0,6.181192398E-1,-3.209106624E-2,5.310339332E-1
3.686212938E0,6.149234176E-1,-3.741738573E-2,5.257076025E-1
3.688700803E0,6.085318327E-1,-4.487423226E-2,5.171855092E-1
3.691188667E0,5.989444852E-1,-5.339634046E-2,5.054675937E-1
3.693676532E0,5.882918239E-1,-6.298371404E-2,4.905539155E-1
3.696164396E0,5.765739679E-1,-7.363634557E-2,4.756402075E-1
3.698652261E0,5.637907982E-1,-8.215846121E-2,4.607265294E-1
3.701140126E0,5.510076284E-1,-9.068056941E-2,4.458128214E-1
3.703627990E0,5.382244587E-1,-9.813741595E-2,4.319643974E-1
3.706115855E0,5.254412889E-1,-1.023984700E-1,4.191812575E-1
3.708603719E0,5.105276108E-1,-1.045289934E-1,4.053328037E-1
3.711091584E0,4.956139028E-1,-1.055942550E-1,3.904191256E-1
3.713579449E0,4.785696864E-1,-1.055942550E-1,3.733749092E-1
3.716067313E0,4.593949318E-1,-1.066595241E-1,3.531349003E-1
3.718555178E0,4.370244145E-1,-1.077247858E-1,3.328948915E-1
3.721043042E0,4.114580750E-1,-1.087900475E-1,3.094590902E-1
3.723530907E0,3.837612271E-1,-1.087900475E-1,2.849580348E-1
3.726018824E0,3.539338410E-1,-1.098553166E-1,2.604569495E-1
3.728506740E0,3.241064548E-1,-1.109205782E-1,2.348906398E-1
3.730994657E0,2.942790687E-1,-1.098553166E-1,2.103895694E-1
3.733482574E0,2.655169666E-1,-1.045289934E-1,1.869537681E-1
3.735970490E0,2.388853729E-1,-9.494162351E-2,1.677790284E-1
3.738458407E0,2.143843025E-1,-8.322372288E-2,1.518000662E-1
3.740946324E0,1.930790395E-1,-6.937529147E-2,1.379516423E-1
3.743434240E0,1.739042848E-1,-5.659212917E-2,1.272990108E-1
3.745922157E0,1.568600684E-1,-4.487423226E-2,1.187768951E-1
3.748410074E0,1.430116445E-1,-3.422159329E-2,1.113200486E-1
3.750897990E0,1.312937438E-1,-2.356895804E-2,1.059937328E-1
3.753385907E0,1.217063740E-1,-1.185105834E-2,1.017326787E-1
3.755873824E0,1.142495275E-1,-1.331579551E-4,9.747162461E-2
3.758361740E0,1.099884734E-1,1.478053257E-2,9.534109384E-2
3.760849657E0,1.089232042E-1,3.075948730E-2,9.534109384E-2
3.763337574E0,1.121189967E-1,4.993423447E-2,9.747162461E-2
3.765825490E0,1.174453199E-1,6.804371625E-2,1.006674170E-1
3.768313407E0,1.259674281E-1,8.615319431E-2,1.059937328E-1
3.770801324E0,1.334242672E-1,1.010668874E-1,1.091895252E-1
3.773289240E0,1.398158520E-1,1.127847880E-1,1.113200486E-1
3.775777157E0,1.440769136E-1,1.202416345E-1,1.113200486E-1
3.778265074E0,1.451421678E-1,1.245026886E-1,1.091895252E-1
3.780752990E0,1.440769136E-1,1.245026886E-1,1.059937328E-1
3.783240907E0,1.398158520E-1,1.234374270E-1,1.017326787E-1
3.785728824E0,1.344895363E-1,1.202416345E-1,9.747162461E-2
3.788216740E0,1.270326823E-1,1.127847880E-1,9.321057051E-2
3.790704657E0,1.185105816E-1,1.042626798E-1,8.788424730E-2
3.793192574E0,1.110537350E-1,9.361004084E-2,8.149266988E-2
3.795680490E0,9.933583438E-2,8.189214021E-2,7.297056168E-2
3.798168407E0,8.548741043E-2,6.697845459E-2,6.018739566E-2
3.800656324E0,6.737792492E-2,5.099949613E-2,4.314317927E-2
3.803144240E0,4.394212365E-2,3.395527974E-2,2.077264152E-2
3.805632157E0,1.731053367E-2,1.904158667E-2,-3.728422802E-3
3.808120021E0,-1.464737486E-2,3.062632866E-3,-3.036001325E-2
3.810607886E0,-4.980107397E-2,-1.291632187E-2,-5.912213027E-2
3.813095751E0,-8.602003753E-2,-2.996053919E-2,-8.681898564E-2
3.815583615E0,-1.233042628E-1,-4.913528636E-2,-1.134505793E-1
3.818071480E0,-1.584579647E-1,-6.937529147E-2,-1.379516423E-1
3.820559344E0,-1.936116666E-1,-8.641951531E-2,-1.592569202E-1
3.823047209E0,-2.255695760E-1,-1.002679393E-1,-1.741705984E-1
3.825535074E0,-2.543317080E-1,-1.066595241E-1,-1.848232448E-1
3.828022938E0,-2.788327634E-1,-1.066595241E-1,-1.912148297E-1
3.830510803E0,-2.990727723E-1,-1.002679393E-1,-1.922800839E-1
3.832998667E0,-3.161169887E-1,-8.961530030E-2,-1.901495606E-1
3.835486532E0,-3.278348744E-1,-7.363634557E-2,-1.869537681E-1
3.837974396E0,-3.342264593E-1,-5.659212917E-2,-1.826927215E-1
3.840462261E0,-3.374222517E-1,-3.635212034E-2,-1.784316599E-1
3.842950126E0,-3.363569975E-1,-1.611211337E-2,-1.741705984E-1
3.845437990E0,-3.320959508E-1,6.258423906E-3,-1.731053442E-1
3.847925855E0,-3.257043660E-1,2.969422378E-2,-1.720400751E-1
3.850413719E0,-3.182475269E-1,5.526055023E-2,-1.731053442E-1
3.852901584E0,-3.086601496E-1,8.082687855E-2,-1.731053442E-1
3.855389449E0,-2.958769798E-1,1.063932031E-1,-1.741705984E-1
3.857877313E0,-2.809632719E-1,1.298290044E-1,-1.731053442E-1
3.860365178E0,-2.639190555E-1,1.500690132E-1,-1.709748209E-1
3.862853042E0,-2.458095849E-1,1.671132296E-1,-1.656484902E-1
3.865340907E0,-2.266348451E-1,1.788311303E-1,-1.603221744E-1
3.867828771E0,-2.085253596E-1,1.862879843E-1,-1.539305896E-1
3.870316636E0,-1.904158741E-1,1.884185076E-1,-1.475390196E-1
3.872804501E0,-1.744369268E-1,1.862879843E-1,-1.443432271E-1
3.875292365E0,-1.605884880E-1,1.788311303E-1,-1.411474347E-1
3.877780230E0,-1.488705873E-1,1.660479754E-1,-1.390169114E-1
3.880268094E0,-1.403484792E-1,1.490037590E-1,-1.390169114E-1
3.882755959E0,-1.339569092E-1,1.276984811E-1,-1.400821656E-1
3.885243824E0,-1.318263710E-1,1.010668874E-1,-1.432779580E-1
3.887731688E0,-1.339569092E-1,7.123950869E-2,-1.475390196E-1
3.890219553E0,-1.382179558E-1,3.821633384E-2,-1.507348120E-1
3.892707417E0,-1.467400640E-1,4.127896391E-3,-1.549958587E-1
3.895195282E0,-1.584579647E-1,-3.315633163E-2,-1.613874435E-1
3.897683146E0,-1.723063886E-1,-6.937529147E-2,-1.677790284E-1
3.900171011E0,-1.872200817E-1,-1.055942550E-1,-1.752358675E-1
3.902658876E0,-2.042642981E-1,-1.386174262E-1,-1.826927215E-1
3.905146740E0,-2.213085145E-1,-1.673795432E-1,-1.912148297E-1
3.907634605E0,-2.404832691E-1,-1.908153445E-1,-1.986716688E-1
3.910122469E0,-2.575274706E-1,-2.067943066E-1,-2.039979845E-1
3.912610334E0,-2.724411786E-1,-2.131858915E-1,-2.061285079E-1
3.915098199E0,-2.841590643E-1,-2.110553533E-1,-2.050632536E-1
3.917586063E0,-2.937464416E-1,-2.004027218E-1,-1.986716688E-1
3.920073928E0,-2.969422340E-1,-1.812279820E-1,-1.880190372E-1
3.922561792E0,-2.948117256E-1,-1.567269117E-1,-1.741705984E-1
3.925049657E0,-2.884201407E-1,-1.290300637E-1,-1.581916511E-1
3.927537521E0,-2.788327634E-1,-1.013332009E-1,-1.422126889E-1
3.930025386E0,-2.671148479E-1,-7.363634557E-2,-1.272990108E-1
3.932513251E0,-2.532664239E-1,-4.700475931E-2,-1.134505793E-1
3.935001115E0,-2.362222075E-1,-2.250369452E-2,-1.017326787E-1
3.937488980E0,-2.191779912E-1,-1.331579551E-4,-9.214530140E-2
3.939976844E0,-2.010685056E-1,2.117211558E-2,-8.362319320E-2
3.942464709E0,-1.850895584E-1,4.034686089E-2,-7.616634667E-2
3.944952574E0,-1.701758653E-1,5.419528857E-2,-6.977476925E-2
3.947440438E0,-1.552621722E-1,6.484792382E-2,-6.444845349E-2
3.949928303E0,-1.424790174E-1,7.017423958E-2,-5.805686861E-2
3.952416167E0,-1.296958476E-1,7.230477035E-2,-5.273054913E-2
3.954904032E0,-1.190432087E-1,7.017423958E-2,-4.633896798E-2
3.957391896E0,-1.094558388E-1,6.484792382E-2,-4.101264849E-2
3.959879761E0,-1.030642539E-1,5.632581562E-2,-3.675159439E-2
3.962367626E0,-9.773793817E-2,4.354264960E-2,-3.355580568E-2
3.964855490E0,-9.347688407E-2,2.862896025E-2,-3.249054030E-2
3.967343355E0,-9.241162241E-2,1.051947847E-2,-3.249054030E-2
3.969831219E0,-9.241162241E-2,-1.078579482E-2,-3.462106735E-2
3.972319084E0,-9.560741484E-2,-3.528685868E-2,-3.994738683E-2
3.974806949E0,-1.019989923E-1,-6.298371404E-2,-4.740423337E-2
3.977294813E0,-1.126516312E-1,-9.281109273E-2,-5.699160323E-2
3.979782678E0,-1.265000552E-1,-1.226384789E-1,-6.977476925E-2
3.982270542E0,-1.435442716E-1,-1.524658650E-1,-8.575372398E-2
3.984758407E0,-1.627190262E-1,-1.812279820E-1,-1.027979404E-1
3.987246271E0,-1.829590350E-1,-2.099900991E-1,-1.219726875E-1
3.989734136E0,-2.042642981E-1,-2.366216928E-1,-1.411474347E-1
3.992222001E0,-2.277000993E-1,-2.600574791E-1,-1.603221744E-1
3.994709865E0,-2.500706315E-1,-2.781669796E-1,-1.773663908E-1
3.997197730E0,-2.703106403E-1,-2.898848653E-1,-1.922800839E-1
3.999685594E0,-2.862896025E-1,-2.898848653E-1,-2.029327303E-1
4.002173459E0,-2.969422340E-1,-2.802974880E-1,-2.071937770E-1
4.004661324E0,-3.022685647E-1,-2.611227632E-1,-2.050632536E-1
4.007149188E0,-3.012032807E-1,-2.355564237E-1,-1.997369379E-1
4.009637053E0,-2.926811874E-1,-2.046637833E-1,-1.901495606E-1
4.012124917E0,-2.809632719E-1,-1.705753356E-1,-1.805621833E-1
4.014612782E0,-2.660495937E-1,-1.364869028E-1,-1.720400751E-1
4.017100646E0,-2.500706315E-1,-1.023984700E-1,-1.656484902E-1
4.019588511E0,-2.330264151E-1,-7.044056058E-2,-1.613874435E-1
4.022076376E0,-2.170474678E-1,-3.954791278E-2,-1.592569202E-1
4.024564240E0,-2.021337748E-1,-9.720530361E-3,-1.592569202E-1
4.027052105E0,-1.893506050E-1,1.691105962E-2,-1.592569202E-1
4.029539969E0,-1.786979735E-1,3.821633384E-2,-1.571263820E-1
4.032027834E0,-1.723063886E-1,5.313002318E-2,-1.539305896E-1
4.034515699E0,-1.669800729E-1,5.739107728E-2,-1.486042738E-1
4.037003563E0,-1.648495495E-1,5.313002318E-2,-1.443432271E-1
4.039491480E0,-1.637842804E-1,3.821633384E-2,-1.390169114E-1
4.041979396E0,-1.659148186E-1,1.584579609E-2,-1.358211190E-1
4.044467313E0,-1.712411344E-1,-1.185105834E-2,-1.347558498E-1
4.046955230E0,-1.776327193E-1,-4.274370521E-2,-1.368863732E-1
4.049443146E0,-1.872200817E-1,-7.470161468E-2,-1.432779580E-1
4.051931063E0,-1.989379823E-1,-1.045289934E-1,-1.539305896E-1
4.054418980E0,-2.117211521E-1,-1.322258562E-1,-1.677790284E-1
4.056906896E0,-2.255695760E-1,-1.577921808E-1,-1.837579757E-1
4.059394813E0,-2.404832691E-1,-1.822932363E-1,-2.018674612E-1
4.061882730E0,-2.553969622E-1,-2.046637833E-1,-2.199769467E-1
4.064370646E0,-2.713759243E-1,-2.259690464E-1,-2.402169555E-1
4.066858563E0,-2.862896025E-1,-2.451438010E-1,-2.593916953E-1
4.069346480E0,-3.012032807E-1,-2.621880174E-1,-2.785664499E-1
4.071834396E0,-3.171822429E-1,-2.771016955E-1,-2.977411747E-1
4.074322313E0,-3.320959508E-1,-2.898848653E-1,-3.179811835E-1
4.076810230E0,-3.459443748E-1,-2.994722426E-1,-3.371559381E-1
4.079298146E0,-3.587275445E-1,-3.037332892E-1,-3.552654386E-1
4.081786063E0,-3.693801761E-1,-3.047985733E-1,-3.723096550E-1
4.084273980E0,-3.779022694E-1,-3.026680350E-1,-3.861580789E-1
4.086761896E0,-3.842938542E-1,-2.973417044E-1,-3.989412189E-1
4.089249813E0,-3.885549009E-1,-2.909501195E-1,-4.106591344E-1
4.091737730E0,-3.917506933E-1,-2.824280262E-1,-4.202465117E-1
4.094225646E0,-3.938812315E-1,-2.728406489E-1,-4.277033508E-1
4.096713563E0,-3.928159773E-1,-2.579269707E-1,-4.330296814E-1
4.099201480E0,-3.906854391E-1,-2.398174703E-1,-4.340949357E-1
4.101689396E0,-3.853591084E-1,-2.163816839E-1,-4.330296814E-1
4.104177313E0,-3.779022694E-1,-1.918806136E-1,-4.277033508E-1
4.106665230E0,-3.661843836E-1,-1.684448123E-1,-4.213117659E-1
4.109153146E0,-3.544664681E-1,-1.514005959E-1,-4.149201810E-1
4.111641063E0,-3.395527899E-1,-1.396826953E-1,-4.095938802E-1
4.114128980E0,-3.267696202E-1,-1.332911104E-1,-4.053328037E-1
4.116616896E0,-3.150517344E-1,-1.311605871E-1,-4.053328037E-1
4.119104813E0,-3.043990731E-1,-1.300953180E-1,-4.063980877E-1
4.121592730E0,-2.948117256E-1,-1.290300637E-1,-4.085285962E-1
4.124080646E0,-2.873548567E-1,-1.268995255E-1,-4.095938802E-1
4.126568511E0,-2.798980176E-1,-1.247690022E-1,-4.106591344E-1
4.129056376E0,-2.735064328E-1,-1.247690022E-1,-4.106591344E-1
4.131544240E0,-2.681801319E-1,-1.290300637E-1,-4.095938802E-1
4.134032105E0,-2.639190555E-1,-1.364869028E-1,-4.095938802E-1
4.136519969E0,-2.617885470E-1,-1.492700726E-1,-4.117243886E-1
4.139007834E0,-2.617885470E-1,-1.652490199E-1,-4.170507193E-1
4.141495699E0,-2.639190555E-1,-1.833585054E-1,-4.277033508E-1
4.143983563E0,-2.713759243E-1,-2.014679909E-1,-4.447475672E-1
4.146471428E0,-2.809632719E-1,-2.206427306E-1,-4.649875760E-1
4.148959292E0,-2.958769798E-1,-2.376869470E-1,-4.894886315E-1
4.151447157E0,-3.139864504E-1,-2.536658943E-1,-5.150549412E-1
4.153935021E0,-3.342264593E-1,-2.675143182E-1,-5.416865349E-1
4.156422886E0,-3.555317521E-1,-2.792322338E-1,-5.672528744E-1
4.158910751E0,-3.768370152E-1,-2.877543271E-1,-5.906887054E-1
4.161398615E0,-3.970770240E-1,-2.920154035E-1,-6.119939685E-1
4.163886480E0,-4.119907022E-1,-2.909501195E-1,-6.269076467E-1
4.166374344E0,-4.237086177E-1,-2.824280262E-1,-6.386255622E-1
4.168862209E0,-4.301002026E-1,-2.707101107E-1,-6.460824013E-1
4.171350074E0,-4.332959950E-1,-2.547311783E-1,-6.503434777E-1
4.173837938E0,-4.343612492E-1,-2.387522161E-1,-6.535392404E-1
4.176325803E0,-4.332959950E-1,-2.217079997E-1,-6.556697488E-1
4.178813667E0,-4.322307110E-1,-2.035985142E-1,-6.567350626E-1
4.181301532E0,-4.301002026E-1,-1.822932363E-1,-6.546044946E-1
4.183789396E0,-4.269044101E-1,-1.588574350E-1,-6.514087319E-1
4.186277261E0,-4.205128253E-1,-1.332911104E-1,-6.428865790E-1
4.188765126E0,-4.130559862E-1,-1.055942550E-1,-6.301034689E-1
4.191252990E0,-4.013380706E-1,-7.789740711E-2,-6.130592227E-1
4.193740855E0,-3.874896467E-1,-5.339634046E-2,-5.949497223E-1
4.196228719E0,-3.736412227E-1,-3.315633163E-2,-5.779055357E-1
4.198716584E0,-3.576622605E-1,-1.824264042E-2,-5.619265437E-1
4.201204449E0,-3.416832983E-1,-6.524739787E-3,-5.502086878E-1
4.203692313E0,-3.257043660E-1,1.997369342E-3,-5.416865349E-1
4.206180178E0,-3.097254038E-1,1.265000552E-2,-5.331644416E-1
4.208668042E0,-2.958769798E-1,2.330264263E-2,-5.257076025E-1
4.211155907E0,-2.830938101E-1,3.289001435E-2,-5.161202550E-1
4.213643771E0,-2.724411786E-1,3.928159550E-2,-5.075981021E-1
4.216131636E0,-2.660495937E-1,4.034686089E-2,-4.980107546E-1
4.218619501E0,-2.607232630E-1,3.502054140E-2,-4.884233773E-1
4.221107365E0,-2.585927546E-1,2.436790615E-2,-4.809665382E-1
4.223595230E0,-2.596580088E-1,7.323687430E-3,-4.777707458E-1
4.226083094E0,-2.639190555E-1,-1.078579482E-2,-4.788360000E-1
4.228570959E0,-2.713759243E-1,-3.102580272E-2,-4.841623306E-1
4.231058824E0,-2.820285559E-1,-4.913528636E-2,-4.926844239E-1
4.233546688E0,-2.948117256E-1,-6.617950648E-2,-5.033370852E-1
4.236034553E0,-3.097254038E-1,-7.896266878E-2,-5.171855092E-1
4.238522417E0,-3.246390820E-1,-8.961530030E-2,-5.299686790E-1
4.241010282E0,-3.406180441E-1,-9.600688517E-2,-5.427518487E-1
4.243498146E0,-3.576622605E-1,-9.920267761E-2,-5.512739420E-1
4.245986011E0,-3.725759685E-1,-9.707214683E-2,-5.576655269E-1
4.248473876E0,-3.864243925E-1,-9.174583107E-2,-5.597960353E-1
4.250961740E0,-3.992075622E-1,-8.215846121E-2,-5.608612895E-1
4.253449605E0,-4.087949097E-1,-7.150582224E-2,-5.608612895E-1
4.255937469E0,-4.162517786E-1,-5.872265995E-2,-5.619265437E-1
4.258425334E0,-4.205128253E-1,-4.593949392E-2,-5.640571117E-1
4.260913199E0,-4.237086177E-1,-3.102580272E-2,-5.651223660E-1
4.263401063E0,-4.237086177E-1,-1.504684892E-2,-5.651223660E-1
4.265888928E0,-4.226433635E-1,5.193160381E-3,-5.619265437E-1
4.268376792E0,-4.183822870E-1,2.756369673E-2,-5.523391962E-1
4.270864657E0,-4.109254479E-1,5.419528857E-2,-5.395560265E-1
4.273352521E0,-3.992075622E-1,8.402267098E-2,-5.203812718E-1
4.275840386E0,-3.853591084E-1,1.138500497E-1,-4.969455004E-1
4.278328251E0,-3.693801761E-1,1.415469050E-1,-4.735096991E-1
4.280816115E0,-3.534012139E-1,1.617869139E-1,-4.522044063E-1
4.283303980E0,-3.384875357E-1,1.745700836E-1,-4.351601899E-1
4.285791844E0,-3.257043660E-1,1.777658761E-1,-4.223770201E-1
4.288279709E0,-3.161169887E-1,1.756353378E-1,-4.138549268E-1
4.290767574E0,-3.097254038E-1,1.660479754E-1,-4.074633420E-1
4.293255438E0,-3.054643571E-1,1.553953290E-1,-4.010717571E-1
4.295743303E0,-3.022685647E-1,1.415469050E-1,-3.946801722E-1
4.298231167E0,-3.001380265E-1,1.245026886E-1,-3.861580789E-1
4.300719032E0,-2.969422340E-1,1.021321490E-1,-3.787012100E-1
4.303206896E0,-2.926811874E-1,7.869634777E-2,-3.701791167E-1
4.305694761E0,-2.894853950E-1,5.206476152E-2,-3.648527861E-1
4.308182626E0,-2.852243483E-1,2.436790615E-2,-3.627222776E-1
4.310670490E0,-2.852243483E-1,-1.198421582E-3,-3.648527861E-1
4.313158355E0,-2.894853950E-1,-2.463422157E-2,-3.723096550E-1
4.315646219E0,-2.969422340E-1,-4.593949392E-2,-3.829622865E-1
4.318134084E0,-3.065296113E-1,-6.511423737E-2,-3.968107104E-1
4.320621949E0,-3.171822429E-1,-8.322372288E-2,-4.127896726E-1
4.323109813E0,-3.267696202E-1,-1.013332009E-1,-4.287686050E-1
4.325597730E0,-3.352917433E-1,-1.215732098E-1,-4.447475672E-1
4.328085646E0,-3.427485824E-1,-1.407479644E-1,-4.607265294E-1
4.330573563E0,-3.491401672E-1,-1.588574350E-1,-4.777707458E-1
4.333061480E0,-3.544664681E-1,-1.748363972E-1,-4.958802164E-1
4.335549396E0,-3.608580530E-1,-1.876195520E-1,-5.139896870E-1
4.338037313E0,-3.661843836E-1,-1.961416751E-1,-5.320991874E-1
4.340525230E0,-3.693801761E-1,-2.004027218E-1,-5.502086878E-1
4.343013146E0,-3.704454303E-1,-1.993374527E-1,-5.651223660E-1
4.345501063E0,-3.683148921E-1,-1.940111369E-1,-5.747097135E-1
4.347988980E0,-3.619233072E-1,-1.833585054E-1,-5.800360441E-1
4.350476896E0,-3.523359597E-1,-1.673795432E-1,-5.779055357E-1
4.352964813E0,-3.427485824E-1,-1.514005959E-1,-5.715139508E-1
4.355452730E0,-3.310306668E-1,-1.343563795E-1,-5.619265437E-1
4.357940646E0,-3.161169887E-1,-1.151816323E-1,-5.480781198E-1
4.360428563E0,-3.001380265E-1,-9.600688517E-2,-5.320991874E-1
4.362916480E0,-2.852243483E-1,-7.683213800E-2,-5.129244328E-1
4.365404396E0,-2.703106403E-1,-5.978792161E-2,-4.937497079E-1
4.367892313E0,-2.564622164E-1,-4.380896688E-2,-4.724444151E-1
4.370380230E0,-2.436790615E-1,-2.996053919E-2,-4.522044063E-1
4.372868146E0,-2.308958918E-1,-1.398158539E-2,-4.298338890E-1
4.375356063E0,-2.181127369E-1,1.997369342E-3,-4.053328037E-1
4.377843980E0,-2.031990439E-1,1.797632314E-2,-3.787012100E-1
4.380331896E0,-1.872200817E-1,3.395527974E-2,-3.520696461E-1
4.382819813E0,-1.691105962E-1,4.780370742E-2,-3.243727684E-1
4.385307730E0,-1.531316489E-1,5.952160433E-2,-2.988064587E-1
4.387795646E0,-1.371526867E-1,6.804371625E-2,-2.743053734E-1
4.390283563E0,-1.243695319E-1,7.550056279E-2,-2.540653646E-1
4.392771480E0,-1.126516312E-1,8.082687855E-2,-2.359558940E-1
4.395259396E0,-1.041295230E-1,8.295740932E-2,-2.210422009E-1
4.397747313E0,-9.667267650E-2,8.082687855E-2,-2.093243003E-1
4.400235230E0,-9.454214573E-2,7.443529367E-2,-1.997369379E-1
4.402723146E0,-9.347688407E-2,6.165213138E-2,-1.954758763E-1
4.405211063E0,-9.454214573E-2,4.354264960E-2,-1.954758763E-1
4.407698980E0,-9.986846894E-2,2.117211558E-2,-1.986716688E-1
4.410186896E0,-1.062600464E-1,-3.328948980E-3,-2.082590461E-1
4.412674813E0,-1.137168929E-1,-2.996053919E-2,-2.221074700E-1
4.415162678E0,-1.233042628E-1,-5.659212917E-2,-2.402169555E-1
4.417650542E0,-1.328916401E-1,-8.215846121E-2,-2.604569495E-1
4.420138407E0,-1.424790174E-1,-1.055942550E-1,-2.806969583E-1
4.422626271E0,-1.520663798E-1,-1.290300637E-1,-3.009369671E-1
4.425114136E0,-1.616537571E-1,-1.514005959E-1,-3.211769760E-1
4.427602001E0,-1.712411344E-1,-1.727058738E-1,-3.403517306E-1
4.430089865E0,-1.808284968E-1,-1.940111369E-1,-3.584612012E-1
4.432577730E0,-1.914811432E-1,-2.131858915E-1,-3.765707016E-1
4.435065594E0,-2.021337748E-1,-2.291648388E-1,-3.925496638E-1
4.437553459E0,-2.117211521E-1,-2.419480085E-1,-4.063980877E-1
4.440041324E0,-2.223737836E-1,-2.494048476E-1,-4.191812575E-1
4.442529188E0,-2.308958918E-1,-2.515353858E-1,-4.287686050E-1
4.445017053E0,-2.404832691E-1,-2.494048476E-1,-4.351601899E-1
4.447504917E0,-2.500706315E-1,-2.419480085E-1,-4.404865205E-1
4.449992782E0,-2.575274706E-1,-2.312953621E-1,-4.426170290E-1
4.452480646E0,-2.639190555E-1,-2.174469382E-1,-4.426170290E-1
4.454968511E0,-2.692453861E-1,-1.993374527E-1,-4.383559823E-1
4.457456376E0,-2.703106403E-1,-1.748363972E-1,-4.298338890E-1
4.459944240E0,-2.692453861E-1,-1.439437568E-1,-4.149201810E-1
4.462432105E0,-2.671148479E-1,-1.098553166E-1,-3.968107104E-1
4.464919969E0,-2.639190555E-1,-7.257108390E-2,-3.744401634E-1
4.467407834E0,-2.585927546E-1,-3.635212034E-2,-3.510043621E-1
4.469895699E0,-2.532664239E-1,-3.328948980E-3,-3.254380524E-1
4.472383563E0,-2.468748540E-1,2.330264263E-2,-3.020022511E-1
4.474871428E0,-2.415485233E-1,4.780370742E-2,-2.785664499E-1
4.477359292E0,-2.383527458E-1,7.017423958E-2,-2.583264410E-1
4.479847157E0,-2.362222075E-1,9.147951752E-2,-2.380864173E-1
4.482335021E0,-2.351569533E-1,1.117195264E-1,-2.199769467E-1
4.484822886E0,-2.319611609E-1,1.319595277E-1,-2.039979845E-1
4.487310751E0,-2.287653685E-1,1.468732208E-1,-1.890842915E-1
4.489798615E0,-2.213085145E-1,1.585911214E-1,-1.763011366E-1
4.492286480E0,-2.127864063E-1,1.660479754E-1,-1.667137593E-1
4.494774344E0,-2.031990439E-1,1.692437679E-1,-1.581916511E-1
4.497262209E0,-1.946769357E-1,1.692437679E-1,-1.518000662E-1
4.499750074E0,-1.861548275E-1,1.660479754E-1,-1.486042738E-1
4.502237938E0,-1.776327193E-1,1.607216448E-1,-1.486042738E-1
4.504725803E0,-1.712411344E-1,1.500690132E-1,-1.507348120E-1
4.507213667E0,-1.648495495E-1,1.351553202E-1,-1.539305896E-1
4.509701532E0,-1.584579647E-1,1.149153188E-1,-1.603221744E-1
4.512189396E0,-1.531316489E-1,9.041424841E-2,-1.677790284E-1
4.514677261E0,-1.478053331E-1,6.058686972E-2,-1.773663908E-1
4.517165126E0,-1.446095407E-1,2.969422378E-2,-1.880190372E-1
4.519652990E0,-1.435442716E-1,-1.331579551E-4,-2.008021921E-1
4.522140855E0,-1.435442716E-1,-2.889527567E-2,-2.157158852E-1
4.524627394E0,-1.467400640E-1,-5.552686751E-2,-2.306295782E-1
4.527115310E0,-1.520663798E-1,-8.002793044E-2,-2.444780022E-1
4.529603175E0,-1.595232338E-1,-1.023984700E-1,-2.572611570E-1
4.532091039E0,-1.691105962E-1,-1.247690022E-1,-2.679138184E-1
4.534578904E0,-1.797632426E-1,-1.450090110E-1,-2.753706574E-1
4.537066768E0,-1.904158741E-1,-1.652490199E-1,-2.817622423E-1
4.539554633E0,-2.021337748E-1,-1.812279820E-1,-2.849580348E-1
4.542042497E0,-2.127864063E-1,-1.908153445E-1,-2.870885432E-1
4.544530362E0,-2.234390527E-1,-1.918806136E-1,-2.881538272E-1
4.547018227E0,-2.287653685E-1,-1.833585054E-1,-2.870885432E-1
4.549506091E0,-2.308958918E-1,-1.652490199E-1,-2.838927507E-1
4.551993956E0,-2.287653685E-1,-1.386174262E-1,-2.764359117E-1
4.554481820E0,-2.234390527E-1,-1.077247858E-1,-2.668485343E-1
4.556969685E0,-2.181127369E-1,-7.576687634E-2,-2.561959028E-1
4.559457550E0,-2.127864063E-1,-4.700475931E-2,-2.466085255E-1
4.561945414E0,-2.085253596E-1,-2.250369452E-2,-2.391516864E-1
4.564433279E0,-2.053295672E-1,-1.198421582E-3,-2.316948473E-1
4.566921143E0,-2.021337748E-1,1.584579609E-2,-2.253032625E-1
4.569409008E0,-1.978727281E-1,3.075948730E-2,-2.189116776E-1
4.571896872E0,-1.946769357E-1,4.567318037E-2,-2.103895694E-1
4.574384737E0,-1.893506050E-1,6.165213138E-2,-1.986716688E-1
4.576872602E0,-1.818937659E-1,7.869634777E-2,-1.837579757E-1
4.579360466E0,-1.733716577E-1,9.680583328E-2,-1.677790284E-1
4.581848331E0,-1.637842804E-1,1.127847880E-1,-1.507348120E-1
4.584336195E0,-1.520663798E-1,1.234374270E-1,-1.368863732E-1
4.586824060E0,-1.392832249E-1,1.287637353E-1,-1.262337416E-1
4.589311925E0,-1.275653243E-1,1.287637353E-1,-1.187768951E-1
4.591799789E0,-1.158474237E-1,1.245026886E-1,-1.145158410E-1
4.594287654E0,-1.062600464E-1,1.170458421E-1,-1.123853177E-1
4.596775518E0,-9.986846894E-2,1.085237339E-1,-1.113200486E-1
4.599263383E0,-9.347688407E-2,9.574057162E-2,-1.102547869E-1
4.601751247E0,-8.921582997E-2,8.082687855E-2,-1.081242561E-1
4.604239164E0,-8.388951421E-2,6.058686972E-2,-1.049284711E-1
4.606727081E0,-8.069372177E-2,3.608580679E-2,-1.017326787E-1
4.609214997E0,-7.962846011E-2,8.388951421E-3,-9.960214794E-2
4.611702914E0,-7.962846011E-2,-1.930790395E-2,-9.853688627E-2
4.614190831E0,-8.175898343E-2,-4.807002097E-2,-1.017326787E-1
4.616678747E0,-8.495477587E-2,-7.576687634E-2,-1.070589945E-1
4.619166664E0,-8.815056831E-2,-1.023984700E-1,-1.145158410E-1
4.621654581E0,-9.134636074E-2,-1.268995255E-1,-1.230379492E-1
4.624142497E0,-9.347688407E-2,-1.471395344E-1,-1.304948032E-1
4.626630414E0,-9.560741484E-2,-1.631184965E-1,-1.368863732E-1
4.629118331E0,-9.667267650E-2,-1.737711281E-1,-1.411474347E-1
4.631606247E0,-9.560741484E-2,-1.790974438E-1,-1.411474347E-1
4.634094164E0,-9.560741484E-2,-1.790974438E-1,-1.368863732E-1
4.636582081E0,-9.347688407E-2,-1.759016514E-1,-1.315600574E-1
4.639069997E0,-8.815056831E-2,-1.695100814E-1,-1.241032109E-1
4.641557914E0,-8.175898343E-2,-1.599227041E-1,-1.166463718E-1
4.644045831E0,-7.536740601E-2,-1.503353268E-1,-1.091895252E-1
4.646533747E0,-6.897582114E-2,-1.396826953E-1,-1.049284711E-1
4.649021664E0,-6.364950538E-2,-1.290300637E-1,-1.027979404E-1
4.651509581E0,-5.938844755E-2,-1.173121557E-1,-1.038632020E-1
4.653997497E0,-5.725792050E-2,-1.077247858E-1,-1.070589945E-1
4.656485414E0,-5.725792050E-2,-9.813741595E-2,-1.102547869E-1
4.658973331E0,-5.832318589E-2,-9.174583107E-2,-1.145158410E-1
4.661461247E0,-5.832318589E-2,-8.641951531E-2,-1.166463718E-1
4.663949164E0,-5.832318589E-2,-8.428898454E-2,-1.198421568E-1
4.666437081E0,-5.832318589E-2,-8.535424620E-2,-1.219726875E-1
4.668924997E0,-5.938844755E-2,-8.855003864E-2,-1.219726875E-1
4.671412914E0,-6.151897460E-2,-9.281109273E-2,-1.230379492E-1
4.673900831E0,-6.258423626E-2,-1.002679393E-1,-1.230379492E-1
4.676388747E0,-6.578002870E-2,-1.077247858E-1,-1.219726875E-1
4.678876664E0,-7.004108280E-2,-1.141163707E-1,-1.219726875E-1
4.681364581E0,-7.430213690E-2,-1.205079481E-1,-1.230379492E-1
4.683852497E0,-7.749792933E-2,-1.279647946E-1,-1.230379492E-1
4.686340414E0,-7.962846011E-2,-1.354216337E-1,-1.230379492E-1
4.688828331E0,-8.282424510E-2,-1.450090110E-1,-1.219726875E-1
4.691316247E0,-8.602003753E-2,-1.545963883E-1,-1.230379492E-1
4.693804164E0,-8.921582997E-2,-1.620532274E-1,-1.241032109E-1
4.696292029E0,-9.347688407E-2,-1.684448123E-1,-1.241032109E-1
4.698779893E0,-9.560741484E-2,-1.716406047E-1,-1.241032109E-1
4.701267758E0,-9.773793817E-2,-1.716406047E-1,-1.241032109E-1
4.703755622E0,-9.773793817E-2,-1.684448123E-1,-1.209074259E-1
4.706243487E0,-9.560741484E-2,-1.609879732E-1,-1.166463718E-1
4.708731352E0,-8.921582997E-2,-1.482048035E-1,-1.081242561E-1
4.711219216E0,-8.069372177E-2,-1.322258562E-1,-9.853688627E-2
4.713707081E0,-7.004108280E-2,-1.130511016E-1,-8.681898564E-2
4.716194945E0,-5.832318589E-2,-9.281109273E-2,-7.616634667E-2
4.718682810E0,-4.660528526E-2,-7.363634557E-2,-6.657897681E-2
4.721170675E0,-3.488738462E-2,-5.446160212E-2,-6.018739566E-2
4.723658539E0,-2.423474751E-2,-3.741738573E-2,-5.592634156E-2
4.726146404E0,-1.677790284E-2,-2.250369452E-2,-5.379581451E-2
4.728634268E0,-9.321057238E-3,-9.720530361E-3,-5.166528746E-2
4.731122133E0,-2.929474926E-3,3.062632866E-3,-4.953476042E-2
4.733609997E0,2.396843163E-3,1.371526904E-2,-4.846949503E-2
4.736097862E0,6.657897960E-3,2.330264263E-2,-4.633896798E-2
4.738585727E0,1.198421605E-2,3.075948730E-2,-4.420844093E-2
4.741073591E0,1.624527015E-2,3.502054140E-2,-4.207791388E-2
4.743561456E0,1.944106072E-2,3.715106845E-2,-3.888212144E-2
4.746049320E0,2.263685316E-2,3.715106845E-2,-3.781685978E-2
4.748537185E0,2.476738021E-2,3.502054140E-2,-3.568633273E-2
4.751025050E0,2.689790726E-2,2.969422378E-2,-3.568633273E-2
4.753512914E0,2.796317078E-2,2.330264263E-2,-3.781685978E-2
4.756000779E0,2.689790726E-2,1.584579609E-2,-3.994738683E-2
4.758488643E0,2.689790726E-2,8.388951421E-3,-4.314317927E-2
4.760976508E0,2.476738021E-2,1.997369342E-3,-4.633896798E-2
4.763464372E0,2.157158963E-2,-3.328948980E-3,-5.060002208E-2
4.765952237E0,1.837579720E-2,-8.655266836E-3,-5.486107618E-2
4.768440102E0,1.411474310E-2,-1.504684892E-2,-6.125266105E-2
4.770927966E0,9.853689000E-3,-2.356895804E-2,-6.870950758E-2
4.773415831E0,8.788425475E-3,-3.528685868E-2,-7.723161578E-2
4.775903695E0,6.657897960E-3,-4.807002097E-2,-8.575372398E-2
4.778391560E0,5.592633970E-3,-6.191844866E-2,-9.534109384E-2
4.780879425E0,3.462106921E-3,-7.363634557E-2,-1.049284711E-1
4.783367289E0,1.331579522E-3,-8.322372288E-2,-1.134505793E-1
4.785855154E0,-1.864211401E-3,-9.068056941E-2,-1.209074259E-1
4.788343018E0,-2.929474926E-3,-9.707214683E-2,-1.272990108E-1
4.790830883E0,-3.994738683E-3,-1.002679393E-1,-1.336905807E-1
4.793318747E0,-2.929474926E-3,-1.023984700E-1,-1.379516423E-1
4.795806612E0,-1.864211401E-3,-1.045289934E-1,-1.400821656E-1
4.798294477E0,2.663159103E-4,-1.045289934E-1,-1.411474347E-1
4.800782341E0,2.396843163E-3,-1.045289934E-1,-1.432779580E-1
4.803270206E0,3.462106921E-3,-1.045289934E-1,-1.443432271E-1
4.805758070E0,5.592633970E-3,-1.055942550E-1,-1.475390196E-1
4.808245935E0,7.723161485E-3,-1.066595241E-1,-1.518000662E-1
4.810733800E0,9.853689000E-3,-1.087900475E-1,-1.581916511E-1
4.813221664E0,1.198421605E-2,-1.130511016E-1,-1.645832360E-1
4.815709529E0,1.518000662E-2,-1.162468940E-1,-1.731053442E-1
4.818197393E0,1.944106072E-2,-1.205079481E-1,-1.805621833E-1
4.820685258E0,2.263685316E-2,-1.258342713E-1,-1.880190372E-1
4.823173122E0,2.476738021E-2,-1.290300637E-1,-1.944106072E-1
4.825660987E0,2.583264373E-2,-1.322258562E-1,-1.976063997E-1
4.828148852E0,2.583264373E-2,-1.332911104E-1,-2.008021921E-1
4.830636716E0,2.583264373E-2,-1.322258562E-1,-2.029327303E-1
4.833124581E0,2.370211668E-2,-1.300953180E-1,-2.050632536E-1
4.835612445E0,2.157158963E-2,-1.300953180E-1,-2.082590461E-1
4.838100310E0,2.050632425E-2,-1.290300637E-1,-2.114548385E-1
4.840588175E0,2.157158963E-2,-1.258342713E-1,-2.125200927E-1
4.843076039E0,2.370211668E-2,-1.194426864E-1,-2.114548385E-1
4.845563904E0,2.583264373E-2,-1.087900475E-1,-2.082590461E-1
4.848051768E0,3.009369783E-2,-9.600688517E-2,-2.039979845E-1
4.850539633E0,3.328948840E-2,-8.322372288E-2,-1.997369379E-1
4.853027497E0,3.755054250E-2,-7.150582224E-2,-1.944106072E-1
4.855515362E0,4.181159660E-2,-6.191844866E-2,-1.901495606E-1
4.858003227E0,4.607265070E-2,-5.552686751E-2,-1.858884990E-1
4.860491091E0,5.139897019E-2,-5.233107507E-2,-1.816274524E-1
4.862978956E0,5.566002429E-2,-5.020054802E-2,-1.773663908E-1
4.865466820E0,5.885581672E-2,-4.700475931E-2,-1.731053442E-1
4.867954685E0,6.311687082E-2,-4.700475931E-2,-1.677790284E-1
4.870442550E0,6.737792492E-2,-4.700475931E-2,-1.635179669E-1
4.872930414E0,7.270424068E-2,-5.020054802E-2,-1.581916511E-1
4.875418279E0,7.909582555E-2,-5.446160212E-2,-1.518000662E-1
4.877906143E0,8.655267209E-2,-5.872265995E-2,-1.454084814E-1
4.880394008E0,9.400951862E-2,-6.191844866E-2,-1.379516423E-1
4.882881925E0,1.004010960E-1,-6.511423737E-2,-1.315600574E-1
4.885369841E0,1.078579426E-1,-6.724476814E-2,-1.251684725E-1
4.887857758E0,1.131842583E-1,-7.044056058E-2,-1.198421568E-1
4.890345675E0,1.185105816E-1,-7.470161468E-2,-1.155811027E-1
4.892833591E0,1.238368973E-1,-8.002793044E-2,-1.113200486E-1
4.895321508E0,1.280979514E-1,-8.855003864E-2,-1.081242561E-1
4.897809425E0,1.302284747E-1,-9.920267761E-2,-1.059937328E-1
4.900297341E0,1.323590130E-1,-1.098553166E-1,-1.038632020E-1
4.902785258E0,1.323590130E-1,-1.226384789E-1,-1.006674170E-1
4.905273175E0,1.302284747E-1,-1.354216337E-1,-9.747162461E-2
4.907761091E0,1.280979514E-1,-1.482048035E-1,-9.534109384E-2
4.910249008E0,1.249021590E-1,-1.599227041E-1,-9.321057051E-2
4.912736925E0,1.206411049E-1,-1.727058738E-1,-9.108003974E-2
4.915224841E0,1.163800508E-1,-1.833585054E-1,-9.001477808E-2
4.917712758E0,1.110537350E-1,-1.940111369E-1,-8.894951642E-2
4.920200675E0,1.046621501E-1,-2.025332451E-1,-8.788424730E-2
4.922688591E0,9.720530361E-2,-2.110553533E-1,-8.788424730E-2
4.925176508E0,8.868319541E-2,-2.195774615E-1,-8.681898564E-2
4.927664425E0,8.016108721E-2,-2.291648388E-1,-8.681898564E-2
4.930152341E0,7.163897902E-2,-2.376869470E-1,-8.575372398E-2
4.932640258E0,6.311687082E-2,-2.462090552E-1,-8.362319320E-2
4.935128175E0,5.459476262E-2,-2.536658943E-1,-8.042740822E-2
4.937616091E0,4.500738904E-2,-2.589922249E-1,-7.723161578E-2
4.940104008E0,3.542001545E-2,-2.632532716E-1,-7.510108501E-2
4.942591925E0,2.476738021E-2,-2.653838098E-1,-7.190529257E-2
4.945079841E0,1.304947957E-2,-2.653838098E-1,-6.977476925E-2
4.947567758E0,1.331579522E-3,-2.632532716E-1,-6.870950758E-2
4.950055675E0,-9.321057238E-3,-2.600574791E-1,-6.657897681E-2
4.952543591E0,-1.890842989E-2,-2.536658943E-1,-6.444845349E-2
4.955031508E0,-2.743053809E-2,-2.462090552E-1,-5.912213027E-2
4.957519425E0,-3.488738462E-2,-2.366216928E-1,-5.379581451E-2
4.960007341E0,-4.234423116E-2,-2.259690464E-1,-4.633896798E-2
4.962495258E0,-4.873581231E-2,-2.153164148E-1,-3.888212144E-2
4.964983175E0,-5.406212807E-2,-2.046637833E-1,-3.249054030E-2
