"Time (s)","Gyroscope x (rad/s)","Gyroscope y (rad/s)","Gyroscope z (rad/s)"
2.192894780E-1,1.057274193E-1,1.245026886E-1,7.936213911E-2
2.218159880E-1,1.046621501E-1,1.351553202E-1,8.362319320E-2
2.243362490E-1,1.014663652E-1,1.500690132E-1,8.894951642E-2
2.268239050E-1,9.933583438E-2,1.660479754E-1,9.321057051E-2
2.293115610E-1,9.720530361E-2,1.809616536E-1,9.747162461E-2
2.317992170E-1,9.400951862E-2,1.937448233E-1,1.017326787E-1
2.342868740E-1,9.294424951E-2,2.043974549E-1,1.027979404E-1
2.367745300E-1,9.081372619E-2,2.097237855E-1,1.038632020E-1
2.392621860E-1,8.974846452E-2,2.097237855E-1,1.017326787E-1
2.417498420E-1,8.868319541E-2,2.054627240E-1,9.853688627E-2
2.442374990E-1,8.761793375E-2,1.969406158E-1,9.321057051E-2
2.467251550E-1,8.761793375E-2,1.841574460E-1,8.575372398E-2
2.492128110E-1,8.761793375E-2,1.692437679E-1,7.616634667E-2
2.517004670E-1,8.761793375E-2,1.532648057E-1,6.657897681E-2
2.541881240E-1,8.761793375E-2,1.362205893E-1,5.486107618E-2
2.566757800E-1,8.868319541E-2,1.191763729E-1,4.420844093E-2
2.591634360E-1,8.974846452E-2,1.053279415E-1,3.355580568E-2
2.616510920E-1,9.187898785E-2,9.254477918E-2,2.290316857E-2
2.641387490E-1,9.400951862E-2,8.082687855E-2,1.331579592E-2
2.666264050E-1,9.720530361E-2,7.230477035E-2,5.858949851E-3
2.691140610E-1,1.004010960E-1,6.378266215E-2,-2.663159044E-3
2.716017170E-1,1.035968885E-1,5.632581562E-2,-9.054740891E-3
2.740893740E-1,1.057274193E-1,4.886896908E-2,-1.544632297E-2
2.765770300E-1,1.078579426E-1,4.247738793E-2,-2.077264152E-2
2.790646860E-1,1.089232042E-1,3.502054140E-2,-2.609895915E-2
2.815523420E-1,1.099884734E-1,2.969422378E-2,-3.036001325E-2
2.840399990E-1,1.099884734E-1,2.649843320E-2,-3.249054030E-2
2.865276550E-1,1.110537350E-1,2.436790615E-2,-3.462106735E-2
2.890153110E-1,1.110537350E-1,2.436790615E-2,-3.675159439E-2
2.915029670E-1,1.121189967E-1,2.756369673E-2,-3.888212144E-2
2.939906240E-1,1.121189967E-1,3.182475269E-2,-3.994738683E-2
2.964782800E-1,1.121189967E-1,4.034686089E-2,-3.994738683E-2
2.989659360E-1,1.131842583E-1,4.993423447E-2,-3.781685978E-2
3.014535920E-1,1.131842583E-1,6.165213138E-2,-3.675159439E-2
3.039412490E-1,1.142495275E-1,7.123950869E-2,-3.568633273E-2
3.064289050E-1,1.153147891E-1,8.189214021E-2,-3.355580568E-2
3.089165610E-1,1.163800508E-1,9.041424841E-2,-3.142527863E-2
3.114042170E-1,1.174453199E-1,9.680583328E-2,-2.929474972E-2
3.138918740E-1,1.185105816E-1,1.000016257E-1,-2.716422267E-2
3.163795300E-1,1.195758432E-1,1.010668874E-1,-2.396843210E-2
3.188671860E-1,1.206411049E-1,9.893636405E-2,-2.396843210E-2
3.213548420E-1,1.227716357E-1,9.467530251E-2,-2.290316857E-2
3.238424990E-1,1.249021590E-1,8.828372508E-2,-2.396843210E-2
3.263301550E-1,1.270326823E-1,8.082687855E-2,-2.716422267E-2
3.288178110E-1,1.280979514E-1,7.123950869E-2,-2.929474972E-2
3.313054670E-1,1.302284747E-1,6.271740049E-2,-3.355580568E-2
3.337931240E-1,1.302284747E-1,5.313002318E-2,-3.781685978E-2
3.362807800E-1,1.302284747E-1,4.354264960E-2,-4.207791388E-2
3.387684360E-1,1.312937438E-1,3.608580679E-2,-4.740423337E-2
3.412560920E-1,1.323590130E-1,2.862896025E-2,-5.273054913E-2
3.437437490E-1,1.323590130E-1,2.330264263E-2,-5.699160323E-2
3.462314050E-1,1.312937438E-1,1.904158667E-2,-6.018739566E-2
3.487190610E-1,1.312937438E-1,1.691105962E-2,-6.231792271E-2
3.512067170E-1,1.302284747E-1,1.584579609E-2,-6.444845349E-2
3.536943740E-1,1.291632205E-1,1.584579609E-2,-6.444845349E-2
3.561820300E-1,1.270326823E-1,1.584579609E-2,-6.444845349E-2
3.586696860E-1,1.249021590E-1,1.584579609E-2,-6.338318437E-2
3.611573420E-1,1.217063740E-1,1.691105962E-2,-6.231792271E-2
3.636449990E-1,1.185105816E-1,1.904158667E-2,-6.018739566E-2
3.661326550E-1,1.153147891E-1,2.223737910E-2,-5.592634156E-2
3.686203110E-1,1.110537350E-1,2.649843320E-2,-5.166528746E-2
3.711079670E-1,1.067926809E-1,3.289001435E-2,-4.527370632E-2
3.735956240E-1,1.025316268E-1,4.034686089E-2,-3.675159439E-2
3.760832800E-1,9.827057272E-2,4.780370742E-2,-2.929474972E-2
3.785709360E-1,9.400951862E-2,5.739107728E-2,-2.183790505E-2
3.810585920E-1,8.974846452E-2,6.484792382E-2,-1.438105945E-2
3.835462490E-1,8.655267209E-2,7.337003201E-2,-6.924213842E-3
3.860339050E-1,8.229161799E-2,7.976161689E-2,-5.326318205E-4
3.885215610E-1,7.909582555E-2,8.615319431E-2,5.858949851E-3
3.910092170E-1,7.696529478E-2,9.041424841E-2,1.118526794E-2
3.934968740E-1,7.483477145E-2,9.361004084E-2,1.651158556E-2
3.959845300E-1,7.270424068E-2,9.467530251E-2,1.970737800E-2
3.984721860E-1,7.163897902E-2,9.467530251E-2,2.183790505E-2
4.009598420E-1,6.950845569E-2,9.254477918E-2,2.290316857E-2
4.034474990E-1,6.844318658E-2,8.934898674E-2,2.290316857E-2
4.059351550E-1,6.737792492E-2,8.295740932E-2,2.183790505E-2
4.084228110E-1,6.844318658E-2,7.656582445E-2,1.970737800E-2
4.109104670E-1,6.844318658E-2,6.910897791E-2,1.757685095E-2
4.133981240E-1,6.844318658E-2,5.952160433E-2,1.331579592E-2
4.158857800E-1,6.844318658E-2,4.993423447E-2,1.012000442E-2
4.183734360E-1,6.844318658E-2,4.141212255E-2,5.858949851E-3
4.208610920E-1,6.737792492E-2,3.182475269E-2,1.597895520E-3
4.233487490E-1,6.524740160E-2,2.543316968E-2,-3.728422802E-3
4.258364050E-1,6.311687082E-2,1.797632314E-2,-9.054740891E-3
4.283240610E-1,5.992107838E-2,1.265000552E-2,-1.438105945E-2
4.308117170E-1,5.779055133E-2,7.323687430E-3,-1.864211448E-2
4.332993740E-1,5.459476262E-2,5.193160381E-3,-2.396843210E-2
4.357870300E-1,5.246423557E-2,3.062632866E-3,-3.036001325E-2
4.382746860E-1,5.033370852E-2,-1.331579551E-4,-3.568633273E-2
4.407623420E-1,4.820318148E-2,-1.198421582E-3,-4.101264849E-2
4.432499990E-1,4.607265070E-2,-3.328948980E-3,-4.740423337E-2
4.457376550E-1,4.500738904E-2,-4.394212738E-3,-5.273054913E-2
4.482253110E-1,4.394212365E-2,-4.394212738E-3,-5.699160323E-2
4.507130200E-1,4.287686199E-2,-5.459476262E-3,-6.231792271E-2
4.532007280E-1,4.181159660E-2,-5.459476262E-3,-6.657897681E-2
4.556884360E-1,4.074633494E-2,-5.459476262E-3,-6.870950758E-2
4.581761450E-1,3.968106955E-2,-5.459476262E-3,-7.297056168E-2
4.606638530E-1,3.861580789E-2,-5.459476262E-3,-7.403582335E-2
4.631515610E-1,3.755054250E-2,-6.524739787E-3,-7.510108501E-2
4.656392700E-1,3.542001545E-2,-8.655266836E-3,-7.510108501E-2
4.681269780E-1,3.435475379E-2,-1.078579482E-2,-7.616634667E-2
4.706146860E-1,3.328948840E-2,-1.291632187E-2,-7.616634667E-2
4.731023950E-1,3.009369783E-2,-1.611211337E-2,-7.510108501E-2
4.755901030E-1,2.689790726E-2,-1.930790395E-2,-7.510108501E-2
4.780778110E-1,2.370211668E-2,-2.356895804E-2,-7.403582335E-2
4.805655200E-1,1.944106072E-2,-2.783001214E-2,-7.190529257E-2
4.830532280E-1,1.518000662E-2,-3.102580272E-2,-7.084003091E-2
4.855409360E-1,1.091895252E-2,-3.422159329E-2,-6.977476925E-2
4.880286450E-1,7.723161485E-3,-3.635212034E-2,-6.764423847E-2
4.905163530E-1,3.462106921E-3,-3.635212034E-2,-6.551371515E-2
4.930040610E-1,-7.989477599E-4,-3.528685868E-2,-6.231792271E-2
4.954917700E-1,-2.929474926E-3,-3.102580272E-2,-6.018739566E-2
4.979794780E-1,-6.125265732E-3,-2.569948509E-2,-5.699160323E-2
5.004671860E-1,-9.321057238E-3,-1.717737690E-2,-5.273054913E-2
5.029548950E-1,-1.145158429E-2,-8.655266836E-3,-4.740423337E-2
5.054426030E-1,-1.358211134E-2,1.997369342E-3,-4.207791388E-2
5.079303110E-1,-1.571263932E-2,1.158474199E-2,-3.675159439E-2
5.104180200E-1,-1.677790284E-2,2.010685205E-2,-3.249054030E-2
5.129057280E-1,-1.890842989E-2,2.862896025E-2,-2.822948620E-2
5.153934360E-1,-1.997369342E-2,3.502054140E-2,-2.396843210E-2
5.178811450E-1,-2.210422046E-2,3.928159550E-2,-1.970737800E-2
5.203688530E-1,-2.316948399E-2,4.141212255E-2,-1.651158556E-2
5.228565610E-1,-2.423474751E-2,4.141212255E-2,-1.331579592E-2
5.253442700E-1,-2.423474751E-2,4.034686089E-2,-1.118526794E-2
5.278319780E-1,-2.530001104E-2,3.821633384E-2,-9.054740891E-3
5.303196860E-1,-2.530001104E-2,3.502054140E-2,-6.924213842E-3
5.328073950E-1,-2.423474751E-2,3.075948730E-2,-6.924213842E-3
5.352950510E-1,-2.423474751E-2,2.543316968E-2,-5.858949851E-3
5.377827070E-1,-2.423474751E-2,1.904158667E-2,-5.858949851E-3
5.402703630E-1,-2.210422046E-2,1.158474199E-2,-6.924213842E-3
5.427580200E-1,-2.103895694E-2,4.127896391E-3,-7.989477366E-3
5.452456760E-1,-1.890842989E-2,-3.328948980E-3,-9.054740891E-3
5.477333320E-1,-1.677790284E-2,-1.078579482E-2,-1.118526794E-2
5.502209880E-1,-1.464737486E-2,-1.824264042E-2,-1.438105945E-2
5.527086450E-1,-1.251684781E-2,-2.569948509E-2,-1.757685095E-2
5.551963010E-1,-1.038632076E-2,-3.209106624E-2,-2.183790505E-2
5.576839570E-1,-7.190529723E-3,-3.635212034E-2,-2.503369562E-2
5.601716130E-1,-5.060002208E-3,-4.061317816E-2,-2.716422267E-2
5.626592700E-1,-1.864211401E-3,-4.274370521E-2,-2.929474972E-2
5.651469260E-1,2.663159103E-4,-4.274370521E-2,-3.249054030E-2
5.676345820E-1,2.396843163E-3,-4.274370521E-2,-3.462106735E-2
5.701222380E-1,3.462106921E-3,-4.274370521E-2,-3.568633273E-2
5.726098950E-1,3.462106921E-3,-4.061317816E-2,-3.675159439E-2
5.750975510E-1,4.527370445E-3,-3.954791278E-2,-3.781685978E-2
5.775852070E-1,5.592633970E-3,-3.848264739E-2,-3.781685978E-2
5.800728630E-1,4.527370445E-3,-3.741738573E-2,-3.781685978E-2
5.825605200E-1,5.592633970E-3,-3.635212034E-2,-3.675159439E-2
5.850481760E-1,5.592633970E-3,-3.635212034E-2,-3.675159439E-2
5.875358320E-1,6.657897960E-3,-3.635212034E-2,-3.568633273E-2
5.900234880E-1,6.657897960E-3,-3.848264739E-2,-3.568633273E-2
5.925111450E-1,7.723161485E-3,-3.954791278E-2,-3.568633273E-2
5.949988010E-1,6.657897960E-3,-4.274370521E-2,-3.568633273E-2
5.974864570E-1,6.657897960E-3,-4.487423226E-2,-3.568633273E-2
5.999741130E-1,6.657897960E-3,-4.807002097E-2,-3.568633273E-2
6.024617700E-1,5.592633970E-3,-5.233107507E-2,-3.568633273E-2
6.049494260E-1,5.592633970E-3,-5.765739456E-2,-3.568633273E-2
6.074370820E-1,3.462106921E-3,-6.085318699E-2,-3.568633273E-2
6.099247380E-1,2.396843163E-3,-6.617950648E-2,-3.568633273E-2
6.124123950E-1,1.331579522E-3,-7.150582224E-2,-3.462106735E-2
6.149000510E-1,-7.989477599E-4,-7.683213800E-2,-3.462106735E-2
6.173877070E-1,-2.929474926E-3,-8.215846121E-2,-3.462106735E-2
6.198753630E-1,-3.994738683E-3,-8.748477697E-2,-3.568633273E-2
6.223630200E-1,-5.060002208E-3,-9.281109273E-2,-3.568633273E-2
6.248506760E-1,-6.125265732E-3,-9.707214683E-2,-3.568633273E-2
6.273383320E-1,-7.190529723E-3,-1.002679393E-1,-3.568633273E-2
6.298259880E-1,-8.255792782E-3,-1.023984700E-1,-3.568633273E-2
6.323136450E-1,-9.321057238E-3,-1.034637317E-1,-3.462106735E-2
6.348013010E-1,-1.038632076E-2,-1.034637317E-1,-3.462106735E-2
6.372889570E-1,-1.038632076E-2,-1.023984700E-1,-3.249054030E-2
6.397766130E-1,-1.145158429E-2,-1.002679393E-1,-3.036001325E-2
6.422642700E-1,-1.145158429E-2,-9.813741595E-2,-2.822948620E-2
6.447519260E-1,-1.251684781E-2,-9.600688517E-2,-2.503369562E-2
6.472395820E-1,-1.358211134E-2,-9.387636185E-2,-2.183790505E-2
6.497272380E-1,-1.358211134E-2,-9.174583107E-2,-1.864211448E-2
6.522148950E-1,-1.464737486E-2,-9.174583107E-2,-1.544632297E-2
6.547025510E-1,-1.571263932E-2,-9.068056941E-2,-1.225053146E-2
6.571902070E-1,-1.677790284E-2,-8.961530030E-2,-9.054740891E-3
6.596778630E-1,-1.677790284E-2,-8.855003864E-2,-5.858949851E-3
6.621655200E-1,-1.677790284E-2,-8.748477697E-2,-2.663159044E-3
6.646531760E-1,-1.677790284E-2,-8.428898454E-2,5.326318205E-4
6.671408320E-1,-1.784316637E-2,-8.109319210E-2,3.728422802E-3
6.696284880E-1,-1.784316637E-2,-7.683213800E-2,4.793686327E-3
6.721161450E-1,-1.890842989E-2,-7.150582224E-2,6.924213842E-3
6.746038010E-1,-1.890842989E-2,-6.617950648E-2,7.989477366E-3
6.770914570E-1,-1.997369342E-2,-6.191844866E-2,1.012000442E-2
6.795791130E-1,-1.997369342E-2,-5.978792161E-2,1.118526794E-2
6.820667700E-1,-2.103895694E-2,-5.765739456E-2,1.225053146E-2
6.845544260E-1,-2.103895694E-2,-5.765739456E-2,1.225053146E-2
6.870420820E-1,-2.103895694E-2,-5.872265995E-2,1.331579592E-2
6.895297380E-1,-2.210422046E-2,-5.978792161E-2,1.331579592E-2
6.920173950E-1,-2.103895694E-2,-6.298371404E-2,1.331579592E-2
6.945050510E-1,-2.103895694E-2,-6.511423737E-2,1.331579592E-2
6.969927070E-1,-2.210422046E-2,-6.724476814E-2,1.438105945E-2
6.994803630E-1,-2.210422046E-2,-6.937529147E-2,1.438105945E-2
7.019680200E-1,-2.103895694E-2,-7.150582224E-2,1.438105945E-2
7.044556760E-1,-1.997369342E-2,-7.363634557E-2,1.438105945E-2
7.069433320E-1,-1.890842989E-2,-7.576687634E-2,1.438105945E-2
7.094309880E-1,-1.784316637E-2,-7.896266878E-2,1.438105945E-2
7.119186450E-1,-1.677790284E-2,-8.215846121E-2,1.331579592E-2
7.144063010E-1,-1.677790284E-2,-8.535424620E-2,1.225053146E-2
7.168939570E-1,-1.571263932E-2,-9.068056941E-2,1.118526794E-2
7.193816130E-1,-1.464737486E-2,-9.600688517E-2,9.054740891E-3
7.218692700E-1,-1.358211134E-2,-1.002679393E-1,6.924213842E-3
7.243569260E-1,-1.358211134E-2,-1.055942550E-1,4.793686327E-3
7.268445820E-1,-1.358211134E-2,-1.098553166E-1,1.597895520E-3
7.293322380E-1,-1.358211134E-2,-1.141163707E-1,-1.597895520E-3
7.318198950E-1,-1.358211134E-2,-1.162468940E-1,-4.793686327E-3
7.343075510E-1,-1.358211134E-2,-1.183774248E-1,-6.924213842E-3
7.367952070E-1,-1.358211134E-2,-1.194426864E-1,-1.012000442E-2
7.392828630E-1,-1.464737486E-2,-1.194426864E-1,-1.225053146E-2
7.417705200E-1,-1.464737486E-2,-1.194426864E-1,-1.438105945E-2
7.442581760E-1,-1.464737486E-2,-1.183774248E-1,-1.651158556E-2
7.467458840E-1,-1.677790284E-2,-1.173121557E-1,-1.970737800E-2
7.492335920E-1,-1.784316637E-2,-1.173121557E-1,-2.183790505E-2
7.517213010E-1,-1.890842989E-2,-1.162468940E-1,-2.396843210E-2
7.542090090E-1,-1.997369342E-2,-1.162468940E-1,-2.609895915E-2
7.566967170E-1,-2.210422046E-2,-1.162468940E-1,-2.716422267E-2
7.591844260E-1,-2.316948399E-2,-1.151816323E-1,-2.716422267E-2
7.616721340E-1,-2.423474751E-2,-1.130511016E-1,-2.822948620E-2
7.641598420E-1,-2.636527456E-2,-1.098553166E-1,-2.716422267E-2
7.666475510E-1,-2.636527456E-2,-1.066595241E-1,-2.822948620E-2
7.691352590E-1,-2.849580161E-2,-1.013332009E-1,-2.822948620E-2
7.716229670E-1,-2.956106514E-2,-9.707214683E-2,-2.929474972E-2
7.741106760E-1,-3.062633052E-2,-9.174583107E-2,-2.929474972E-2
7.765983840E-1,-3.169159219E-2,-8.641951531E-2,-2.929474972E-2
7.790860920E-1,-3.275685757E-2,-8.109319210E-2,-2.929474972E-2
7.815738010E-1,-3.382211924E-2,-7.576687634E-2,-3.036001325E-2
7.840615090E-1,-3.382211924E-2,-7.150582224E-2,-2.929474972E-2
7.865492170E-1,-3.382211924E-2,-6.724476814E-2,-2.929474972E-2
7.890369260E-1,-3.382211924E-2,-6.404897571E-2,-3.142527863E-2
7.915246340E-1,-3.382211924E-2,-6.085318699E-2,-3.142527863E-2
7.940123420E-1,-3.275685757E-2,-5.872265995E-2,-3.249054030E-2
7.965000510E-1,-3.275685757E-2,-5.765739456E-2,-3.462106735E-2
7.989877590E-1,-3.169159219E-2,-5.659212917E-2,-3.675159439E-2
8.014754670E-1,-3.062633052E-2,-5.765739456E-2,-3.888212144E-2
8.039631760E-1,-3.062633052E-2,-5.765739456E-2,-4.101264849E-2
8.064508840E-1,-2.956106514E-2,-5.872265995E-2,-4.314317927E-2
8.089385920E-1,-2.743053809E-2,-5.872265995E-2,-4.527370632E-2
8.114263010E-1,-2.636527456E-2,-5.872265995E-2,-4.633896798E-2
8.139140090E-1,-2.423474751E-2,-5.872265995E-2,-4.953476042E-2
8.164017170E-1,-2.210422046E-2,-5.872265995E-2,-5.166528746E-2
8.188894260E-1,-2.103895694E-2,-5.872265995E-2,-5.379581451E-2
8.213771340E-1,-1.890842989E-2,-5.978792161E-2,-5.699160323E-2
8.238648420E-1,-1.784316637E-2,-5.978792161E-2,-5.912213027E-2
8.263525510E-1,-1.677790284E-2,-6.085318699E-2,-6.125266105E-2
8.288402590E-1,-1.464737486E-2,-6.191844866E-2,-6.444845349E-2
8.313279670E-1,-1.464737486E-2,-6.404897571E-2,-6.551371515E-2
8.338156240E-1,-1.358211134E-2,-6.617950648E-2,-6.657897681E-2
8.363032800E-1,-1.358211134E-2,-6.831002980E-2,-6.764423847E-2
8.387909360E-1,-1.251684781E-2,-7.150582224E-2,-6.870950758E-2
8.412785920E-1,-1.145158429E-2,-7.470161468E-2,-6.870950758E-2
8.437662490E-1,-1.038632076E-2,-7.789740711E-2,-6.977476925E-2
8.462539050E-1,-9.321057238E-3,-8.322372288E-2,-7.084003091E-2
8.487415610E-1,-8.255792782E-3,-8.748477697E-2,-6.977476925E-2
8.512292170E-1,-8.255792782E-3,-9.387636185E-2,-6.977476925E-2
8.537168740E-1,-7.190529723E-3,-9.920267761E-2,-7.084003091E-2
8.562045300E-1,-5.060002208E-3,-1.045289934E-1,-7.190529257E-2
8.586921860E-1,-5.060002208E-3,-1.109205782E-1,-7.190529257E-2
8.611798420E-1,-3.994738683E-3,-1.162468940E-1,-7.297056168E-2
8.636674990E-1,-3.994738683E-3,-1.215732098E-1,-7.297056168E-2
8.661551550E-1,-2.929474926E-3,-1.268995255E-1,-7.403582335E-2
8.686428110E-1,-1.864211401E-3,-1.311605871E-1,-7.510108501E-2
8.711304670E-1,-1.864211401E-3,-1.354216337E-1,-7.510108501E-2
8.736181240E-1,-1.864211401E-3,-1.375521719E-1,-7.510108501E-2
8.761057800E-1,-1.864211401E-3,-1.407479644E-1,-7.403582335E-2
8.785934360E-1,-1.864211401E-3,-1.418132186E-1,-7.403582335E-2
8.810810920E-1,-2.929474926E-3,-1.439437568E-1,-7.190529257E-2
8.835687490E-1,-3.994738683E-3,-1.439437568E-1,-7.084003091E-2
8.860564050E-1,-6.125265732E-3,-1.439437568E-1,-6.977476925E-2
8.885440610E-1,-8.255792782E-3,-1.428784877E-1,-6.764423847E-2
8.910317170E-1,-1.038632076E-2,-1.418132186E-1,-6.551371515E-2
8.935193740E-1,-1.358211134E-2,-1.407479644E-1,-6.231792271E-2
8.960070300E-1,-1.784316637E-2,-1.386174262E-1,-6.018739566E-2
8.984946860E-1,-1.997369342E-2,-1.375521719E-1,-5.805686861E-2
9.009823420E-1,-2.316948399E-2,-1.375521719E-1,-5.486107618E-2
9.034699990E-1,-2.636527456E-2,-1.375521719E-1,-5.273054913E-2
9.059576550E-1,-3.062633052E-2,-1.364869028E-1,-5.060002208E-2
9.084453110E-1,-3.595264629E-2,-1.354216337E-1,-4.846949503E-2
9.109329670E-1,-3.914843872E-2,-1.332911104E-1,-4.633896798E-2
9.134206240E-1,-4.447475821E-2,-1.300953180E-1,-4.420844093E-2
9.159082800E-1,-4.873581231E-2,-1.268995255E-1,-4.207791388E-2
9.183959360E-1,-5.299686641E-2,-1.226384789E-1,-3.781685978E-2
9.208835920E-1,-5.619265884E-2,-1.183774248E-1,-3.462106735E-2
9.233712490E-1,-5.938844755E-2,-1.119858399E-1,-2.929474972E-2
9.258589050E-1,-6.151897460E-2,-1.055942550E-1,-2.503369562E-2
9.283465610E-1,-6.364950538E-2,-9.813741595E-2,-1.864211448E-2
9.308342170E-1,-6.578002870E-2,-9.174583107E-2,-1.331579592E-2
9.333218740E-1,-6.684529036E-2,-8.641951531E-2,-7.989477366E-3
9.358095300E-1,-6.791055948E-2,-8.109319210E-2,-1.597895520E-3
9.382971860E-1,-7.004108280E-2,-7.789740711E-2,3.728422802E-3
9.407848420E-1,-7.110634446E-2,-7.576687634E-2,9.054740891E-3
9.432724990E-1,-7.323687524E-2,-7.470161468E-2,1.331579592E-2
9.457601550E-1,-7.323687524E-2,-7.363634557E-2,1.864211448E-2
9.482478110E-1,-7.536740601E-2,-7.363634557E-2,2.396843210E-2
9.507354670E-1,-7.536740601E-2,-7.363634557E-2,2.822948620E-2
9.532231240E-1,-7.536740601E-2,-7.576687634E-2,3.249054030E-2
9.557107800E-1,-7.536740601E-2,-7.683213800E-2,3.675159439E-2
9.581984360E-1,-7.430213690E-2,-8.002793044E-2,3.888212144E-2
9.606860920E-1,-7.323687524E-2,-8.215846121E-2,4.207791388E-2
9.631737490E-1,-7.217161357E-2,-8.535424620E-2,4.420844093E-2
9.656614050E-1,-7.110634446E-2,-8.855003864E-2,4.633896798E-2
9.681490610E-1,-6.897582114E-2,-9.174583107E-2,4.846949503E-2
9.706367170E-1,-6.684529036E-2,-9.600688517E-2,4.846949503E-2
9.731243740E-1,-6.471476704E-2,-1.002679393E-1,4.953476042E-2
9.756120300E-1,-6.258423626E-2,-1.055942550E-1,4.953476042E-2
9.780996860E-1,-6.151897460E-2,-1.098553166E-1,4.846949503E-2
9.805873420E-1,-6.045371294E-2,-1.151816323E-1,4.633896798E-2
9.830749990E-1,-5.938844755E-2,-1.194426864E-1,4.527370632E-2
9.855626550E-1,-5.938844755E-2,-1.247690022E-1,4.527370632E-2
9.880503110E-1,-5.832318589E-2,-1.290300637E-1,4.420844093E-2
9.905379670E-1,-5.832318589E-2,-1.311605871E-1,4.207791388E-2
9.930256240E-1,-5.832318589E-2,-1.343563795E-1,3.994738683E-2
9.955132800E-1,-5.832318589E-2,-1.364869028E-1,3.781685978E-2
9.980009360E-1,-5.938844755E-2,-1.375521719E-1,3.568633273E-2
1.000488592E0,-5.938844755E-2,-1.386174262E-1,3.355580568E-2
1.002976249E0,-6.045371294E-2,-1.386174262E-1,3.142527863E-2
1.005463905E0,-6.151897460E-2,-1.375521719E-1,2.822948620E-2
1.007951561E0,-6.364950538E-2,-1.364869028E-1,2.503369562E-2
1.010439217E0,-6.471476704E-2,-1.332911104E-1,2.290316857E-2
1.012926874E0,-6.578002870E-2,-1.300953180E-1,2.077264152E-2
1.015414530E0,-6.791055948E-2,-1.268995255E-1,1.970737800E-2
1.017902186E0,-7.004108280E-2,-1.226384789E-1,1.864211448E-2
1.020389842E0,-7.004108280E-2,-1.194426864E-1,1.970737800E-2
1.022877499E0,-7.110634446E-2,-1.151816323E-1,2.077264152E-2
1.025365207E0,-7.323687524E-2,-1.119858399E-1,2.183790505E-2
1.027852915E0,-7.430213690E-2,-1.098553166E-1,2.290316857E-2
1.030340624E0,-7.536740601E-2,-1.077247858E-1,2.503369562E-2
1.032828332E0,-7.643266767E-2,-1.055942550E-1,2.716422267E-2
1.035316040E0,-7.856319100E-2,-1.034637317E-1,2.822948620E-2
1.037803749E0,-7.962846011E-2,-1.013332009E-1,3.036001325E-2
1.040291457E0,-8.282424510E-2,-9.813741595E-2,3.142527863E-2
1.042779165E0,-8.388951421E-2,-9.494162351E-2,3.249054030E-2
1.045266874E0,-8.602003753E-2,-8.961530030E-2,3.462106735E-2
1.047754582E0,-8.815056831E-2,-8.428898454E-2,3.568633273E-2
1.050242290E0,-9.028109163E-2,-7.789740711E-2,3.675159439E-2
1.052729999E0,-9.134636074E-2,-7.150582224E-2,3.888212144E-2
1.055217707E0,-9.347688407E-2,-6.511423737E-2,3.994738683E-2
1.057705415E0,-9.560741484E-2,-5.765739456E-2,4.207791388E-2
1.060193124E0,-9.773793817E-2,-5.126581341E-2,4.314317927E-2
1.062680832E0,-9.986846894E-2,-4.380896688E-2,4.420844093E-2
1.065168540E0,-1.019989923E-1,-3.635212034E-2,4.633896798E-2
1.067656249E0,-1.051947847E-1,-2.996053919E-2,4.740423337E-2
1.070143957E0,-1.083905771E-1,-2.250369452E-2,4.953476042E-2
1.072631665E0,-1.105211005E-1,-1.504684892E-2,5.060002208E-2
1.075119374E0,-1.137168929E-1,-7.590003312E-3,5.379581451E-2
1.077607082E0,-1.158474237E-1,-1.198421582E-3,5.486107618E-2
1.080094790E0,-1.179779470E-1,5.193160381E-3,5.699160323E-2
1.082582499E0,-1.201084778E-1,1.051947847E-2,5.699160323E-2
1.085070207E0,-1.211737394E-1,1.584579609E-2,5.805686861E-2
1.087557915E0,-1.222390011E-1,1.904158667E-2,5.805686861E-2
1.090045624E0,-1.243695319E-1,2.330264263E-2,5.805686861E-2
1.092533332E0,-1.243695319E-1,2.756369673E-2,5.699160323E-2
1.095021040E0,-1.254348010E-1,3.075948730E-2,5.699160323E-2
1.097508749E0,-1.275653243E-1,3.395527974E-2,5.486107618E-2
1.099996457E0,-1.296958476E-1,3.608580679E-2,5.273054913E-2
1.102484165E0,-1.318263710E-1,3.821633384E-2,5.060002208E-2
1.104971874E0,-1.328916401E-1,4.034686089E-2,4.846949503E-2
1.107459582E0,-1.350221634E-1,4.141212255E-2,4.740423337E-2
1.109947290E0,-1.360874325E-1,4.141212255E-2,4.633896798E-2
1.112434999E0,-1.360874325E-1,4.247738793E-2,4.420844093E-2
1.114922707E0,-1.371526867E-1,4.354264960E-2,4.314317927E-2
1.117410363E0,-1.371526867E-1,4.567318037E-2,4.207791388E-2
1.119898020E0,-1.392832249E-1,4.780370742E-2,4.101264849E-2
1.122385676E0,-1.392832249E-1,4.993423447E-2,4.101264849E-2
1.124873332E0,-1.403484792E-1,5.206476152E-2,3.994738683E-2
1.127360988E0,-1.424790174E-1,5.526055023E-2,3.994738683E-2
1.129848645E0,-1.435442716E-1,5.632581562E-2,3.888212144E-2
1.132336301E0,-1.446095407E-1,5.845634267E-2,3.888212144E-2
1.134823957E0,-1.456748098E-1,5.952160433E-2,3.781685978E-2
1.137311613E0,-1.456748098E-1,6.058686972E-2,3.675159439E-2
1.139799270E0,-1.456748098E-1,6.058686972E-2,3.675159439E-2
1.142286926E0,-1.456748098E-1,6.165213138E-2,3.568633273E-2
1.144774582E0,-1.446095407E-1,6.271740049E-2,3.568633273E-2
1.147262238E0,-1.446095407E-1,6.271740049E-2,3.462106735E-2
1.149749895E0,-1.435442716E-1,6.271740049E-2,3.355580568E-2
1.152237551E0,-1.435442716E-1,6.271740049E-2,3.355580568E-2
1.154725207E0,-1.446095407E-1,6.271740049E-2,3.355580568E-2
1.157212863E0,-1.456748098E-1,6.165213138E-2,3.355580568E-2
1.159700520E0,-1.488705873E-1,6.058686972E-2,3.355580568E-2
1.162188176E0,-1.510011256E-1,6.058686972E-2,3.355580568E-2
1.164675832E0,-1.531316489E-1,5.952160433E-2,3.462106735E-2
1.167163488E0,-1.552621722E-1,5.952160433E-2,3.781685978E-2
1.169651145E0,-1.573926955E-1,5.952160433E-2,4.207791388E-2
1.172138801E0,-1.573926955E-1,5.952160433E-2,4.633896798E-2
1.174626457E0,-1.573926955E-1,6.058686972E-2,5.166528746E-2
1.177114113E0,-1.573926955E-1,6.165213138E-2,5.699160323E-2
1.179601770E0,-1.573926955E-1,6.378266215E-2,6.231792271E-2
1.182089426E0,-1.573926955E-1,6.484792382E-2,6.657897681E-2
1.184577082E0,-1.584579647E-1,6.697845459E-2,7.190529257E-2
1.187064738E0,-1.584579647E-1,6.697845459E-2,7.616634667E-2
1.189552395E0,-1.595232338E-1,6.804371625E-2,7.936213911E-2
1.192040051E0,-1.595232338E-1,6.910897791E-2,8.255793154E-2
1.194527707E0,-1.605884880E-1,7.230477035E-2,8.575372398E-2
1.197015363E0,-1.616537571E-1,7.443529367E-2,8.894951642E-2
1.199503020E0,-1.605884880E-1,7.869634777E-2,9.108003974E-2
1.201990676E0,-1.605884880E-1,8.402267098E-2,9.427583218E-2
1.204478332E0,-1.605884880E-1,9.041424841E-2,9.640636295E-2
1.206965988E0,-1.605884880E-1,9.680583328E-2,9.960214794E-2
1.209453645E0,-1.595232338E-1,1.021321490E-1,1.017326787E-1
1.211941301E0,-1.584579647E-1,1.085237339E-1,1.038632020E-1
1.214428957E0,-1.584579647E-1,1.138500497E-1,1.049284711E-1
1.216916613E0,-1.584579647E-1,1.181111038E-1,1.070589945E-1
1.219404270E0,-1.573926955E-1,1.223721579E-1,1.091895252E-1
1.221891926E0,-1.552621722E-1,1.255679578E-1,1.091895252E-1
1.224379582E0,-1.541969180E-1,1.276984811E-1,1.091895252E-1
1.226867238E0,-1.520663798E-1,1.298290044E-1,1.091895252E-1
1.229354895E0,-1.510011256E-1,1.319595277E-1,1.081242561E-1
1.231842551E0,-1.499358565E-1,1.319595277E-1,1.059937328E-1
1.234330207E0,-1.488705873E-1,1.308942735E-1,1.038632020E-1
1.236817863E0,-1.488705873E-1,1.298290044E-1,1.006674170E-1
1.239305520E0,-1.488705873E-1,1.276984811E-1,9.640636295E-2
1.241793176E0,-1.499358565E-1,1.255679578E-1,9.108003974E-2
1.244280832E0,-1.510011256E-1,1.245026886E-1,8.681898564E-2
1.246768488E0,-1.520663798E-1,1.234374270E-1,8.255793154E-2
1.249256145E0,-1.520663798E-1,1.245026886E-1,7.723161578E-2
1.251743801E0,-1.531316489E-1,1.266332120E-1,7.403582335E-2
1.254231457E0,-1.531316489E-1,1.308942735E-1,6.977476925E-2
1.256719113E0,-1.520663798E-1,1.372858584E-1,6.551371515E-2
1.259206770E0,-1.520663798E-1,1.447426975E-1,6.231792271E-2
1.261694426E0,-1.520663798E-1,1.521995366E-1,6.125266105E-2
1.264182082E0,-1.520663798E-1,1.617869139E-1,6.018739566E-2
1.266669738E0,-1.520663798E-1,1.703090221E-1,5.912213027E-2
1.269157395E0,-1.520663798E-1,1.777658761E-1,5.805686861E-2
1.271645051E0,-1.520663798E-1,1.841574460E-1,5.805686861E-2
1.274132707E0,-1.510011256E-1,1.894837767E-1,5.699160323E-2
1.276620363E0,-1.499358565E-1,1.916143000E-1,5.699160323E-2
1.279108020E0,-1.499358565E-1,1.948100924E-1,5.486107618E-2
1.281595676E0,-1.478053331E-1,1.958753467E-1,5.486107618E-2
1.284083332E0,-1.456748098E-1,1.958753467E-1,5.379581451E-2
1.286570988E0,-1.435442716E-1,1.948100924E-1,5.273054913E-2
1.289058645E0,-1.414137483E-1,1.926795542E-1,5.060002208E-2
1.291546353E0,-1.392832249E-1,1.926795542E-1,4.953476042E-2
1.294034061E0,-1.382179558E-1,1.905490309E-1,4.846949503E-2
1.296521770E0,-1.371526867E-1,1.894837767E-1,4.846949503E-2
1.299009478E0,-1.360874325E-1,1.884185076E-1,4.740423337E-2
1.301497186E0,-1.360874325E-1,1.873532385E-1,4.846949503E-2
1.303984895E0,-1.339569092E-1,1.862879843E-1,4.953476042E-2
1.306472603E0,-1.339569092E-1,1.852227151E-1,5.060002208E-2
1.308960311E0,-1.318263710E-1,1.841574460E-1,5.166528746E-2
1.311448020E0,-1.307611167E-1,1.830921918E-1,5.273054913E-2
1.313935728E0,-1.286305785E-1,1.820269227E-1,5.379581451E-2
1.316423436E0,-1.265000552E-1,1.809616536E-1,5.486107618E-2
1.318911145E0,-1.254348010E-1,1.809616536E-1,5.592634156E-2
1.321398853E0,-1.254348010E-1,1.809616536E-1,5.592634156E-2
1.323886561E0,-1.254348010E-1,1.809616536E-1,5.592634156E-2
1.326374270E0,-1.265000552E-1,1.809616536E-1,5.592634156E-2
1.328861978E0,-1.275653243E-1,1.820269227E-1,5.592634156E-2
1.331349686E0,-1.275653243E-1,1.830921918E-1,5.486107618E-2
1.333837395E0,-1.265000552E-1,1.852227151E-1,5.273054913E-2
1.336325103E0,-1.265000552E-1,1.873532385E-1,5.060002208E-2
1.338812811E0,-1.254348010E-1,1.905490309E-1,4.953476042E-2
1.341300520E0,-1.243695319E-1,1.948100924E-1,4.740423337E-2
1.343788228E0,-1.222390011E-1,1.990711391E-1,4.527370632E-2
1.346275936E0,-1.211737394E-1,2.033322006E-1,4.314317927E-2
1.348763645E0,-1.190432087E-1,2.075932473E-1,4.101264849E-2
1.351251353E0,-1.169126853E-1,2.107890397E-1,3.888212144E-2
1.353739061E0,-1.158474237E-1,2.150501013E-1,3.675159439E-2
1.356226770E0,-1.137168929E-1,2.161153555E-1,3.462106735E-2
1.358714478E0,-1.126516312E-1,2.171806246E-1,3.142527863E-2
1.361202186E0,-1.115863696E-1,2.161153555E-1,2.929474972E-2
1.363689895E0,-1.105211005E-1,2.150501013E-1,2.609895915E-2
1.366177603E0,-1.083905771E-1,2.118543088E-1,2.290316857E-2
1.368665311E0,-1.073253155E-1,2.097237855E-1,1.970737800E-2
1.371153020E0,-1.062600464E-1,2.054627240E-1,1.544632297E-2
1.373640728E0,-1.041295230E-1,2.022669315E-1,1.331579592E-2
1.376128436E0,-1.030642539E-1,1.980058849E-1,9.054740891E-3
1.378616145E0,-1.030642539E-1,1.937448233E-1,6.924213842E-3
1.381103853E0,-1.009337306E-1,1.894837767E-1,4.793686327E-3
1.383591561E0,-9.986846894E-2,1.852227151E-1,2.663159044E-3
1.386079217E0,-9.986846894E-2,1.809616536E-1,1.597895520E-3
1.388566874E0,-9.880319983E-2,1.767006069E-1,5.326318205E-4
1.391054530E0,-9.667267650E-2,1.735048145E-1,1.597895520E-3
1.393542186E0,-9.667267650E-2,1.692437679E-1,1.597895520E-3
1.396029842E0,-9.560741484E-2,1.660479754E-1,2.663159044E-3
1.398517499E0,-9.454214573E-2,1.639174372E-1,3.728422802E-3
1.401005155E0,-9.347688407E-2,1.617869139E-1,5.858949851E-3
1.403492811E0,-9.347688407E-2,1.617869139E-1,7.989477366E-3
1.405980467E0,-9.454214573E-2,1.617869139E-1,1.118526794E-2
1.408468124E0,-9.560741484E-2,1.617869139E-1,1.651158556E-2
1.410955780E0,-9.773793817E-2,1.628521830E-1,2.077264152E-2
1.413443436E0,-9.880319983E-2,1.649827063E-1,2.609895915E-2
1.415931092E0,-9.986846894E-2,1.681784987E-1,3.249054030E-2
1.418418749E0,-1.009337306E-1,1.724395454E-1,3.888212144E-2
1.420906405E0,-1.009337306E-1,1.798963994E-1,4.527370632E-2
1.423394061E0,-9.986846894E-2,1.884185076E-1,5.166528746E-2
1.425881717E0,-9.880319983E-2,1.990711391E-1,5.805686861E-2
1.428369374E0,-9.667267650E-2,2.107890397E-1,6.444845349E-2
1.430857030E0,-9.454214573E-2,2.235722095E-1,6.977476925E-2
1.433344686E0,-9.347688407E-2,2.384859025E-1,7.403582335E-2
1.435832342E0,-9.347688407E-2,2.523343265E-1,7.829687744E-2
1.438319999E0,-9.454214573E-2,2.661827505E-1,8.042740822E-2
1.440807655E0,-9.560741484E-2,2.789659202E-1,8.255793154E-2
1.443295311E0,-9.667267650E-2,2.906838059E-1,8.255793154E-2
1.445782967E0,-9.773793817E-2,3.013364673E-1,8.149266988E-2
1.448270624E0,-9.880319983E-2,3.109238148E-1,8.042740822E-2
1.450758280E0,-9.880319983E-2,3.194459379E-1,7.829687744E-2
1.453245936E0,-9.880319983E-2,3.269027770E-1,7.616634667E-2
1.455733592E0,-9.773793817E-2,3.322291076E-1,7.190529257E-2
1.458221249E0,-9.773793817E-2,3.343596160E-1,6.870950758E-2
1.460708905E0,-9.773793817E-2,3.354249001E-1,6.338318437E-2
1.463196561E0,-9.773793817E-2,3.332943618E-1,6.018739566E-2
1.465684217E0,-9.880319983E-2,3.290333152E-1,5.699160323E-2
1.468171874E0,-1.009337306E-1,3.226417303E-1,5.486107618E-2
1.470659530E0,-1.030642539E-1,3.130543530E-1,5.273054913E-2
1.473147186E0,-1.051947847E-1,3.034669757E-1,5.166528746E-2
1.475634842E0,-1.073253155E-1,2.928143442E-1,5.166528746E-2
1.478122499E0,-1.105211005E-1,2.832269669E-1,5.273054913E-2
1.480610155E0,-1.115863696E-1,2.747048736E-1,5.486107618E-2
1.483097811E0,-1.137168929E-1,2.672480047E-1,5.805686861E-2
1.485585467E0,-1.158474237E-1,2.608564198E-1,6.125266105E-2
1.488073124E0,-1.169126853E-1,2.576606572E-1,6.657897681E-2
1.490560780E0,-1.179779470E-1,2.565953732E-1,7.084003091E-2
1.493048436E0,-1.190432087E-1,2.576606572E-1,7.616634667E-2
1.495536092E0,-1.179779470E-1,2.608564198E-1,8.149266988E-2
1.498023749E0,-1.169126853E-1,2.651174963E-1,8.681898564E-2
1.500511405E0,-1.147821546E-1,2.704437971E-1,9.214530140E-2
1.502999061E0,-1.115863696E-1,2.768353820E-1,9.534109384E-2
1.505486717E0,-1.073253155E-1,2.832269669E-1,9.853688627E-2
1.507974374E0,-1.030642539E-1,2.906838059E-1,1.006674170E-1
1.510462030E0,-9.773793817E-2,2.970753908E-1,1.027979404E-1
1.512949686E0,-9.347688407E-2,3.013364673E-1,1.049284711E-1
1.515437342E0,-8.921582997E-2,3.055975139E-1,1.049284711E-1
1.517924999E0,-8.495477587E-2,3.077280223E-1,1.049284711E-1
1.520412655E0,-7.856319100E-2,3.098585606E-1,1.038632020E-1
1.522900311E0,-7.110634446E-2,3.098585606E-1,1.006674170E-1
1.525387967E0,-6.364950538E-2,3.077280223E-1,9.640636295E-2
1.527875624E0,-5.619265884E-2,3.055975139E-1,9.001477808E-2
1.530363280E0,-4.767054692E-2,3.013364673E-1,8.362319320E-2
1.532850936E0,-3.914843872E-2,2.960101366E-1,7.510108501E-2
1.535338592E0,-3.169159219E-2,2.896185517E-1,6.657897681E-2
1.537826249E0,-2.530001104E-2,2.821617126E-1,5.592634156E-2
1.540313905E0,-1.997369342E-2,2.736395895E-1,4.633896798E-2
1.542801561E0,-1.571263932E-2,2.640522122E-1,3.568633273E-2
1.545289270E0,-1.358211134E-2,2.533995807E-1,2.609895915E-2
1.547776978E0,-1.251684781E-2,2.416816950E-1,1.651158556E-2
1.550264686E0,-1.145158429E-2,2.299637944E-1,7.989477366E-3
1.552752395E0,-9.321057238E-3,2.182458937E-1,-5.326318205E-4
1.555240103E0,-9.321057238E-3,2.065279931E-1,-7.989477366E-3
1.557727811E0,-8.255792782E-3,1.958753467E-1,-1.438105945E-2
1.560215520E0,-8.255792782E-3,1.862879843E-1,-1.757685095E-2
1.562703228E0,-7.190529723E-3,1.777658761E-1,-2.077264152E-2
1.565190936E0,-8.255792782E-3,1.713742912E-1,-2.183790505E-2
1.567678645E0,-7.190529723E-3,1.660479754E-1,-2.183790505E-2
1.570166353E0,-7.190529723E-3,1.617869139E-1,-2.077264152E-2
1.572654061E0,-6.125265732E-3,1.596563905E-1,-1.864211448E-2
1.575141770E0,-3.994738683E-3,1.585911214E-1,-1.651158556E-2
1.577629478E0,-7.989477599E-4,1.596563905E-1,-1.331579592E-2
1.580117186E0,3.462106921E-3,1.617869139E-1,-1.012000442E-2
1.582604895E0,7.723161485E-3,1.649827063E-1,-7.989477366E-3
1.585092603E0,1.198421605E-2,1.703090221E-1,-5.858949851E-3
1.587580311E0,1.624527015E-2,1.767006069E-1,-3.728422802E-3
1.590068020E0,2.157158963E-2,1.852227151E-1,-1.597895520E-3
1.592555728E0,2.583264373E-2,1.948100924E-1,1.597895520E-3
1.595043436E0,3.115896136E-2,2.043974549E-1,3.728422802E-3
1.597531145E0,3.648528084E-2,2.129195631E-1,5.858949851E-3
1.600018853E0,4.287686199E-2,2.214416862E-1,6.924213842E-3
1.602506561E0,4.926844314E-2,2.288985252E-1,6.924213842E-3
1.604994270E0,5.672528967E-2,2.342248410E-1,5.858949851E-3
1.607481978E0,6.418213248E-2,2.363553643E-1,4.793686327E-3
1.609969686E0,7.163897902E-2,2.363553643E-1,5.326318205E-4
1.612457395E0,7.909582555E-2,2.342248410E-1,-3.728422802E-3
1.614945103E0,8.548741043E-2,2.299637944E-1,-9.054740891E-3
1.617432811E0,9.187898785E-2,2.246374637E-1,-1.544632297E-2
1.619920520E0,9.614004195E-2,2.182458937E-1,-2.290316857E-2
1.622408228E0,1.004010960E-1,2.107890397E-1,-3.036001325E-2
1.624895936E0,1.057274193E-1,2.022669315E-1,-3.781685978E-2
1.627383645E0,1.099884734E-1,1.937448233E-1,-4.633896798E-2
1.629871353E0,1.131842583E-1,1.841574460E-1,-5.379581451E-2
1.632359061E0,1.153147891E-1,1.745700836E-1,-6.125266105E-2
1.634846770E0,1.163800508E-1,1.660479754E-1,-6.657897681E-2
1.637334478E0,1.163800508E-1,1.575258672E-1,-6.977476925E-2
1.639822186E0,1.153147891E-1,1.500690132E-1,-7.190529257E-2
1.642309895E0,1.110537350E-1,1.436774284E-1,-7.084003091E-2
1.644797551E0,1.078579426E-1,1.372858584E-1,-6.977476925E-2
1.647285207E0,1.025316268E-1,1.319595277E-1,-6.444845349E-2
1.649772863E0,9.827057272E-2,1.266332120E-1,-5.699160323E-2
1.652260520E0,9.294424951E-2,1.223721579E-1,-4.740423337E-2
1.654748176E0,8.868319541E-2,1.181111038E-1,-3.675159439E-2
1.657235832E0,8.442214131E-2,1.149153188E-1,-2.396843210E-2
1.659723488E0,8.122635633E-2,1.138500497E-1,-1.012000442E-2
1.662211145E0,7.909582555E-2,1.149153188E-1,3.728422802E-3
1.664698801E0,7.696529478E-2,1.170458421E-1,1.864211448E-2
1.667186457E0,7.590003312E-2,1.223721579E-1,3.249054030E-2
1.669674113E0,7.483477145E-2,1.266332120E-1,4.527370632E-2
1.672161770E0,7.376950979E-2,1.330247968E-1,5.699160323E-2
1.674649426E0,7.483477145E-2,1.372858584E-1,6.551371515E-2
1.677137082E0,7.696529478E-2,1.415469050E-1,7.297056168E-2
1.679624738E0,7.909582555E-2,1.436774284E-1,7.829687744E-2
1.682112395E0,8.335687965E-2,1.426121742E-1,8.042740822E-2
1.684600051E0,8.868319541E-2,1.394163817E-1,8.042740822E-2
1.687087707E0,9.614004195E-2,1.330247968E-1,7.936213911E-2
1.689575363E0,1.035968885E-1,1.234374270E-1,7.510108501E-2
1.692063020E0,1.131842583E-1,1.117195264E-1,6.977476925E-2
1.694550676E0,1.217063740E-1,9.680583328E-2,6.125266105E-2
1.697038332E0,1.291632205E-1,8.189214021E-2,5.273054913E-2
1.699525988E0,1.366200596E-1,6.804371625E-2,4.101264849E-2
1.702013645E0,1.408811212E-1,5.313002318E-2,2.822948620E-2
1.704501301E0,1.462074369E-1,4.034686089E-2,1.225053146E-2
1.706988957E0,1.483379602E-1,3.075948730E-2,-4.793686327E-3
1.709476613E0,1.494032294E-1,2.330264263E-2,-2.290316857E-2
1.711964270E0,1.504684836E-1,1.797632314E-2,-3.994738683E-2
1.714451926E0,1.504684836E-1,1.584579609E-2,-5.805686861E-2
1.716939582E0,1.494032294E-1,1.478053257E-2,-7.510108501E-2
1.719427238E0,1.472726911E-1,1.371526904E-2,-9.001477808E-2
1.721914895E0,1.430116445E-1,1.371526904E-2,-1.027979404E-1
1.724402551E0,1.387505829E-1,1.478053257E-2,-1.113200486E-1
1.726890207E0,1.334242672E-1,1.371526904E-2,-1.177116334E-1
1.729377863E0,1.280979514E-1,1.265000552E-2,-1.187768951E-1
1.731865520E0,1.206411049E-1,1.051947847E-2,-1.166463718E-1
1.734353176E0,1.131842583E-1,7.323687430E-3,-1.113200486E-1
1.736840832E0,1.057274193E-1,5.193160381E-3,-1.038632020E-1
1.739328488E0,9.720530361E-2,1.997369342E-3,-9.427583218E-2
1.741816145E0,8.974846452E-2,-1.198421582E-3,-8.255793154E-2
1.744303801E0,8.335687965E-2,-3.328948980E-3,-7.084003091E-2
1.746791457E0,7.696529478E-2,-5.459476262E-3,-5.805686861E-2
1.749279113E0,7.057371736E-2,-5.459476262E-3,-4.633896798E-2
1.751766770E0,6.524740160E-2,-5.459476262E-3,-3.462106735E-2
1.754254426E0,5.992107838E-2,-5.459476262E-3,-2.396843210E-2
1.756742082E0,5.672528967E-2,-4.394212738E-3,-1.331579592E-2
1.759229738E0,5.459476262E-2,-4.394212738E-3,-4.793686327E-3
1.761717395E0,5.139897019E-2,-4.394212738E-3,1.597895520E-3
1.764205051E0,4.926844314E-2,-5.459476262E-3,6.924213842E-3
1.766692707E0,4.607265070E-2,-6.524739787E-3,1.118526794E-2
1.769180363E0,4.287686199E-2,-9.720530361E-3,1.225053146E-2
1.771668020E0,3.861580789E-2,-1.291632187E-2,1.225053146E-2
1.774155676E0,3.435475379E-2,-1.717737690E-2,1.012000442E-2
1.776643332E0,3.009369783E-2,-2.250369452E-2,6.924213842E-3
1.779130988E0,2.583264373E-2,-2.889527567E-2,3.728422802E-3
1.781618645E0,2.263685316E-2,-3.528685868E-2,-5.326318205E-4
1.784106301E0,1.944106072E-2,-4.061317816E-2,-4.793686327E-3
1.786593957E0,1.624527015E-2,-4.380896688E-2,-1.012000442E-2
1.789081613E0,1.518000662E-2,-4.593949392E-2,-1.651158556E-2
1.791569270E0,1.411474310E-2,-4.700475931E-2,-2.183790505E-2
1.794056926E0,1.198421605E-2,-4.487423226E-2,-2.822948620E-2
1.796544634E0,8.788425475E-3,-4.274370521E-2,-3.355580568E-2
1.799032342E0,6.657897960E-3,-3.848264739E-2,-3.781685978E-2
1.801520051E0,3.462106921E-3,-3.209106624E-2,-4.207791388E-2
1.804007759E0,2.663159103E-4,-2.463422157E-2,-4.633896798E-2
1.806495467E0,-2.929474926E-3,-1.504684892E-2,-4.846949503E-2
1.808983176E0,-7.190529723E-3,-4.394212738E-3,-4.740423337E-2
1.811470884E0,-1.038632076E-2,8.388951421E-3,-4.633896798E-2
1.813958592E0,-1.464737486E-2,2.117211558E-2,-4.314317927E-2
1.816446301E0,-1.890842989E-2,3.395527974E-2,-3.994738683E-2
1.818934009E0,-2.210422046E-2,4.673844203E-2,-3.568633273E-2
1.821421717E0,-2.530001104E-2,5.845634267E-2,-3.036001325E-2
1.823909426E0,-2.849580161E-2,6.804371625E-2,-2.183790505E-2
1.826397134E0,-3.169159219E-2,7.763108611E-2,-1.331579592E-2
1.828884842E0,-3.275685757E-2,8.508793265E-2,-4.793686327E-3
1.831372551E0,-3.275685757E-2,9.147951752E-2,3.728422802E-3
1.833860259E0,-3.275685757E-2,9.574057162E-2,1.331579592E-2
1.836347967E0,-3.275685757E-2,9.893636405E-2,2.077264152E-2
1.838835676E0,-3.382211924E-2,1.000016257E-1,2.929474972E-2
1.841323384E0,-3.488738462E-2,1.000016257E-1,3.568633273E-2
1.843811092E0,-3.595264629E-2,9.787109494E-2,4.101264849E-2
1.846298801E0,-3.701791167E-2,9.361004084E-2,4.420844093E-2
1.848786509E0,-3.808317333E-2,8.934898674E-2,4.846949503E-2
1.851274217E0,-3.914843872E-2,8.295740932E-2,5.060002208E-2
1.853761926E0,-3.914843872E-2,7.443529367E-2,5.060002208E-2
1.856249634E0,-3.808317333E-2,6.378266215E-2,4.953476042E-2
1.858737342E0,-3.701791167E-2,4.993423447E-2,4.633896798E-2
1.861225051E0,-3.382211924E-2,3.502054140E-2,4.101264849E-2
1.863712759E0,-3.169159219E-2,1.904158667E-2,3.462106735E-2
1.866200467E0,-2.849580161E-2,3.062632866E-3,2.609895915E-2
1.868688176E0,-2.530001104E-2,-1.398158539E-2,1.544632297E-2
1.871175884E0,-2.103895694E-2,-2.996053919E-2,4.793686327E-3
1.873663592E0,-1.890842989E-2,-4.380896688E-2,-6.924213842E-3
1.876151301E0,-1.571263932E-2,-5.659212917E-2,-1.970737800E-2
1.878639009E0,-1.358211134E-2,-6.617950648E-2,-3.142527863E-2
1.881126717E0,-1.358211134E-2,-7.470161468E-2,-4.420844093E-2
1.883614426E0,-1.251684781E-2,-7.896266878E-2,-5.486107618E-2
1.886102134E0,-1.251684781E-2,-8.215846121E-2,-6.338318437E-2
1.888589842E0,-1.251684781E-2,-8.215846121E-2,-7.084003091E-2
1.891077551E0,-1.251684781E-2,-8.002793044E-2,-7.616634667E-2
1.893565259E0,-1.251684781E-2,-7.683213800E-2,-7.829687744E-2
1.896052967E0,-1.251684781E-2,-7.150582224E-2,-7.829687744E-2
1.898540624E0,-1.251684781E-2,-6.511423737E-2,-7.616634667E-2
1.901028280E0,-1.251684781E-2,-5.765739456E-2,-7.190529257E-2
1.903515936E0,-1.358211134E-2,-4.913528636E-2,-6.551371515E-2
1.906003592E0,-1.571263932E-2,-3.954791278E-2,-5.592634156E-2
1.908491249E0,-1.784316637E-2,-3.102580272E-2,-4.420844093E-2
1.910978905E0,-1.890842989E-2,-2.250369452E-2,-3.249054030E-2
1.913466561E0,-2.103895694E-2,-1.291632187E-2,-1.864211448E-2
1.915954217E0,-2.103895694E-2,-5.459476262E-3,-5.858949851E-3
1.918441874E0,-2.210422046E-2,9.321057005E-4,7.989477366E-3
1.920929530E0,-2.210422046E-2,5.193160381E-3,2.183790505E-2
1.923417186E0,-2.210422046E-2,8.388951421E-3,3.249054030E-2
1.925904842E0,-2.210422046E-2,1.051947847E-2,4.314317927E-2
1.928392499E0,-2.316948399E-2,9.454214945E-3,5.273054913E-2
1.930880155E0,-2.530001104E-2,7.323687430E-3,6.125266105E-2
1.933367811E0,-2.743053809E-2,1.997369342E-3,6.870950758E-2
1.935855467E0,-2.956106514E-2,-6.524739787E-3,7.403582335E-2
1.938343124E0,-3.169159219E-2,-1.824264042E-2,7.829687744E-2
1.940830780E0,-3.382211924E-2,-3.102580272E-2,8.149266988E-2
1.943318436E0,-3.701791167E-2,-4.487423226E-2,8.362319320E-2
1.945806092E0,-3.914843872E-2,-5.978792161E-2,8.468846232E-2
1.948293749E0,-4.127896577E-2,-7.363634557E-2,8.575372398E-2
1.950781405E0,-4.234423116E-2,-8.748477697E-2,8.575372398E-2
1.953269061E0,-4.234423116E-2,-1.013332009E-1,8.575372398E-2
1.955756717E0,-4.127896577E-2,-1.141163707E-1,8.575372398E-2
1.958244374E0,-4.021370411E-2,-1.237037405E-1,8.362319320E-2
1.960732030E0,-3.914843872E-2,-1.311605871E-1,8.042740822E-2
1.963219686E0,-3.914843872E-2,-1.364869028E-1,7.616634667E-2
1.965707342E0,-3.808317333E-2,-1.418132186E-1,7.084003091E-2
1.968194999E0,-3.808317333E-2,-1.428784877E-1,6.338318437E-2
1.970682655E0,-3.808317333E-2,-1.418132186E-1,5.699160323E-2
1.973170311E0,-4.021370411E-2,-1.375521719E-1,5.060002208E-2
1.975657967E0,-4.127896577E-2,-1.290300637E-1,4.314317927E-2
1.978145624E0,-4.340949282E-2,-1.183774248E-1,3.675159439E-2
1.980633280E0,-4.660528526E-2,-1.055942550E-1,3.249054030E-2
1.983120936E0,-4.980107397E-2,-9.174583107E-2,2.822948620E-2
1.985608592E0,-5.406212807E-2,-7.683213800E-2,2.716422267E-2
1.988096249E0,-5.725792050E-2,-6.298371404E-2,2.609895915E-2
1.990583905E0,-6.045371294E-2,-4.807002097E-2,2.716422267E-2
1.993071561E0,-6.471476704E-2,-3.422159329E-2,3.142527863E-2
1.995559217E0,-6.684529036E-2,-2.037316747E-2,3.675159439E-2
1.998046874E0,-6.897582114E-2,-7.590003312E-3,4.314317927E-2
2.000534530E0,-7.110634446E-2,5.193160381E-3,4.846949503E-2
2.003022186E0,-7.323687524E-2,1.691105962E-2,5.379581451E-2
2.005509842E0,-7.430213690E-2,2.862896025E-2,5.699160323E-2
2.007997499E0,-7.536740601E-2,3.928159550E-2,6.018739566E-2
2.010485155E0,-7.536740601E-2,4.886896908E-2,6.231792271E-2
2.012972811E0,-7.536740601E-2,5.632581562E-2,6.231792271E-2
2.015460467E0,-7.430213690E-2,6.165213138E-2,6.231792271E-2
2.017948124E0,-7.323687524E-2,6.271740049E-2,6.125266105E-2
2.020435780E0,-7.217161357E-2,6.165213138E-2,6.018739566E-2
2.022923436E0,-7.110634446E-2,5.526055023E-2,5.912213027E-2
2.025411092E0,-7.004108280E-2,4.673844203E-2,5.699160323E-2
2.027898749E0,-6.791055948E-2,3.502054140E-2,5.273054913E-2
2.030386405E0,-6.791055948E-2,2.117211558E-2,4.953476042E-2
2.032874061E0,-6.578002870E-2,4.127896391E-3,4.420844093E-2
2.035361717E0,-6.471476704E-2,-1.398158539E-2,3.888212144E-2
2.037849374E0,-6.471476704E-2,-3.209106624E-2,3.462106735E-2
2.040337030E0,-6.364950538E-2,-5.020054802E-2,3.142527863E-2
2.042824738E0,-6.258423626E-2,-6.724476814E-2,2.822948620E-2
2.045312447E0,-6.151897460E-2,-8.215846121E-2,2.609895915E-2
2.047800155E0,-5.938844755E-2,-9.494162351E-2,2.396843210E-2
2.050287863E0,-5.832318589E-2,-1.045289934E-1,2.290316857E-2
2.052775572E0,-5.725792050E-2,-1.109205782E-1,2.290316857E-2
2.055263280E0,-5.406212807E-2,-1.119858399E-1,2.396843210E-2
2.057750988E0,-5.299686641E-2,-1.109205782E-1,2.503369562E-2
2.060238697E0,-5.193160102E-2,-1.066595241E-1,2.716422267E-2
2.062726405E0,-5.193160102E-2,-1.002679393E-1,2.929474972E-2
2.065214113E0,-5.193160102E-2,-9.174583107E-2,3.036001325E-2
2.067701822E0,-5.086633936E-2,-8.109319210E-2,3.142527863E-2
2.070189530E0,-5.086633936E-2,-6.937529147E-2,3.249054030E-2
2.072677238E0,-5.086633936E-2,-5.872265995E-2,3.462106735E-2
2.075164947E0,-5.086633936E-2,-4.593949392E-2,3.568633273E-2
2.077652655E0,-5.193160102E-2,-3.528685868E-2,3.781685978E-2
2.080140363E0,-5.086633936E-2,-2.356895804E-2,3.994738683E-2
2.082628072E0,-4.980107397E-2,-1.398158539E-2,4.207791388E-2
2.085115780E0,-4.660528526E-2,-7.590003312E-3,4.314317927E-2
2.087603488E0,-4.234423116E-2,-3.328948980E-3,4.527370632E-2
2.090091197E0,-3.701791167E-2,-2.263685223E-3,4.527370632E-2
2.092578905E0,-2.956106514E-2,-6.524739787E-3,4.314317927E-2
2.095066613E0,-2.210422046E-2,-1.504684892E-2,3.781685978E-2
2.097554322E0,-1.251684781E-2,-2.783001214E-2,2.929474972E-2
2.100042030E0,-2.929474926E-3,-4.487423226E-2,1.757685095E-2
2.102529738E0,5.592633970E-3,-6.724476814E-2,2.663159044E-3
2.105017447E0,1.624527015E-2,-9.387636185E-2,-1.438105945E-2
2.107505155E0,2.476738021E-2,-1.226384789E-1,-3.355580568E-2
2.109992863E0,3.435475379E-2,-1.545963883E-1,-5.379581451E-2
2.112480572E0,4.394212365E-2,-1.865542978E-1,-7.510108501E-2
2.114968280E0,5.459476262E-2,-2.206427306E-1,-9.534109384E-2
2.117455988E0,6.418213248E-2,-2.536658943E-1,-1.166463718E-1
2.119943697E0,7.483477145E-2,-2.866890728E-1,-1.368863732E-1
2.122431405E0,8.442214131E-2,-3.186469972E-1,-1.581916511E-1
2.124919113E0,9.187898785E-2,-3.495396376E-1,-1.784316599E-1
2.127406822E0,9.933583438E-2,-3.804322779E-1,-1.997369379E-1
2.129894530E0,1.046621501E-1,-4.091944098E-1,-2.221074700E-1
2.132382238E0,1.078579426E-1,-4.368912578E-1,-2.444780022E-1
2.134869947E0,1.099884734E-1,-4.635228515E-1,-2.657832801E-1
2.137357655E0,1.131842583E-1,-4.890891612E-1,-2.838927507E-1
2.139845363E0,1.153147891E-1,-5.125249624E-1,-3.020022511E-1
2.142333072E0,1.174453199E-1,-5.316997170E-1,-3.158506751E-1
2.144820780E0,1.206411049E-1,-5.466133952E-1,-3.286338449E-1
2.147308488E0,1.238368973E-1,-5.551354885E-1,-3.371559381E-1
2.149796145E0,1.280979514E-1,-5.593965650E-1,-3.446127772E-1
2.152283801E0,1.312937438E-1,-5.583313107E-1,-3.520696461E-1
2.154771457E0,1.355548054E-1,-5.530049801E-1,-3.584612012E-1
2.157259113E0,1.398158520E-1,-5.412870646E-1,-3.648527861E-1
2.159746770E0,1.451421678E-1,-5.274386406E-1,-3.723096550E-1
2.162234426E0,1.515337527E-1,-5.103944540E-1,-3.808317482E-1
2.164722082E0,1.589905918E-1,-4.880239069E-1,-3.904191256E-1
2.167209738E0,1.664474458E-1,-4.635228515E-1,-4.021370113E-1
2.169697395E0,1.749695539E-1,-4.368912578E-1,-4.159854650E-1
2.172185051E0,1.856221855E-1,-4.070638716E-1,-4.298338890E-1
2.174672707E0,1.984053552E-1,-3.751059473E-1,-4.458128214E-1
2.177160363E0,2.122537792E-1,-3.399522603E-1,-4.639223218E-1
2.179648020E0,2.271674722E-1,-3.047985733E-1,-4.820317924E-1
2.182135676E0,2.442116886E-1,-2.685796022E-1,-5.001412630E-1
2.184623332E0,2.633864284E-1,-2.334259003E-1,-5.203812718E-1
2.187110988E0,2.825611830E-1,-1.993374527E-1,-5.406212807E-1
2.189598645E0,3.028011918E-1,-1.663142890E-1,-5.619265437E-1
2.192086301E0,3.230412006E-1,-1.364869028E-1,-5.832318664E-1
2.194573957E0,3.411506712E-1,-1.066595241E-1,-6.056023836E-1
2.197061613E0,3.592601717E-1,-7.896266878E-2,-6.279729009E-1
2.199549270E0,3.731085956E-1,-5.233107507E-2,-6.492781639E-1
2.202036926E0,3.858917654E-1,-2.676474862E-2,-6.673876643E-1
2.204524582E0,3.965443969E-1,-2.263685223E-3,-6.854971647E-1
2.207012238E0,4.050664902E-1,2.010685205E-2,-7.004108429E-1
2.209499895E0,4.135886133E-1,4.141212255E-2,-7.131940126E-1
2.211987551E0,4.210454524E-1,6.165213138E-2,-7.238466144E-1
2.214475207E0,4.274370372E-1,7.763108611E-2,-7.355645299E-1
2.216962863E0,4.348938763E-1,9.041424841E-2,-7.451519370E-1
2.219450520E0,4.423507154E-1,9.574057162E-2,-7.558045387E-1
2.221938176E0,4.487423003E-1,9.574057162E-2,-7.685877085E-1
2.224425832E0,4.540686309E-1,8.721846342E-2,-7.824361324E-1
2.226913488E0,4.583296776E-1,7.123950869E-2,-7.984151244E-1
2.229401145E0,4.615254700E-1,4.993423447E-2,-8.133288026E-1
2.231888801E0,4.636560082E-1,2.223737910E-2,-8.282424808E-1
2.234376457E0,4.647212625E-1,-1.078579482E-2,-8.420909047E-1
2.236864113E0,4.657865167E-1,-4.487423226E-2,-8.538088202E-1
2.239351770E0,4.657865167E-1,-8.215846121E-2,-8.633961678E-1
2.241839426E0,4.657865167E-1,-1.183774248E-1,-8.697877526E-1
2.244327082E0,4.657865167E-1,-1.556616426E-1,-8.719182611E-1
2.246814738E0,4.657865167E-1,-1.918806136E-1,-8.719182611E-1
2.249302395E0,4.679170549E-1,-2.259690464E-1,-8.697877526E-1
2.251790051E0,4.689823091E-1,-2.579269707E-1,-8.655267358E-1
2.254277707E0,4.711128473E-1,-2.866890728E-1,-8.580698371E-1
2.256765363E0,4.732433856E-1,-3.111901283E-1,-8.495477438E-1
2.259253020E0,4.753738940E-1,-3.303648829E-1,-8.399603963E-1
2.261740676E0,4.785696864E-1,-3.452785909E-1,-8.303729892E-1
2.264228332E0,4.817654788E-1,-3.548659384E-1,-8.207856417E-1
2.266715988E0,4.860265255E-1,-3.591270149E-1,-8.133288026E-1
2.269203645E0,4.902876019E-1,-3.580617309E-1,-8.069372177E-1
2.271691301E0,4.956139028E-1,-3.548659384E-1,-8.026761413E-1
2.274178957E0,5.020055175E-1,-3.495396376E-1,-7.994803786E-1
2.276666613E0,5.073317885E-1,-3.410175145E-1,-7.973498106E-1
2.279154270E0,5.137233734E-1,-3.335606754E-1,-7.962845564E-1
2.281641926E0,5.201149583E-1,-3.250385821E-1,-7.962845564E-1
2.284129582E0,5.254412889E-1,-3.175817132E-1,-7.952193022E-1
2.286617238E0,5.307676196E-1,-3.111901283E-1,-7.930887938E-1
2.289104947E0,5.339633822E-1,-3.037332892E-1,-7.888277173E-1
2.291592655E0,5.360939503E-1,-2.984069884E-1,-7.824361324E-1
2.294080363E0,5.371592045E-1,-2.920154035E-1,-7.749792933E-1
2.296568072E0,5.360939503E-1,-2.866890728E-1,-7.653919458E-1
2.299055780E0,5.350286365E-1,-2.813627720E-1,-7.536740303E-1
2.301543488E0,5.318328738E-1,-2.749711871E-1,-7.398256063E-1
2.304031197E0,5.286371112E-1,-2.685796022E-1,-7.249119282E-1
2.306518905E0,5.243760347E-1,-2.611227632E-1,-7.078676820E-1
2.309006613E0,5.201149583E-1,-2.536658943E-1,-6.897581816E-1
2.311494322E0,5.169191957E-1,-2.440785319E-1,-6.705834866E-1
2.313982030E0,5.126581192E-1,-2.323606312E-1,-6.514087319E-1
2.316469738E0,5.094623566E-1,-2.185122073E-1,-6.322339773E-1
2.318957447E0,5.062665343E-1,-2.004027218E-1,-6.130592227E-1
2.321445155E0,5.030707717E-1,-1.812279820E-1,-5.960150361E-1
2.323932863E0,5.009402037E-1,-1.588574350E-1,-5.768402815E-1
2.326420572E0,4.998749495E-1,-1.354216337E-1,-5.597960353E-1
2.328908280E0,4.977444410E-1,-1.098553166E-1,-5.438171029E-1
2.331395988E0,4.988096952E-1,-8.322372288E-2,-5.278381109E-1
2.333883697E0,5.009402037E-1,-5.659212917E-2,-5.150549412E-1
2.336371405E0,5.041360259E-1,-2.996053919E-2,-5.022718310E-1
2.338859113E0,5.094623566E-1,-5.459476262E-3,-4.916191697E-1
2.341346822E0,5.158539414E-1,1.797632314E-2,-4.841623306E-1
2.343834530E0,5.233107805E-1,3.715106845E-2,-4.788360000E-1
2.346322238E0,5.297023654E-1,5.313002318E-2,-4.767054915E-1
2.348809947E0,5.360939503E-1,6.484792382E-2,-4.777707458E-1
2.351297655E0,5.424855351E-1,7.017423958E-2,-4.809665382E-1
2.353785363E0,5.467465520E-1,7.017423958E-2,-4.884233773E-1
2.356273072E0,5.510076284E-1,6.484792382E-2,-4.969455004E-1
2.358760780E0,5.542033911E-1,5.099949613E-2,-5.054675937E-1
2.361248488E0,5.573992133E-1,3.182475269E-2,-5.150549412E-1
2.363736197E0,5.595297217E-1,7.323687430E-3,-5.225118399E-1
2.366223905E0,5.616602302E-1,-2.250369452E-2,-5.299686790E-1
2.368711613E0,5.637907982E-1,-5.659212917E-2,-5.331644416E-1
2.371199322E0,5.659213066E-1,-9.387636185E-2,-5.342296958E-1
2.373687030E0,5.680518150E-1,-1.354216337E-1,-5.331644416E-1
2.376174738E0,5.680518150E-1,-1.801627129E-1,-5.299686790E-1
2.378662447E0,5.669865608E-1,-2.249037921E-1,-5.214465261E-1
2.381150155E0,5.648560524E-1,-2.717753947E-1,-5.086634159E-1
2.383637863E0,5.637907982E-1,-3.186469972E-1,-4.926844239E-1
2.386125572E0,5.637907982E-1,-3.655185997E-1,-4.735096991E-1
2.388613280E0,5.648560524E-1,-4.102596641E-1,-4.500738978E-1
2.391100988E0,5.691171288E-1,-4.518049359E-1,-4.223770201E-1
2.393588697E0,5.776392221E-1,-4.880239069E-1,-3.925496638E-1
2.396076405E0,5.872265697E-1,-5.157207847E-1,-3.584612012E-1
2.398564061E0,5.989444852E-1,-5.359607935E-1,-3.233075142E-1
2.401051717E0,6.117276549E-1,-5.455481410E-1,-2.849580348E-1
2.403539374E0,6.223802567E-1,-5.434176326E-1,-2.466085255E-1
2.406027030E0,6.330329180E-1,-5.295692086E-1,-2.071937770E-1
2.408514686E0,6.415550113E-1,-5.050681233E-1,-1.677790284E-1
2.411002342E0,6.500771642E-1,-4.688491523E-1,-1.283642650E-1
2.413489999E0,6.585992575E-1,-4.219775498E-1,-8.894951642E-2
2.415977655E0,6.660560966E-1,-3.644533157E-1,-5.060002208E-2
2.418465311E0,6.745781898E-1,-2.994722426E-1,-1.544632297E-2
2.420952967E0,6.852308512E-1,-2.291648388E-1,1.864211448E-2
2.423440624E0,6.980140209E-1,-1.545963883E-1,4.740423337E-2
2.425928280E0,7.129276991E-1,-7.683213800E-2,7.084003091E-2
2.428415936E0,7.278413773E-1,9.321057005E-4,8.894951642E-2
2.430903592E0,7.438203096E-1,7.656582445E-2,1.017326787E-1
2.433391249E0,7.587340474E-1,1.490037590E-1,1.070589945E-1
2.435878905E0,7.736477256E-1,2.171806246E-1,1.081242561E-1
2.438366561E0,7.864308953E-1,2.768353820E-1,1.027979404E-1
2.440854217E0,7.970834970E-1,3.279680312E-1,9.321057051E-2
2.443341874E0,8.045403361E-1,3.695133328E-1,8.149266988E-2
2.445829530E0,8.098666668E-1,3.993407190E-1,6.657897681E-2
2.448317186E0,8.141277432E-1,4.185154438E-1,4.846949503E-2
2.450804842E0,8.162582517E-1,4.249070287E-1,3.036001325E-2
2.453292499E0,8.173235059E-1,4.195807278E-1,1.118526794E-2
2.455780155E0,8.183888197E-1,4.025365114E-1,-7.989477366E-3
2.458267811E0,8.173235059E-1,3.769701719E-1,-2.716422267E-2
2.460755467E0,8.162582517E-1,3.396859467E-1,-4.420844093E-2
2.463243124E0,8.141277432E-1,2.960101366E-1,-5.912213027E-2
2.465730780E0,8.109319210E-1,2.459427416E-1,-7.190529257E-2
2.468218436E0,8.077361584E-1,1.916143000E-1,-8.149266988E-2
2.470706092E0,8.034750819E-1,1.340900660E-1,-8.894951642E-2
2.473193749E0,7.992140651E-1,7.869634777E-2,-9.321057051E-2
2.475681405E0,7.949529886E-1,2.436790615E-2,-9.427583218E-2
2.478169061E0,7.917572260E-1,-2.569948509E-2,-9.427583218E-2
2.480656717E0,7.885614038E-1,-6.831002980E-2,-9.108003974E-2
2.483144374E0,7.864308953E-1,-1.023984700E-1,-8.681898564E-2
2.485632030E0,7.832350731E-1,-1.268995255E-1,-8.042740822E-2
2.488119686E0,7.789740562E-1,-1.439437568E-1,-7.403582335E-2
2.490607342E0,7.725824714E-1,-1.492700726E-1,-6.764423847E-2
2.493094999E0,7.640603185E-1,-1.471395344E-1,-5.805686861E-2
2.495582655E0,7.544729710E-1,-1.375521719E-1,-4.953476042E-2
2.498070311E0,7.427550554E-1,-1.205079481E-1,-3.781685978E-2
2.500557967E0,7.299718857E-1,-9.920267761E-2,-2.609895915E-2
2.503045624E0,7.161234617E-1,-7.257108390E-2,-1.225053146E-2
2.505533280E0,7.001445293E-1,-4.593949392E-2,3.728422802E-3
2.508020936E0,6.820350289E-1,-1.824264042E-2,2.077264152E-2
2.510508592E0,6.628602743E-1,7.323687430E-3,4.207791388E-2
2.512996249E0,6.426202655E-1,2.862896025E-2,6.657897681E-2
2.515483905E0,6.223802567E-1,4.567318037E-2,9.321057051E-2
2.517971561E0,6.021402478E-1,5.632581562E-2,1.241032109E-1
2.520459217E0,5.840308070E-1,5.952160433E-2,1.581916511E-1
2.522946874E0,5.691171288E-1,5.419528857E-2,1.944106072E-1
2.525434530E0,5.552686453E-1,3.715106845E-2,2.316948473E-1
2.527922186E0,5.446160436E-1,1.051947847E-2,2.689790726E-1
2.530409842E0,5.371592045E-1,-2.676474862E-2,3.073285520E-1
2.532897551E0,5.339633822E-1,-7.576687634E-2,3.446127772E-1
2.535385259E0,5.339633822E-1,-1.332911104E-1,3.818970025E-1
2.537872967E0,5.392897129E-1,-1.972069293E-1,4.191812575E-1
2.540360676E0,5.478118062E-1,-2.685796022E-1,4.554001987E-1
2.542848384E0,5.616602302E-1,-3.410175145E-1,4.948149621E-1
2.545336092E0,5.787044764E-1,-4.113249183E-1,5.384907722E-1
2.547823801E0,6.000097394E-1,-4.763059914E-1,5.853623748E-1
2.550311509E0,6.255760789E-1,-5.306344628E-1,6.375603080E-1
2.552799217E0,6.522076726E-1,-5.711144805E-1,6.929540038E-1
2.555286926E0,6.799045205E-1,-5.966808200E-1,7.504782081E-1
2.557774634E0,7.076013684E-1,-6.041376591E-1,8.090677261E-1
2.560262342E0,7.321024537E-1,-5.934849977E-1,8.644614220E-1
2.562750051E0,7.544729710E-1,-5.636576414E-1,9.187898636E-1
2.565237759E0,7.736477256E-1,-5.157207847E-1,9.667267799E-1
2.567725467E0,7.885614038E-1,-4.507396817E-1,1.009337306E0
2.570213176E0,8.002793193E-1,-3.729754388E-1,1.045556307E0
2.572700884E0,8.077361584E-1,-2.834932804E-1,1.075383663E0
2.575188592E0,8.130624890E-1,-1.886848211E-1,1.097754240E0
2.577676301E0,8.162582517E-1,-9.068056941E-2,1.113733172E0
2.580164009E0,8.162582517E-1,5.193160381E-3,1.123320460E0
2.582651717E0,8.151929975E-1,9.574057162E-2,1.126516342E0
2.585139426E0,8.130624890E-1,1.767006069E-1,1.123320460E0
2.587627134E0,8.077361584E-1,2.448774725E-1,1.114798427E0
2.590114842E0,8.024098277E-1,2.970753908E-1,1.102015257E0
2.592602551E0,7.949529886E-1,3.322291076E-1,1.088166833E0
2.595090259E0,7.885614038E-1,3.503385782E-1,1.075383663E0
2.597577967E0,7.811045647E-1,3.524691164E-1,1.066861510E0
2.600065676E0,7.757782340E-1,3.386206925E-1,1.060469985E0
2.602553384E0,7.715172172E-1,3.130543530E-1,1.058339477E0
2.605041092E0,7.693866491E-1,2.779006660E-1,1.060469985E0
2.607528801E0,7.693866491E-1,2.342248410E-1,1.063665748E0
2.610016509E0,7.693866491E-1,1.873532385E-1,1.066861510E0
2.612504217E0,7.693866491E-1,1.394163817E-1,1.071122646E0
2.614991926E0,7.704519033E-1,9.467530251E-2,1.075383663E0
2.617479634E0,7.704519033E-1,5.206476152E-2,1.079644680E0
2.619967342E0,7.704519033E-1,1.691105962E-2,1.084971070E0
2.622455051E0,7.693866491E-1,-1.291632187E-2,1.091362596E0
2.624942759E0,7.683213949E-1,-3.528685868E-2,1.097754240E0
2.627430467E0,7.661908865E-1,-5.020054802E-2,1.106276274E0
2.629918176E0,7.629950643E-1,-6.085318699E-2,1.116928935E0
2.632405884E0,7.576687932E-1,-6.724476814E-2,1.128646851E0
2.634893592E0,7.502118945E-1,-7.044056058E-2,1.141430020E0
2.637381301E0,7.395592928E-1,-7.044056058E-2,1.154213190E0
2.639869009E0,7.278413773E-1,-6.831002980E-2,1.169126868E0
2.642356717E0,7.150582075E-1,-6.404897571E-2,1.182975292E0
2.644844426E0,6.990792751E-1,-5.765739456E-2,1.200019479E0
2.647332082E0,6.820350289E-1,-4.913528636E-2,1.218128920E0
2.649819738E0,6.607297659E-1,-3.954791278E-2,1.239434242E0
2.652307395E0,6.372939944E-1,-2.996053919E-2,1.261804819E0
2.654795051E0,6.127929091E-1,-1.930790395E-2,1.288436413E0
2.657282707E0,5.872265697E-1,-7.590003312E-3,1.316133261E0
2.659770363E0,5.605949759E-1,5.193160381E-3,1.344895363E0
2.662258020E0,5.350286365E-1,1.904158667E-2,1.373657465E0
2.664745676E0,5.073317885E-1,3.715106845E-2,1.401354313E0
2.667233332E0,4.817654788E-1,5.845634267E-2,1.426920652E0
2.669720988E0,4.551338851E-1,8.402267098E-2,1.449291229E0
2.672208645E0,4.285022914E-1,1.138500497E-1,1.466335416E0
2.674696301E0,4.018706977E-1,1.468732208E-1,1.476988077E0
2.677183957E0,3.731085956E-1,1.798963994E-1,1.482314348E0
2.679671613E0,3.443464637E-1,2.118543088E-1,1.481249094E0
2.682159270E0,3.145190775E-1,2.395511568E-1,1.474857569E0
2.684646926E0,2.857569754E-1,2.608564198E-1,1.464204907E0
2.687134582E0,2.591253817E-1,2.747048736E-1,1.451421738E0
2.689622238E0,2.335590571E-1,2.800311744E-1,1.435442805E0
2.692109895E0,2.101232558E-1,2.768353820E-1,1.418398499E0
2.694597551E0,1.909485012E-1,2.672480047E-1,1.401354313E0
2.697085207E0,1.717737615E-1,2.512690723E-1,1.383244872E0
2.699572863E0,1.525990218E-1,2.299637944E-1,1.364070058E0
2.702060520E0,1.334242672E-1,2.065279931E-1,1.347025871E0
2.704548176E0,1.131842583E-1,1.809616536E-1,1.328916430E0
2.707035832E0,9.187898785E-2,1.553953290E-1,1.309741616E0
2.709523488E0,6.950845569E-2,1.319595277E-1,1.290566921E0
2.712011145E0,4.607265070E-2,1.095889956E-1,1.269261599E0
2.714498801E0,2.050632425E-2,8.934898674E-2,1.244760513E0
2.716986457E0,-3.994738683E-3,7.123950869E-2,1.219194293E0
2.719474113E0,-2.956106514E-2,5.526055023E-2,1.190432072E0
2.721961770E0,-5.725792050E-2,4.354264960E-2,1.162735224E0
2.724449426E0,-8.495477587E-2,3.395527974E-2,1.136103630E0
2.726937082E0,-1.115863696E-1,2.969422378E-2,1.110537291E0
2.729424738E0,-1.371526867E-1,2.969422378E-2,1.089232087E0
2.731912395E0,-1.616537571E-1,3.502054140E-2,1.070057273E0
2.734400051E0,-1.829590350E-1,4.567318037E-2,1.054078341E0
2.736887707E0,-2.021337748E-1,5.952160433E-2,1.039164662E0
2.739375363E0,-2.202432603E-1,7.656582445E-2,1.025316238E0
2.741863020E0,-2.351569533E-1,9.467530251E-2,1.011467814E0
2.744350676E0,-2.479401082E-1,1.127847880E-1,9.965541363E-1
2.746838332E0,-2.575274706E-1,1.308942735E-1,9.805752039E-1
2.749325988E0,-2.639190555E-1,1.490037590E-1,9.635309577E-1
2.751813645E0,-2.671148479E-1,1.639174372E-1,9.443562031E-1
2.754301301E0,-2.692453861E-1,1.777658761E-1,9.262467623E-1
2.756788957E0,-2.681801319E-1,1.873532385E-1,9.049414396E-1
2.759276613E0,-2.671148479E-1,1.937448233E-1,8.825709224E-1
2.761764270E0,-2.628538013E-1,1.958753467E-1,8.602004051E-1
2.764251926E0,-2.575274706E-1,1.937448233E-1,8.356993198E-1
2.766739582E0,-2.500706315E-1,1.873532385E-1,8.111982346E-1
2.769227238E0,-2.415485233E-1,1.767006069E-1,7.845667005E-1
2.771714895E0,-2.308958918E-1,1.628521830E-1,7.590003610E-1
2.774202551E0,-2.213085145E-1,1.479384899E-1,7.344992757E-1
2.776690207E0,-2.095906287E-1,1.308942735E-1,7.099981904E-1
2.779177915E0,-1.978727281E-1,1.149153188E-1,6.876276731E-1
2.781665624E0,-1.850895584E-1,1.010668874E-1,6.652571559E-1
2.784153332E0,-1.723063886E-1,8.934898674E-2,6.439518929E-1
2.786641040E0,-1.584579647E-1,8.189214021E-2,6.237118840E-1
2.789128749E0,-1.435442716E-1,7.869634777E-2,6.034718752E-1
2.791616457E0,-1.275653243E-1,8.189214021E-2,5.832318664E-1
2.794104165E0,-1.105211005E-1,8.828372508E-2,5.608612895E-1
2.796591874E0,-9.241162241E-2,1.010668874E-1,5.374255180E-1
2.799079582E0,-7.430213690E-2,1.170458421E-1,5.118591785E-1
2.801567290E0,-5.512739345E-2,1.351553202E-1,4.830970466E-1
2.804054999E0,-3.701791167E-2,1.564605981E-1,4.532696903E-1
2.806542707E0,-1.997369342E-2,1.767006069E-1,4.202465117E-1
2.809030415E0,-2.929474926E-3,1.948100924E-1,3.861580789E-1
2.811518124E0,1.411474310E-2,2.097237855E-1,3.488738537E-1
2.814005832E0,3.009369783E-2,2.203764170E-1,3.115896285E-1
2.816493540E0,4.607265070E-2,2.235722095E-1,2.732401192E-1
2.818981249E0,5.992107838E-2,2.214416862E-1,2.338253707E-1
2.821468957E0,7.270424068E-2,2.097237855E-1,1.954758763E-1
2.823956665E0,8.335687965E-2,1.894837767E-1,1.571263820E-1
2.826444374E0,9.400951862E-2,1.617869139E-1,1.198421568E-1
2.828932082E0,1.046621501E-1,1.276984811E-1,8.468846232E-2
2.831419790E0,1.163800508E-1,8.828372508E-2,5.060002208E-2
2.833907499E0,1.280979514E-1,4.673844203E-2,1.757685095E-2
2.836395207E0,1.408811212E-1,5.193160381E-3,-1.331579592E-2
2.838882915E0,1.525990218E-1,-3.741738573E-2,-4.420844093E-2
2.841370624E0,1.653821766E-1,-7.683213800E-2,-7.510108501E-2
2.843858332E0,1.781653464E-1,-1.141163707E-1,-1.081242561E-1
2.846346040E0,1.898832470E-1,-1.471395344E-1,-1.432779580E-1
2.848833749E0,2.016011477E-1,-1.737711281E-1,-1.794969290E-1
2.851321457E0,2.133190483E-1,-1.950764060E-1,-2.178464085E-1
2.853809165E0,2.239716798E-1,-2.099900991E-1,-2.583264410E-1
2.856296874E0,2.335590571E-1,-2.185122073E-1,-3.009369671E-1
2.858784582E0,2.410158962E-1,-2.185122073E-1,-3.446127772E-1
2.861272290E0,2.484727502E-1,-2.131858915E-1,-3.882885873E-1
2.863759999E0,2.548643351E-1,-2.004027218E-1,-4.319643974E-1
2.866247707E0,2.591253817E-1,-1.833585054E-1,-4.735096991E-1
2.868735415E0,2.623211741E-1,-1.631184965E-1,-5.139896870E-1
2.871223124E0,2.644517124E-1,-1.418132186E-1,-5.512739420E-1
2.873710832E0,2.665822208E-1,-1.194426864E-1,-5.864276290E-1
2.876198540E0,2.676474750E-1,-9.920267761E-2,-6.183855534E-1
2.878686249E0,2.676474750E-1,-8.109319210E-2,-6.471476555E-1
2.881173957E0,2.644517124E-1,-6.724476814E-2,-6.737792492E-1
2.883661665E0,2.601906359E-1,-5.872265995E-2,-6.972150803E-1
2.886149374E0,2.548643351E-1,-5.552686751E-2,-7.174550891E-1
2.888637082E0,2.506032586E-1,-5.765739456E-2,-7.355645299E-1
2.891124790E0,2.463422120E-1,-6.511423737E-2,-7.504782081E-1
2.893612499E0,2.431464195E-1,-7.683213800E-2,-7.643266916E-1
2.896100155E0,2.410158962E-1,-9.281109273E-2,-7.781751156E-1
2.898587811E0,2.399506420E-1,-1.119858399E-1,-7.909582257E-1
2.901075467E0,2.388853729E-1,-1.332911104E-1,-8.058719635E-1
2.903563124E0,2.356895804E-1,-1.567269117E-1,-8.229161501E-1
2.906050780E0,2.335590571E-1,-1.822932363E-1,-8.410256505E-1
2.908538436E0,2.292979956E-1,-2.078595608E-1,-8.612656593E-1
2.911026092E0,2.250369489E-1,-2.334259003E-1,-8.836361766E-1
2.913513749E0,2.207758874E-1,-2.568616867E-1,-9.060067534E-1
2.916001405E0,2.154495716E-1,-2.792322338E-1,-9.294425249E-1
2.918489061E0,2.101232558E-1,-2.994722426E-1,-9.507477880E-1
2.920976717E0,2.037316710E-1,-3.154512048E-1,-9.699225426E-1
2.923464374E0,1.973400861E-1,-3.282343447E-1,-9.880320430E-1
2.925952030E0,1.888179779E-1,-3.356912136E-1,-1.002945662E0
2.928439686E0,1.802958697E-1,-3.367564678E-1,-1.013598323E0
2.930927342E0,1.717737615E-1,-3.324954212E-1,-1.021055222E0
2.933414999E0,1.632516533E-1,-3.186469972E-1,-1.023185730E0
2.935902655E0,1.547295451E-1,-2.973417044E-1,-1.021055222E0
2.938390311E0,1.440769136E-1,-2.685796022E-1,-1.015728831E0
2.940877967E0,1.344895363E-1,-2.334259003E-1,-1.007206798E0
2.943365624E0,1.238368973E-1,-1.940111369E-1,-9.965541363E-1
2.945853280E0,1.121189967E-1,-1.514005959E-1,-9.859014750E-1
2.948340936E0,1.014663652E-1,-1.077247858E-1,-9.763141274E-1
2.950828592E0,9.081372619E-2,-6.617950648E-2,-9.677920341E-1
2.953316249E0,8.122635633E-2,-2.889527567E-2,-9.624657035E-1
2.955803905E0,7.163897902E-2,1.997369342E-3,-9.603351951E-1
2.958291561E0,6.418213248E-2,2.756369673E-2,-9.614004493E-1
2.960779217E0,5.672528967E-2,4.247738793E-2,-9.656614661E-1
2.963266874E0,5.033370852E-2,4.993423447E-2,-9.731183648E-1
2.965754530E0,4.394212365E-2,4.780370742E-2,-9.816404581E-1
2.968242186E0,3.542001545E-2,3.715106845E-2,-9.901625514E-1
2.970729842E0,2.583264373E-2,2.117211558E-2,-9.986846447E-1
2.973217499E0,1.411474310E-2,1.997369342E-3,-1.006141543E0
2.975705155E0,1.331579522E-3,-1.824264042E-2,-1.011467814E0
2.978192811E0,-1.251684781E-2,-3.741738573E-2,-1.015728831E0
2.980680467E0,-2.636527456E-2,-5.339634046E-2,-1.018924713E0
2.983168124E0,-4.127896577E-2,-6.617950648E-2,-1.021055222E0
2.985655780E0,-5.619265884E-2,-7.576687634E-2,-1.023185730E0
2.988143436E0,-7.004108280E-2,-8.002793044E-2,-1.026381493E0
2.990631092E0,-8.495477587E-2,-8.215846121E-2,-1.028512001E0
2.993118749E0,-9.880319983E-2,-8.215846121E-2,-1.030642629E0
2.995606405E0,-1.137168929E-1,-8.002793044E-2,-1.032773137E0
2.998094061E0,-1.296958476E-1,-7.683213800E-2,-1.034903646E0
3.000581717E0,-1.446095407E-1,-7.363634557E-2,-1.035968900E0
3.003069374E0,-1.616537571E-1,-7.044056058E-2,-1.033838391E0
3.005557030E0,-1.786979735E-1,-6.937529147E-2,-1.029577255E0
3.008044686E0,-1.968074590E-1,-6.937529147E-2,-1.021055222E0
3.010532342E0,-2.138516754E-1,-6.937529147E-2,-1.008272052E0
3.013019999E0,-2.287653685E-1,-6.937529147E-2,-9.901625514E-1
3.015507655E0,-2.436790615E-1,-7.044056058E-2,-9.677920341E-1
3.017995311E0,-2.564622164E-1,-7.257108390E-2,-9.411604404E-1
3.020483020E0,-2.681801319E-1,-7.363634557E-2,-9.134635925E-1
3.022970728E0,-2.788327634E-1,-7.576687634E-2,-8.857667446E-1
3.025458436E0,-2.852243483E-1,-7.789740711E-2,-8.602004051E-1
3.027946145E0,-2.884201407E-1,-8.322372288E-2,-8.388951421E-1
3.030433853E0,-2.894853950E-1,-8.855003864E-2,-8.197203875E-1
3.032921561E0,-2.894853950E-1,-9.600688517E-2,-8.048067093E-1
3.035409270E0,-2.905506492E-1,-1.034637317E-1,-7.941540480E-1
3.037896978E0,-2.937464416E-1,-1.098553166E-1,-7.845667005E-1
3.040384686E0,-2.958769798E-1,-1.173121557E-1,-7.792403698E-1
3.042872395E0,-3.001380265E-1,-1.237037405E-1,-7.739140391E-1
3.045360103E0,-3.065296113E-1,-1.300953180E-1,-7.717835307E-1
3.047847811E0,-3.150517344E-1,-1.354216337E-1,-7.717835307E-1
3.050335520E0,-3.235738277E-1,-1.418132186E-1,-7.739140391E-1
3.052823228E0,-3.331612051E-1,-1.471395344E-1,-7.781751156E-1
3.055310936E0,-3.438138366E-1,-1.524658650E-1,-7.845667005E-1
3.057798645E0,-3.544664681E-1,-1.556616426E-1,-7.930887938E-1
3.060286353E0,-3.672496378E-1,-1.588574350E-1,-8.005456328E-1
3.062774061E0,-3.821633458E-1,-1.577921808E-1,-8.069372177E-1
3.065261770E0,-3.970770240E-1,-1.524658650E-1,-8.111982346E-1
3.067749478E0,-4.141212404E-1,-1.428784877E-1,-8.133288026E-1
3.070237186E0,-4.322307110E-1,-1.279647946E-1,-8.133288026E-1
3.072724895E0,-4.503402114E-1,-1.077247858E-1,-8.111982346E-1
3.075212603E0,-4.673844278E-1,-8.428898454E-2,-8.080024719E-1
3.077700311E0,-4.854938984E-1,-5.872265995E-2,-8.037413955E-1
3.080188020E0,-5.025381446E-1,-3.102580272E-2,-7.994803786E-1
3.082675728E0,-5.195823312E-1,-4.394212738E-3,-7.930887938E-1
3.085163436E0,-5.355613232E-1,2.010685205E-2,-7.845667005E-1
3.087651145E0,-5.504750013E-1,4.247738793E-2,-7.728487849E-1
3.090138853E0,-5.632581711E-1,6.165213138E-2,-7.590003610E-1
3.092626561E0,-5.728455186E-1,7.763108611E-2,-7.387603521E-1
3.095114270E0,-5.803023577E-1,8.934898674E-2,-7.153245211E-1
3.097601978E0,-5.866939425E-1,9.574057162E-2,-6.886929274E-1
3.100089686E0,-5.909550190E-1,9.787109494E-2,-6.599308252E-1
3.102577395E0,-5.909550190E-1,9.467530251E-2,-6.311687231E-1
3.105065103E0,-5.888244510E-1,8.721846342E-2,-6.034718752E-1
3.107552811E0,-5.803023577E-1,7.337003201E-2,-5.779055357E-1
3.110040520E0,-5.675191879E-1,5.526055023E-2,-5.555350184E-1
3.112528228E0,-5.526055098E-1,3.502054140E-2,-5.374255180E-1
3.115015936E0,-5.334307551E-1,1.371526904E-2,-5.214465261E-1
3.117503645E0,-5.121254921E-1,-9.720530361E-3,-5.086634159E-1
3.119991353E0,-4.886896908E-1,-3.102580272E-2,-4.969455004E-1
3.122479061E0,-4.663191736E-1,-5.020054802E-2,-4.852275848E-1
3.124966770E0,-4.428833723E-1,-6.617950648E-2,-4.745749533E-1
3.127454478E0,-4.205128253E-1,-8.002793044E-2,-4.639223218E-1
3.129942186E0,-3.981422782E-1,-9.281109273E-2,-4.554001987E-1
3.132429895E0,-3.768370152E-1,-1.034637317E-1,-4.468781054E-1
3.134917603E0,-3.565970063E-1,-1.130511016E-1,-4.415517747E-1
3.137405311E0,-3.384875357E-1,-1.215732098E-1,-4.362254739E-1
3.139892967E0,-3.235738277E-1,-1.300953180E-1,-4.308991432E-1
3.142380624E0,-3.129211962E-1,-1.354216337E-1,-4.266380966E-1
3.144868280E0,-3.043990731E-1,-1.418132186E-1,-4.223770201E-1
3.147355936E0,-3.001380265E-1,-1.471395344E-1,-4.191812575E-1
3.149843592E0,-2.990727723E-1,-1.535311192E-1,-4.170507193E-1
3.152331249E0,-3.012032807E-1,-1.609879732E-1,-4.170507193E-1
3.154818905E0,-3.043990731E-1,-1.684448123E-1,-4.159854650E-1
3.157306561E0,-3.107906580E-1,-1.769669205E-1,-4.149201810E-1
3.159794217E0,-3.171822429E-1,-1.822932363E-1,-4.117243886E-1
3.162281874E0,-3.246390820E-1,-1.833585054E-1,-4.053328037E-1
3.164769530E0,-3.320959508E-1,-1.812279820E-1,-3.936149180E-1
3.167257186E0,-3.416832983E-1,-1.716406047E-1,-3.755054474E-1
3.169744842E0,-3.512706757E-1,-1.556616426E-1,-3.520696461E-1
3.172232499E0,-3.597927988E-1,-1.332911104E-1,-3.254380524E-1
3.174720155E0,-3.683148921E-1,-1.077247858E-1,-2.977411747E-1
3.177207811E0,-3.747064769E-1,-7.896266878E-2,-2.700443268E-1
3.179695467E0,-3.800328076E-1,-5.233107507E-2,-2.455432713E-1
3.182183124E0,-3.842938542E-1,-2.569948509E-2,-2.242379934E-1
3.184670780E0,-3.853591084E-1,-2.263685223E-3,-2.061285079E-1
3.187158436E0,-3.832286000E-1,2.010685205E-2,-1.901495606E-1
3.189646092E0,-3.757717609E-1,3.821633384E-2,-1.763011366E-1
3.192133749E0,-3.640538454E-1,5.419528857E-2,-1.635179669E-1
3.194621405E0,-3.491401672E-1,6.591318548E-2,-1.518000662E-1
3.197109061E0,-3.310306668E-1,7.337003201E-2,-1.422126889E-1
3.199596717E0,-3.107906580E-1,7.230477035E-2,-1.347558498E-1
3.202084374E0,-2.916159332E-1,6.378266215E-2,-1.304948032E-1
3.204572030E0,-2.703106403E-1,4.460791498E-2,-1.315600574E-1
3.207059686E0,-2.500706315E-1,1.478053257E-2,-1.390169114E-1
3.209547342E0,-2.287653685E-1,-2.676474862E-2,-1.507348120E-1
3.212034999E0,-2.074600905E-1,-7.683213800E-2,-1.656484902E-1
3.214522655E0,-1.861548275E-1,-1.343563795E-1,-1.816274524E-1
3.217010311E0,-1.659148186E-1,-1.950764060E-1,-1.986716688E-1
3.219497967E0,-1.456748098E-1,-2.557964325E-1,-2.135853618E-1
3.221985624E0,-1.286305785E-1,-3.122554123E-1,-2.242379934E-1
3.224473280E0,-1.147821546E-1,-3.623228073E-1,-2.316948473E-1
3.226960936E0,-1.041295230E-1,-4.049333334E-1,-2.338253707E-1
3.229448592E0,-9.880319983E-2,-4.379565120E-1,-2.338253707E-1
3.231936249E0,-9.773793817E-2,-4.624575675E-1,-2.306295782E-1
3.234423905E0,-9.986846894E-2,-4.763059914E-1,-2.263685167E-1
3.236911561E0,-1.051947847E-1,-4.816323221E-1,-2.210422009E-1
3.239399217E0,-1.147821546E-1,-4.773712754E-1,-2.167811543E-1
3.241886874E0,-1.275653243E-1,-4.635228515E-1,-2.093243003E-1
3.244374530E0,-1.424790174E-1,-4.379565120E-1,-2.018674612E-1
3.246862186E0,-1.595232338E-1,-4.028028250E-1,-1.933453530E-1
3.249349842E0,-1.765674502E-1,-3.569964767E-1,-1.816274524E-1
3.251837499E0,-1.946769357E-1,-3.016027808E-1,-1.677790284E-1
3.254325155E0,-2.127864063E-1,-2.398174703E-1,-1.507348120E-1
3.256812811E0,-2.308958918E-1,-1.737711281E-1,-1.315600574E-1
3.259300467E0,-2.479401082E-1,-1.034637317E-1,-1.113200486E-1
3.261788176E0,-2.639190555E-1,-3.528685868E-2,-9.108003974E-2
3.264275884E0,-2.788327634E-1,2.969422378E-2,-6.870950758E-2
3.266763592E0,-2.884201407E-1,9.041424841E-2,-5.060002208E-2
3.269251301E0,-2.937464416E-1,1.436774284E-1,-3.355580568E-2
3.271739009E0,-2.958769798E-1,1.894837767E-1,-1.864211448E-2
3.274226717E0,-2.916159332E-1,2.257027328E-1,-6.924213842E-3
3.276714426E0,-2.862896025E-1,2.533995807E-1,2.663159044E-3
3.279202134E0,-2.777675092E-1,2.715090811E-1,7.989477366E-3
3.281689842E0,-2.681801319E-1,2.779006660E-1,1.012000442E-2
3.284177551E0,-2.585927546E-1,2.736395895E-1,7.989477366E-3
3.286665259E0,-2.490053773E-1,2.597911656E-1,5.326318205E-4
3.289152967E0,-2.383527458E-1,2.352901101E-1,-1.118526794E-2
3.291640676E0,-2.277000993E-1,2.033322006E-1,-2.716422267E-2
3.294128384E0,-2.170474678E-1,1.649827063E-1,-4.633896798E-2
3.296616092E0,-2.042642981E-1,1.223721579E-1,-6.657897681E-2
3.299103801E0,-1.882853508E-1,8.082687855E-2,-8.681898564E-2
3.301591509E0,-1.712411344E-1,3.928159550E-2,-1.070589945E-1
3.304079217E0,-1.541969180E-1,9.321057005E-4,-1.251684725E-1
3.306566926E0,-1.371526867E-1,-3.209106624E-2,-1.422126889E-1
3.309054634E0,-1.211737394E-1,-6.085318699E-2,-1.592569202E-1
3.311542342E0,-1.073253155E-1,-8.322372288E-2,-1.773663908E-1
3.314030051E0,-9.667267650E-2,-1.002679393E-1,-1.986716688E-1
3.316517759E0,-8.921582997E-2,-1.130511016E-1,-2.221074700E-1
3.319005467E0,-8.495477587E-2,-1.205079481E-1,-2.498043180E-1
3.321493176E0,-8.388951421E-2,-1.226384789E-1,-2.785664499E-1
3.323980884E0,-8.388951421E-2,-1.205079481E-1,-3.083938360E-1
3.326468592E0,-8.388951421E-2,-1.141163707E-1,-3.360906839E-1
3.328956301E0,-8.602003753E-2,-1.045289934E-1,-3.584612012E-1
3.331444009E0,-8.921582997E-2,-9.387636185E-2,-3.733749092E-1
3.333931717E0,-9.454214573E-2,-8.322372288E-2,-3.818970025E-1
3.336419426E0,-1.019989923E-1,-7.789740711E-2,-3.829622865E-1
3.338907134E0,-1.105211005E-1,-7.896266878E-2,-3.787012100E-1
3.341394842E0,-1.211737394E-1,-8.961530030E-2,-3.691138625E-1
3.343882551E0,-1.339569092E-1,-1.109205782E-1,-3.573959470E-1
3.346370259E0,-1.467400640E-1,-1.471395344E-1,-3.435475230E-1
3.348857967E0,-1.584579647E-1,-1.929458827E-1,-3.275685608E-1
3.351345676E0,-1.691105962E-1,-2.483395934E-1,-3.083938360E-1
3.353833384E0,-1.786979735E-1,-3.090596199E-1,-2.849580348E-1
3.356321092E0,-1.861548275E-1,-3.697796464E-1,-2.572611570E-1
3.358808801E0,-1.904158741E-1,-4.241080880E-1,-2.221074700E-1
3.361296509E0,-1.946769357E-1,-4.677838981E-1,-1.816274524E-1
3.363784217E0,-1.968074590E-1,-4.986765385E-1,-1.368863732E-1
3.366271926E0,-1.989379823E-1,-5.125249624E-1,-9.001477808E-2
3.368759634E0,-2.000032514E-1,-5.082638860E-1,-4.420844093E-2
3.371247342E0,-2.042642981E-1,-4.848281145E-1,-5.326318205E-4
3.373735051E0,-2.074600905E-1,-4.464786351E-1,3.675159439E-2
3.376222759E0,-2.127864063E-1,-3.921501637E-1,6.870950758E-2
3.378710467E0,-2.191779912E-1,-3.239732981E-1,9.427583218E-2
3.381198176E0,-2.266348451E-1,-2.462090552E-1,1.123853177E-1
3.383685884E0,-2.319611609E-1,-1.599227041E-1,1.241032109E-1
3.386173540E0,-2.362222075E-1,-7.044056058E-2,1.294295341E-1
3.388661197E0,-2.372874767E-1,1.904158667E-2,1.315600574E-1
3.391148853E0,-2.362222075E-1,1.042626798E-1,1.304948032E-1
3.393636509E0,-2.319611609E-1,1.820269227E-1,1.272990108E-1
3.396124165E0,-2.266348451E-1,2.480732650E-1,1.230379492E-1
3.398611822E0,-2.202432603E-1,2.992059290E-1,1.177116334E-1
3.401099478E0,-2.138516754E-1,3.332943618E-1,1.123853177E-1
3.403587134E0,-2.063948363E-1,3.514038324E-1,1.059937328E-1
3.406074790E0,-1.989379823E-1,3.524691164E-1,9.960214794E-2
3.408562447E0,-1.893506050E-1,3.375554085E-1,9.321057051E-2
3.411050103E0,-1.797632426E-1,3.098585606E-1,8.788424730E-2
3.413537759E0,-1.691105962E-1,2.715090811E-1,8.468846232E-2
3.416025415E0,-1.563274413E-1,2.278332561E-1,8.362319320E-2
3.418513072E0,-1.424790174E-1,1.820269227E-1,8.575372398E-2
3.421000728E0,-1.275653243E-1,1.362205893E-1,9.001477808E-2
3.423488384E0,-1.115863696E-1,9.467530251E-2,9.534109384E-2
3.425976040E0,-9.560741484E-2,5.952160433E-2,1.017326787E-1
3.428463697E0,-7.749792933E-2,2.862896025E-2,1.070589945E-1
3.430951353E0,-6.151897460E-2,5.193160381E-3,1.102547869E-1
3.433439009E0,-4.554001987E-2,-1.398158539E-2,1.102547869E-1
3.435926665E0,-3.275685757E-2,-2.889527567E-2,1.059937328E-1
3.438414322E0,-2.316948399E-2,-4.167843983E-2,9.427583218E-2
3.440901978E0,-1.571263932E-2,-5.233107507E-2,7.936213911E-2
3.443389634E0,-1.358211134E-2,-6.298371404E-2,6.018739566E-2
3.445877290E0,-1.464737486E-2,-7.470161468E-2,3.888212144E-2
3.448364947E0,-1.997369342E-2,-8.641951531E-2,1.544632297E-2
3.450852603E0,-2.849580161E-2,-9.920267761E-2,-6.924213842E-3
3.453340259E0,-4.127896577E-2,-1.130511016E-1,-2.822948620E-2
3.455827915E0,-5.619265884E-2,-1.290300637E-1,-4.527370632E-2
3.458315572E0,-7.536740601E-2,-1.450090110E-1,-5.699160323E-2
3.460803228E0,-9.454214573E-2,-1.599227041E-1,-6.657897681E-2
3.463290884E0,-1.158474237E-1,-1.759016514E-1,-7.190529257E-2
3.465778540E0,-1.371526867E-1,-1.908153445E-1,-7.190529257E-2
3.468266197E0,-1.595232338E-1,-2.014679909E-1,-6.977476925E-2
3.470753853E0,-1.818937659E-1,-2.078595608E-1,-6.551371515E-2
3.473241509E0,-2.031990439E-1,-2.089248300E-1,-5.805686861E-2
3.475729165E0,-2.234390527E-1,-2.035985142E-1,-4.953476042E-2
3.478216822E0,-2.426137924E-1,-1.897500902E-1,-3.781685978E-2
3.480704478E0,-2.575274706E-1,-1.695100814E-1,-2.503369562E-2
3.483192134E0,-2.703106403E-1,-1.407479644E-1,-1.012000442E-2
3.485679790E0,-2.798980176E-1,-1.077247858E-1,3.728422802E-3
3.488167447E0,-2.884201407E-1,-7.150582224E-2,1.864211448E-2
3.490655103E0,-2.937464416E-1,-3.422159329E-2,3.249054030E-2
3.493142759E0,-2.980075181E-1,-1.331579551E-4,4.420844093E-2
3.495630415E0,-3.012032807E-1,2.862896025E-2,5.273054913E-2
3.498118072E0,-3.022685647E-1,4.886896908E-2,5.912213027E-2
3.500605728E0,-3.012032807E-1,6.165213138E-2,6.338318437E-2
3.503093384E0,-3.001380265E-1,6.484792382E-2,6.870950758E-2
3.505581092E0,-2.969422340E-1,6.058686972E-2,7.297056168E-2
3.508068801E0,-2.926811874E-1,4.993423447E-2,8.042740822E-2
3.510556509E0,-2.873548567E-1,3.608580679E-2,9.214530140E-2
3.513044217E0,-2.809632719E-1,2.117211558E-2,1.091895252E-1
3.515531926E0,-2.735064328E-1,8.388951421E-3,1.304948032E-1
3.518019634E0,-2.671148479E-1,-1.198421582E-3,1.560611278E-1
3.520507342E0,-2.596580088E-1,-4.394212738E-3,1.826927215E-1
3.522995051E0,-2.543317080E-1,-2.263685223E-3,2.114548385E-1
3.525482759E0,-2.511359155E-1,7.323687430E-3,2.359558940E-1
3.527970467E0,-2.490053773E-1,2.117211558E-2,2.561959028E-1
3.530458176E0,-2.511359155E-1,4.034686089E-2,2.711096108E-1
3.532945884E0,-2.543317080E-1,6.484792382E-2,2.796317041E-1
3.535433592E0,-2.596580088E-1,9.254477918E-2,2.806969583E-1
3.537921301E0,-2.660495937E-1,1.223721579E-1,2.743053734E-1
3.540409009E0,-2.724411786E-1,1.532648057E-1,2.625874877E-1
3.542896717E0,-2.777675092E-1,1.820269227E-1,2.455432713E-1
3.545384426E0,-2.830938101E-1,2.107890397E-1,2.263685167E-1
3.547872134E0,-2.873548567E-1,2.342248410E-1,2.050632536E-1
3.550359842E0,-2.916159332E-1,2.533995807E-1,1.826927215E-1
3.552847551E0,-2.969422340E-1,2.651174963E-1,1.613874435E-1
3.555335259E0,-3.022685647E-1,2.683132887E-1,1.422126889E-1
3.557822967E0,-3.086601496E-1,2.608564198E-1,1.219726875E-1
3.560310676E0,-3.150517344E-1,2.427469492E-1,1.038632020E-1
3.562798384E0,-3.214432895E-1,2.139848322E-1,8.681898564E-2
3.565286092E0,-3.267696202E-1,1.756353378E-1,7.190529257E-2
3.567773801E0,-3.299654126E-1,1.287637353E-1,6.018739566E-2
3.570261509E0,-3.310306668E-1,7.763108611E-2,5.166528746E-2
3.572749217E0,-3.278348744E-1,2.330264263E-2,4.740423337E-2
3.575236926E0,-3.225085735E-1,-2.889527567E-2,4.740423337E-2
3.577724634E0,-3.161169887E-1,-7.789740711E-2,5.273054913E-2
3.580212342E0,-3.065296113E-1,-1.194426864E-1,6.125266105E-2
3.582700051E0,-2.980075181E-1,-1.535311192E-1,7.510108501E-2
3.585187759E0,-2.884201407E-1,-1.759016514E-1,9.214530140E-2
3.587675467E0,-2.788327634E-1,-1.876195520E-1,1.113200486E-1
3.590163176E0,-2.713759243E-1,-1.876195520E-1,1.336905807E-1
3.592650884E0,-2.649843395E-1,-1.748363972E-1,1.560611278E-1
3.595138592E0,-2.585927546E-1,-1.482048035E-1,1.794969290E-1
3.597626301E0,-2.532664239E-1,-1.130511016E-1,2.008021921E-1
3.600114009E0,-2.500706315E-1,-6.937529147E-2,2.189116776E-1
3.602601717E0,-2.458095849E-1,-2.037316747E-2,2.348906398E-1
3.605089426E0,-2.436790615E-1,3.182475269E-2,2.476737946E-1
3.607577134E0,-2.426137924E-1,8.508793265E-2,2.561959028E-1
3.610064842E0,-2.426137924E-1,1.351553202E-1,2.593916953E-1
3.612552551E0,-2.447443157E-1,1.820269227E-1,2.593916953E-1
3.615040259E0,-2.500706315E-1,2.214416862E-1,2.561959028E-1
3.617527967E0,-2.575274706E-1,2.544648647E-1,2.498043180E-1
3.620015676E0,-2.671148479E-1,2.789659202E-1,2.412822098E-1
3.622503384E0,-2.777675092E-1,2.938795984E-1,2.316948473E-1
3.624991092E0,-2.862896025E-1,3.002711833E-1,2.231727391E-1
3.627478801E0,-2.916159332E-1,2.981406748E-1,2.157158852E-1
3.629966509E0,-2.937464416E-1,2.874880135E-1,2.082590461E-1
3.632454165E0,-2.937464416E-1,2.704437971E-1,2.039979845E-1
3.634941822E0,-2.916159332E-1,2.448774725E-1,1.997369379E-1
3.637429478E0,-2.905506492E-1,2.139848322E-1,1.954758763E-1
3.639917134E0,-2.894853950E-1,1.777658761E-1,1.901495606E-1
3.642404790E0,-2.926811874E-1,1.383511126E-1,1.848232448E-1
3.644892447E0,-2.969422340E-1,9.467530251E-2,1.784316599E-1
3.647380103E0,-3.033338189E-1,4.993423447E-2,1.720400751E-1
3.649867759E0,-3.086601496E-1,5.193160381E-3,1.635179669E-1
3.652355415E0,-3.118559420E-1,-3.848264739E-2,1.581916511E-1
3.654843072E0,-3.107906580E-1,-7.683213800E-2,1.539305896E-1
3.657330728E0,-3.086601496E-1,-1.087900475E-1,1.528653353E-1
3.659818384E0,-3.033338189E-1,-1.322258562E-1,1.549958587E-1
3.662306040E0,-2.958769798E-1,-1.439437568E-1,1.613874435E-1
3.664793697E0,-2.873548567E-1,-1.450090110E-1,1.699095517E-1
3.667281353E0,-2.788327634E-1,-1.332911104E-1,1.794969290E-1
3.669769009E0,-2.713759243E-1,-1.098553166E-1,1.890842915E-1
3.672256665E0,-2.649843395E-1,-7.363634557E-2,1.997369379E-1
3.674744322E0,-2.617885470E-1,-2.676474862E-2,2.093243003E-1
3.677231978E0,-2.607232630E-1,2.969422378E-2,2.167811543E-1
3.679719634E0,-2.617885470E-1,9.147951752E-2,2.221074700E-1
3.682207290E0,-2.639190555E-1,1.585911214E-1,2.253032625E-1
3.684694947E0,-2.671148479E-1,2.257027328E-1,2.274337858E-1
3.687182603E0,-2.724411786E-1,2.917490900E-1,2.242379934E-1
3.689670259E0,-2.798980176E-1,3.524691164E-1,2.178464085E-1
3.692157915E0,-2.894853950E-1,4.046670198E-1,2.082590461E-1
3.694645572E0,-3.022685647E-1,4.472775757E-1,1.976063997E-1
3.697133228E0,-3.150517344E-1,4.781702161E-1,1.848232448E-1
3.699620884E0,-3.299654126E-1,4.973449707E-1,1.731053442E-1
3.702108540E0,-3.448790908E-1,5.048018098E-1,1.613874435E-1
3.704596197E0,-3.576622605E-1,5.016059875E-1,1.528653353E-1
3.707083853E0,-3.661843836E-1,4.866923392E-1,1.486042738E-1
3.709571509E0,-3.704454303E-1,4.632565379E-1,1.464737505E-1
3.712059165E0,-3.704454303E-1,4.291680753E-1,1.486042738E-1
3.714546822E0,-3.683148921E-1,3.865575492E-1,1.528653353E-1
3.717034478E0,-3.629885912E-1,3.343596160E-1,1.581916511E-1
3.719522134E0,-3.597927988E-1,2.736395895E-1,1.645832360E-1
3.722009790E0,-3.565970063E-1,2.043974549E-1,1.709748209E-1
3.724497447E0,-3.544664681E-1,1.308942735E-1,1.763011366E-1
3.726985103E0,-3.523359597E-1,5.313002318E-2,1.816274524E-1
3.729472759E0,-3.480748832E-1,-2.569948509E-2,1.880190372E-1
3.731960415E0,-3.427485824E-1,-1.002679393E-1,1.944106072E-1
3.734448072E0,-3.352917433E-1,-1.684448123E-1,2.029327303E-1
3.736935728E0,-3.246390820E-1,-2.259690464E-1,2.146506310E-1
3.739423384E0,-3.118559420E-1,-2.717753947E-1,2.295643091E-1
3.741911040E0,-2.990727723E-1,-3.016027808E-1,2.455432713E-1
3.744398697E0,-2.820285559E-1,-3.154512048E-1,2.636527419E-1
3.746886405E0,-2.660495937E-1,-3.133206666E-1,2.817622423E-1
3.749374113E0,-2.511359155E-1,-2.941459119E-1,2.998717129E-1
3.751861822E0,-2.372874767E-1,-2.589922249E-1,3.147853911E-1
3.754349530E0,-2.255695760E-1,-2.099900991E-1,3.275685608E-1
3.756837238E0,-2.170474678E-1,-1.503353268E-1,3.371559381E-1
3.759324947E0,-2.085253596E-1,-8.428898454E-2,3.435475230E-1
3.761812655E0,-2.021337748E-1,-1.398158539E-2,3.456780612E-1
3.764300363E0,-1.989379823E-1,5.526055023E-2,3.446127772E-1
3.766788072E0,-1.968074590E-1,1.202416345E-1,3.424822688E-1
3.769275780E0,-1.989379823E-1,1.767006069E-1,3.371559381E-1
3.771763488E0,-2.042642981E-1,2.214416862E-1,3.307643533E-1
3.774251197E0,-2.127864063E-1,2.544648647E-1,3.233075142E-1
3.776738905E0,-2.234390527E-1,2.757701278E-1,3.179811835E-1
3.779226613E0,-2.362222075E-1,2.832269669E-1,3.137201369E-1
3.781714322E0,-2.522011697E-1,2.779006660E-1,3.105243444E-1
3.784202030E0,-2.671148479E-1,2.629869580E-1,3.094590902E-1
3.786689738E0,-2.809632719E-1,2.406164259E-1,3.105243444E-1
3.789177447E0,-2.937464416E-1,2.097237855E-1,3.126548827E-1
3.791665155E0,-3.033338189E-1,1.756353378E-1,3.169159293E-1
3.794152863E0,-3.107906580E-1,1.394163817E-1,3.211769760E-1
3.796640572E0,-3.171822429E-1,1.010668874E-1,3.254380524E-1
3.799128280E0,-3.235738277E-1,6.271740049E-2,3.307643533E-1
3.801615988E0,-3.289001584E-1,2.756369673E-2,3.339601457E-1
3.804103697E0,-3.342264593E-1,-4.394212738E-3,3.350254297E-1
3.806591405E0,-3.416832983E-1,-3.315633163E-2,3.360906839E-1
3.809079113E0,-3.491401672E-1,-5.552686751E-2,3.350254297E-1
3.811566822E0,-3.565970063E-1,-7.150582224E-2,3.328948915E-1
3.814054530E0,-3.640538454E-1,-8.109319210E-2,3.307643533E-1
3.816542238E0,-3.704454303E-1,-8.322372288E-2,3.296990991E-1
3.819029947E0,-3.779022694E-1,-7.683213800E-2,3.307643533E-1
3.821517655E0,-3.821633458E-1,-6.404897571E-2,3.318296373E-1
3.824005363E0,-3.842938542E-1,-4.380896688E-2,3.350254297E-1
3.826493072E0,-3.842938542E-1,-1.717737690E-2,3.403517306E-1
3.828980780E0,-3.810980618E-1,1.265000552E-2,3.467433155E-1
3.831468488E0,-3.747064769E-1,4.460791498E-2,3.531349003E-1
3.833956197E0,-3.672496378E-1,8.082687855E-2,3.573959470E-1
3.836443905E0,-3.587275445E-1,1.159805804E-1,3.573959470E-1
3.838931613E0,-3.502054214E-1,1.500690132E-1,3.552654386E-1
3.841419322E0,-3.416832983E-1,1.841574460E-1,3.478085697E-1
3.843907030E0,-3.352917433E-1,2.129195631E-1,3.360906839E-1
3.846394738E0,-3.320959508E-1,2.374206334E-1,3.211769760E-1
3.848882447E0,-3.289001584E-1,2.555301189E-1,3.030675054E-1
3.851370155E0,-3.278348744E-1,2.672480047E-1,2.828274965E-1
3.853857863E0,-3.267696202E-1,2.715090811E-1,2.615222335E-1
3.856345572E0,-3.257043660E-1,2.693785429E-1,2.402169555E-1
3.858833280E0,-3.246390820E-1,2.619217038E-1,2.210422009E-1
3.861320988E0,-3.246390820E-1,2.502037883E-1,2.039979845E-1
3.863808697E0,-3.257043660E-1,2.331595868E-1,1.901495606E-1
3.866296405E0,-3.289001584E-1,2.150501013E-1,1.794969290E-1
3.868784113E0,-3.320959508E-1,1.958753467E-1,1.741705984E-1
3.871271822E0,-3.363569975E-1,1.756353378E-1,1.709748209E-1
3.873759530E0,-3.406180441E-1,1.575258672E-1,1.709748209E-1
3.876247238E0,-3.470096290E-1,1.394163817E-1,1.741705984E-1
3.878734895E0,-3.523359597E-1,1.223721579E-1,1.794969290E-1
3.881222551E0,-3.576622605E-1,1.063932031E-1,1.848232448E-1
3.883710207E0,-3.619233072E-1,9.254477918E-2,1.912148297E-1
3.886197863E0,-3.640538454E-1,7.869634777E-2,1.976063997E-1
3.888685520E0,-3.651190996E-1,6.484792382E-2,2.039979845E-1
3.891173176E0,-3.640538454E-1,5.313002318E-2,2.114548385E-1
3.893660832E0,-3.608580530E-1,4.247738793E-2,2.178464085E-1
3.896148488E0,-3.565970063E-1,3.289001435E-2,2.253032625E-1
3.898636145E0,-3.512706757E-1,2.649843320E-2,2.338253707E-1
3.901123801E0,-3.470096290E-1,2.330264263E-2,2.412822098E-1
3.903611457E0,-3.416832983E-1,2.223737910E-2,2.487390637E-1
3.906099113E0,-3.384875357E-1,2.543316968E-2,2.572611570E-1
3.908586770E0,-3.363569975E-1,3.075948730E-2,2.647180259E-1
3.911074426E0,-3.342264593E-1,3.715106845E-2,2.711096108E-1
3.913562082E0,-3.320959508E-1,4.673844203E-2,2.785664499E-1
3.916049738E0,-3.299654126E-1,5.739107728E-2,2.838927507E-1
3.918537395E0,-3.246390820E-1,7.017423958E-2,2.902843356E-1
3.921025051E0,-3.193127811E-1,8.402267098E-2,2.966759205E-1
3.923512707E0,-3.139864504E-1,9.893636405E-2,3.009369671E-1
3.926000363E0,-3.065296113E-1,1.149153188E-1,3.051980436E-1
3.928488020E0,-2.980075181E-1,1.319595277E-1,3.105243444E-1
3.930975676E0,-2.894853950E-1,1.468732208E-1,3.147853911E-1
3.933463332E0,-2.798980176E-1,1.607216448E-1,3.179811835E-1
3.935950988E0,-2.692453861E-1,1.713742912E-1,3.222422600E-1
3.938438645E0,-2.585927546E-1,1.788311303E-1,3.254380524E-1
3.940926301E0,-2.479401082E-1,1.830921918E-1,3.265033066E-1
3.943413957E0,-2.383527458E-1,1.830921918E-1,3.265033066E-1
3.945901613E0,-2.298306376E-1,1.777658761E-1,3.233075142E-1
3.948389270E0,-2.245043069E-1,1.681784987E-1,3.179811835E-1
3.950876926E0,-2.202432603E-1,1.543300748E-1,3.115896285E-1
3.953364582E0,-2.181127369E-1,1.372858584E-1,3.030675054E-1
3.955852238E0,-2.191779912E-1,1.170458421E-1,2.934801280E-1
3.958339895E0,-2.213085145E-1,9.467530251E-2,2.828274965E-1
3.960827551E0,-2.255695760E-1,7.123950869E-2,2.743053734E-1
3.963315207E0,-2.298306376E-1,4.673844203E-2,2.668485343E-1
3.965802863E0,-2.319611609E-1,2.436790615E-2,2.604569495E-1
3.968290520E0,-2.340916842E-1,5.193160381E-3,2.572611570E-1
3.970778176E0,-2.351569533E-1,-1.185105834E-2,2.583264410E-1
3.973265832E0,-2.351569533E-1,-2.569948509E-2,2.604569495E-1
3.975753488E0,-2.330264151E-1,-3.635212034E-2,2.636527419E-1
3.978241145E0,-2.319611609E-1,-4.274370521E-2,2.689790726E-1
3.980728801E0,-2.298306376E-1,-4.700475931E-2,2.743053734E-1
3.983216457E0,-2.287653685E-1,-4.807002097E-2,2.785664499E-1
3.985704113E0,-2.298306376E-1,-4.593949392E-2,2.817622423E-1
3.988191770E0,-2.308958918E-1,-4.061317816E-2,2.828274965E-1
3.990679426E0,-2.330264151E-1,-3.209106624E-2,2.817622423E-1
3.993167134E0,-2.340916842E-1,-2.037316747E-2,2.785664499E-1
3.995654842E0,-2.351569533E-1,-3.328948980E-3,2.732401192E-1
3.998142551E0,-2.340916842E-1,1.584579609E-2,2.679138184E-1
4.000630259E0,-2.308958918E-1,3.502054140E-2,2.604569495E-1
4.003117967E0,-2.277000993E-1,5.739107728E-2,2.540653646E-1
4.005605676E0,-2.223737836E-1,7.976161689E-2,2.466085255E-1
4.008093384E0,-2.170474678E-1,1.010668874E-1,2.402169555E-1
4.010581092E0,-2.106558830E-1,1.191763729E-1,2.327601016E-1
4.013068801E0,-2.053295672E-1,1.362205893E-1,2.253032625E-1
4.015556509E0,-1.989379823E-1,1.479384899E-1,2.167811543E-1
4.018044217E0,-1.925463974E-1,1.564605981E-1,2.093243003E-1
4.020531926E0,-1.861548275E-1,1.617869139E-1,2.018674612E-1
4.023019634E0,-1.808284968E-1,1.628521830E-1,1.933453530E-1
4.025507342E0,-1.755021811E-1,1.617869139E-1,1.858884990E-1
4.027995051E0,-1.712411344E-1,1.553953290E-1,1.784316599E-1
4.030482759E0,-1.691105962E-1,1.468732208E-1,1.699095517E-1
4.032970467E0,-1.680453420E-1,1.362205893E-1,1.635179669E-1
4.035458176E0,-1.691105962E-1,1.234374270E-1,1.560611278E-1
4.037945884E0,-1.701758653E-1,1.095889956E-1,1.496695429E-1
4.040433592E0,-1.723063886E-1,9.574057162E-2,1.443432271E-1
4.042921301E0,-1.733716577E-1,8.082687855E-2,1.400821656E-1
4.045409009E0,-1.733716577E-1,6.910897791E-2,1.368863732E-1
4.047896717E0,-1.733716577E-1,5.739107728E-2,1.336905807E-1
4.050384426E0,-1.723063886E-1,4.886896908E-2,1.315600574E-1
4.052872134E0,-1.712411344E-1,4.460791498E-2,1.283642650E-1
4.055359842E0,-1.701758653E-1,4.247738793E-2,1.251684725E-1
4.057847551E0,-1.691105962E-1,4.354264960E-2,1.230379492E-1
4.060335259E0,-1.680453420E-1,4.780370742E-2,1.187768951E-1
4.062822967E0,-1.680453420E-1,5.526055023E-2,1.145158410E-1
4.065310676E0,-1.659148186E-1,6.271740049E-2,1.091895252E-1
4.067798384E0,-1.637842804E-1,7.123950869E-2,1.038632020E-1
4.070286092E0,-1.616537571E-1,7.976161689E-2,9.960214794E-2
4.072773801E0,-1.573926955E-1,8.721846342E-2,9.640636295E-2
4.075261509E0,-1.531316489E-1,9.361004084E-2,9.321057051E-2
4.077749217E0,-1.467400640E-1,9.787109494E-2,9.108003974E-2
4.080236926E0,-1.414137483E-1,9.787109494E-2,8.894951642E-2
4.082724634E0,-1.350221634E-1,9.787109494E-2,8.788424730E-2
4.085212342E0,-1.286305785E-1,9.361004084E-2,8.575372398E-2
4.087700051E0,-1.211737394E-1,8.828372508E-2,8.468846232E-2
4.090187759E0,-1.158474237E-1,8.082687855E-2,8.362319320E-2
4.092675467E0,-1.105211005E-1,7.230477035E-2,8.149266988E-2
4.095163176E0,-1.051947847E-1,6.271740049E-2,7.829687744E-2
4.097650884E0,-1.009337306E-1,4.993423447E-2,7.616634667E-2
4.100138592E0,-9.667267650E-2,3.715106845E-2,7.190529257E-2
4.102626301E0,-9.134636074E-2,2.330264263E-2,6.657897681E-2
4.105114009E0,-8.815056831E-2,9.454214945E-3,6.125266105E-2
4.107601717E0,-8.602003753E-2,-6.524739787E-3,5.592634156E-2
4.110089426E0,-8.388951421E-2,-2.143843099E-2,4.953476042E-2
4.112577134E0,-8.388951421E-2,-3.635212034E-2,4.633896798E-2
4.115064842E0,-8.602003753E-2,-4.913528636E-2,4.207791388E-2
4.117552551E0,-8.921582997E-2,-6.191844866E-2,4.101264849E-2
4.120040259E0,-9.241162241E-2,-7.257108390E-2,3.888212144E-2
4.122527967E0,-9.667267650E-2,-8.322372288E-2,3.994738683E-2
4.125015676E0,-9.986846894E-2,-9.068056941E-2,4.314317927E-2
4.127503332E0,-1.030642539E-1,-9.813741595E-2,4.846949503E-2
4.129990988E0,-1.051947847E-1,-1.045289934E-1,5.379581451E-2
4.132478645E0,-1.073253155E-1,-1.087900475E-1,6.018739566E-2
4.134966301E0,-1.073253155E-1,-1.119858399E-1,6.551371515E-2
4.137453957E0,-1.083905771E-1,-1.130511016E-1,7.190529257E-2
4.139941613E0,-1.083905771E-1,-1.130511016E-1,7.723161578E-2
4.142429270E0,-1.094558388E-1,-1.119858399E-1,8.149266988E-2
4.144916926E0,-1.094558388E-1,-1.109205782E-1,8.362319320E-2
4.147404582E0,-1.094558388E-1,-1.087900475E-1,8.362319320E-2
4.149892238E0,-1.105211005E-1,-1.066595241E-1,8.149266988E-2
4.152379895E0,-1.083905771E-1,-1.055942550E-1,7.936213911E-2
4.154867551E0,-1.073253155E-1,-1.045289934E-1,7.510108501E-2
4.157355207E0,-1.041295230E-1,-1.023984700E-1,6.977476925E-2
4.159842863E0,-1.009337306E-1,-1.023984700E-1,6.444845349E-2
4.162330520E0,-9.667267650E-2,-1.013332009E-1,5.912213027E-2
4.164818176E0,-9.347688407E-2,-1.013332009E-1,5.379581451E-2
4.167305832E0,-8.921582997E-2,-1.013332009E-1,4.846949503E-2
4.169793488E0,-8.602003753E-2,-1.013332009E-1,4.420844093E-2
4.172281145E0,-8.282424510E-2,-1.013332009E-1,4.101264849E-2
4.174768801E0,-8.069372177E-2,-1.013332009E-1,3.888212144E-2
4.177256457E0,-7.856319100E-2,-1.013332009E-1,3.675159439E-2
4.179744113E0,-7.749792933E-2,-1.013332009E-1,3.249054030E-2
4.182231770E0,-7.536740601E-2,-1.002679393E-1,2.929474972E-2
4.184719426E0,-7.536740601E-2,-9.920267761E-2,2.503369562E-2
4.187207082E0,-7.430213690E-2,-9.707214683E-2,1.970737800E-2
4.189694738E0,-7.430213690E-2,-9.494162351E-2,1.438105945E-2
4.192182395E0,-7.536740601E-2,-9.281109273E-2,7.989477366E-3
4.194670051E0,-7.643266767E-2,-8.961530030E-2,1.597895520E-3
4.197157707E0,-7.749792933E-2,-8.535424620E-2,-4.793686327E-3
4.199645363E0,-8.175898343E-2,-8.109319210E-2,-1.012000442E-2
4.202133020E0,-8.495477587E-2,-7.470161468E-2,-1.438105945E-2
4.204620676E0,-8.921582997E-2,-6.831002980E-2,-1.544632297E-2
4.207108332E0,-9.454214573E-2,-5.872265995E-2,-1.544632297E-2
4.209595988E0,-9.880319983E-2,-4.807002097E-2,-1.225053146E-2
4.212083645E0,-1.019989923E-1,-3.528685868E-2,-6.924213842E-3
4.214571301E0,-1.041295230E-1,-2.143843099E-2,-5.326318205E-4
4.217058957E0,-1.062600464E-1,-6.524739787E-3,9.054740891E-3
4.219546613E0,-1.051947847E-1,9.454214945E-3,1.864211448E-2
4.222034270E0,-1.041295230E-1,2.330264263E-2,2.929474972E-2
4.224521926E0,-1.019989923E-1,3.608580679E-2,3.888212144E-2
4.227009582E0,-9.880319983E-2,4.673844203E-2,4.740423337E-2
4.229497238E0,-9.560741484E-2,5.206476152E-2,5.486107618E-2
4.231984895E0,-9.347688407E-2,5.313002318E-2,5.912213027E-2
4.234472551E0,-8.921582997E-2,4.780370742E-2,6.018739566E-2
4.236960259E0,-8.388951421E-2,3.928159550E-2,5.805686861E-2
4.239447967E0,-8.069372177E-2,2.756369673E-2,5.486107618E-2
4.241935676E0,-7.643266767E-2,1.265000552E-2,4.846949503E-2
4.244423384E0,-7.323687524E-2,-4.394212738E-3,4.101264849E-2
4.246911092E0,-7.004108280E-2,-2.356895804E-2,3.462106735E-2
4.249398801E0,-6.791055948E-2,-4.274370521E-2,2.716422267E-2
4.251886509E0,-6.684529036E-2,-6.298371404E-2,1.970737800E-2
4.254374217E0,-6.578002870E-2,-8.322372288E-2,1.438105945E-2
4.256861926E0,-6.684529036E-2,-1.023984700E-1,1.012000442E-2
4.259349634E0,-6.791055948E-2,-1.215732098E-1,9.054740891E-3
4.261837342E0,-7.004108280E-2,-1.375521719E-1,1.012000442E-2
4.264325051E0,-7.110634446E-2,-1.514005959E-1,1.225053146E-2
4.266812759E0,-7.430213690E-2,-1.620532274E-1,1.544632297E-2
4.269300467E0,-7.749792933E-2,-1.705753356E-1,2.077264152E-2
4.271788176E0,-7.962846011E-2,-1.769669205E-1,2.503369562E-2
4.274275884E0,-8.069372177E-2,-1.801627129E-1,2.929474972E-2
4.276763592E0,-8.282424510E-2,-1.822932363E-1,3.462106735E-2
4.279251301E0,-8.282424510E-2,-1.812279820E-1,3.888212144E-2
4.281739009E0,-8.388951421E-2,-1.801627129E-1,4.101264849E-2
4.284226717E0,-8.388951421E-2,-1.769669205E-1,4.420844093E-2
4.286714426E0,-8.388951421E-2,-1.727058738E-1,4.740423337E-2
4.289202134E0,-8.388951421E-2,-1.673795432E-1,4.953476042E-2
4.291689842E0,-8.388951421E-2,-1.609879732E-1,5.273054913E-2
4.294177551E0,-8.388951421E-2,-1.545963883E-1,5.379581451E-2
4.296665259E0,-8.388951421E-2,-1.482048035E-1,5.592634156E-2
4.299152967E0,-8.388951421E-2,-1.407479644E-1,5.912213027E-2
4.301640676E0,-8.495477587E-2,-1.332911104E-1,6.231792271E-2
4.304128384E0,-8.602003753E-2,-1.258342713E-1,6.444845349E-2
4.306616092E0,-8.708529919E-2,-1.183774248E-1,6.657897681E-2
4.309103801E0,-8.921582997E-2,-1.087900475E-1,6.977476925E-2
4.311591509E0,-9.134636074E-2,-1.002679393E-1,7.297056168E-2
4.314079217E0,-9.347688407E-2,-8.961530030E-2,7.510108501E-2
4.316566926E0,-9.667267650E-2,-7.896266878E-2,7.616634667E-2
4.319054634E0,-9.880319983E-2,-6.937529147E-2,7.723161578E-2
4.321542342E0,-1.009337306E-1,-5.872265995E-2,7.829687744E-2
4.324030051E0,-1.030642539E-1,-4.700475931E-2,7.829687744E-2
4.326517759E0,-1.051947847E-1,-3.635212034E-2,7.829687744E-2
4.329005467E0,-1.073253155E-1,-2.569948509E-2,7.723161578E-2
4.331493176E0,-1.094558388E-1,-1.611211337E-2,7.616634667E-2
4.333980884E0,-1.105211005E-1,-7.590003312E-3,7.616634667E-2
4.336468592E0,-1.115863696E-1,9.321057005E-4,7.723161578E-2
4.338956301E0,-1.126516312E-1,8.388951421E-3,7.936213911E-2
4.341444009E0,-1.115863696E-1,1.371526904E-2,8.255793154E-2
4.343931717E0,-1.115863696E-1,1.691105962E-2,8.681898564E-2
4.346419426E0,-1.094558388E-1,1.904158667E-2,9.001477808E-2
4.348907134E0,-1.083905771E-1,1.797632314E-2,9.321057051E-2
4.351394842E0,-1.062600464E-1,1.478053257E-2,9.534109384E-2
4.353882551E0,-1.051947847E-1,8.388951421E-3,9.640636295E-2
4.356370259E0,-1.041295230E-1,-1.331579551E-4,9.427583218E-2
4.358857967E0,-1.030642539E-1,-9.720530361E-3,9.321057051E-2
4.361345676E0,-1.019989923E-1,-2.037316747E-2,9.108003974E-2
4.363833384E0,-1.009337306E-1,-3.209106624E-2,8.788424730E-2
4.366321092E0,-9.986846894E-2,-4.274370521E-2,8.468846232E-2
4.368808801E0,-9.880319983E-2,-5.233107507E-2,8.255793154E-2
4.371296509E0,-9.773793817E-2,-6.298371404E-2,8.042740822E-2
4.373784217E0,-9.560741484E-2,-7.150582224E-2,7.829687744E-2
4.376271874E0,-9.347688407E-2,-8.002793044E-2,7.723161578E-2
4.378759530E0,-9.241162241E-2,-8.641951531E-2,7.616634667E-2
4.381247186E0,-9.134636074E-2,-9.281109273E-2,7.403582335E-2
4.383734842E0,-8.921582997E-2,-9.813741595E-2,7.297056168E-2
4.386222499E0,-8.815056831E-2,-1.013332009E-1,7.297056168E-2
4.388710155E0,-8.602003753E-2,-1.034637317E-1,7.297056168E-2
4.391197811E0,-8.495477587E-2,-1.034637317E-1,7.297056168E-2
4.393685467E0,-8.282424510E-2,-1.034637317E-1,7.403582335E-2
4.396173124E0,-8.175898343E-2,-1.023984700E-1,7.403582335E-2
4.398660780E0,-7.856319100E-2,-1.002679393E-1,7.297056168E-2
4.401148436E0,-7.643266767E-2,-9.813741595E-2,7.297056168E-2
4.403636092E0,-7.323687524E-2,-9.494162351E-2,7.084003091E-2
4.406123749E0,-7.110634446E-2,-9.281109273E-2,7.084003091E-2
4.408611405E0,-6.897582114E-2,-9.174583107E-2,6.870950758E-2
4.411099061E0,-6.578002870E-2,-8.961530030E-2,6.764423847E-2
4.413586717E0,-6.364950538E-2,-8.855003864E-2,6.551371515E-2
4.416074374E0,-6.045371294E-2,-8.855003864E-2,6.231792271E-2
4.418562030E0,-5.938844755E-2,-8.961530030E-2,5.912213027E-2
4.421049686E0,-5.619265884E-2,-9.068056941E-2,5.699160323E-2
4.423537342E0,-5.299686641E-2,-9.387636185E-2,5.379581451E-2
4.426024999E0,-4.980107397E-2,-9.813741595E-2,4.953476042E-2
4.428512655E0,-4.447475821E-2,-1.045289934E-1,4.314317927E-2
4.431000311E0,-4.021370411E-2,-1.119858399E-1,3.675159439E-2
4.433487967E0,-3.382211924E-2,-1.215732098E-1,2.929474972E-2
4.435975624E0,-2.743053809E-2,-1.311605871E-1,2.183790505E-2
4.438463280E0,-1.997369342E-2,-1.418132186E-1,1.331579592E-2
4.440950936E0,-1.358211134E-2,-1.524658650E-1,2.663159044E-3
4.443438592E0,-7.190529723E-3,-1.620532274E-1,-6.924213842E-3
4.445926249E0,-7.989477599E-4,-1.716406047E-1,-1.651158556E-2
4.448413905E0,5.592633970E-3,-1.801627129E-1,-2.609895915E-2
4.450901561E0,1.198421605E-2,-1.865542978E-1,-3.568633273E-2
4.453389217E0,1.731053367E-2,-1.908153445E-1,-4.527370632E-2
4.455876874E0,2.370211668E-2,-1.961416751E-1,-5.486107618E-2
4.458364530E0,2.902843431E-2,-1.993374527E-1,-6.444845349E-2
4.460852186E0,3.755054250E-2,-2.025332451E-1,-7.297056168E-2
4.463339842E0,4.607265070E-2,-2.067943066E-1,-7.936213911E-2
4.465827499E0,5.566002429E-2,-2.110553533E-1,-8.681898564E-2
4.468315155E0,6.418213248E-2,-2.163816839E-1,-9.427583218E-2
4.470802811E0,7.376950979E-2,-2.217079997E-1,-1.017326787E-1
4.473290467E0,8.442214131E-2,-2.302301079E-1,-1.102547869E-1
4.475778124E0,9.400951862E-2,-2.387522161E-1,-1.187768951E-1
4.478265780E0,1.046621501E-1,-2.483395934E-1,-1.283642650E-1
4.480753436E0,1.153147891E-1,-2.579269707E-1,-1.390169114E-1
4.483241145E0,1.270326823E-1,-2.664490640E-1,-1.507348120E-1
4.485728853E0,1.366200596E-1,-2.749711871E-1,-1.635179669E-1
4.488216561E0,1.483379602E-1,-2.802974880E-1,-1.784316599E-1
4.490704270E0,1.600558609E-1,-2.845585644E-1,-1.944106072E-1
4.493191978E0,1.717737615E-1,-2.856238186E-1,-2.103895694E-1
4.495679686E0,1.834916621E-1,-2.834932804E-1,-2.274337858E-1
4.498167395E0,1.962748319E-1,-2.781669796E-1,-2.434127480E-1
4.500655103E0,2.090579867E-1,-2.707101107E-1,-2.593916953E-1
4.503142811E0,2.229064107E-1,-2.611227632E-1,-2.743053734E-1
4.505630520E0,2.367548496E-1,-2.504701018E-1,-2.892190814E-1
4.508118228E0,2.527337968E-1,-2.408827394E-1,-3.020022511E-1
4.510605936E0,2.687127590E-1,-2.302301079E-1,-3.158506751E-1
4.513093645E0,2.857569754E-1,-2.227732539E-1,-3.296990991E-1
4.515581353E0,3.028011918E-1,-2.153164148E-1,-3.424822688E-1
4.518069061E0,3.209106624E-1,-2.110553533E-1,-3.573959470E-1
4.520556770E0,3.379548788E-1,-2.089248300E-1,-3.744401634E-1
4.523044478E0,3.560643792E-1,-2.099900991E-1,-3.914843798E-1
4.525532186E0,3.731085956E-1,-2.142511457E-1,-4.106591344E-1
4.528019895E0,3.880222738E-1,-2.217079997E-1,-4.319643974E-1
4.530507603E0,4.029359818E-1,-2.334259003E-1,-4.543349445E-1
4.532995311E0,4.167844057E-1,-2.472743243E-1,-4.777707458E-1
4.535483020E0,4.285022914E-1,-2.632532716E-1,-5.012065172E-1
4.537970728E0,4.391549230E-1,-2.792322338E-1,-5.235770941E-1
4.540458436E0,4.498075843E-1,-2.962764502E-1,-5.448823571E-1
4.542946145E0,4.593949318E-1,-3.111901283E-1,-5.629918575E-1
4.545433853E0,4.668518007E-1,-3.271690905E-1,-5.789707899E-1
4.547921561E0,4.743086398E-1,-3.410175145E-1,-5.938844681E-1
4.550409270E0,4.828307331E-1,-3.548659384E-1,-6.066676378E-1
4.552896978E0,4.892223179E-1,-3.665838540E-1,-6.173202991E-1
4.555384686E0,4.966791868E-1,-3.772364855E-1,-6.269076467E-1
4.557872395E0,5.030707717E-1,-3.868238628E-1,-6.343644857E-1
4.560360103E0,5.105276108E-1,-3.953459561E-1,-6.407560706E-1
4.562847811E0,5.169191957E-1,-4.017375410E-1,-6.450171471E-1
4.565335520E0,5.254412889E-1,-4.059986174E-1,-6.482129097E-1
4.567823228E0,5.339633822E-1,-4.070638716E-1,-6.503434777E-1
4.570310936E0,5.414202213E-1,-4.059986174E-1,-6.524739861E-1
4.572798645E0,5.488771200E-1,-4.006722867E-1,-6.556697488E-1
4.575286353E0,5.552686453E-1,-3.921501637E-1,-6.599308252E-1
4.577774061E0,5.595297217E-1,-3.814975321E-1,-6.652571559E-1
4.580261770E0,5.627255440E-1,-3.676491082E-1,-6.705834866E-1
4.582749478E0,5.637907982E-1,-3.516701460E-1,-6.780403256E-1
4.585237186E0,5.627255440E-1,-3.367564678E-1,-6.844319105E-1
4.587724895E0,5.605949759E-1,-3.207775056E-1,-6.908234954E-1
4.590212603E0,5.573992133E-1,-3.047985733E-1,-6.961497664E-1
4.592700311E0,5.531381369E-1,-2.898848653E-1,-6.993455887E-1
4.595188020E0,5.478118062E-1,-2.749711871E-1,-7.014760971E-1
4.597675728E0,5.403549671E-1,-2.600574791E-1,-7.004108429E-1
4.600163436E0,5.328981280E-1,-2.451438010E-1,-6.950845122E-1
4.602651145E0,5.233107805E-1,-2.312953621E-1,-6.897581816E-1
4.605138853E0,5.137233734E-1,-2.163816839E-1,-6.801708341E-1
4.607626561E0,5.020055175E-1,-2.004027218E-1,-6.663224101E-1
4.610114270E0,4.892223179E-1,-1.833585054E-1,-6.514087319E-1
4.612601978E0,4.775044322E-1,-1.652490199E-1,-6.332992315E-1
4.615089686E0,4.679170549E-1,-1.450090110E-1,-6.130592227E-1
4.617577395E0,4.593949318E-1,-1.247690022E-1,-5.928192139E-1
4.620065103E0,4.540686309E-1,-1.034637317E-1,-5.704486966E-1
4.622552811E0,4.519380927E-1,-8.215846121E-2,-5.491434336E-1
4.625040467E0,4.498075843E-1,-6.191844866E-2,-5.289034247E-1
4.627528124E0,4.487423003E-1,-4.274370521E-2,-5.118591785E-1
4.630015780E0,4.487423003E-1,-2.676474862E-2,-4.990760088E-1
4.632503436E0,4.487423003E-1,-1.611211337E-2,-4.873581231E-1
4.634991092E0,4.487423003E-1,-1.078579482E-2,-4.788360000E-1
4.637478749E0,4.487423003E-1,-9.720530361E-3,-4.713791609E-1
4.639966405E0,4.476770461E-1,-1.398158539E-2,-4.649875760E-1
4.642454061E0,4.476770461E-1,-2.250369452E-2,-4.585959911E-1
4.644941717E0,4.466117918E-1,-3.528685868E-2,-4.511391521E-1
4.647429374E0,4.444812536E-1,-4.913528636E-2,-4.404865205E-1
4.649917030E0,4.434159994E-1,-6.511423737E-2,-4.287686050E-1
4.652404686E0,4.423507154E-1,-8.002793044E-2,-4.159854650E-1
4.654892342E0,4.412854612E-1,-9.494162351E-2,-4.021370113E-1
4.657379999E0,4.402202070E-1,-1.077247858E-1,-3.882885873E-1
4.659867655E0,4.402202070E-1,-1.194426864E-1,-3.733749092E-1
4.662355311E0,4.402202070E-1,-1.290300637E-1,-3.595264852E-1
4.664842967E0,4.402202070E-1,-1.364869028E-1,-3.467433155E-1
4.667330624E0,4.402202070E-1,-1.418132186E-1,-3.328948915E-1
4.669818280E0,4.402202070E-1,-1.450090110E-1,-3.190464675E-1
4.672305936E0,4.402202070E-1,-1.460742801E-1,-3.051980436E-1
4.674793592E0,4.391549230E-1,-1.439437568E-1,-2.924148738E-1
4.677281249E0,4.380896688E-1,-1.407479644E-1,-2.775011659E-1
4.679768905E0,4.380896688E-1,-1.354216337E-1,-2.615222335E-1
4.682256561E0,4.380896688E-1,-1.279647946E-1,-2.455432713E-1
4.684744217E0,4.391549230E-1,-1.194426864E-1,-2.284990549E-1
4.687231874E0,4.412854612E-1,-1.109205782E-1,-2.103895694E-1
4.689719530E0,4.434159994E-1,-1.023984700E-1,-1.944106072E-1
4.692207186E0,4.455465078E-1,-9.387636185E-2,-1.784316599E-1
4.694694842E0,4.444812536E-1,-8.641951531E-2,-1.635179669E-1
4.697182499E0,4.434159994E-1,-8.109319210E-2,-1.486042738E-1
4.699670155E0,4.412854612E-1,-7.789740711E-2,-1.326253265E-1
4.702157811E0,4.370244145E-1,-7.683213800E-2,-1.177116334E-1
4.704645467E0,4.338286221E-1,-7.470161468E-2,-1.038632020E-1
4.707133124E0,4.306328297E-1,-7.363634557E-2,-9.001477808E-2
4.709620780E0,4.285022914E-1,-7.150582224E-2,-7.723161578E-2
4.712108436E0,4.263717830E-1,-6.937529147E-2,-6.764423847E-2
4.714596092E0,4.242412448E-1,-6.511423737E-2,-6.018739566E-2
4.717083749E0,4.210454524E-1,-6.191844866E-2,-5.486107618E-2
4.719571405E0,4.189149141E-1,-5.872265995E-2,-5.166528746E-2
4.722059061E0,4.178496599E-1,-5.659212917E-2,-4.953476042E-2
4.724546717E0,4.157191217E-1,-5.659212917E-2,-4.740423337E-2
4.727034374E0,4.157191217E-1,-5.872265995E-2,-4.420844093E-2
4.729522030E0,4.157191217E-1,-6.191844866E-2,-3.781685978E-2
4.732009738E0,4.157191217E-1,-6.724476814E-2,-3.036001325E-2
4.734497447E0,4.146538675E-1,-7.470161468E-2,-2.077264152E-2
4.736985155E0,4.146538675E-1,-8.215846121E-2,-1.118526794E-2
4.739472863E0,4.125233591E-1,-9.281109273E-2,-1.597895520E-3
4.741960572E0,4.093275666E-1,-1.055942550E-1,6.924213842E-3
4.744448280E0,4.040012360E-1,-1.194426864E-1,1.438105945E-2
4.746935988E0,3.986749053E-1,-1.354216337E-1,2.183790505E-2
4.749423697E0,3.922833502E-1,-1.524658650E-1,2.822948620E-2
4.751911405E0,3.858917654E-1,-1.716406047E-1,3.568633273E-2
4.754399113E0,3.795001805E-1,-1.908153445E-1,4.527370632E-2
4.756886822E0,3.741738498E-1,-2.110553533E-1,5.699160323E-2
4.759374530E0,3.709780574E-1,-2.291648388E-1,7.084003091E-2
4.761862238E0,3.688475490E-1,-2.462090552E-1,8.788424730E-2
4.764349947E0,3.688475490E-1,-2.600574791E-1,1.070589945E-1
4.766837655E0,3.677822649E-1,-2.717753947E-1,1.272990108E-1
4.769325363E0,3.677822649E-1,-2.792322338E-1,1.475390196E-1
4.771813072E0,3.688475490E-1,-2.845585644E-1,1.709748209E-1
4.774300780E0,3.699128032E-1,-2.856238186E-1,1.944106072E-1
4.776788488E0,3.709780574E-1,-2.824280262E-1,2.199769467E-1
4.779276197E0,3.720433414E-1,-2.739059031E-1,2.444780022E-1
4.781763905E0,3.741738498E-1,-2.621880174E-1,2.679138184E-1
4.784251613E0,3.773696423E-1,-2.451438010E-1,2.902843356E-1
4.786739322E0,3.795001805E-1,-2.238385230E-1,3.115896285E-1
4.789227030E0,3.816306889E-1,-1.982721984E-1,3.318296373E-1
4.791714738E0,3.826959729E-1,-1.716406047E-1,3.520696461E-1
4.794202447E0,3.837612271E-1,-1.439437568E-1,3.712443709E-1
4.796690155E0,3.848264813E-1,-1.162468940E-1,3.914843798E-1
4.799177863E0,3.848264813E-1,-9.174583107E-2,4.117243886E-1
4.801665572E0,3.869570196E-1,-6.937529147E-2,4.319643974E-1
4.804153280E0,3.901528120E-1,-5.020054802E-2,4.522044063E-1
4.806640988E0,3.954791129E-1,-3.422159329E-2,4.724444151E-1
4.809128697E0,3.997401893E-1,-2.356895804E-2,4.937497079E-1
4.811616405E0,4.040012360E-1,-1.717737690E-2,5.118591785E-1
4.814104113E0,4.071970284E-1,-1.504684892E-2,5.299686790E-1
4.816591822E0,4.103928208E-1,-1.717737690E-2,5.459476113E-1
4.819079530E0,4.125233591E-1,-2.356895804E-2,5.608612895E-1
4.821567238E0,4.146538675E-1,-3.315633163E-2,5.757750273E-1
4.824054947E0,4.167844057E-1,-4.380896688E-2,5.885581374E-1
4.826542655E0,4.210454524E-1,-5.659212917E-2,6.002760530E-1
4.829030363E0,4.263717830E-1,-6.617950648E-2,6.077328920E-1
4.831518072E0,4.316980839E-1,-7.470161468E-2,6.130592227E-1
4.834005780E0,4.348938763E-1,-8.002793044E-2,6.162550449E-1
4.836493488E0,4.370244145E-1,-8.428898454E-2,6.183855534E-1
4.838981197E0,4.380896688E-1,-8.855003864E-2,6.194508076E-1
4.841468905E0,4.380896688E-1,-9.281109273E-2,6.226465702E-1
4.843956613E0,4.370244145E-1,-9.707214683E-2,6.279729009E-1
4.846444322E0,4.370244145E-1,-1.034637317E-1,6.343644857E-1
4.848932030E0,4.370244145E-1,-1.098553166E-1,6.407560706E-1
4.851419738E0,4.380896688E-1,-1.173121557E-1,6.503434777E-1
4.853907447E0,4.402202070E-1,-1.247690022E-1,6.588655710E-1
4.856395155E0,4.423507154E-1,-1.332911104E-1,6.684529185E-1
4.858882863E0,4.466117918E-1,-1.407479644E-1,6.780403256E-1
4.861370572E0,4.519380927E-1,-1.482048035E-1,6.886929274E-1
4.863858280E0,4.572644234E-1,-1.535311192E-1,7.004108429E-1
4.866345988E0,4.636560082E-1,-1.577921808E-1,7.142592669E-1
4.868833697E0,4.700475931E-1,-1.588574350E-1,7.302381992E-1
4.871321405E0,4.764391780E-1,-1.588574350E-1,7.451519370E-1
4.873809113E0,4.807002246E-1,-1.577921808E-1,7.600656152E-1
4.876296770E0,4.860265255E-1,-1.556616426E-1,7.739140391E-1
4.878784426E0,4.892223179E-1,-1.545963883E-1,7.866972089E-1
4.881272082E0,4.934833944E-1,-1.545963883E-1,7.994803786E-1
4.883759738E0,4.977444410E-1,-1.545963883E-1,8.122635484E-1
4.886247395E0,5.009402037E-1,-1.556616426E-1,8.250467181E-1
4.888735051E0,5.062665343E-1,-1.567269117E-1,8.399603963E-1
4.891222707E0,5.094623566E-1,-1.567269117E-1,8.548740745E-1
4.893710363E0,5.137233734E-1,-1.545963883E-1,8.719182611E-1
4.896198020E0,5.169191957E-1,-1.514005959E-1,8.878972530E-1
4.898685676E0,5.190497041E-1,-1.450090110E-1,9.028109312E-1
4.901173332E0,5.201149583E-1,-1.364869028E-1,9.145288467E-1
4.903660988E0,5.201149583E-1,-1.258342713E-1,9.241161942E-1
4.906148645E0,5.179844499E-1,-1.130511016E-1,9.294425249E-1
4.908636301E0,5.137233734E-1,-9.813741595E-2,9.326383471E-1
4.911123957E0,5.073317885E-1,-8.322372288E-2,9.337036014E-1
4.913611613E0,5.009402037E-1,-6.831002980E-2,9.337036014E-1
4.916099270E0,4.934833944E-1,-5.446160212E-2,9.326383471E-1
4.918586926E0,4.849612713E-1,-4.274370521E-2,9.326383471E-1
4.921074582E0,4.764391780E-1,-3.422159329E-2,9.337036014E-1
4.923562238E0,4.700475931E-1,-2.783001214E-2,9.358341098E-1
4.926049895E0,4.625907242E-1,-2.569948509E-2,9.379646182E-1
4.928537551E0,4.561991692E-1,-2.569948509E-2,9.400951862E-1
4.931025207E0,4.519380927E-1,-2.996053919E-2,9.411604404E-1
4.933512863E0,4.508728385E-1,-3.528685868E-2,9.422256947E-1
4.936000520E0,4.508728385E-1,-4.274370521E-2,9.443562031E-1
4.938488176E0,4.540686309E-1,-5.020054802E-2,9.464867711E-1
4.940975832E0,4.593949318E-1,-5.765739456E-2,9.518130422E-1
4.943463488E0,4.647212625E-1,-6.511423737E-2,9.582046270E-1
4.945951145E0,4.732433856E-1,-7.257108390E-2,9.656614661E-1
4.948438801E0,4.807002246E-1,-8.002793044E-2,9.741836190E-1
4.950926457E0,4.881570637E-1,-8.855003864E-2,9.816404581E-1
4.953414113E0,4.977444410E-1,-9.600688517E-2,9.890972972E-1
4.955901770E0,5.083971024E-1,-1.045289934E-1,9.933583736E-1
4.958389426E0,5.222455263E-1,-1.130511016E-1,9.976193905E-1
4.960877082E0,5.382244587E-1,-1.215732098E-1,9.997498989E-1
4.963364738E0,5.552686453E-1,-1.300953180E-1,1.002945662E0
4.965852395E0,5.755086541E-1,-1.396826953E-1,1.005076289E0
4.968340051E0,5.968139768E-1,-1.482048035E-1,1.008272052E0
4.970827707E0,6.181192398E-1,-1.567269117E-1,1.011467814E0
4.973315363E0,6.394245028E-1,-1.631184965E-1,1.014663577E0
4.975803020E0,6.607297659E-1,-1.705753356E-1,1.017859459E0
4.978290676E0,6.809697747E-1,-1.780321896E-1,1.021055222E0
4.980778384E0,7.001445293E-1,-1.844237745E-1,1.026381493E0
4.983266092E0,7.182540298E-1,-1.918806136E-1,1.033838391E0
4.985753801E0,7.374287844E-1,-1.993374527E-1,1.043425679E0
4.988241509E0,7.566034794E-1,-2.057290375E-1,1.053013086E0
4.990729217E0,7.747129798E-1,-2.131858915E-1,1.063665748E0
4.993216926E0,7.906919122E-1,-2.206427306E-1,1.074318409E0
4.995704634E0,8.045403361E-1,-2.280995846E-1,1.083905697E0
4.998192342E0,8.130624890E-1,-2.366216928E-1,1.093493104E0
5.000680051E0,8.162582517E-1,-2.472743243E-1,1.102015257E0
5.003167759E0,8.162582517E-1,-2.568616867E-1,1.113733172E0
5.005655467E0,8.130624890E-1,-2.664490640E-1,1.126516342E0
5.008143176E0,8.077361584E-1,-2.760364413E-1,1.140364766E0
5.010630884E0,7.992140651E-1,-2.845585644E-1,1.156343699E0
5.013118592E0,7.874961495E-1,-2.898848653E-1,1.172322631E0
5.015606301E0,7.736477256E-1,-2.952111959E-1,1.189366817E0
5.018094009E0,7.576687932E-1,-2.994722426E-1,1.205345869E0
5.020581717E0,7.384940386E-1,-3.047985733E-1,1.221324801E0
5.023069426E0,7.171887755E-1,-3.079943359E-1,1.236238480E0
5.025557134E0,6.937529445E-1,-3.122554123E-1,1.251152158E0
5.028044842E0,6.681866050E-1,-3.154512048E-1,1.267131090E0
5.030532551E0,6.415550113E-1,-3.186469972E-1,1.282044768E0
5.033020259E0,6.127929091E-1,-3.175817132E-1,1.299088955E0
5.035507967E0,5.850960612E-1,-3.122554123E-1,1.316133261E0
5.037995676E0,5.563339591E-1,-3.026680350E-1,1.332112193E0
5.040483384E0,5.275717974E-1,-2.877543271E-1,1.350221634E0
5.042971092E0,4.988096952E-1,-2.675143182E-1,1.368331194E0
5.045458801E0,4.732433856E-1,-2.408827394E-1,1.385375381E0
5.047946509E0,4.487423003E-1,-2.067943066E-1,1.403484821E0
5.050434217E0,4.274370372E-1,-1.663142890E-1,1.421594381E0
5.052921926E0,4.082622826E-1,-1.215732098E-1,1.439703822E0
5.055409634E0,3.922833502E-1,-7.150582224E-2,1.456748009E0
5.057897342E0,3.784348965E-1,-1.930790395E-2,1.473792195E0
5.060385051E0,3.645864725E-1,3.289001435E-2,1.490836501E0
5.062872759E0,3.518033028E-1,8.615319431E-2,1.507880688E0
5.065360467E0,3.368896246E-1,1.372858584E-1,1.522794366E0
5.067848176E0,3.230412006E-1,1.852227151E-1,1.536642790E0
5.070335884E0,3.113232851E-1,2.288985252E-1,1.549425960E0
5.072823592E0,2.985401452E-1,2.661827505E-1,1.557948112E0
5.075311301E0,2.846917212E-1,2.981406748E-1,1.564339638E0
5.077799009E0,2.719085515E-1,3.237069845E-1,1.568600655E0
5.080286717E0,2.591253817E-1,3.439469934E-1,1.568600655E0
5.082774426E0,2.463422120E-1,3.588607013E-1,1.566470146E0
5.085262134E0,2.314285189E-1,3.705785871E-1,1.562209129E0
5.087749842E0,2.175800949E-1,3.801659644E-1,1.555817604E0
5.090237551E0,2.026664019E-1,3.865575492E-1,1.546230197E0
5.092725259E0,1.877527237E-1,3.929491341E-1,1.535577536E0
5.095212967E0,1.760348231E-1,3.982754350E-1,1.521729112E0
5.097700676E0,1.685779691E-1,4.036017656E-1,1.504684925E0
5.100188384E0,1.621863842E-1,4.099933505E-1,1.483379602E0
5.102676092E0,1.579253376E-1,4.185154438E-1,1.459943771E0
5.105163801E0,1.568600684E-1,4.270375669E-1,1.432246923E0
5.107651509E0,1.568600684E-1,4.366249442E-1,1.401354313E0
5.110139217E0,1.579253376E-1,4.440817833E-1,1.367265940E0
5.112626926E0,1.579253376E-1,4.483428299E-1,1.328916430E0
5.115114634E0,1.600558609E-1,4.483428299E-1,1.287371159E0
5.117602342E0,1.653821766E-1,4.430165291E-1,1.242630005E0
5.120090051E0,1.728390306E-1,4.323638678E-1,1.193627954E0
5.122577759E0,1.834916621E-1,4.185154438E-1,1.142495275E0
5.125065467E0,1.952095628E-1,4.014712274E-1,1.088166833E0
5.127553176E0,2.079927325E-1,3.833617568E-1,1.033838391E0
5.130040832E0,2.207758874E-1,3.652522564E-1,9.773793817E-1
5.132528488E0,2.314285189E-1,3.450122476E-1,9.219856858E-1
5.135016145E0,2.410158962E-1,3.226417303E-1,8.665919900E-1
