"Time (s)","Gyroscope x (rad/s)","Gyroscope y (rad/s)","Gyroscope z (rad/s)"
1.133370840E-1,-2.532664239E-1,-7.363634557E-2,-1.241032109E-1
1.158870840E-1,-2.553969622E-1,-7.363634557E-2,-1.219726875E-1
1.184370840E-1,-2.564622164E-1,-7.363634557E-2,-1.209074259E-1
1.209870840E-1,-2.575274706E-1,-7.363634557E-2,-1.198421568E-1
1.235370840E-1,-2.596580088E-1,-7.363634557E-2,-1.187768951E-1
1.260870840E-1,-2.607232630E-1,-7.470161468E-2,-1.166463718E-1
1.286370840E-1,-2.617885470E-1,-7.470161468E-2,-1.155811027E-1
1.311870840E-1,-2.639190555E-1,-7.470161468E-2,-1.134505793E-1
1.337370840E-1,-2.649843395E-1,-7.470161468E-2,-1.113200486E-1
1.362870840E-1,-2.660495937E-1,-7.363634557E-2,-1.091895252E-1
1.388370840E-1,-2.671148479E-1,-7.150582224E-2,-1.070589945E-1
1.413870840E-1,-2.681801319E-1,-7.044056058E-2,-1.059937328E-1
1.439370840E-1,-2.692453861E-1,-6.831002980E-2,-1.038632020E-1
1.464870840E-1,-2.692453861E-1,-6.617950648E-2,-1.038632020E-1
1.490370840E-1,-2.692453861E-1,-6.617950648E-2,-1.027979404E-1
1.515870840E-1,-2.681801319E-1,-6.511423737E-2,-1.027979404E-1
1.541370840E-1,-2.660495937E-1,-6.511423737E-2,-1.027979404E-1
1.566870840E-1,-2.639190555E-1,-6.511423737E-2,-1.017326787E-1
1.592370840E-1,-2.607232630E-1,-6.617950648E-2,-1.027979404E-1
1.617870840E-1,-2.575274706E-1,-6.831002980E-2,-1.038632020E-1
1.643370840E-1,-2.543317080E-1,-7.150582224E-2,-1.059937328E-1
1.668870840E-1,-2.511359155E-1,-7.470161468E-2,-1.081242561E-1
1.694370840E-1,-2.468748540E-1,-7.896266878E-2,-1.102547869E-1
1.719870840E-1,-2.447443157E-1,-8.109319210E-2,-1.123853177E-1
1.745370840E-1,-2.415485233E-1,-8.428898454E-2,-1.134505793E-1
1.770870840E-1,-2.372874767E-1,-8.535424620E-2,-1.155811027E-1
1.796370840E-1,-2.340916842E-1,-8.535424620E-2,-1.177116334E-1
1.821870840E-1,-2.298306376E-1,-8.428898454E-2,-1.187768951E-1
1.847370840E-1,-2.266348451E-1,-8.322372288E-2,-1.187768951E-1
1.872870840E-1,-2.234390527E-1,-8.215846121E-2,-1.187768951E-1
1.898370840E-1,-2.202432603E-1,-8.215846121E-2,-1.177116334E-1
1.923870840E-1,-2.170474678E-1,-8.215846121E-2,-1.166463718E-1
1.949370840E-1,-2.149169445E-1,-8.109319210E-2,-1.145158410E-1
1.974632820E-1,-2.117211521E-1,-8.109319210E-2,-1.134505793E-1
1.999510940E-1,-2.085253596E-1,-8.002793044E-2,-1.113200486E-1
2.024389070E-1,-2.053295672E-1,-7.789740711E-2,-1.091895252E-1
2.049267190E-1,-2.021337748E-1,-7.576687634E-2,-1.081242561E-1
2.074145320E-1,-1.978727281E-1,-7.257108390E-2,-1.070589945E-1
2.099023440E-1,-1.936116666E-1,-6.831002980E-2,-1.070589945E-1
2.123901570E-1,-1.904158741E-1,-6.298371404E-2,-1.059937328E-1
2.148779690E-1,-1.850895584E-1,-5.872265995E-2,-1.059937328E-1
2.173657820E-1,-1.818937659E-1,-5.446160212E-2,-1.070589945E-1
2.198535940E-1,-1.797632426E-1,-5.126581341E-2,-1.081242561E-1
2.223414070E-1,-1.765674502E-1,-4.913528636E-2,-1.091895252E-1
2.248292190E-1,-1.744369268E-1,-4.700475931E-2,-1.102547869E-1
2.273170320E-1,-1.723063886E-1,-4.487423226E-2,-1.134505793E-1
2.298048440E-1,-1.680453420E-1,-4.380896688E-2,-1.177116334E-1
2.322926570E-1,-1.648495495E-1,-4.380896688E-2,-1.219726875E-1
2.347804690E-1,-1.616537571E-1,-4.487423226E-2,-1.283642650E-1
2.372682820E-1,-1.573926955E-1,-4.807002097E-2,-1.358211190E-1
2.397560940E-1,-1.520663798E-1,-5.233107507E-2,-1.443432271E-1
2.422439070E-1,-1.488705873E-1,-5.552686751E-2,-1.539305896E-1
2.447317190E-1,-1.446095407E-1,-5.978792161E-2,-1.635179669E-1
2.472195320E-1,-1.414137483E-1,-6.191844866E-2,-1.709748209E-1
2.497073440E-1,-1.382179558E-1,-6.298371404E-2,-1.784316599E-1
2.521951570E-1,-1.350221634E-1,-6.085318699E-2,-1.837579757E-1
2.546829690E-1,-1.328916401E-1,-5.765739456E-2,-1.869537681E-1
2.571707820E-1,-1.307611167E-1,-5.339634046E-2,-1.890842915E-1
2.596585940E-1,-1.286305785E-1,-4.700475931E-2,-1.901495606E-1
2.621464070E-1,-1.265000552E-1,-4.061317816E-2,-1.890842915E-1
2.646342190E-1,-1.243695319E-1,-3.315633163E-2,-1.869537681E-1
2.671220320E-1,-1.233042628E-1,-2.569948509E-2,-1.837579757E-1
2.696098440E-1,-1.222390011E-1,-1.717737690E-2,-1.794969290E-1
2.720976570E-1,-1.222390011E-1,-8.655266836E-3,-1.731053442E-1
2.745854690E-1,-1.222390011E-1,-1.198421582E-3,-1.656484902E-1
2.770732820E-1,-1.222390011E-1,5.193160381E-3,-1.592569202E-1
2.795610940E-1,-1.222390011E-1,1.158474199E-2,-1.539305896E-1
2.820489070E-1,-1.211737394E-1,1.691105962E-2,-1.475390196E-1
2.845367190E-1,-1.179779470E-1,2.330264263E-2,-1.432779580E-1
2.870245320E-1,-1.158474237E-1,3.075948730E-2,-1.390169114E-1
2.895123440E-1,-1.115863696E-1,3.928159550E-2,-1.347558498E-1
2.920001570E-1,-1.083905771E-1,4.780370742E-2,-1.304948032E-1
2.944879690E-1,-1.019989923E-1,5.632581562E-2,-1.272990108E-1
2.969757820E-1,-9.667267650E-2,6.591318548E-2,-1.251684725E-1
2.994635940E-1,-8.921582997E-2,7.550056279E-2,-1.230379492E-1
3.019514070E-1,-8.282424510E-2,8.295740932E-2,-1.219726875E-1
3.044392190E-1,-7.643266767E-2,9.041424841E-2,-1.209074259E-1
3.069270320E-1,-6.897582114E-2,9.680583328E-2,-1.219726875E-1
3.094148440E-1,-6.045371294E-2,1.010668874E-1,-1.230379492E-1
3.119026570E-1,-5.193160102E-2,1.053279415E-1,-1.251684725E-1
3.143904690E-1,-4.340949282E-2,1.074584723E-1,-1.283642650E-1
3.168782820E-1,-3.488738462E-2,1.095889956E-1,-1.315600574E-1
3.193660940E-1,-2.423474751E-2,1.127847880E-1,-1.347558498E-1
3.218539070E-1,-1.358211134E-2,1.159805804E-1,-1.379516423E-1
3.243417190E-1,-3.994738683E-3,1.202416345E-1,-1.411474347E-1
3.268295320E-1,4.527370445E-3,1.255679578E-1,-1.422126889E-1
3.293173440E-1,1.411474310E-2,1.319595277E-1,-1.432779580E-1
3.318051570E-1,2.263685316E-2,1.372858584E-1,-1.443432271E-1
3.342929690E-1,2.902843431E-2,1.426121742E-1,-1.443432271E-1
3.367807820E-1,3.648528084E-2,1.479384899E-1,-1.432779580E-1
3.392685940E-1,4.287686199E-2,1.532648057E-1,-1.432779580E-1
3.417564070E-1,4.926844314E-2,1.596563905E-1,-1.443432271E-1
3.442442190E-1,5.566002429E-2,1.649827063E-1,-1.443432271E-1
3.467320320E-1,6.098634377E-2,1.703090221E-1,-1.464737505E-1
3.492198440E-1,6.524740160E-2,1.745700836E-1,-1.464737505E-1
3.517076570E-1,6.950845569E-2,1.767006069E-1,-1.486042738E-1
3.541954690E-1,7.270424068E-2,1.788311303E-1,-1.496695429E-1
3.566832820E-1,7.483477145E-2,1.788311303E-1,-1.518000662E-1
3.591710940E-1,7.590003312E-2,1.767006069E-1,-1.528653353E-1
3.616589070E-1,7.590003312E-2,1.745700836E-1,-1.539305896E-1
3.641467190E-1,7.590003312E-2,1.724395454E-1,-1.571263820E-1
3.666345320E-1,7.376950979E-2,1.713742912E-1,-1.603221744E-1
3.691223440E-1,7.376950979E-2,1.724395454E-1,-1.624527127E-1
3.716101570E-1,7.163897902E-2,1.735048145E-1,-1.656484902E-1
3.740979690E-1,6.950845569E-2,1.745700836E-1,-1.688442826E-1
3.765857820E-1,6.737792492E-2,1.735048145E-1,-1.720400751E-1
3.790735940E-1,6.418213248E-2,1.713742912E-1,-1.763011366E-1
3.815614070E-1,6.098634377E-2,1.660479754E-1,-1.794969290E-1
3.840492190E-1,5.672528967E-2,1.596563905E-1,-1.816274524E-1
3.865370320E-1,5.352949724E-2,1.521995366E-1,-1.837579757E-1
3.890248440E-1,5.033370852E-2,1.436774284E-1,-1.869537681E-1
3.915126570E-1,4.820318148E-2,1.351553202E-1,-1.880190372E-1
3.940004690E-1,4.500738904E-2,1.287637353E-1,-1.901495606E-1
3.964882820E-1,4.287686199E-2,1.245026886E-1,-1.922800839E-1
3.989760940E-1,4.074633494E-2,1.213068962E-1,-1.944106072E-1
4.014639070E-1,3.861580789E-2,1.191763729E-1,-1.954758763E-1
4.039517190E-1,3.648528084E-2,1.191763729E-1,-1.976063997E-1
4.064395320E-1,3.328948840E-2,1.202416345E-1,-1.997369379E-1
4.089273440E-1,3.115896136E-2,1.223721579E-1,-2.029327303E-1
4.114151570E-1,2.796317078E-2,1.255679578E-1,-2.039979845E-1
4.139029690E-1,2.476738021E-2,1.287637353E-1,-2.061285079E-1
4.163907820E-1,2.263685316E-2,1.319595277E-1,-2.061285079E-1
4.188785940E-1,1.944106072E-2,1.340900660E-1,-2.061285079E-1
4.213664070E-1,1.624527015E-2,1.351553202E-1,-2.061285079E-1
4.238542190E-1,1.198421605E-2,1.351553202E-1,-2.039979845E-1
4.263420320E-1,8.788425475E-3,1.351553202E-1,-2.018674612E-1
4.288298440E-1,4.527370445E-3,1.330247968E-1,-1.986716688E-1
4.313176570E-1,2.396843163E-3,1.319595277E-1,-1.944106072E-1
4.338054690E-1,-7.989477599E-4,1.308942735E-1,-1.912148297E-1
4.362932820E-1,-3.994738683E-3,1.308942735E-1,-1.869537681E-1
4.387810940E-1,-6.125265732E-3,1.298290044E-1,-1.848232448E-1
4.412689070E-1,-9.321057238E-3,1.287637353E-1,-1.826927215E-1
4.437567190E-1,-1.145158429E-2,1.276984811E-1,-1.816274524E-1
4.462445320E-1,-1.358211134E-2,1.276984811E-1,-1.805621833E-1
4.487323440E-1,-1.571263932E-2,1.255679578E-1,-1.805621833E-1
4.512201570E-1,-1.677790284E-2,1.255679578E-1,-1.805621833E-1
4.537079690E-1,-1.784316637E-2,1.255679578E-1,-1.805621833E-1
4.561957820E-1,-1.890842989E-2,1.245026886E-1,-1.794969290E-1
4.586835940E-1,-1.997369342E-2,1.234374270E-1,-1.773663908E-1
4.611714070E-1,-2.103895694E-2,1.223721579E-1,-1.752358675E-1
4.636592190E-1,-2.103895694E-2,1.223721579E-1,-1.731053442E-1
4.661470320E-1,-2.210422046E-2,1.213068962E-1,-1.720400751E-1
4.686348440E-1,-2.210422046E-2,1.202416345E-1,-1.709748209E-1
4.711226570E-1,-2.316948399E-2,1.181111038E-1,-1.709748209E-1
4.736104690E-1,-2.316948399E-2,1.159805804E-1,-1.720400751E-1
4.760982820E-1,-2.316948399E-2,1.138500497E-1,-1.731053442E-1
4.785860940E-1,-2.316948399E-2,1.095889956E-1,-1.731053442E-1
4.810739070E-1,-2.423474751E-2,1.063932031E-1,-1.741705984E-1
4.835617190E-1,-2.530001104E-2,1.031974182E-1,-1.731053442E-1
4.860495320E-1,-2.743053809E-2,1.010668874E-1,-1.709748209E-1
4.885373440E-1,-2.849580161E-2,9.787109494E-2,-1.688442826E-1
4.910251570E-1,-3.062633052E-2,9.574057162E-2,-1.677790284E-1
4.935129690E-1,-3.275685757E-2,9.361004084E-2,-1.677790284E-1
4.960007820E-1,-3.382211924E-2,9.041424841E-2,-1.667137593E-1
4.984885940E-1,-3.488738462E-2,8.721846342E-2,-1.656484902E-1
5.009764070E-1,-3.488738462E-2,8.508793265E-2,-1.667137593E-1
5.034642190E-1,-3.595264629E-2,8.402267098E-2,-1.656484902E-1
5.059520320E-1,-3.808317333E-2,8.295740932E-2,-1.656484902E-1
5.084398440E-1,-3.808317333E-2,8.295740932E-2,-1.645832360E-1
5.109276570E-1,-4.021370411E-2,8.402267098E-2,-1.635179669E-1
5.134154690E-1,-4.127896577E-2,8.508793265E-2,-1.613874435E-1
5.159032820E-1,-4.340949282E-2,8.615319431E-2,-1.603221744E-1
5.183910940E-1,-4.660528526E-2,8.721846342E-2,-1.592569202E-1
5.208789070E-1,-4.873581231E-2,8.508793265E-2,-1.603221744E-1
5.233667190E-1,-5.193160102E-2,8.508793265E-2,-1.613874435E-1
5.258545320E-1,-5.512739345E-2,8.508793265E-2,-1.624527127E-1
5.283423440E-1,-5.832318589E-2,8.508793265E-2,-1.635179669E-1
5.308301570E-1,-6.258423626E-2,8.721846342E-2,-1.645832360E-1
5.333179690E-1,-6.791055948E-2,8.828372508E-2,-1.656484902E-1
5.358057820E-1,-7.323687524E-2,8.828372508E-2,-1.667137593E-1
5.382935940E-1,-7.856319100E-2,8.721846342E-2,-1.688442826E-1
5.407814070E-1,-8.495477587E-2,8.508793265E-2,-1.720400751E-1
5.432692190E-1,-9.134636074E-2,7.976161689E-2,-1.763011366E-1
5.457570320E-1,-9.880319983E-2,7.337003201E-2,-1.816274524E-1
5.482448440E-1,-1.051947847E-1,6.591318548E-2,-1.848232448E-1
5.507326570E-1,-1.115863696E-1,5.845634267E-2,-1.890842915E-1
5.532204690E-1,-1.179779470E-1,5.206476152E-2,-1.922800839E-1
5.557082820E-1,-1.254348010E-1,4.567318037E-2,-1.954758763E-1
5.581960940E-1,-1.328916401E-1,4.141212255E-2,-1.986716688E-1
5.606839070E-1,-1.414137483E-1,3.821633384E-2,-2.008021921E-1
5.631717190E-1,-1.499358565E-1,3.608580679E-2,-2.018674612E-1
5.656595320E-1,-1.595232338E-1,3.182475269E-2,-2.029327303E-1
5.681473440E-1,-1.701758653E-1,2.543316968E-2,-2.039979845E-1
5.706351570E-1,-1.797632426E-1,1.691105962E-2,-2.071937770E-1
5.731229690E-1,-1.904158741E-1,4.127896391E-3,-2.103895694E-1
5.756107820E-1,-2.000032514E-1,-1.078579482E-2,-2.157158852E-1
5.780985940E-1,-2.095906287E-1,-2.569948509E-2,-2.221074700E-1
5.805864070E-1,-2.170474678E-1,-4.061317816E-2,-2.274337858E-1
5.830742190E-1,-2.255695760E-1,-5.126581341E-2,-2.338253707E-1
5.855620320E-1,-2.330264151E-1,-5.872265995E-2,-2.380864173E-1
5.880498440E-1,-2.415485233E-1,-6.404897571E-2,-2.412822098E-1
5.905376570E-1,-2.490053773E-1,-6.724476814E-2,-2.423474789E-1
5.930254690E-1,-2.564622164E-1,-7.044056058E-2,-2.434127480E-1
5.955132820E-1,-2.639190555E-1,-7.257108390E-2,-2.434127480E-1
5.980010940E-1,-2.703106403E-1,-7.576687634E-2,-2.444780022E-1
6.004889070E-1,-2.777675092E-1,-8.002793044E-2,-2.455432713E-1
6.029767190E-1,-2.852243483E-1,-8.535424620E-2,-2.476737946E-1
6.054645320E-1,-2.894853950E-1,-9.068056941E-2,-2.498043180E-1
6.079523440E-1,-2.916159332E-1,-9.387636185E-2,-2.530001104E-1
6.104401570E-1,-2.916159332E-1,-9.494162351E-2,-2.540653646E-1
6.129279690E-1,-2.916159332E-1,-9.174583107E-2,-2.540653646E-1
6.154157820E-1,-2.916159332E-1,-8.641951531E-2,-2.519348562E-1
6.179035940E-1,-2.905506492E-1,-7.789740711E-2,-2.487390637E-1
6.203914070E-1,-2.905506492E-1,-6.937529147E-2,-2.434127480E-1
6.228792190E-1,-2.905506492E-1,-6.085318699E-2,-2.380864173E-1
6.253670320E-1,-2.894853950E-1,-5.339634046E-2,-2.316948473E-1
6.278548440E-1,-2.926811874E-1,-5.659212917E-2,-2.274337858E-1
6.303426570E-1,-2.990727723E-1,-8.002793044E-2,-2.231727391E-1
6.328304690E-1,-3.118559420E-1,-1.023984700E-1,-2.178464085E-1
6.353182820E-1,-3.214432895E-1,-1.151816323E-1,-2.082590461E-1
6.378060940E-1,-3.182475269E-1,-1.215732098E-1,-1.976063997E-1
6.402939070E-1,-3.075948656E-1,-1.226384789E-1,-1.901495606E-1
6.427817190E-1,-2.937464416E-1,-1.173121557E-1,-1.848232448E-1
6.452695320E-1,-2.809632719E-1,-1.087900475E-1,-1.816274524E-1
6.477573440E-1,-2.713759243E-1,-9.600688517E-2,-1.816274524E-1
6.502451570E-1,-2.660495937E-1,-8.535424620E-2,-1.826927215E-1
6.527329690E-1,-2.617885470E-1,-7.789740711E-2,-1.837579757E-1
6.552207820E-1,-2.607232630E-1,-7.576687634E-2,-1.880190372E-1
6.577085940E-1,-2.596580088E-1,-8.109319210E-2,-1.944106072E-1
6.601964070E-1,-2.585927546E-1,-9.174583107E-2,-2.018674612E-1
6.626842190E-1,-2.575274706E-1,-1.098553166E-1,-2.093243003E-1
6.651720320E-1,-2.553969622E-1,-1.311605871E-1,-2.167811543E-1
6.676598440E-1,-2.532664239E-1,-1.535311192E-1,-2.231727391E-1
6.701476570E-1,-2.500706315E-1,-1.748363972E-1,-2.274337858E-1
6.726354690E-1,-2.447443157E-1,-1.929458827E-1,-2.306295782E-1
6.751232820E-1,-2.404832691E-1,-2.067943066E-1,-2.316948473E-1
6.776110940E-1,-2.362222075E-1,-2.153164148E-1,-2.316948473E-1
6.800989070E-1,-2.308958918E-1,-2.195774615E-1,-2.284990549E-1
6.825867190E-1,-2.245043069E-1,-2.206427306E-1,-2.253032625E-1
6.850745320E-1,-2.181127369E-1,-2.195774615E-1,-2.210422009E-1
6.875623440E-1,-2.117211521E-1,-2.153164148E-1,-2.157158852E-1
6.900501570E-1,-2.042642981E-1,-2.078595608E-1,-2.114548385E-1
6.925379690E-1,-1.978727281E-1,-2.004027218E-1,-2.039979845E-1
6.950257820E-1,-1.914811432E-1,-1.929458827E-1,-1.954758763E-1
6.975135940E-1,-1.850895584E-1,-1.854890287E-1,-1.858884990E-1
7.000014070E-1,-1.786979735E-1,-1.790974438E-1,-1.741705984E-1
7.024892190E-1,-1.723063886E-1,-1.737711281E-1,-1.592569202E-1
7.049770320E-1,-1.648495495E-1,-1.705753356E-1,-1.411474347E-1
7.074648440E-1,-1.573926955E-1,-1.663142890E-1,-1.209074259E-1
7.099526570E-1,-1.499358565E-1,-1.609879732E-1,-9.960214794E-2
7.124404690E-1,-1.414137483E-1,-1.556616426E-1,-7.723161578E-2
7.149282820E-1,-1.339569092E-1,-1.503353268E-1,-5.486107618E-2
7.174160940E-1,-1.265000552E-1,-1.460742801E-1,-3.568633273E-2
7.199039070E-1,-1.179779470E-1,-1.428784877E-1,-1.864211448E-2
7.223917190E-1,-1.094558388E-1,-1.428784877E-1,-3.728422802E-3
7.248795320E-1,-1.041295230E-1,-1.450090110E-1,1.118526794E-2
7.273673440E-1,-9.773793817E-2,-1.482048035E-1,2.396843210E-2
7.298551570E-1,-9.241162241E-2,-1.524658650E-1,3.568633273E-2
7.323429690E-1,-8.921582997E-2,-1.567269117E-1,4.846949503E-2
7.348307820E-1,-8.602003753E-2,-1.599227041E-1,6.018739566E-2
7.373185940E-1,-8.282424510E-2,-1.620532274E-1,7.190529257E-2
7.398064070E-1,-8.175898343E-2,-1.631184965E-1,8.255793154E-2
7.422942190E-1,-8.175898343E-2,-1.631184965E-1,9.108003974E-2
7.447820320E-1,-8.175898343E-2,-1.631184965E-1,9.853688627E-2
7.472698440E-1,-8.708529919E-2,-1.716406047E-1,1.038632020E-1
7.497576570E-1,-9.773793817E-2,-2.014679909E-1,1.038632020E-1
7.522454690E-1,-1.147821546E-1,-2.334259003E-1,1.049284711E-1
7.547332820E-1,-1.307611167E-1,-2.536658943E-1,1.113200486E-1
7.572210940E-1,-1.339569092E-1,-2.664490640E-1,1.177116334E-1
7.597089070E-1,-1.286305785E-1,-2.728406489E-1,1.230379492E-1
7.621967190E-1,-1.211737394E-1,-2.728406489E-1,1.230379492E-1
7.646845320E-1,-1.169126853E-1,-2.664490640E-1,1.230379492E-1
7.671723440E-1,-1.179779470E-1,-2.547311783E-1,1.209074259E-1
7.696601570E-1,-1.233042628E-1,-2.387522161E-1,1.198421568E-1
7.721479690E-1,-1.328916401E-1,-2.249037921E-1,1.177116334E-1
7.746357820E-1,-1.435442716E-1,-2.174469382E-1,1.134505793E-1
7.771235940E-1,-1.531316489E-1,-2.185122073E-1,1.091895252E-1
7.796114070E-1,-1.616537571E-1,-2.280995846E-1,1.038632020E-1
7.820992190E-1,-1.691105962E-1,-2.430132627E-1,9.960214794E-2
7.845870320E-1,-1.755021811E-1,-2.600574791E-1,9.534109384E-2
7.870748440E-1,-1.818937659E-1,-2.749711871E-1,9.321057051E-2
7.895626570E-1,-1.882853508E-1,-2.856238186E-1,9.214530140E-2
7.920504690E-1,-1.957421899E-1,-2.952111959E-1,9.214530140E-2
7.945382820E-1,-2.010685056E-1,-3.016027808E-1,9.001477808E-2
7.970260940E-1,-2.063948363E-1,-3.058638275E-1,8.681898564E-2
7.995139070E-1,-2.117211521E-1,-3.079943359E-1,8.255793154E-2
8.020017190E-1,-2.170474678E-1,-3.111901283E-1,7.829687744E-2
8.044895320E-1,-2.234390527E-1,-3.207775056E-1,7.190529257E-2
8.069773440E-1,-2.330264151E-1,-3.314301372E-1,6.657897681E-2
8.094651570E-1,-2.415485233E-1,-3.356912136E-1,6.338318437E-2
8.119529690E-1,-2.468748540E-1,-3.356912136E-1,6.125266105E-2
8.144407820E-1,-2.490053773E-1,-3.335606754E-1,5.912213027E-2
8.169285940E-1,-2.500706315E-1,-3.292996287E-1,5.699160323E-2
8.194164070E-1,-2.532664239E-1,-3.218427896E-1,5.273054913E-2
8.219042190E-1,-2.575274706E-1,-3.133206666E-1,4.953476042E-2
8.243920320E-1,-2.639190555E-1,-3.058638275E-1,4.527370632E-2
8.268798440E-1,-2.703106403E-1,-2.994722426E-1,4.207791388E-2
8.293676570E-1,-2.756369710E-1,-2.930806577E-1,3.994738683E-2
8.318554690E-1,-2.809632719E-1,-2.877543271E-1,3.781685978E-2
8.343432820E-1,-2.852243483E-1,-2.845585644E-1,3.568633273E-2
8.368310940E-1,-2.894853950E-1,-2.813627720E-1,3.355580568E-2
8.393189070E-1,-2.926811874E-1,-2.749711871E-1,3.249054030E-2
8.418067190E-1,-2.948117256E-1,-2.675143182E-1,3.249054030E-2
8.442945320E-1,-2.980075181E-1,-2.557964325E-1,3.355580568E-2
8.467823440E-1,-3.022685647E-1,-2.440785319E-1,3.462106735E-2
8.492701570E-1,-3.054643571E-1,-2.312953621E-1,3.462106735E-2
8.517579690E-1,-3.097254038E-1,-2.185122073E-1,3.675159439E-2
8.542457820E-1,-3.129211962E-1,-2.057290375E-1,3.781685978E-2
8.567335940E-1,-3.161169887E-1,-1.950764060E-1,3.888212144E-2
8.592214070E-1,-3.214432895E-1,-1.844237745E-1,3.888212144E-2
8.617092190E-1,-3.246390820E-1,-1.759016514E-1,3.994738683E-2
8.641970320E-1,-3.289001584E-1,-1.663142890E-1,4.101264849E-2
8.666848440E-1,-3.310306668E-1,-1.567269117E-1,4.101264849E-2
8.691726570E-1,-3.352917433E-1,-1.450090110E-1,4.101264849E-2
8.716604690E-1,-3.374222517E-1,-1.311605871E-1,4.101264849E-2
8.741482820E-1,-3.406180441E-1,-1.183774248E-1,4.101264849E-2
8.766360940E-1,-3.459443748E-1,-1.045289934E-1,4.101264849E-2
8.791239070E-1,-3.512706757E-1,-9.387636185E-2,3.994738683E-2
8.816117190E-1,-3.576622605E-1,-8.535424620E-2,3.781685978E-2
8.840995320E-1,-3.640538454E-1,-7.896266878E-2,3.355580568E-2
8.865873440E-1,-3.715106845E-1,-7.363634557E-2,2.929474972E-2
8.890751570E-1,-3.779022694E-1,-7.044056058E-2,2.290316857E-2
8.915629690E-1,-3.864243925E-1,-6.831002980E-2,1.651158556E-2
8.940507820E-1,-3.938812315E-1,-6.724476814E-2,9.054740891E-3
8.965385940E-1,-4.024033546E-1,-6.724476814E-2,2.663159044E-3
8.990264070E-1,-4.119907022E-1,-6.831002980E-2,-5.858949851E-3
9.015142190E-1,-4.226433635E-1,-7.044056058E-2,-1.331579592E-2
9.040020320E-1,-4.332959950E-1,-7.257108390E-2,-2.183790505E-2
9.064898440E-1,-4.460791349E-1,-7.683213800E-2,-3.036001325E-2
9.089776570E-1,-4.577970505E-1,-8.002793044E-2,-3.888212144E-2
9.114654690E-1,-4.684496820E-1,-8.322372288E-2,-4.633896798E-2
9.139532820E-1,-4.791023135E-1,-8.641951531E-2,-5.273054913E-2
9.164410940E-1,-4.876244366E-1,-8.855003864E-2,-5.699160323E-2
9.189289070E-1,-4.961465299E-1,-8.961530030E-2,-6.125266105E-2
9.214167190E-1,-5.046686530E-1,-9.174583107E-2,-6.338318437E-2
9.239045320E-1,-5.131907463E-1,-9.494162351E-2,-6.551371515E-2
9.263923440E-1,-5.206475854E-1,-9.707214683E-2,-6.870950758E-2
9.288801570E-1,-5.281044245E-1,-9.920267761E-2,-6.977476925E-2
9.313679690E-1,-5.334307551E-1,-1.002679393E-1,-7.084003091E-2
9.338557820E-1,-5.376918316E-1,-1.023984700E-1,-7.403582335E-2
9.363435940E-1,-5.408875942E-1,-1.034637317E-1,-7.723161578E-2
9.388314070E-1,-5.419528484E-1,-1.023984700E-1,-7.936213911E-2
9.413192190E-1,-5.419528484E-1,-1.002679393E-1,-8.149266988E-2
9.438070320E-1,-5.398223400E-1,-9.600688517E-2,-8.255793154E-2
9.462948440E-1,-5.334307551E-1,-8.961530030E-2,-8.255793154E-2
9.487826570E-1,-5.259739161E-1,-8.109319210E-2,-8.149266988E-2
9.512704690E-1,-5.174518228E-1,-7.150582224E-2,-7.829687744E-2
9.537582820E-1,-5.078644156E-1,-6.298371404E-2,-7.723161578E-2
9.562460940E-1,-4.972118139E-1,-5.446160212E-2,-7.510108501E-2
9.587339070E-1,-4.865591824E-1,-4.593949392E-2,-7.297056168E-2
9.612217190E-1,-4.748412669E-1,-3.954791278E-2,-7.084003091E-2
9.637095320E-1,-4.631233811E-1,-3.528685868E-2,-6.977476925E-2
9.661973440E-1,-4.503402114E-1,-3.209106624E-2,-6.657897681E-2
9.686851570E-1,-4.386222959E-1,-2.996053919E-2,-6.231792271E-2
9.711729690E-1,-4.258391261E-1,-2.996053919E-2,-5.805686861E-2
9.736607820E-1,-4.130559862E-1,-3.102580272E-2,-5.166528746E-2
9.761485940E-1,-4.002728164E-1,-3.209106624E-2,-4.527370632E-2
9.786364070E-1,-3.864243925E-1,-3.528685868E-2,-3.675159439E-2
9.811242190E-1,-3.747064769E-1,-3.954791278E-2,-2.929474972E-2
9.836120320E-1,-3.608580530E-1,-4.380896688E-2,-1.970737800E-2
9.860998440E-1,-3.470096290E-1,-4.807002097E-2,-1.012000442E-2
9.885876570E-1,-3.342264593E-1,-5.339634046E-2,-1.597895520E-3
9.910754690E-1,-3.225085735E-1,-5.765739456E-2,5.858949851E-3
9.935632820E-1,-3.129211962E-1,-6.191844866E-2,1.225053146E-2
9.960510940E-1,-3.043990731E-1,-6.617950648E-2,1.544632297E-2
9.985389070E-1,-2.980075181E-1,-7.044056058E-2,1.757685095E-2
1.001026719E0,-2.926811874E-1,-7.363634557E-2,1.757685095E-2
1.003514532E0,-2.884201407E-1,-7.470161468E-2,1.651158556E-2
1.006002344E0,-2.841590643E-1,-7.470161468E-2,1.651158556E-2
1.008490157E0,-2.798980176E-1,-7.363634557E-2,1.864211448E-2
1.010977969E0,-2.767022252E-1,-7.044056058E-2,2.183790505E-2
1.013465782E0,-2.745717168E-1,-6.724476814E-2,2.609895915E-2
1.015953594E0,-2.713759243E-1,-6.298371404E-2,3.142527863E-2
1.018441407E0,-2.681801319E-1,-5.872265995E-2,3.462106735E-2
1.020929219E0,-2.660495937E-1,-5.446160212E-2,3.888212144E-2
1.023417032E0,-2.628538013E-1,-4.807002097E-2,3.994738683E-2
1.025904844E0,-2.575274706E-1,-4.274370521E-2,3.994738683E-2
1.028392657E0,-2.522011697E-1,-3.848264739E-2,3.888212144E-2
1.030880469E0,-2.468748540E-1,-3.422159329E-2,3.675159439E-2
1.033368282E0,-2.404832691E-1,-3.102580272E-2,3.568633273E-2
1.035856094E0,-2.340916842E-1,-2.996053919E-2,3.355580568E-2
1.038343907E0,-2.287653685E-1,-3.102580272E-2,3.142527863E-2
1.040831719E0,-2.223737836E-1,-3.528685868E-2,2.929474972E-2
1.043319532E0,-2.149169445E-1,-4.167843983E-2,2.396843210E-2
1.045807344E0,-2.074600905E-1,-5.020054802E-2,1.757685095E-2
1.048295157E0,-2.000032514E-1,-6.191844866E-2,9.054740891E-3
1.050782969E0,-1.914811432E-1,-7.576687634E-2,-1.597895520E-3
1.053270782E0,-1.829590350E-1,-9.174583107E-2,-1.438105945E-2
1.055758594E0,-1.744369268E-1,-1.066595241E-1,-2.822948620E-2
1.058246407E0,-1.659148186E-1,-1.226384789E-1,-4.314317927E-2
1.060734219E0,-1.584579647E-1,-1.364869028E-1,-5.805686861E-2
1.063222032E0,-1.510011256E-1,-1.482048035E-1,-7.510108501E-2
1.065709844E0,-1.446095407E-1,-1.567269117E-1,-9.001477808E-2
1.068197657E0,-1.392832249E-1,-1.620532274E-1,-1.038632020E-1
1.070685469E0,-1.350221634E-1,-1.652490199E-1,-1.166463718E-1
1.073173282E0,-1.328916401E-1,-1.641837656E-1,-1.283642650E-1
1.075661094E0,-1.307611167E-1,-1.609879732E-1,-1.379516423E-1
1.078148907E0,-1.307611167E-1,-1.556616426E-1,-1.454084814E-1
1.080636719E0,-1.307611167E-1,-1.471395344E-1,-1.486042738E-1
1.083124532E0,-1.307611167E-1,-1.343563795E-1,-1.496695429E-1
1.085612344E0,-1.318263710E-1,-1.194426864E-1,-1.464737505E-1
1.088100157E0,-1.339569092E-1,-1.045289934E-1,-1.400821656E-1
1.090587969E0,-1.382179558E-1,-8.855003864E-2,-1.304948032E-1
1.093075782E0,-1.435442716E-1,-7.257108390E-2,-1.198421568E-1
1.095563594E0,-1.478053331E-1,-5.765739456E-2,-1.081242561E-1
1.098051407E0,-1.531316489E-1,-4.274370521E-2,-9.747162461E-2
1.100539219E0,-1.584579647E-1,-2.783001214E-2,-8.681898564E-2
1.103027032E0,-1.637842804E-1,-1.504684892E-2,-7.829687744E-2
1.105514844E0,-1.680453420E-1,-4.394212738E-3,-7.084003091E-2
1.108002657E0,-1.723063886E-1,6.258423906E-3,-6.551371515E-2
1.110490469E0,-1.744369268E-1,1.584579609E-2,-6.125266105E-2
1.112978282E0,-1.765674502E-1,2.543316968E-2,-5.699160323E-2
1.115466094E0,-1.776327193E-1,3.289001435E-2,-5.273054913E-2
1.117953907E0,-1.797632426E-1,4.034686089E-2,-4.953476042E-2
1.120441719E0,-1.808284968E-1,4.247738793E-2,-4.420844093E-2
1.122929532E0,-1.808284968E-1,4.247738793E-2,-4.207791388E-2
1.125417344E0,-1.776327193E-1,3.928159550E-2,-4.101264849E-2
1.127905157E0,-1.733716577E-1,3.182475269E-2,-3.994738683E-2
1.130392969E0,-1.669800729E-1,1.904158667E-2,-4.101264849E-2
1.132880782E0,-1.616537571E-1,9.321057005E-4,-4.207791388E-2
1.135368594E0,-1.563274413E-1,-2.143843099E-2,-4.314317927E-2
1.137856407E0,-1.510011256E-1,-4.807002097E-2,-4.633896798E-2
1.140344219E0,-1.467400640E-1,-7.363634557E-2,-4.953476042E-2
1.142832032E0,-1.424790174E-1,-9.920267761E-2,-5.273054913E-2
1.145319844E0,-1.382179558E-1,-1.226384789E-1,-5.592634156E-2
1.147807657E0,-1.350221634E-1,-1.418132186E-1,-5.699160323E-2
1.150295469E0,-1.318263710E-1,-1.577921808E-1,-5.699160323E-2
1.152783282E0,-1.286305785E-1,-1.695100814E-1,-5.486107618E-2
1.155271094E0,-1.265000552E-1,-1.780321896E-1,-5.166528746E-2
1.157758907E0,-1.243695319E-1,-1.854890287E-1,-4.527370632E-2
1.160246719E0,-1.211737394E-1,-1.886848211E-1,-3.888212144E-2
1.162734532E0,-1.179779470E-1,-1.897500902E-1,-3.036001325E-2
1.165222344E0,-1.158474237E-1,-1.897500902E-1,-1.970737800E-2
1.167710157E0,-1.126516312E-1,-1.844237745E-1,-9.054740891E-3
1.170197969E0,-1.105211005E-1,-1.769669205E-1,2.663159044E-3
1.172685782E0,-1.073253155E-1,-1.652490199E-1,1.544632297E-2
1.175173594E0,-1.062600464E-1,-1.524658650E-1,2.822948620E-2
1.177661407E0,-1.062600464E-1,-1.386174262E-1,3.994738683E-2
1.180149219E0,-1.062600464E-1,-1.247690022E-1,5.273054913E-2
1.182637032E0,-1.073253155E-1,-1.119858399E-1,6.338318437E-2
1.185124844E0,-1.073253155E-1,-1.034637317E-1,7.297056168E-2
1.187612657E0,-1.083905771E-1,-9.600688517E-2,8.149266988E-2
1.190100469E0,-1.094558388E-1,-9.174583107E-2,8.788424730E-2
1.192588282E0,-1.105211005E-1,-9.068056941E-2,9.321057051E-2
1.195076094E0,-1.126516312E-1,-9.281109273E-2,9.747162461E-2
1.197563907E0,-1.147821546E-1,-9.707214683E-2,9.853688627E-2
1.200051719E0,-1.158474237E-1,-1.045289934E-1,9.853688627E-2
1.202539532E0,-1.169126853E-1,-1.119858399E-1,9.747162461E-2
1.205027344E0,-1.179779470E-1,-1.194426864E-1,9.640636295E-2
1.207515157E0,-1.190432087E-1,-1.247690022E-1,9.640636295E-2
1.210002969E0,-1.201084778E-1,-1.279647946E-1,9.747162461E-2
1.212490782E0,-1.211737394E-1,-1.311605871E-1,9.853688627E-2
1.214978594E0,-1.222390011E-1,-1.332911104E-1,9.853688627E-2
1.217466407E0,-1.222390011E-1,-1.354216337E-1,9.960214794E-2
1.219954219E0,-1.222390011E-1,-1.386174262E-1,1.017326787E-1
1.222442032E0,-1.211737394E-1,-1.418132186E-1,1.049284711E-1
1.224929844E0,-1.179779470E-1,-1.471395344E-1,1.081242561E-1
1.227417657E0,-1.147821546E-1,-1.524658650E-1,1.113200486E-1
1.229905469E0,-1.115863696E-1,-1.588574350E-1,1.134505793E-1
1.232393282E0,-1.062600464E-1,-1.663142890E-1,1.166463718E-1
1.234881094E0,-1.009337306E-1,-1.737711281E-1,1.198421568E-1
1.237368907E0,-9.347688407E-2,-1.822932363E-1,1.219726875E-1
1.239856719E0,-8.495477587E-2,-1.886848211E-1,1.241032109E-1
1.242344532E0,-7.643266767E-2,-1.929458827E-1,1.262337416E-1
1.244832344E0,-6.684529036E-2,-1.972069293E-1,1.294295341E-1
1.247320157E0,-6.045371294E-2,-2.046637833E-1,1.315600574E-1
1.249807969E0,-5.725792050E-2,-2.217079997E-1,1.326253265E-1
1.252295782E0,-5.619265884E-2,-2.494048476E-1,1.326253265E-1
1.254783594E0,-5.725792050E-2,-2.696448565E-1,1.358211190E-1
1.257271407E0,-4.980107397E-2,-2.760364413E-1,1.400821656E-1
1.259759219E0,-3.382211924E-2,-2.749711871E-1,1.400821656E-1
1.262247032E0,-1.464737486E-2,-2.664490640E-1,1.379516423E-1
1.264734844E0,1.331579522E-3,-2.504701018E-1,1.336905807E-1
1.267222657E0,1.198421605E-2,-2.291648388E-1,1.283642650E-1
1.269710469E0,1.944106072E-2,-2.057290375E-1,1.219726875E-1
1.272198282E0,2.476738021E-2,-1.844237745E-1,1.145158410E-1
1.274686094E0,2.689790726E-2,-1.673795432E-1,1.081242561E-1
1.277173907E0,3.115896136E-2,-1.567269117E-1,1.017326787E-1
1.279661719E0,3.435475379E-2,-1.514005959E-1,9.534109384E-2
1.282149532E0,3.861580789E-2,-1.492700726E-1,8.894951642E-2
1.284637344E0,4.181159660E-2,-1.482048035E-1,8.468846232E-2
1.287125157E0,4.287686199E-2,-1.471395344E-1,7.936213911E-2
1.289612969E0,4.181159660E-2,-1.482048035E-1,7.190529257E-2
1.292100782E0,4.074633494E-2,-1.514005959E-1,6.444845349E-2
1.294588594E0,3.968106955E-2,-1.556616426E-1,5.486107618E-2
1.297076407E0,3.861580789E-2,-1.609879732E-1,4.314317927E-2
1.299564219E0,3.755054250E-2,-1.663142890E-1,3.142527863E-2
1.302052032E0,3.542001545E-2,-1.684448123E-1,2.077264152E-2
1.304539844E0,3.435475379E-2,-1.684448123E-1,9.054740891E-3
1.307027657E0,3.328948840E-2,-1.663142890E-1,-5.326318205E-4
1.309515469E0,2.902843431E-2,-1.641837656E-1,-9.054740891E-3
1.312003282E0,2.476738021E-2,-1.620532274E-1,-1.864211448E-2
1.314491094E0,1.944106072E-2,-1.609879732E-1,-2.716422267E-2
1.316978907E0,1.411474310E-2,-1.609879732E-1,-3.355580568E-2
1.319466719E0,7.723161485E-3,-1.631184965E-1,-3.888212144E-2
1.321954532E0,1.331579522E-3,-1.663142890E-1,-4.207791388E-2
1.324442344E0,-3.994738683E-3,-1.716406047E-1,-4.420844093E-2
1.326930157E0,-9.321057238E-3,-1.759016514E-1,-4.420844093E-2
1.329417969E0,-1.358211134E-2,-1.790974438E-1,-4.314317927E-2
1.331905782E0,-1.784316637E-2,-1.790974438E-1,-3.994738683E-2
1.334393594E0,-2.103895694E-2,-1.769669205E-1,-3.781685978E-2
1.336881407E0,-2.530001104E-2,-1.737711281E-1,-3.462106735E-2
1.339369219E0,-2.849580161E-2,-1.684448123E-1,-3.249054030E-2
1.341857032E0,-3.169159219E-2,-1.641837656E-1,-3.142527863E-2
1.344344844E0,-3.488738462E-2,-1.609879732E-1,-3.036001325E-2
1.346832657E0,-3.808317333E-2,-1.567269117E-1,-3.036001325E-2
1.349320469E0,-4.021370411E-2,-1.535311192E-1,-3.036001325E-2
1.351808282E0,-4.234423116E-2,-1.482048035E-1,-3.036001325E-2
1.354296094E0,-4.447475821E-2,-1.428784877E-1,-3.249054030E-2
1.356783907E0,-4.554001987E-2,-1.364869028E-1,-3.568633273E-2
1.359271719E0,-4.660528526E-2,-1.311605871E-1,-4.207791388E-2
1.361759532E0,-4.767054692E-2,-1.247690022E-1,-5.060002208E-2
1.364247344E0,-4.873581231E-2,-1.173121557E-1,-5.912213027E-2
1.366735157E0,-4.980107397E-2,-1.109205782E-1,-6.870950758E-2
1.369222969E0,-5.193160102E-2,-1.034637317E-1,-7.936213911E-2
1.371710782E0,-5.406212807E-2,-9.707214683E-2,-9.108003974E-2
1.374198594E0,-5.725792050E-2,-9.174583107E-2,-1.027979404E-1
1.376686407E0,-6.045371294E-2,-8.748477697E-2,-1.134505793E-1
1.379174219E0,-6.578002870E-2,-8.428898454E-2,-1.241032109E-1
1.381662032E0,-7.110634446E-2,-8.428898454E-2,-1.336905807E-1
1.384149844E0,-7.856319100E-2,-8.428898454E-2,-1.411474347E-1
1.386637657E0,-8.815056831E-2,-8.641951531E-2,-1.486042738E-1
1.389125469E0,-9.773793817E-2,-8.748477697E-2,-1.549958587E-1
1.391613282E0,-1.094558388E-1,-8.748477697E-2,-1.603221744E-1
1.394101094E0,-1.222390011E-1,-8.748477697E-2,-1.645832360E-1
1.396588907E0,-1.360874325E-1,-8.641951531E-2,-1.677790284E-1
1.399076719E0,-1.510011256E-1,-8.322372288E-2,-1.688442826E-1
1.401564532E0,-1.669800729E-1,-7.896266878E-2,-1.677790284E-1
1.404052344E0,-1.840242893E-1,-7.470161468E-2,-1.656484902E-1
1.406540157E0,-2.010685056E-1,-6.937529147E-2,-1.613874435E-1
1.409027969E0,-2.170474678E-1,-6.404897571E-2,-1.581916511E-1
1.411515782E0,-2.319611609E-1,-5.978792161E-2,-1.549958587E-1
1.414003594E0,-2.458095849E-1,-5.659212917E-2,-1.518000662E-1
1.416491407E0,-2.575274706E-1,-5.339634046E-2,-1.496695429E-1
1.418979219E0,-2.692453861E-1,-5.233107507E-2,-1.496695429E-1
1.421467032E0,-2.798980176E-1,-5.126581341E-2,-1.528653353E-1
1.423954844E0,-2.894853950E-1,-4.913528636E-2,-1.560611278E-1
1.426442657E0,-2.958769798E-1,-4.593949392E-2,-1.613874435E-1
1.428930469E0,-3.012032807E-1,-4.274370521E-2,-1.699095517E-1
1.431418282E0,-3.054643571E-1,-3.741738573E-2,-1.805621833E-1
1.433906094E0,-3.086601496E-1,-2.996053919E-2,-1.922800839E-1
1.436393907E0,-3.118559420E-1,-2.569948509E-2,-2.061285079E-1
1.438881719E0,-3.129211962E-1,-2.356895804E-2,-2.189116776E-1
1.441369532E0,-3.139864504E-1,-2.463422157E-2,-2.316948473E-1
1.443857344E0,-3.150517344E-1,-2.783001214E-2,-2.444780022E-1
1.446345157E0,-3.139864504E-1,-3.102580272E-2,-2.551306486E-1
1.448832969E0,-3.097254038E-1,-3.209106624E-2,-2.668485343E-1
1.451320782E0,-3.054643571E-1,-3.209106624E-2,-2.764359117E-1
1.453808594E0,-3.001380265E-1,-2.889527567E-2,-2.828274965E-1
1.456296407E0,-2.948117256E-1,-2.463422157E-2,-2.870885432E-1
1.458784219E0,-2.884201407E-1,-2.037316747E-2,-2.902843356E-1
1.461272032E0,-2.820285559E-1,-1.611211337E-2,-2.902843356E-1
1.463759844E0,-2.756369710E-1,-1.291632187E-2,-2.892190814E-1
1.466247657E0,-2.671148479E-1,-1.185105834E-2,-2.849580348E-1
1.468735469E0,-2.575274706E-1,-1.185105834E-2,-2.775011659E-1
1.471223282E0,-2.479401082E-1,-1.185105834E-2,-2.668485343E-1
1.473711094E0,-2.383527458E-1,-1.078579482E-2,-2.540653646E-1
1.476198907E0,-2.287653685E-1,-9.720530361E-3,-2.380864173E-1
1.478686719E0,-2.191779912E-1,-8.655266836E-3,-2.221074700E-1
1.481174532E0,-2.106558830E-1,-9.720530361E-3,-2.061285079E-1
1.483662344E0,-2.021337748E-1,-1.398158539E-2,-1.901495606E-1
1.486150157E0,-1.936116666E-1,-2.250369452E-2,-1.763011366E-1
1.488637969E0,-1.850895584E-1,-3.422159329E-2,-1.635179669E-1
1.491125782E0,-1.755021811E-1,-5.233107507E-2,-1.518000662E-1
1.493613594E0,-1.637842804E-1,-7.150582224E-2,-1.411474347E-1
1.496101407E0,-1.531316489E-1,-9.174583107E-2,-1.315600574E-1
1.498589219E0,-1.403484792E-1,-1.098553166E-1,-1.241032109E-1
1.501077032E0,-1.265000552E-1,-1.237037405E-1,-1.166463718E-1
1.503564844E0,-1.105211005E-1,-1.343563795E-1,-1.102547869E-1
1.506052657E0,-9.667267650E-2,-1.460742801E-1,-1.049284711E-1
1.508540469E0,-8.602003753E-2,-1.737711281E-1,-1.027979404E-1
1.511028282E0,-7.856319100E-2,-2.185122073E-1,-1.006674170E-1
1.513516094E0,-7.430213690E-2,-2.472743243E-1,-9.321057051E-2
1.516003907E0,-5.938844755E-2,-2.600574791E-1,-8.362319320E-2
1.518491719E0,-3.382211924E-2,-2.632532716E-1,-7.723161578E-2
1.520979532E0,-7.190529723E-3,-2.589922249E-1,-7.403582335E-2
1.523467344E0,1.731053367E-2,-2.462090552E-1,-7.510108501E-2
1.525955157E0,3.755054250E-2,-2.291648388E-1,-7.723161578E-2
1.528442969E0,5.139897019E-2,-2.099900991E-1,-7.829687744E-2
1.530930782E0,6.418213248E-2,-1.940111369E-1,-7.829687744E-2
1.533418594E0,7.590003312E-2,-1.844237745E-1,-7.723161578E-2
1.535906407E0,8.548741043E-2,-1.801627129E-1,-7.616634667E-2
1.538394219E0,9.507478029E-2,-1.801627129E-1,-7.616634667E-2
1.540882032E0,1.004010960E-1,-1.790974438E-1,-7.510108501E-2
1.543369844E0,1.046621501E-1,-1.759016514E-1,-7.403582335E-2
1.545857657E0,1.078579426E-1,-1.673795432E-1,-7.190529257E-2
1.548345469E0,1.089232042E-1,-1.577921808E-1,-6.977476925E-2
1.550833282E0,1.089232042E-1,-1.450090110E-1,-6.764423847E-2
1.553321094E0,1.078579426E-1,-1.343563795E-1,-6.551371515E-2
1.555808907E0,1.046621501E-1,-1.258342713E-1,-6.231792271E-2
1.558296719E0,9.827057272E-2,-1.183774248E-1,-5.805686861E-2
1.560784584E0,8.974846452E-2,-1.162468940E-1,-5.486107618E-2
1.563272448E0,8.016108721E-2,-1.173121557E-1,-5.166528746E-2
1.565760313E0,6.844318658E-2,-1.215732098E-1,-4.846949503E-2
1.568248177E0,5.672528967E-2,-1.279647946E-1,-4.527370632E-2
1.570736042E0,4.394212365E-2,-1.343563795E-1,-3.994738683E-2
1.573223907E0,2.902843431E-2,-1.396826953E-1,-3.568633273E-2
1.575711771E0,1.304947957E-2,-1.460742801E-1,-3.142527863E-2
1.578199636E0,-3.994738683E-3,-1.514005959E-1,-2.822948620E-2
1.580687500E0,-2.103895694E-2,-1.556616426E-1,-2.822948620E-2
1.583175365E0,-3.808317333E-2,-1.620532274E-1,-3.036001325E-2
1.585663230E0,-5.406212807E-2,-1.695100814E-1,-3.462106735E-2
1.588151094E0,-7.004108280E-2,-1.759016514E-1,-3.994738683E-2
1.590638959E0,-8.495477587E-2,-1.812279820E-1,-4.740423337E-2
1.593126823E0,-9.986846894E-2,-1.844237745E-1,-5.379581451E-2
1.595614688E0,-1.137168929E-1,-1.844237745E-1,-5.912213027E-2
1.598102552E0,-1.265000552E-1,-1.812279820E-1,-6.444845349E-2
1.600590417E0,-1.382179558E-1,-1.759016514E-1,-6.764423847E-2
1.603078282E0,-1.488705873E-1,-1.695100814E-1,-7.190529257E-2
1.605566146E0,-1.595232338E-1,-1.609879732E-1,-7.403582335E-2
1.608054011E0,-1.701758653E-1,-1.545963883E-1,-7.829687744E-2
1.610541875E0,-1.776327193E-1,-1.471395344E-1,-8.149266988E-2
1.613029740E0,-1.840242893E-1,-1.407479644E-1,-8.468846232E-2
1.615517605E0,-1.893506050E-1,-1.354216337E-1,-8.575372398E-2
1.618005469E0,-1.936116666E-1,-1.300953180E-1,-8.681898564E-2
1.620493334E0,-1.978727281E-1,-1.247690022E-1,-8.575372398E-2
1.622981198E0,-2.010685056E-1,-1.183774248E-1,-8.468846232E-2
1.625469063E0,-2.031990439E-1,-1.119858399E-1,-8.255793154E-2
1.627956875E0,-2.031990439E-1,-1.034637317E-1,-7.936213911E-2
1.630444688E0,-2.021337748E-1,-9.494162351E-2,-7.510108501E-2
1.632932500E0,-2.000032514E-1,-8.641951531E-2,-6.977476925E-2
1.635420313E0,-1.989379823E-1,-7.789740711E-2,-6.338318437E-2
1.637908125E0,-1.968074590E-1,-7.044056058E-2,-5.805686861E-2
1.640395938E0,-1.957421899E-1,-6.511423737E-2,-5.273054913E-2
1.642883750E0,-1.946769357E-1,-6.191844866E-2,-4.740423337E-2
1.645371563E0,-1.936116666E-1,-6.085318699E-2,-4.314317927E-2
1.647859375E0,-1.925463974E-1,-6.191844866E-2,-3.994738683E-2
1.650347188E0,-1.914811432E-1,-6.298371404E-2,-3.675159439E-2
1.652835000E0,-1.893506050E-1,-6.298371404E-2,-3.462106735E-2
1.655322813E0,-1.882853508E-1,-6.298371404E-2,-3.036001325E-2
1.657810625E0,-1.861548275E-1,-6.191844866E-2,-2.503369562E-2
1.660298438E0,-1.861548275E-1,-5.978792161E-2,-1.970737800E-2
1.662786250E0,-1.840242893E-1,-5.978792161E-2,-1.331579592E-2
1.665274063E0,-1.829590350E-1,-6.298371404E-2,-5.858949851E-3
1.667761875E0,-1.818937659E-1,-6.724476814E-2,2.663159044E-3
1.670249688E0,-1.797632426E-1,-7.257108390E-2,1.225053146E-2
1.672737500E0,-1.765674502E-1,-7.896266878E-2,2.290316857E-2
1.675225313E0,-1.723063886E-1,-8.535424620E-2,3.355580568E-2
1.677713125E0,-1.691105962E-1,-9.174583107E-2,4.314317927E-2
1.680200938E0,-1.627190262E-1,-9.813741595E-2,5.379581451E-2
1.682688750E0,-1.552621722E-1,-1.055942550E-1,6.338318437E-2
1.685176563E0,-1.456748098E-1,-1.130511016E-1,7.297056168E-2
1.687664375E0,-1.360874325E-1,-1.215732098E-1,8.149266988E-2
1.690152188E0,-1.254348010E-1,-1.290300637E-1,9.001477808E-2
1.692640000E0,-1.137168929E-1,-1.354216337E-1,9.853688627E-2
1.695127813E0,-1.009337306E-1,-1.407479644E-1,1.049284711E-1
1.697615625E0,-8.708529919E-2,-1.460742801E-1,1.113200486E-1
1.700103438E0,-7.430213690E-2,-1.524658650E-1,1.155811027E-1
1.702591250E0,-5.938844755E-2,-1.567269117E-1,1.198421568E-1
1.705079063E0,-4.340949282E-2,-1.599227041E-1,1.241032109E-1
1.707566875E0,-2.743053809E-2,-1.620532274E-1,1.272990108E-1
1.710054688E0,-1.145158429E-2,-1.620532274E-1,1.294295341E-1
1.712542500E0,4.527370445E-3,-1.588574350E-1,1.326253265E-1
1.715030313E0,2.157158963E-2,-1.535311192E-1,1.347558498E-1
1.717518125E0,3.861580789E-2,-1.482048035E-1,1.379516423E-1
1.720005938E0,5.566002429E-2,-1.396826953E-1,1.400821656E-1
1.722493750E0,7.270424068E-2,-1.300953180E-1,1.422126889E-1
1.724981563E0,8.974846452E-2,-1.205079481E-1,1.432779580E-1
1.727469375E0,1.046621501E-1,-1.119858399E-1,1.432779580E-1
1.729957188E0,1.195758432E-1,-1.045289934E-1,1.432779580E-1
1.732445000E0,1.334242672E-1,-9.813741595E-2,1.443432271E-1
1.734932813E0,1.462074369E-1,-9.281109273E-2,1.432779580E-1
1.737420625E0,1.579253376E-1,-8.855003864E-2,1.422126889E-1
1.739908438E0,1.685779691E-1,-8.428898454E-2,1.422126889E-1
1.742396250E0,1.781653464E-1,-7.896266878E-2,1.422126889E-1
1.744884063E0,1.866874546E-1,-7.683213800E-2,1.422126889E-1
1.747371875E0,1.930790395E-1,-7.470161468E-2,1.411474347E-1
1.749859688E0,1.973400861E-1,-7.470161468E-2,1.400821656E-1
1.752347500E0,2.005358785E-1,-7.683213800E-2,1.390169114E-1
1.754835313E0,2.037316710E-1,-7.896266878E-2,1.379516423E-1
1.757323125E0,2.047969401E-1,-8.322372288E-2,1.358211190E-1
1.759810938E0,2.058621943E-1,-8.855003864E-2,1.336905807E-1
1.762298750E0,2.069274634E-1,-9.494162351E-2,1.304948032E-1
1.764786563E0,2.058621943E-1,-1.023984700E-1,1.283642650E-1
1.767274375E0,2.047969401E-1,-1.098553166E-1,1.262337416E-1
1.769762188E0,2.037316710E-1,-1.151816323E-1,1.230379492E-1
1.772250000E0,2.016011477E-1,-1.215732098E-1,1.198421568E-1
1.774737813E0,1.994706094E-1,-1.268995255E-1,1.187768951E-1
1.777225625E0,1.973400861E-1,-1.300953180E-1,1.166463718E-1
1.779713438E0,1.952095628E-1,-1.322258562E-1,1.155811027E-1
1.782201250E0,1.930790395E-1,-1.343563795E-1,1.134505793E-1
1.784689063E0,1.920137703E-1,-1.354216337E-1,1.134505793E-1
1.787176875E0,1.898832470E-1,-1.364869028E-1,1.123853177E-1
1.789664688E0,1.877527237E-1,-1.386174262E-1,1.102547869E-1
1.792152500E0,1.856221855E-1,-1.396826953E-1,1.070589945E-1
1.794640313E0,1.834916621E-1,-1.396826953E-1,1.027979404E-1
1.797128125E0,1.813611388E-1,-1.386174262E-1,9.960214794E-2
1.799615938E0,1.792306006E-1,-1.364869028E-1,9.640636295E-2
1.802103750E0,1.781653464E-1,-1.332911104E-1,9.321057051E-2
1.804591563E0,1.771000773E-1,-1.290300637E-1,8.788424730E-2
1.807079375E0,1.760348231E-1,-1.237037405E-1,8.362319320E-2
1.809567188E0,1.749695539E-1,-1.162468940E-1,7.829687744E-2
1.812055000E0,1.728390306E-1,-1.077247858E-1,7.297056168E-2
1.814542813E0,1.707084924E-1,-9.813741595E-2,6.551371515E-2
1.817030625E0,1.685779691E-1,-8.855003864E-2,5.805686861E-2
1.819518438E0,1.653821766E-1,-8.002793044E-2,4.953476042E-2
1.822006250E0,1.600558609E-1,-7.150582224E-2,4.101264849E-2
1.824494063E0,1.547295451E-1,-6.404897571E-2,3.249054030E-2
1.826981875E0,1.472726911E-1,-5.552686751E-2,2.609895915E-2
1.829469688E0,1.398158520E-1,-4.593949392E-2,1.864211448E-2
1.831957500E0,1.334242672E-1,-3.528685868E-2,1.438105945E-2
1.834445313E0,1.259674281E-1,-2.356895804E-2,1.118526794E-2
1.836933125E0,1.185105816E-1,-1.078579482E-2,9.054740891E-3
1.839420938E0,1.121189967E-1,4.127896391E-3,7.989477366E-3
1.841908750E0,1.035968885E-1,1.797632314E-2,6.924213842E-3
1.844396563E0,9.614004195E-2,3.075948730E-2,5.858949851E-3
1.846884375E0,8.761793375E-2,4.354264960E-2,4.793686327E-3
1.849372188E0,8.016108721E-2,5.526055023E-2,5.326318205E-4
1.851860000E0,7.270424068E-2,6.378266215E-2,-3.728422802E-3
1.854347813E0,6.524740160E-2,6.910897791E-2,-7.989477366E-3
1.856835625E0,5.885581672E-2,7.337003201E-2,-1.544632297E-2
1.859323438E0,5.246423557E-2,7.656582445E-2,-2.290316857E-2
1.861811250E0,4.607265070E-2,7.869634777E-2,-3.036001325E-2
1.864299063E0,3.861580789E-2,8.082687855E-2,-3.888212144E-2
1.866786875E0,3.222422674E-2,8.082687855E-2,-4.846949503E-2
1.869274688E0,2.583264373E-2,7.976161689E-2,-5.912213027E-2
1.871762500E0,2.050632425E-2,7.763108611E-2,-6.870950758E-2
1.874250313E0,1.518000662E-2,7.443529367E-2,-7.936213911E-2
1.876738125E0,1.091895252E-2,7.017423958E-2,-8.894951642E-2
1.879225938E0,6.657897960E-3,6.484792382E-2,-9.960214794E-2
1.881713750E0,1.331579522E-3,5.845634267E-2,-1.091895252E-1
1.884201563E0,-1.864211401E-3,5.099949613E-2,-1.177116334E-1
1.886689375E0,-6.125265732E-3,4.567318037E-2,-1.251684725E-1
1.889177188E0,-1.038632076E-2,3.928159550E-2,-1.315600574E-1
1.891665000E0,-1.358211134E-2,3.502054140E-2,-1.368863732E-1
1.894152813E0,-1.571263932E-2,3.182475269E-2,-1.411474347E-1
1.896640625E0,-1.890842989E-2,3.075948730E-2,-1.443432271E-1
1.899128438E0,-1.997369342E-2,3.075948730E-2,-1.454084814E-1
1.901616250E0,-2.103895694E-2,3.182475269E-2,-1.464737505E-1
1.904104063E0,-2.210422046E-2,3.395527974E-2,-1.454084814E-1
1.906591875E0,-2.316948399E-2,3.502054140E-2,-1.443432271E-1
1.909079688E0,-2.423474751E-2,3.821633384E-2,-1.422126889E-1
1.911567500E0,-2.423474751E-2,4.034686089E-2,-1.400821656E-1
1.914055313E0,-2.530001104E-2,4.141212255E-2,-1.390169114E-1
1.916543125E0,-2.530001104E-2,4.354264960E-2,-1.368863732E-1
1.919030938E0,-2.530001104E-2,4.673844203E-2,-1.347558498E-1
1.921518750E0,-2.316948399E-2,4.993423447E-2,-1.326253265E-1
1.924006563E0,-2.103895694E-2,5.313002318E-2,-1.294295341E-1
1.926494375E0,-1.677790284E-2,5.739107728E-2,-1.272990108E-1
1.928982188E0,-1.251684781E-2,6.165213138E-2,-1.230379492E-1
1.931470000E0,-6.125265732E-3,6.697845459E-2,-1.198421568E-1
1.933957813E0,-7.989477599E-4,7.230477035E-2,-1.155811027E-1
1.936445625E0,4.527370445E-3,7.763108611E-2,-1.113200486E-1
1.938933438E0,9.853689000E-3,8.295740932E-2,-1.070589945E-1
1.941421250E0,1.411474310E-2,8.615319431E-2,-1.027979404E-1
1.943909063E0,1.837579720E-2,8.828372508E-2,-9.960214794E-2
1.946396875E0,2.370211668E-2,8.828372508E-2,-9.747162461E-2
1.948884688E0,2.796317078E-2,8.615319431E-2,-9.640636295E-2
1.951372500E0,3.328948840E-2,8.189214021E-2,-9.534109384E-2
1.953860313E0,3.861580789E-2,7.550056279E-2,-9.321057051E-2
1.956348125E0,4.287686199E-2,6.804371625E-2,-9.214530140E-2
1.958835938E0,4.607265070E-2,5.952160433E-2,-9.108003974E-2
1.961323750E0,4.926844314E-2,4.993423447E-2,-9.108003974E-2
1.963811563E0,5.139897019E-2,4.247738793E-2,-9.214530140E-2
1.966299375E0,5.352949724E-2,3.715106845E-2,-9.321057051E-2
1.968787188E0,5.566002429E-2,3.395527974E-2,-9.321057051E-2
1.971275000E0,5.672528967E-2,3.289001435E-2,-9.427583218E-2
1.973762813E0,5.779055133E-2,3.182475269E-2,-9.534109384E-2
1.976250625E0,5.672528967E-2,2.969422378E-2,-9.534109384E-2
1.978738438E0,5.672528967E-2,2.543316968E-2,-9.640636295E-2
1.981226250E0,5.566002429E-2,2.117211558E-2,-9.747162461E-2
1.983714063E0,5.779055133E-2,1.691105962E-2,-9.747162461E-2
1.986201875E0,5.885581672E-2,1.371526904E-2,-9.853688627E-2
1.988689688E0,5.992107838E-2,1.265000552E-2,-9.960214794E-2
1.991177500E0,6.098634377E-2,1.158474199E-2,-9.960214794E-2
1.993665313E0,6.311687082E-2,1.265000552E-2,-1.006674170E-1
1.996153125E0,6.631266326E-2,1.158474199E-2,-1.017326787E-1
1.998640938E0,6.950845569E-2,9.454214945E-3,-1.027979404E-1
2.001128750E0,7.483477145E-2,7.323687430E-3,-1.027979404E-1
2.003616563E0,8.122635633E-2,5.193160381E-3,-1.017326787E-1
2.006104375E0,8.761793375E-2,4.127896391E-3,-1.006674170E-1
2.008592188E0,9.507478029E-2,4.127896391E-3,-9.853688627E-2
2.011080000E0,1.025316268E-1,5.193160381E-3,-9.534109384E-2
2.013567813E0,1.099884734E-1,9.454214945E-3,-9.214530140E-2
2.016055625E0,1.174453199E-1,1.371526904E-2,-8.894951642E-2
2.018543438E0,1.249021590E-1,1.797632314E-2,-8.468846232E-2
2.021031250E0,1.323590130E-1,2.223737910E-2,-8.149266988E-2
2.023519063E0,1.408811212E-1,2.543316968E-2,-7.723161578E-2
2.026006875E0,1.494032294E-1,2.862896025E-2,-7.190529257E-2
2.028494688E0,1.579253376E-1,3.182475269E-2,-6.657897681E-2
2.030982500E0,1.664474458E-1,3.395527974E-2,-6.018739566E-2
2.033470313E0,1.739042848E-1,3.715106845E-2,-5.379581451E-2
2.035958125E0,1.813611388E-1,4.034686089E-2,-4.953476042E-2
2.038445938E0,1.877527237E-1,4.567318037E-2,-4.420844093E-2
2.040933750E0,1.920137703E-1,5.206476152E-2,-3.994738683E-2
2.043421563E0,1.952095628E-1,5.845634267E-2,-3.675159439E-2
2.045909375E0,1.994706094E-1,6.591318548E-2,-3.249054030E-2
2.048397188E0,2.005358785E-1,7.123950869E-2,-2.929474972E-2
2.050885000E0,2.026664019E-1,7.550056279E-2,-2.503369562E-2
2.053372813E0,2.047969401E-1,7.763108611E-2,-2.077264152E-2
2.055860625E0,2.058621943E-1,7.869634777E-2,-1.864211448E-2
2.058348438E0,2.069274634E-1,7.976161689E-2,-1.757685095E-2
2.060836250E0,2.079927325E-1,7.976161689E-2,-1.757685095E-2
2.063324063E0,2.079927325E-1,7.763108611E-2,-1.864211448E-2
2.065811875E0,2.079927325E-1,7.443529367E-2,-2.183790505E-2
2.068299688E0,2.079927325E-1,7.017423958E-2,-2.609895915E-2
2.070787500E0,2.069274634E-1,6.591318548E-2,-3.142527863E-2
2.073275313E0,2.079927325E-1,5.952160433E-2,-3.888212144E-2
2.075763125E0,2.069274634E-1,5.419528857E-2,-4.846949503E-2
2.078250938E0,2.047969401E-1,4.780370742E-2,-5.699160323E-2
2.080738750E0,2.037316710E-1,4.034686089E-2,-6.551371515E-2
2.083226563E0,2.026664019E-1,3.289001435E-2,-7.510108501E-2
2.085714375E0,2.005358785E-1,2.330264263E-2,-8.362319320E-2
2.088202188E0,1.994706094E-1,1.371526904E-2,-9.108003974E-2
2.090690000E0,1.962748319E-1,1.997369342E-3,-9.853688627E-2
2.093177813E0,1.952095628E-1,-9.720530361E-3,-1.027979404E-1
2.095665625E0,1.909485012E-1,-2.250369452E-2,-1.081242561E-1
2.098153438E0,1.877527237E-1,-3.422159329E-2,-1.134505793E-1
2.100641250E0,1.856221855E-1,-4.380896688E-2,-1.166463718E-1
2.103129063E0,1.824263930E-1,-5.126581341E-2,-1.187768951E-1
2.105616875E0,1.802958697E-1,-5.552686751E-2,-1.209074259E-1
2.108104688E0,1.802958697E-1,-5.552686751E-2,-1.219726875E-1
2.110592500E0,1.813611388E-1,-4.807002097E-2,-1.209074259E-1
2.113080313E0,1.813611388E-1,-3.741738573E-2,-1.187768951E-1
2.115568125E0,1.824263930E-1,-2.250369452E-2,-1.134505793E-1
2.118055938E0,1.813611388E-1,-6.524739787E-3,-1.070589945E-1
2.120543750E0,1.824263930E-1,1.051947847E-2,-9.960214794E-2
2.123031563E0,1.824263930E-1,2.543316968E-2,-9.001477808E-2
2.125519375E0,1.813611388E-1,3.928159550E-2,-8.042740822E-2
2.128007188E0,1.802958697E-1,5.206476152E-2,-7.190529257E-2
2.130495000E0,1.792306006E-1,6.165213138E-2,-6.338318437E-2
2.132982813E0,1.760348231E-1,7.017423958E-2,-5.592634156E-2
2.135470625E0,1.717737615E-1,7.763108611E-2,-4.953476042E-2
2.137958438E0,1.675127149E-1,8.295740932E-2,-4.420844093E-2
2.140446250E0,1.621863842E-1,8.828372508E-2,-3.994738683E-2
2.142934063E0,1.557948142E-1,9.254477918E-2,-3.568633273E-2
2.145421875E0,1.483379602E-1,9.574057162E-2,-3.462106735E-2
2.147909688E0,1.408811212E-1,9.787109494E-2,-3.462106735E-2
2.150397500E0,1.323590130E-1,9.574057162E-2,-3.675159439E-2
2.152885313E0,1.227716357E-1,8.934898674E-2,-3.994738683E-2
2.155373125E0,1.142495275E-1,7.656582445E-2,-4.527370632E-2
2.157860938E0,1.057274193E-1,5.739107728E-2,-5.379581451E-2
2.160348750E0,9.720530361E-2,3.395527974E-2,-6.125266105E-2
2.162836563E0,8.868319541E-2,8.388951421E-3,-6.977476925E-2
2.165324375E0,8.016108721E-2,-1.611211337E-2,-7.829687744E-2
2.167812188E0,7.270424068E-2,-3.741738573E-2,-8.681898564E-2
2.170300000E0,6.418213248E-2,-5.339634046E-2,-9.321057051E-2
2.172787813E0,5.779055133E-2,-6.191844866E-2,-9.853688627E-2
2.175275625E0,5.139897019E-2,-6.831002980E-2,-1.006674170E-1
2.177763438E0,4.607265070E-2,-7.044056058E-2,-1.017326787E-1
2.180251250E0,3.968106955E-2,-7.363634557E-2,-1.017326787E-1
2.182739063E0,3.435475379E-2,-7.683213800E-2,-9.960214794E-2
2.185226875E0,2.902843431E-2,-8.109319210E-2,-9.534109384E-2
2.187714688E0,2.583264373E-2,-8.535424620E-2,-9.214530140E-2
2.190202500E0,2.263685316E-2,-8.961530030E-2,-8.575372398E-2
2.192690313E0,2.050632425E-2,-9.174583107E-2,-7.829687744E-2
2.195178125E0,1.944106072E-2,-8.855003864E-2,-6.870950758E-2
2.197665938E0,2.050632425E-2,-8.109319210E-2,-5.805686861E-2
2.200153750E0,2.263685316E-2,-6.937529147E-2,-4.527370632E-2
2.202641563E0,2.476738021E-2,-5.446160212E-2,-3.249054030E-2
2.205129375E0,2.689790726E-2,-3.848264739E-2,-1.970737800E-2
2.207617188E0,2.902843431E-2,-2.250369452E-2,-6.924213842E-3
2.210105000E0,3.115896136E-2,-8.655266836E-3,2.663159044E-3
2.212592813E0,3.542001545E-2,4.127896391E-3,1.225053146E-2
2.215080625E0,3.968106955E-2,1.371526904E-2,1.864211448E-2
2.217568438E0,4.394212365E-2,2.117211558E-2,2.503369562E-2
2.220056250E0,4.926844314E-2,2.436790615E-2,2.929474972E-2
2.222544063E0,5.352949724E-2,2.649843320E-2,3.036001325E-2
2.225031875E0,5.885581672E-2,2.543316968E-2,3.036001325E-2
2.227519688E0,6.418213248E-2,2.436790615E-2,2.822948620E-2
2.230007500E0,6.844318658E-2,1.904158667E-2,2.396843210E-2
2.232495313E0,7.163897902E-2,1.265000552E-2,1.864211448E-2
2.234983125E0,7.483477145E-2,3.062632866E-3,1.012000442E-2
2.237470938E0,7.696529478E-2,-7.590003312E-3,5.326318205E-4
2.239958750E0,7.803056389E-2,-1.930790395E-2,-9.054740891E-3
2.242446563E0,7.909582555E-2,-3.315633163E-2,-1.864211448E-2
2.244934375E0,7.803056389E-2,-4.593949392E-2,-2.716422267E-2
2.247422188E0,7.696529478E-2,-5.872265995E-2,-3.568633273E-2
2.249910000E0,7.590003312E-2,-7.044056058E-2,-4.207791388E-2
2.252397813E0,7.376950979E-2,-8.002793044E-2,-4.740423337E-2
2.254885625E0,7.270424068E-2,-8.855003864E-2,-5.060002208E-2
2.257373438E0,7.057371736E-2,-9.600688517E-2,-5.379581451E-2
2.259861250E0,6.844318658E-2,-1.002679393E-1,-5.592634156E-2
2.262349063E0,6.631266326E-2,-1.034637317E-1,-5.699160323E-2
2.264836875E0,6.418213248E-2,-1.045289934E-1,-5.699160323E-2
2.267324688E0,6.205160543E-2,-1.023984700E-1,-5.592634156E-2
2.269812500E0,5.992107838E-2,-1.013332009E-1,-5.486107618E-2
2.272300313E0,5.885581672E-2,-9.707214683E-2,-5.273054913E-2
2.274788125E0,5.779055133E-2,-9.174583107E-2,-4.953476042E-2
2.277275938E0,5.779055133E-2,-8.535424620E-2,-4.633896798E-2
2.279763750E0,5.779055133E-2,-7.789740711E-2,-4.207791388E-2
2.282251563E0,5.779055133E-2,-6.937529147E-2,-3.675159439E-2
2.284739375E0,5.779055133E-2,-5.978792161E-2,-2.929474972E-2
2.287227188E0,5.779055133E-2,-5.126581341E-2,-2.290316857E-2
2.289715000E0,5.779055133E-2,-4.380896688E-2,-1.544632297E-2
2.292202813E0,5.885581672E-2,-3.848264739E-2,-9.054740891E-3
2.294690625E0,6.205160543E-2,-3.315633163E-2,-2.663159044E-3
2.297178438E0,6.524740160E-2,-2.996053919E-2,2.663159044E-3
2.299666250E0,7.057371736E-2,-2.783001214E-2,7.989477366E-3
2.302154063E0,7.590003312E-2,-2.676474862E-2,1.225053146E-2
2.304641875E0,8.229161799E-2,-2.676474862E-2,1.651158556E-2
2.307129688E0,8.868319541E-2,-2.569948509E-2,1.864211448E-2
2.309617500E0,9.614004195E-2,-2.463422157E-2,1.970737800E-2
2.312105313E0,1.035968885E-1,-2.143843099E-2,1.970737800E-2
2.314593125E0,1.110537350E-1,-1.930790395E-2,1.970737800E-2
2.317080938E0,1.185105816E-1,-1.504684892E-2,1.970737800E-2
2.319568750E0,1.249021590E-1,-1.078579482E-2,1.864211448E-2
2.322056563E0,1.323590130E-1,-5.459476262E-3,1.757685095E-2
2.324544375E0,1.376853287E-1,-1.331579551E-4,1.757685095E-2
2.327032188E0,1.430116445E-1,4.127896391E-3,1.757685095E-2
2.329520000E0,1.483379602E-1,8.388951421E-3,1.864211448E-2
2.332007813E0,1.515337527E-1,1.051947847E-2,1.864211448E-2
2.334495625E0,1.547295451E-1,1.265000552E-2,2.077264152E-2
2.336983438E0,1.579253376E-1,1.265000552E-2,2.183790505E-2
2.339471250E0,1.600558609E-1,1.265000552E-2,2.183790505E-2
2.341959063E0,1.621863842E-1,1.371526904E-2,2.290316857E-2
2.344446875E0,1.632516533E-1,1.478053257E-2,2.396843210E-2
2.346934740E0,1.643169224E-1,1.584579609E-2,2.396843210E-2
2.349422605E0,1.632516533E-1,1.797632314E-2,2.396843210E-2
2.351910469E0,1.621863842E-1,2.010685205E-2,2.396843210E-2
2.354398334E0,1.589905918E-1,2.436790615E-2,2.609895915E-2
2.356886198E0,1.557948142E-1,2.862896025E-2,2.609895915E-2
2.359374063E0,1.515337527E-1,3.395527974E-2,2.609895915E-2
2.361861927E0,1.451421678E-1,3.715106845E-2,2.609895915E-2
2.364349792E0,1.398158520E-1,4.034686089E-2,2.503369562E-2
2.366837657E0,1.344895363E-1,4.034686089E-2,2.183790505E-2
2.369325521E0,1.291632205E-1,3.821633384E-2,1.864211448E-2
2.371813386E0,1.238368973E-1,3.395527974E-2,1.331579592E-2
2.374301250E0,1.206411049E-1,2.862896025E-2,1.012000442E-2
2.376789115E0,1.163800508E-1,2.543316968E-2,5.858949851E-3
2.379276980E0,1.131842583E-1,2.010685205E-2,2.663159044E-3
2.381764844E0,1.099884734E-1,1.797632314E-2,-2.663159044E-3
2.384252709E0,1.067926809E-1,1.584579609E-2,-7.989477366E-3
2.386740573E0,1.046621501E-1,1.478053257E-2,-1.331579592E-2
2.389228438E0,1.046621501E-1,1.265000552E-2,-1.757685095E-2
2.391716302E0,1.046621501E-1,1.265000552E-2,-2.183790505E-2
2.394204167E0,1.067926809E-1,1.158474199E-2,-2.396843210E-2
2.396692032E0,1.099884734E-1,1.158474199E-2,-2.503369562E-2
2.399179896E0,1.131842583E-1,1.051947847E-2,-2.503369562E-2
2.401667761E0,1.163800508E-1,9.454214945E-3,-2.396843210E-2
2.404155625E0,1.185105816E-1,6.258423906E-3,-2.183790505E-2
2.406643490E0,1.217063740E-1,3.062632866E-3,-1.970737800E-2
2.409131355E0,1.249021590E-1,-1.331579551E-4,-1.757685095E-2
2.411619219E0,1.280979514E-1,-3.328948980E-3,-1.544632297E-2
2.414107032E0,1.312937438E-1,-4.394212738E-3,-1.331579592E-2
2.416594844E0,1.344895363E-1,-3.328948980E-3,-1.118526794E-2
2.419082657E0,1.387505829E-1,1.997369342E-3,-9.054740891E-3
2.421570469E0,1.419463754E-1,9.454214945E-3,-5.858949851E-3
2.424058282E0,1.451421678E-1,2.010685205E-2,-2.663159044E-3
2.426546094E0,1.472726911E-1,3.075948730E-2,2.663159044E-3
2.429033907E0,1.494032294E-1,4.141212255E-2,6.924213842E-3
2.431521719E0,1.525990218E-1,5.206476152E-2,1.118526794E-2
2.434009532E0,1.547295451E-1,6.058686972E-2,1.544632297E-2
2.436497344E0,1.579253376E-1,6.804371625E-2,1.970737800E-2
2.438985157E0,1.600558609E-1,7.550056279E-2,2.396843210E-2
2.441472969E0,1.632516533E-1,8.082687855E-2,2.716422267E-2
2.443960782E0,1.653821766E-1,8.721846342E-2,2.822948620E-2
2.446448594E0,1.685779691E-1,9.147951752E-2,3.036001325E-2
2.448936407E0,1.728390306E-1,9.680583328E-2,2.929474972E-2
2.451424219E0,1.771000773E-1,1.010668874E-1,2.929474972E-2
2.453912032E0,1.813611388E-1,1.031974182E-1,2.716422267E-2
2.456399844E0,1.856221855E-1,1.042626798E-1,2.609895915E-2
2.458887657E0,1.898832470E-1,1.031974182E-1,2.396843210E-2
2.461375469E0,1.952095628E-1,1.021321490E-1,2.077264152E-2
2.463863282E0,2.005358785E-1,9.787109494E-2,1.864211448E-2
2.466351094E0,2.058621943E-1,9.254477918E-2,1.651158556E-2
2.468838907E0,2.122537792E-1,8.615319431E-2,1.438105945E-2
2.471326719E0,2.186453640E-1,7.869634777E-2,1.118526794E-2
2.473814532E0,2.239716798E-1,7.123950869E-2,9.054740891E-3
2.476302344E0,2.292979956E-1,6.271740049E-2,7.989477366E-3
2.478790157E0,2.367548496E-1,5.526055023E-2,5.858949851E-3
2.481277969E0,2.452769578E-1,4.780370742E-2,4.793686327E-3
2.483765782E0,2.548643351E-1,4.141212255E-2,4.793686327E-3
2.486253594E0,2.655169666E-1,3.715106845E-2,4.793686327E-3
2.488741407E0,2.772348523E-1,3.289001435E-2,6.924213842E-3
2.491229219E0,2.889527678E-1,3.075948730E-2,1.012000442E-2
2.493717032E0,3.006706536E-1,3.075948730E-2,1.331579592E-2
2.496204844E0,3.123885691E-1,3.182475269E-2,1.757685095E-2
2.498692657E0,3.241064548E-1,3.395527974E-2,2.290316857E-2
2.501180469E0,3.347590864E-1,3.608580679E-2,2.929474972E-2
2.503668282E0,3.454117477E-1,3.928159550E-2,3.462106735E-2
2.506156094E0,3.549990952E-1,4.247738793E-2,3.994738683E-2
2.508643907E0,3.656517565E-1,4.567318037E-2,4.420844093E-2
2.511131719E0,3.752391040E-1,4.886896908E-2,4.953476042E-2
2.513619532E0,3.848264813E-1,5.313002318E-2,5.486107618E-2
2.516107344E0,3.944138587E-1,5.739107728E-2,6.018739566E-2
2.518595157E0,4.040012360E-1,6.271740049E-2,6.444845349E-2
2.521082969E0,4.125233591E-1,6.910897791E-2,6.977476925E-2
2.523570782E0,4.210454524E-1,7.656582445E-2,7.510108501E-2
2.526058594E0,4.285022914E-1,8.402267098E-2,8.042740822E-2
2.528546407E0,4.359591305E-1,9.147951752E-2,8.575372398E-2
2.531034219E0,4.423507154E-1,9.893636405E-2,9.108003974E-2
2.533522032E0,4.487423003E-1,1.053279415E-1,9.427583218E-2
2.536009844E0,4.551338851E-1,1.095889956E-1,9.747162461E-2
2.538497657E0,4.615254700E-1,1.127847880E-1,9.960214794E-2
2.540985469E0,4.668518007E-1,1.138500497E-1,1.006674170E-1
2.543473282E0,4.732433856E-1,1.149153188E-1,9.960214794E-2
2.545961094E0,4.785696864E-1,1.159805804E-1,9.853688627E-2
2.548448907E0,4.838960171E-1,1.170458421E-1,9.853688627E-2
2.550936719E0,4.870918095E-1,1.191763729E-1,9.747162461E-2
2.553424532E0,4.902876019E-1,1.213068962E-1,9.640636295E-2
2.555912344E0,4.934833944E-1,1.234374270E-1,9.534109384E-2
2.558400157E0,4.956139028E-1,1.234374270E-1,9.427583218E-2
2.560887969E0,4.966791868E-1,1.223721579E-1,9.214530140E-2
2.563375782E0,4.977444410E-1,1.213068962E-1,8.894951642E-2
2.565863594E0,4.998749495E-1,1.170458421E-1,8.468846232E-2
2.568351407E0,4.998749495E-1,1.138500497E-1,7.936213911E-2
2.570839219E0,5.009402037E-1,1.085237339E-1,7.403582335E-2
2.573327032E0,5.009402037E-1,1.031974182E-1,6.870950758E-2
2.575814844E0,5.009402037E-1,9.680583328E-2,6.125266105E-2
2.578302657E0,5.009402037E-1,9.041424841E-2,5.486107618E-2
2.580790469E0,4.998749495E-1,8.508793265E-2,4.953476042E-2
2.583278282E0,4.988096952E-1,8.082687855E-2,4.420844093E-2
2.585766094E0,4.977444410E-1,7.763108611E-2,3.994738683E-2
2.588253907E0,4.977444410E-1,7.550056279E-2,3.675159439E-2
2.590741719E0,4.956139028E-1,7.337003201E-2,3.355580568E-2
2.593229532E0,4.945486486E-1,7.337003201E-2,3.142527863E-2
2.595717344E0,4.924181104E-1,7.443529367E-2,2.929474972E-2
2.598205157E0,4.881570637E-1,7.550056279E-2,2.716422267E-2
2.600692969E0,4.849612713E-1,7.763108611E-2,2.503369562E-2
2.603180782E0,4.817654788E-1,7.976161689E-2,2.077264152E-2
2.605668594E0,4.775044322E-1,8.189214021E-2,1.544632297E-2
2.608156407E0,4.753738940E-1,8.508793265E-2,1.012000442E-2
2.610644219E0,4.721781015E-1,8.828372508E-2,5.858949851E-3
2.613132032E0,4.689823091E-1,9.254477918E-2,1.597895520E-3
2.615619844E0,4.657865167E-1,1.000016257E-1,-1.597895520E-3
2.618107657E0,4.625907242E-1,1.085237339E-1,-3.728422802E-3
2.620595469E0,4.583296776E-1,1.170458421E-1,-3.728422802E-3
2.623083282E0,4.540686309E-1,1.245026886E-1,-2.663159044E-3
2.625571094E0,4.498075843E-1,1.308942735E-1,-5.326318205E-4
2.628058907E0,4.444812536E-1,1.351553202E-1,5.326318205E-4
2.630546719E0,4.402202070E-1,1.362205893E-1,2.663159044E-3
2.633034532E0,4.359591305E-1,1.351553202E-1,3.728422802E-3
2.635522344E0,4.316980839E-1,1.340900660E-1,4.793686327E-3
2.638010157E0,4.274370372E-1,1.340900660E-1,6.924213842E-3
2.640497969E0,4.221107066E-1,1.372858584E-1,7.989477366E-3
2.642985782E0,4.178496599E-1,1.404816359E-1,9.054740891E-3
2.645473594E0,4.125233591E-1,1.458079666E-1,1.012000442E-2
2.647961407E0,4.082622826E-1,1.500690132E-1,1.225053146E-2
2.650449219E0,4.029359818E-1,1.564605981E-1,1.331579592E-2
2.652937032E0,3.976096511E-1,1.617869139E-1,1.544632297E-2
2.655424844E0,3.912180662E-1,1.671132296E-1,1.757685095E-2
2.657912657E0,3.858917654E-1,1.713742912E-1,2.077264152E-2
2.660400469E0,3.784348965E-1,1.735048145E-1,2.396843210E-2
2.662888282E0,3.709780574E-1,1.745700836E-1,2.716422267E-2
2.665376094E0,3.645864725E-1,1.745700836E-1,2.929474972E-2
2.667863907E0,3.571296334E-1,1.724395454E-1,3.036001325E-2
2.670351719E0,3.486075401E-1,1.681784987E-1,3.142527863E-2
2.672839532E0,3.411506712E-1,1.628521830E-1,3.036001325E-2
2.675327344E0,3.336938322E-1,1.575258672E-1,2.822948620E-2
2.677815157E0,3.262369931E-1,1.532648057E-1,2.609895915E-2
2.680302969E0,3.198454082E-1,1.500690132E-1,2.183790505E-2
2.682790782E0,3.123885691E-1,1.479384899E-1,1.651158556E-2
2.685278594E0,3.038664460E-1,1.468732208E-1,1.225053146E-2
2.687766407E0,2.964096069E-1,1.468732208E-1,6.924213842E-3
2.690254219E0,2.868222296E-1,1.479384899E-1,3.728422802E-3
2.692742032E0,2.761695981E-1,1.490037590E-1,5.326318205E-4
2.695229844E0,2.655169666E-1,1.500690132E-1,-5.326318205E-4
2.697717657E0,2.559295893E-1,1.511342824E-1,-5.326318205E-4
2.700205469E0,2.452769578E-1,1.500690132E-1,5.326318205E-4
2.702693282E0,2.356895804E-1,1.490037590E-1,1.597895520E-3
2.705181094E0,2.271674722E-1,1.458079666E-1,2.663159044E-3
2.707668907E0,2.186453640E-1,1.426121742E-1,4.793686327E-3
2.710156719E0,2.090579867E-1,1.383511126E-1,6.924213842E-3
2.712644532E0,1.994706094E-1,1.319595277E-1,9.054740891E-3
2.715132344E0,1.888179779E-1,1.266332120E-1,1.331579592E-2
2.717620157E0,1.760348231E-1,1.213068962E-1,1.651158556E-2
2.720107969E0,1.643169224E-1,1.149153188E-1,1.970737800E-2
2.722595782E0,1.515337527E-1,1.095889956E-1,2.077264152E-2
2.725083594E0,1.408811212E-1,1.042626798E-1,2.183790505E-2
2.727571407E0,1.312937438E-1,9.787109494E-2,2.077264152E-2
2.730059219E0,1.217063740E-1,8.934898674E-2,1.864211448E-2
2.732547032E0,1.142495275E-1,7.976161689E-2,1.651158556E-2
2.735034844E0,1.067926809E-1,6.804371625E-2,1.331579592E-2
2.737522657E0,1.004010960E-1,5.632581562E-2,1.012000442E-2
2.740010469E0,9.187898785E-2,4.460791498E-2,7.989477366E-3
2.742498282E0,8.335687965E-2,3.395527974E-2,5.858949851E-3
2.744986094E0,7.483477145E-2,2.436790615E-2,6.924213842E-3
2.747473907E0,6.418213248E-2,1.904158667E-2,7.989477366E-3
2.749961719E0,5.566002429E-2,1.478053257E-2,1.012000442E-2
2.752449532E0,4.713791609E-2,1.158474199E-2,1.118526794E-2
2.754937344E0,3.861580789E-2,1.051947847E-2,1.225053146E-2
2.757425157E0,3.115896136E-2,1.051947847E-2,1.225053146E-2
2.759912969E0,2.583264373E-2,1.158474199E-2,1.118526794E-2
2.762400782E0,2.157158963E-2,1.265000552E-2,9.054740891E-3
2.764888594E0,1.624527015E-2,1.265000552E-2,6.924213842E-3
2.767376407E0,1.198421605E-2,1.371526904E-2,4.793686327E-3
2.769864219E0,6.657897960E-3,1.371526904E-2,3.728422802E-3
2.772352032E0,2.396843163E-3,1.371526904E-2,3.728422802E-3
2.774839844E0,-1.864211401E-3,1.371526904E-2,5.858949851E-3
2.777327657E0,-5.060002208E-3,1.478053257E-2,7.989477366E-3
2.779815469E0,-7.190529723E-3,1.478053257E-2,1.118526794E-2
2.782303282E0,-9.321057238E-3,1.478053257E-2,1.438105945E-2
2.784791094E0,-1.038632076E-2,1.584579609E-2,1.864211448E-2
2.787278907E0,-1.145158429E-2,1.691105962E-2,2.183790505E-2
2.789766719E0,-1.145158429E-2,1.904158667E-2,2.396843210E-2
2.792254532E0,-1.145158429E-2,2.330264263E-2,2.716422267E-2
2.794742344E0,-1.038632076E-2,2.862896025E-2,2.929474972E-2
2.797230157E0,-1.038632076E-2,3.608580679E-2,3.036001325E-2
2.799717969E0,-1.145158429E-2,4.354264960E-2,3.142527863E-2
2.802205782E0,-1.145158429E-2,4.993423447E-2,3.142527863E-2
2.804693594E0,-1.038632076E-2,5.632581562E-2,2.929474972E-2
2.807181407E0,-8.255792782E-3,5.952160433E-2,2.716422267E-2
2.809669219E0,-6.125265732E-3,6.165213138E-2,2.290316857E-2
2.812157032E0,-2.929474926E-3,6.271740049E-2,1.864211448E-2
2.814644844E0,2.663159103E-4,6.165213138E-2,1.544632297E-2
2.817132657E0,3.462106921E-3,6.058686972E-2,1.118526794E-2
2.819620469E0,5.592633970E-3,5.739107728E-2,7.989477366E-3
2.822108282E0,6.657897960E-3,5.526055023E-2,4.793686327E-3
2.824596094E0,6.657897960E-3,5.099949613E-2,5.326318205E-4
2.827083907E0,6.657897960E-3,4.780370742E-2,-3.728422802E-3
2.829571719E0,6.657897960E-3,4.247738793E-2,-9.054740891E-3
2.832059532E0,5.592633970E-3,3.821633384E-2,-1.331579592E-2
2.834547344E0,4.527370445E-3,3.289001435E-2,-1.970737800E-2
2.837035157E0,3.462106921E-3,2.862896025E-2,-2.396843210E-2
2.839522969E0,3.462106921E-3,2.543316968E-2,-2.822948620E-2
2.842010782E0,3.462106921E-3,2.330264263E-2,-3.249054030E-2
2.844498594E0,1.331579522E-3,2.223737910E-2,-3.568633273E-2
2.846986407E0,-7.989477599E-4,2.223737910E-2,-3.781685978E-2
2.849474219E0,-3.994738683E-3,2.223737910E-2,-3.888212144E-2
2.851962032E0,-7.190529723E-3,2.117211558E-2,-4.101264849E-2
2.854449844E0,-1.038632076E-2,1.904158667E-2,-4.420844093E-2
2.856937657E0,-1.145158429E-2,1.691105962E-2,-4.633896798E-2
2.859425469E0,-1.251684781E-2,1.371526904E-2,-4.953476042E-2
2.861913282E0,-1.358211134E-2,1.051947847E-2,-5.273054913E-2
2.864401094E0,-1.358211134E-2,7.323687430E-3,-5.592634156E-2
2.866888907E0,-1.358211134E-2,5.193160381E-3,-5.805686861E-2
2.869376719E0,-1.464737486E-2,4.127896391E-3,-6.018739566E-2
2.871864532E0,-1.571263932E-2,4.127896391E-3,-6.125266105E-2
2.874352344E0,-1.571263932E-2,3.062632866E-3,-6.125266105E-2
2.876840157E0,-1.571263932E-2,3.062632866E-3,-5.912213027E-2
2.879327969E0,-1.464737486E-2,1.997369342E-3,-5.592634156E-2
2.881815782E0,-1.464737486E-2,9.321057005E-4,-5.060002208E-2
2.884303594E0,-1.358211134E-2,-1.331579551E-4,-4.633896798E-2
2.886791407E0,-1.251684781E-2,-1.198421582E-3,-3.994738683E-2
2.889279219E0,-1.145158429E-2,-1.198421582E-3,-3.355580568E-2
2.891767032E0,-9.321057238E-3,-1.331579551E-4,-2.716422267E-2
2.894254844E0,-8.255792782E-3,9.321057005E-4,-1.970737800E-2
2.896742657E0,-7.190529723E-3,9.321057005E-4,-1.118526794E-2
2.899230469E0,-7.190529723E-3,-1.331579551E-4,-2.663159044E-3
2.901718282E0,-7.190529723E-3,-1.331579551E-4,5.858949851E-3
2.904206094E0,-7.190529723E-3,-1.198421582E-3,1.757685095E-2
2.906693907E0,-7.190529723E-3,-3.328948980E-3,2.822948620E-2
2.909181719E0,-6.125265732E-3,-4.394212738E-3,3.994738683E-2
2.911669532E0,-6.125265732E-3,-3.328948980E-3,5.166528746E-2
2.914157344E0,-3.994738683E-3,-2.263685223E-3,6.125266105E-2
2.916645157E0,-3.994738683E-3,9.321057005E-4,7.403582335E-2
2.919132969E0,-1.864211401E-3,4.127896391E-3,8.362319320E-2
2.921620782E0,2.663159103E-4,8.388951421E-3,9.321057051E-2
2.924108594E0,2.396843163E-3,1.051947847E-2,1.027979404E-1
2.926596407E0,5.592633970E-3,1.265000552E-2,1.102547869E-1
2.929084219E0,9.853689000E-3,1.158474199E-2,1.166463718E-1
2.931572032E0,1.411474310E-2,1.051947847E-2,1.230379492E-1
2.934059844E0,1.837579720E-2,7.323687430E-3,1.272990108E-1
2.936547657E0,2.370211668E-2,5.193160381E-3,1.304948032E-1
2.939035469E0,2.902843431E-2,1.997369342E-3,1.326253265E-1
2.941523282E0,3.435475379E-2,9.321057005E-4,1.336905807E-1
2.944011094E0,3.861580789E-2,9.321057005E-4,1.336905807E-1
2.946498907E0,4.394212365E-2,3.062632866E-3,1.326253265E-1
2.948986719E0,4.820318148E-2,6.258423906E-3,1.315600574E-1
2.951474532E0,5.246423557E-2,1.158474199E-2,1.304948032E-1
2.953962344E0,5.672528967E-2,1.797632314E-2,1.294295341E-1
2.956450157E0,5.885581672E-2,2.543316968E-2,1.294295341E-1
2.958937969E0,6.098634377E-2,3.289001435E-2,1.294295341E-1
2.961425782E0,6.205160543E-2,4.034686089E-2,1.294295341E-1
2.963913594E0,6.418213248E-2,4.886896908E-2,1.294295341E-1
2.966401407E0,6.631266326E-2,5.632581562E-2,1.304948032E-1
2.968889219E0,6.737792492E-2,6.271740049E-2,1.315600574E-1
2.971377032E0,6.844318658E-2,7.017423958E-2,1.336905807E-1
2.973864844E0,7.057371736E-2,7.656582445E-2,1.368863732E-1
2.976352657E0,7.270424068E-2,8.295740932E-2,1.390169114E-1
2.978840469E0,7.483477145E-2,8.934898674E-2,1.432779580E-1
2.981328282E0,7.696529478E-2,9.574057162E-2,1.464737505E-1
2.983816094E0,7.909582555E-2,1.021321490E-1,1.518000662E-1
2.986303907E0,8.016108721E-2,1.074584723E-1,1.560611278E-1
2.988791719E0,8.229161799E-2,1.106542572E-1,1.603221744E-1
2.991279532E0,8.548741043E-2,1.138500497E-1,1.645832360E-1
2.993767344E0,8.868319541E-2,1.159805804E-1,1.677790284E-1
2.996255157E0,9.187898785E-2,1.181111038E-1,1.699095517E-1
2.998742969E0,9.507478029E-2,1.202416345E-1,1.731053442E-1
3.001230782E0,9.827057272E-2,1.234374270E-1,1.763011366E-1
3.003718594E0,1.025316268E-1,1.276984811E-1,1.794969290E-1
3.006206407E0,1.046621501E-1,1.319595277E-1,1.794969290E-1
3.008694219E0,1.067926809E-1,1.362205893E-1,1.805621833E-1
3.011182032E0,1.089232042E-1,1.394163817E-1,1.794969290E-1
3.013669844E0,1.121189967E-1,1.404816359E-1,1.784316599E-1
3.016157657E0,1.142495275E-1,1.404816359E-1,1.763011366E-1
3.018645469E0,1.163800508E-1,1.404816359E-1,1.741705984E-1
3.021133282E0,1.185105816E-1,1.394163817E-1,1.720400751E-1
3.023621094E0,1.206411049E-1,1.383511126E-1,1.688442826E-1
3.026108907E0,1.227716357E-1,1.372858584E-1,1.667137593E-1
3.028596719E0,1.249021590E-1,1.372858584E-1,1.656484902E-1
3.031084532E0,1.270326823E-1,1.383511126E-1,1.645832360E-1
3.033572344E0,1.280979514E-1,1.394163817E-1,1.656484902E-1
3.036060157E0,1.302284747E-1,1.426121742E-1,1.656484902E-1
3.038547969E0,1.302284747E-1,1.447426975E-1,1.667137593E-1
3.041035782E0,1.312937438E-1,1.468732208E-1,1.667137593E-1
3.043523594E0,1.312937438E-1,1.479384899E-1,1.656484902E-1
3.046011407E0,1.312937438E-1,1.490037590E-1,1.645832360E-1
3.048499219E0,1.302284747E-1,1.500690132E-1,1.635179669E-1
3.050987032E0,1.280979514E-1,1.511342824E-1,1.624527127E-1
3.053474844E0,1.259674281E-1,1.521995366E-1,1.613874435E-1
3.055962657E0,1.227716357E-1,1.532648057E-1,1.613874435E-1
3.058450469E0,1.206411049E-1,1.532648057E-1,1.613874435E-1
3.060938282E0,1.174453199E-1,1.543300748E-1,1.613874435E-1
3.063426094E0,1.153147891E-1,1.564605981E-1,1.603221744E-1
3.065913907E0,1.121189967E-1,1.585911214E-1,1.603221744E-1
3.068401719E0,1.099884734E-1,1.617869139E-1,1.603221744E-1
3.070889532E0,1.078579426E-1,1.639174372E-1,1.592569202E-1
3.073377344E0,1.057274193E-1,1.660479754E-1,1.581916511E-1
3.075865157E0,1.035968885E-1,1.681784987E-1,1.571263820E-1
3.078352969E0,1.025316268E-1,1.692437679E-1,1.549958587E-1
3.080840782E0,1.014663652E-1,1.692437679E-1,1.518000662E-1
3.083328646E0,1.004010960E-1,1.692437679E-1,1.486042738E-1
3.085816511E0,1.004010960E-1,1.703090221E-1,1.464737505E-1
3.088304375E0,9.933583438E-2,1.713742912E-1,1.454084814E-1
3.090792240E0,9.933583438E-2,1.745700836E-1,1.443432271E-1
3.093280105E0,9.827057272E-2,1.767006069E-1,1.443432271E-1
3.095767969E0,9.720530361E-2,1.798963994E-1,1.443432271E-1
3.098255834E0,9.720530361E-2,1.820269227E-1,1.443432271E-1
3.100743698E0,9.720530361E-2,1.830921918E-1,1.432779580E-1
3.103231563E0,9.720530361E-2,1.841574460E-1,1.422126889E-1
3.105719427E0,9.720530361E-2,1.852227151E-1,1.422126889E-1
3.108207292E0,9.720530361E-2,1.862879843E-1,1.422126889E-1
3.110695157E0,9.720530361E-2,1.862879843E-1,1.422126889E-1
3.113183021E0,9.614004195E-2,1.873532385E-1,1.422126889E-1
3.115670886E0,9.720530361E-2,1.884185076E-1,1.432779580E-1
3.118158750E0,9.720530361E-2,1.916143000E-1,1.454084814E-1
3.120646615E0,9.720530361E-2,1.937448233E-1,1.464737505E-1
3.123134480E0,9.720530361E-2,1.969406158E-1,1.486042738E-1
3.125622344E0,9.720530361E-2,1.969406158E-1,1.496695429E-1
3.128110209E0,9.614004195E-2,1.969406158E-1,1.496695429E-1
3.130598073E0,9.614004195E-2,1.969406158E-1,1.496695429E-1
3.133085938E0,9.507478029E-2,1.958753467E-1,1.496695429E-1
3.135573802E0,9.507478029E-2,1.937448233E-1,1.475390196E-1
3.138061667E0,9.507478029E-2,1.937448233E-1,1.443432271E-1
3.140549532E0,9.507478029E-2,1.937448233E-1,1.411474347E-1
3.143037396E0,9.400951862E-2,1.948100924E-1,1.368863732E-1
3.145525261E0,9.400951862E-2,1.958753467E-1,1.347558498E-1
3.148013125E0,9.187898785E-2,1.969406158E-1,1.315600574E-1
3.150500938E0,8.974846452E-2,1.969406158E-1,1.272990108E-1
3.152988750E0,8.548741043E-2,1.958753467E-1,1.241032109E-1
3.155476563E0,8.122635633E-2,1.926795542E-1,1.209074259E-1
3.157964375E0,7.696529478E-2,1.873532385E-1,1.166463718E-1
3.160452188E0,7.270424068E-2,1.820269227E-1,1.123853177E-1
3.162940000E0,6.950845569E-2,1.767006069E-1,1.070589945E-1
3.165427813E0,6.631266326E-2,1.713742912E-1,1.027979404E-1
3.167915625E0,6.311687082E-2,1.671132296E-1,9.960214794E-2
3.170403438E0,5.992107838E-2,1.649827063E-1,9.534109384E-2
3.172891250E0,5.459476262E-2,1.639174372E-1,9.214530140E-2
3.175379063E0,4.926844314E-2,1.649827063E-1,8.894951642E-2
3.177866875E0,4.287686199E-2,1.660479754E-1,8.575372398E-2
3.180354688E0,3.755054250E-2,1.671132296E-1,8.362319320E-2
3.182842500E0,3.222422674E-2,1.671132296E-1,8.042740822E-2
3.185330313E0,2.796317078E-2,1.671132296E-1,7.723161578E-2
3.187818125E0,2.476738021E-2,1.649827063E-1,7.616634667E-2
3.190305938E0,1.944106072E-2,1.628521830E-1,7.297056168E-2
3.192793750E0,1.518000662E-2,1.607216448E-1,7.190529257E-2
3.195281563E0,9.853689000E-3,1.585911214E-1,6.870950758E-2
3.197769375E0,4.527370445E-3,1.564605981E-1,6.657897681E-2
3.200257188E0,-7.989477599E-4,1.532648057E-1,6.338318437E-2
3.202745000E0,-5.060002208E-3,1.500690132E-1,5.912213027E-2
3.205232813E0,-8.255792782E-3,1.447426975E-1,5.486107618E-2
3.207720625E0,-1.038632076E-2,1.394163817E-1,4.846949503E-2
3.210208438E0,-1.145158429E-2,1.319595277E-1,4.314317927E-2
3.212696250E0,-1.251684781E-2,1.245026886E-1,3.675159439E-2
3.215184063E0,-1.358211134E-2,1.159805804E-1,3.142527863E-2
3.217671875E0,-1.464737486E-2,1.085237339E-1,2.609895915E-2
3.220159688E0,-1.571263932E-2,1.010668874E-1,2.183790505E-2
3.222647500E0,-1.677790284E-2,9.361004084E-2,1.757685095E-2
3.225135313E0,-1.677790284E-2,8.508793265E-2,1.331579592E-2
3.227623125E0,-1.784316637E-2,7.763108611E-2,7.989477366E-3
3.230110938E0,-1.784316637E-2,7.017423958E-2,2.663159044E-3
3.232598750E0,-1.784316637E-2,6.165213138E-2,-2.663159044E-3
3.235086563E0,-1.677790284E-2,5.313002318E-2,-9.054740891E-3
3.237574375E0,-1.464737486E-2,4.354264960E-2,-1.331579592E-2
3.240062188E0,-1.251684781E-2,3.395527974E-2,-1.864211448E-2
3.242550000E0,-1.145158429E-2,2.436790615E-2,-2.183790505E-2
3.245037813E0,-8.255792782E-3,1.478053257E-2,-2.503369562E-2
3.247525625E0,-5.060002208E-3,7.323687430E-3,-2.609895915E-2
3.250013438E0,-2.929474926E-3,-1.331579551E-4,-2.609895915E-2
3.252501250E0,-7.989477599E-4,-5.459476262E-3,-2.609895915E-2
3.254989063E0,2.663159103E-4,-9.720530361E-3,-2.503369562E-2
3.257476875E0,2.396843163E-3,-1.078579482E-2,-2.503369562E-2
3.259964688E0,3.462106921E-3,-1.078579482E-2,-2.396843210E-2
3.262452500E0,4.527370445E-3,-1.078579482E-2,-2.290316857E-2
3.264940313E0,6.657897960E-3,-1.078579482E-2,-2.290316857E-2
3.267428125E0,8.788425475E-3,-8.655266836E-3,-2.183790505E-2
3.269915938E0,1.091895252E-2,-6.524739787E-3,-2.183790505E-2
3.272403750E0,1.304947957E-2,-5.459476262E-3,-2.077264152E-2
3.274891563E0,1.518000662E-2,-2.263685223E-3,-1.970737800E-2
3.277379375E0,1.624527015E-2,-1.331579551E-4,-1.757685095E-2
3.279867188E0,1.624527015E-2,3.062632866E-3,-1.544632297E-2
3.282355000E0,1.837579720E-2,5.193160381E-3,-1.331579592E-2
3.284842813E0,1.837579720E-2,7.323687430E-3,-1.012000442E-2
3.287330625E0,1.944106072E-2,8.388951421E-3,-7.989477366E-3
3.289818438E0,2.050632425E-2,8.388951421E-3,-5.858949851E-3
3.292306250E0,2.157158963E-2,8.388951421E-3,-3.728422802E-3
3.294794063E0,2.263685316E-2,6.258423906E-3,-1.597895520E-3
3.297281875E0,2.263685316E-2,4.127896391E-3,5.326318205E-4
3.299769688E0,2.476738021E-2,9.321057005E-4,2.663159044E-3
3.302257500E0,2.370211668E-2,-3.328948980E-3,4.793686327E-3
3.304745313E0,2.263685316E-2,-6.524739787E-3,5.858949851E-3
3.307233125E0,2.157158963E-2,-9.720530361E-3,7.989477366E-3
3.309720938E0,2.157158963E-2,-1.291632187E-2,1.118526794E-2
3.312208750E0,2.050632425E-2,-1.504684892E-2,1.331579592E-2
3.314696563E0,1.944106072E-2,-1.717737690E-2,1.651158556E-2
3.317184375E0,1.731053367E-2,-1.824264042E-2,1.864211448E-2
3.319672188E0,1.624527015E-2,-1.717737690E-2,2.183790505E-2
3.322160000E0,1.624527015E-2,-1.717737690E-2,2.503369562E-2
3.324647813E0,1.518000662E-2,-1.717737690E-2,2.929474972E-2
3.327135625E0,1.518000662E-2,-1.611211337E-2,3.355580568E-2
3.329623438E0,1.411474310E-2,-1.504684892E-2,3.781685978E-2
3.332111250E0,1.198421605E-2,-1.504684892E-2,4.207791388E-2
3.334599063E0,1.091895252E-2,-1.504684892E-2,4.527370632E-2
3.337086875E0,9.853689000E-3,-1.611211337E-2,4.953476042E-2
3.339574688E0,9.853689000E-3,-1.824264042E-2,5.273054913E-2
3.342062500E0,9.853689000E-3,-2.037316747E-2,5.379581451E-2
3.344550313E0,1.091895252E-2,-2.250369452E-2,5.486107618E-2
3.347038125E0,1.091895252E-2,-2.569948509E-2,5.592634156E-2
3.349525938E0,1.198421605E-2,-2.889527567E-2,5.486107618E-2
3.352013750E0,1.304947957E-2,-3.209106624E-2,5.486107618E-2
3.354501563E0,1.411474310E-2,-3.528685868E-2,5.486107618E-2
3.356989375E0,1.518000662E-2,-3.954791278E-2,5.486107618E-2
3.359477188E0,1.624527015E-2,-4.274370521E-2,5.486107618E-2
3.361965000E0,1.624527015E-2,-4.807002097E-2,5.592634156E-2
3.364452813E0,1.837579720E-2,-5.233107507E-2,5.486107618E-2
3.366940625E0,1.837579720E-2,-5.552686751E-2,5.592634156E-2
3.369428438E0,2.050632425E-2,-5.872265995E-2,5.699160323E-2
3.371916250E0,2.157158963E-2,-6.085318699E-2,5.805686861E-2
3.374404063E0,2.263685316E-2,-6.298371404E-2,5.912213027E-2
3.376891875E0,2.370211668E-2,-6.298371404E-2,6.125266105E-2
3.379379688E0,2.476738021E-2,-6.404897571E-2,6.231792271E-2
3.381867500E0,2.583264373E-2,-6.191844866E-2,6.444845349E-2
3.384355313E0,2.796317078E-2,-5.978792161E-2,6.657897681E-2
3.386843125E0,2.689790726E-2,-5.765739456E-2,6.977476925E-2
3.389330938E0,2.796317078E-2,-5.446160212E-2,7.190529257E-2
3.391818750E0,2.796317078E-2,-5.020054802E-2,7.510108501E-2
3.394306563E0,2.796317078E-2,-4.700475931E-2,7.936213911E-2
3.396794375E0,2.796317078E-2,-4.274370521E-2,8.255793154E-2
3.399282188E0,2.902843431E-2,-4.061317816E-2,8.575372398E-2
3.401770000E0,2.902843431E-2,-3.741738573E-2,8.894951642E-2
3.404257813E0,2.902843431E-2,-3.635212034E-2,9.108003974E-2
3.406745625E0,3.009369783E-2,-3.528685868E-2,9.321057051E-2
3.409233438E0,3.009369783E-2,-3.528685868E-2,9.427583218E-2
3.411721250E0,3.009369783E-2,-3.528685868E-2,9.427583218E-2
3.414209063E0,2.902843431E-2,-3.635212034E-2,9.214530140E-2
3.416696875E0,2.902843431E-2,-3.741738573E-2,9.001477808E-2
3.419184688E0,2.902843431E-2,-3.741738573E-2,8.681898564E-2
3.421672500E0,2.902843431E-2,-3.848264739E-2,8.149266988E-2
3.424160313E0,3.009369783E-2,-3.741738573E-2,7.723161578E-2
3.426648125E0,3.009369783E-2,-3.848264739E-2,7.084003091E-2
3.429135938E0,3.009369783E-2,-3.741738573E-2,6.551371515E-2
3.431623750E0,3.009369783E-2,-3.635212034E-2,5.912213027E-2
3.434111563E0,2.796317078E-2,-3.635212034E-2,5.379581451E-2
3.436599375E0,2.689790726E-2,-3.848264739E-2,4.740423337E-2
3.439087188E0,2.583264373E-2,-4.061317816E-2,4.207791388E-2
3.441575000E0,2.583264373E-2,-4.487423226E-2,3.675159439E-2
3.444062813E0,2.476738021E-2,-5.126581341E-2,3.142527863E-2
3.446550625E0,2.476738021E-2,-5.659212917E-2,2.822948620E-2
3.449038438E0,2.583264373E-2,-6.298371404E-2,2.396843210E-2
3.451526250E0,2.583264373E-2,-6.937529147E-2,2.077264152E-2
3.454014063E0,2.583264373E-2,-7.470161468E-2,1.757685095E-2
3.456501875E0,2.583264373E-2,-7.896266878E-2,1.438105945E-2
3.458989688E0,2.583264373E-2,-8.215846121E-2,1.012000442E-2
3.461477500E0,2.583264373E-2,-8.428898454E-2,5.858949851E-3
3.463965313E0,2.476738021E-2,-8.535424620E-2,5.326318205E-4
3.466453125E0,2.476738021E-2,-8.641951531E-2,-3.728422802E-3
3.468940938E0,2.476738021E-2,-8.535424620E-2,-7.989477366E-3
3.471428750E0,2.583264373E-2,-8.535424620E-2,-1.225053146E-2
3.473916563E0,2.583264373E-2,-8.428898454E-2,-1.544632297E-2
3.476404375E0,2.476738021E-2,-8.215846121E-2,-1.970737800E-2
3.478892188E0,2.370211668E-2,-8.109319210E-2,-2.290316857E-2
3.481380000E0,2.263685316E-2,-8.109319210E-2,-2.716422267E-2
3.483867813E0,2.263685316E-2,-8.109319210E-2,-3.036001325E-2
3.486355625E0,2.370211668E-2,-8.109319210E-2,-3.568633273E-2
3.488843438E0,2.370211668E-2,-8.109319210E-2,-3.994738683E-2
3.491331250E0,2.476738021E-2,-8.215846121E-2,-4.527370632E-2
3.493819063E0,2.583264373E-2,-8.215846121E-2,-4.953476042E-2
3.496306875E0,2.796317078E-2,-8.215846121E-2,-5.486107618E-2
3.498794688E0,2.902843431E-2,-8.322372288E-2,-5.912213027E-2
3.501282500E0,3.009369783E-2,-8.322372288E-2,-6.444845349E-2
3.503770313E0,3.115896136E-2,-8.322372288E-2,-6.870950758E-2
3.506258125E0,3.222422674E-2,-8.215846121E-2,-7.190529257E-2
3.508745938E0,3.328948840E-2,-8.002793044E-2,-7.510108501E-2
3.511233750E0,3.328948840E-2,-7.683213800E-2,-7.829687744E-2
3.513721563E0,3.328948840E-2,-7.470161468E-2,-8.042740822E-2
3.516209375E0,3.542001545E-2,-7.363634557E-2,-8.255793154E-2
3.518697188E0,3.542001545E-2,-7.257108390E-2,-8.575372398E-2
3.521185000E0,3.542001545E-2,-7.044056058E-2,-8.788424730E-2
3.523672813E0,3.648528084E-2,-7.044056058E-2,-9.108003974E-2
3.526160625E0,3.755054250E-2,-7.044056058E-2,-9.214530140E-2
3.528648438E0,3.861580789E-2,-7.150582224E-2,-9.427583218E-2
3.531136250E0,4.074633494E-2,-7.257108390E-2,-9.640636295E-2
3.533624063E0,4.181159660E-2,-7.363634557E-2,-9.853688627E-2
3.536111875E0,4.287686199E-2,-7.363634557E-2,-9.853688627E-2
3.538599688E0,4.394212365E-2,-7.257108390E-2,-9.960214794E-2
3.541087500E0,4.500738904E-2,-7.257108390E-2,-1.006674170E-1
3.543575313E0,4.500738904E-2,-7.044056058E-2,-1.017326787E-1
3.546063125E0,4.500738904E-2,-6.831002980E-2,-1.038632020E-1
3.548550938E0,4.500738904E-2,-6.617950648E-2,-1.049284711E-1
3.551038750E0,4.394212365E-2,-6.404897571E-2,-1.059937328E-1
3.553526563E0,4.287686199E-2,-5.978792161E-2,-1.070589945E-1
3.556014375E0,4.181159660E-2,-5.659212917E-2,-1.081242561E-1
3.558502188E0,4.074633494E-2,-5.339634046E-2,-1.091895252E-1
3.560990000E0,3.861580789E-2,-4.807002097E-2,-1.091895252E-1
3.563477813E0,3.755054250E-2,-4.380896688E-2,-1.081242561E-1
3.565965625E0,3.542001545E-2,-3.954791278E-2,-1.070589945E-1
3.568453438E0,3.328948840E-2,-3.422159329E-2,-1.070589945E-1
3.570941250E0,3.222422674E-2,-2.783001214E-2,-1.049284711E-1
3.573429063E0,2.902843431E-2,-2.037316747E-2,-1.027979404E-1
3.575916875E0,2.583264373E-2,-1.291632187E-2,-1.006674170E-1
3.578404688E0,2.370211668E-2,-6.524739787E-3,-9.853688627E-2
3.580892500E0,2.050632425E-2,-1.331579551E-4,-9.747162461E-2
3.583380313E0,1.731053367E-2,4.127896391E-3,-9.534109384E-2
3.585868125E0,1.411474310E-2,7.323687430E-3,-9.427583218E-2
3.588355938E0,1.091895252E-2,1.051947847E-2,-9.214530140E-2
3.590843750E0,7.723161485E-3,1.158474199E-2,-9.108003974E-2
3.593331563E0,5.592633970E-3,1.158474199E-2,-8.894951642E-2
3.595819375E0,3.462106921E-3,1.265000552E-2,-8.788424730E-2
3.598307188E0,1.331579522E-3,1.265000552E-2,-8.575372398E-2
3.600795000E0,2.663159103E-4,1.371526904E-2,-8.575372398E-2
3.603282813E0,-1.864211401E-3,1.478053257E-2,-8.575372398E-2
3.605770625E0,-2.929474926E-3,1.478053257E-2,-8.681898564E-2
3.608258438E0,-3.994738683E-3,1.371526904E-2,-8.894951642E-2
3.610746250E0,-6.125265732E-3,1.265000552E-2,-9.108003974E-2
3.613234063E0,-7.190529723E-3,1.158474199E-2,-9.427583218E-2
3.615721875E0,-8.255792782E-3,8.388951421E-3,-9.640636295E-2
3.618209688E0,-1.038632076E-2,5.193160381E-3,-9.747162461E-2
3.620697500E0,-1.145158429E-2,1.997369342E-3,-9.853688627E-2
3.623185313E0,-1.251684781E-2,-1.198421582E-3,-9.853688627E-2
3.625673125E0,-1.358211134E-2,-5.459476262E-3,-9.640636295E-2
3.628160938E0,-1.358211134E-2,-9.720530361E-3,-9.427583218E-2
3.630648750E0,-1.571263932E-2,-1.398158539E-2,-9.214530140E-2
3.633136563E0,-1.677790284E-2,-1.717737690E-2,-9.001477808E-2
3.635624375E0,-1.784316637E-2,-1.824264042E-2,-8.788424730E-2
3.638112188E0,-1.997369342E-2,-1.930790395E-2,-8.575372398E-2
3.640600000E0,-2.103895694E-2,-1.824264042E-2,-8.255793154E-2
3.643087813E0,-2.423474751E-2,-1.611211337E-2,-8.042740822E-2
3.645575625E0,-2.636527456E-2,-1.185105834E-2,-7.723161578E-2
3.648063438E0,-2.849580161E-2,-8.655266836E-3,-7.403582335E-2
3.650551250E0,-3.275685757E-2,-3.328948980E-3,-7.084003091E-2
3.653039063E0,-3.595264629E-2,3.062632866E-3,-6.657897681E-2
3.655526875E0,-3.914843872E-2,9.454214945E-3,-6.231792271E-2
3.658014688E0,-4.234423116E-2,1.691105962E-2,-5.805686861E-2
3.660502500E0,-4.554001987E-2,2.330264263E-2,-5.379581451E-2
3.662990313E0,-4.873581231E-2,2.862896025E-2,-4.953476042E-2
3.665478125E0,-5.086633936E-2,3.502054140E-2,-4.740423337E-2
3.667965938E0,-5.406212807E-2,4.034686089E-2,-4.420844093E-2
3.670453750E0,-5.619265884E-2,4.460791498E-2,-4.207791388E-2
3.672941563E0,-5.938844755E-2,4.886896908E-2,-4.101264849E-2
3.675429375E0,-6.258423626E-2,5.099949613E-2,-4.207791388E-2
3.677917188E0,-6.471476704E-2,5.313002318E-2,-4.314317927E-2
3.680405000E0,-6.791055948E-2,5.313002318E-2,-4.420844093E-2
3.682892813E0,-7.004108280E-2,5.206476152E-2,-4.740423337E-2
3.685380625E0,-7.217161357E-2,4.993423447E-2,-5.060002208E-2
3.687868438E0,-7.323687524E-2,4.780370742E-2,-5.486107618E-2
3.690356250E0,-7.430213690E-2,4.460791498E-2,-5.912213027E-2
3.692844063E0,-7.536740601E-2,4.034686089E-2,-6.444845349E-2
3.695331875E0,-7.430213690E-2,3.715106845E-2,-6.977476925E-2
3.697819688E0,-7.430213690E-2,3.395527974E-2,-7.403582335E-2
3.700307500E0,-7.430213690E-2,2.862896025E-2,-7.829687744E-2
3.702795313E0,-7.430213690E-2,2.543316968E-2,-8.362319320E-2
3.705283125E0,-7.323687524E-2,2.117211558E-2,-8.894951642E-2
3.707770938E0,-7.110634446E-2,1.691105962E-2,-9.427583218E-2
3.710258750E0,-7.004108280E-2,1.371526904E-2,-9.960214794E-2
3.712746563E0,-6.791055948E-2,1.051947847E-2,-1.049284711E-1
3.715234375E0,-6.578002870E-2,8.388951421E-3,-1.091895252E-1
3.717722188E0,-6.364950538E-2,7.323687430E-3,-1.113200486E-1
3.720210000E0,-6.151897460E-2,6.258423906E-3,-1.134505793E-1
3.722697813E0,-6.151897460E-2,5.193160381E-3,-1.145158410E-1
3.725185625E0,-6.045371294E-2,4.127896391E-3,-1.155811027E-1
3.727673438E0,-5.832318589E-2,3.062632866E-3,-1.155811027E-1
3.730161250E0,-5.619265884E-2,9.321057005E-4,-1.134505793E-1
3.732649063E0,-5.512739345E-2,-1.331579551E-4,-1.123853177E-1
3.735136875E0,-5.406212807E-2,-2.263685223E-3,-1.113200486E-1
3.737624688E0,-5.406212807E-2,-2.263685223E-3,-1.102547869E-1
3.740112552E0,-5.193160102E-2,-1.198421582E-3,-1.081242561E-1
3.742600417E0,-5.086633936E-2,9.321057005E-4,-1.070589945E-1
3.745088282E0,-5.086633936E-2,4.127896391E-3,-1.059937328E-1
3.747576146E0,-4.980107397E-2,7.323687430E-3,-1.059937328E-1
3.750064011E0,-4.873581231E-2,1.051947847E-2,-1.049284711E-1
3.752551875E0,-4.767054692E-2,1.371526904E-2,-1.059937328E-1
3.755039740E0,-4.767054692E-2,1.584579609E-2,-1.059937328E-1
3.757527605E0,-4.660528526E-2,1.691105962E-2,-1.070589945E-1
3.760015469E0,-4.660528526E-2,1.797632314E-2,-1.081242561E-1
3.762503334E0,-4.554001987E-2,1.797632314E-2,-1.091895252E-1
3.764991198E0,-4.554001987E-2,1.691105962E-2,-1.113200486E-1
3.767479063E0,-4.554001987E-2,1.584579609E-2,-1.134505793E-1
3.769966927E0,-4.447475821E-2,1.371526904E-2,-1.155811027E-1
3.772454792E0,-4.447475821E-2,1.265000552E-2,-1.177116334E-1
3.774942657E0,-4.340949282E-2,1.158474199E-2,-1.177116334E-1
3.777430521E0,-4.340949282E-2,1.158474199E-2,-1.187768951E-1
3.779918386E0,-4.234423116E-2,1.158474199E-2,-1.198421568E-1
3.782406250E0,-4.340949282E-2,9.454214945E-3,-1.198421568E-1
3.784894115E0,-4.340949282E-2,8.388951421E-3,-1.198421568E-1
3.787381980E0,-4.447475821E-2,5.193160381E-3,-1.198421568E-1
3.789869844E0,-4.447475821E-2,9.321057005E-4,-1.209074259E-1
3.792357709E0,-4.447475821E-2,-3.328948980E-3,-1.209074259E-1
3.794845573E0,-4.554001987E-2,-7.590003312E-3,-1.219726875E-1
3.797333438E0,-4.447475821E-2,-1.185105834E-2,-1.219726875E-1
3.799821302E0,-4.447475821E-2,-1.398158539E-2,-1.209074259E-1
3.802309167E0,-4.340949282E-2,-1.611211337E-2,-1.219726875E-1
3.804797032E0,-4.447475821E-2,-1.611211337E-2,-1.219726875E-1
3.807284896E0,-4.554001987E-2,-1.504684892E-2,-1.198421568E-1
3.809772709E0,-4.660528526E-2,-1.185105834E-2,-1.187768951E-1
3.812260521E0,-4.873581231E-2,-8.655266836E-3,-1.187768951E-1
3.814748334E0,-4.980107397E-2,-6.524739787E-3,-1.177116334E-1
3.817236146E0,-4.980107397E-2,-4.394212738E-3,-1.177116334E-1
3.819723959E0,-4.980107397E-2,-4.394212738E-3,-1.177116334E-1
3.822211771E0,-4.980107397E-2,-6.524739787E-3,-1.187768951E-1
3.824699584E0,-4.980107397E-2,-9.720530361E-3,-1.198421568E-1
3.827187396E0,-4.980107397E-2,-1.398158539E-2,-1.198421568E-1
3.829675209E0,-4.873581231E-2,-1.824264042E-2,-1.219726875E-1
3.832163021E0,-4.767054692E-2,-2.250369452E-2,-1.241032109E-1
3.834650834E0,-4.554001987E-2,-2.569948509E-2,-1.251684725E-1
3.837138646E0,-4.447475821E-2,-2.889527567E-2,-1.283642650E-1
3.839626459E0,-4.234423116E-2,-3.102580272E-2,-1.315600574E-1
3.842114271E0,-4.127896577E-2,-3.528685868E-2,-1.347558498E-1
3.844602084E0,-3.914843872E-2,-3.848264739E-2,-1.379516423E-1
3.847089896E0,-3.595264629E-2,-4.274370521E-2,-1.432779580E-1
3.849577709E0,-3.275685757E-2,-4.807002097E-2,-1.475390196E-1
3.852065521E0,-2.956106514E-2,-5.446160212E-2,-1.528653353E-1
3.854553334E0,-2.530001104E-2,-6.085318699E-2,-1.581916511E-1
3.857041146E0,-2.103895694E-2,-6.724476814E-2,-1.613874435E-1
3.859528959E0,-1.571263932E-2,-7.470161468E-2,-1.656484902E-1
3.862016771E0,-1.145158429E-2,-8.109319210E-2,-1.688442826E-1
3.864504584E0,-7.190529723E-3,-8.855003864E-2,-1.699095517E-1
3.866992396E0,-3.994738683E-3,-9.387636185E-2,-1.720400751E-1
3.869480209E0,-1.864211401E-3,-9.813741595E-2,-1.720400751E-1
3.871968021E0,2.663159103E-4,-1.023984700E-1,-1.720400751E-1
3.874455834E0,2.396843163E-3,-1.055942550E-1,-1.709748209E-1
3.876943646E0,3.462106921E-3,-1.087900475E-1,-1.699095517E-1
3.879431459E0,4.527370445E-3,-1.109205782E-1,-1.688442826E-1
3.881919271E0,6.657897960E-3,-1.130511016E-1,-1.667137593E-1
3.884407084E0,7.723161485E-3,-1.151816323E-1,-1.635179669E-1
3.886894896E0,9.853689000E-3,-1.183774248E-1,-1.603221744E-1
3.889382709E0,1.198421605E-2,-1.205079481E-1,-1.549958587E-1
3.891870521E0,1.411474310E-2,-1.215732098E-1,-1.496695429E-1
3.894358334E0,1.731053367E-2,-1.215732098E-1,-1.432779580E-1
3.896846146E0,1.837579720E-2,-1.194426864E-1,-1.358211190E-1
3.899333959E0,2.157158963E-2,-1.173121557E-1,-1.272990108E-1
3.901821771E0,2.263685316E-2,-1.130511016E-1,-1.187768951E-1
3.904309584E0,2.370211668E-2,-1.077247858E-1,-1.102547869E-1
3.906797396E0,2.476738021E-2,-1.013332009E-1,-1.017326787E-1
3.909285209E0,2.476738021E-2,-9.387636185E-2,-9.321057051E-2
3.911773021E0,2.583264373E-2,-8.641951531E-2,-8.468846232E-2
3.914260834E0,2.583264373E-2,-7.896266878E-2,-7.616634667E-2
3.916748646E0,2.583264373E-2,-7.150582224E-2,-6.764423847E-2
3.919236459E0,2.476738021E-2,-6.404897571E-2,-5.912213027E-2
3.921724271E0,2.476738021E-2,-5.765739456E-2,-5.060002208E-2
3.924212084E0,2.370211668E-2,-5.126581341E-2,-4.314317927E-2
3.926699896E0,2.263685316E-2,-4.380896688E-2,-3.462106735E-2
3.929187709E0,2.050632425E-2,-3.741738573E-2,-2.609895915E-2
3.931675521E0,1.837579720E-2,-2.889527567E-2,-1.651158556E-2
3.934163334E0,1.518000662E-2,-2.143843099E-2,-6.924213842E-3
3.936651146E0,1.198421605E-2,-1.504684892E-2,2.663159044E-3
3.939138959E0,7.723161485E-3,-1.078579482E-2,1.225053146E-2
3.941626771E0,4.527370445E-3,-6.524739787E-3,2.183790505E-2
3.944114584E0,1.331579522E-3,-3.328948980E-3,2.822948620E-2
3.946602396E0,-7.989477599E-4,-1.198421582E-3,3.568633273E-2
3.949090209E0,-2.929474926E-3,9.321057005E-4,4.207791388E-2
3.951578021E0,-5.060002208E-3,3.062632866E-3,4.740423337E-2
3.954065834E0,-8.255792782E-3,5.193160381E-3,5.166528746E-2
3.956553646E0,-1.145158429E-2,6.258423906E-3,5.486107618E-2
3.959041459E0,-1.571263932E-2,7.323687430E-3,5.592634156E-2
3.961529271E0,-1.890842989E-2,7.323687430E-3,5.486107618E-2
3.964017084E0,-2.210422046E-2,4.127896391E-3,5.379581451E-2
3.966504896E0,-2.530001104E-2,-1.331579551E-4,5.166528746E-2
3.968992709E0,-2.849580161E-2,-5.459476262E-3,4.740423337E-2
3.971480521E0,-3.169159219E-2,-1.398158539E-2,4.314317927E-2
3.973968334E0,-3.488738462E-2,-2.356895804E-2,3.781685978E-2
3.976456146E0,-3.914843872E-2,-3.422159329E-2,3.355580568E-2
3.978943959E0,-4.234423116E-2,-4.593949392E-2,2.929474972E-2
3.981431771E0,-4.554001987E-2,-5.765739456E-2,2.396843210E-2
3.983919584E0,-4.873581231E-2,-6.831002980E-2,1.970737800E-2
3.986407396E0,-5.193160102E-2,-7.789740711E-2,1.544632297E-2
3.988895209E0,-5.406212807E-2,-8.535424620E-2,1.225053146E-2
3.991383021E0,-5.725792050E-2,-9.068056941E-2,1.118526794E-2
3.993870834E0,-6.151897460E-2,-9.281109273E-2,1.118526794E-2
3.996358646E0,-6.471476704E-2,-9.387636185E-2,1.225053146E-2
3.998846459E0,-6.791055948E-2,-9.387636185E-2,1.438105945E-2
4.001334271E0,-7.110634446E-2,-9.281109273E-2,1.757685095E-2
4.003822084E0,-7.323687524E-2,-9.174583107E-2,2.077264152E-2
4.006309896E0,-7.643266767E-2,-8.855003864E-2,2.396843210E-2
4.008797709E0,-7.856319100E-2,-8.535424620E-2,2.822948620E-2
4.011285521E0,-7.962846011E-2,-8.002793044E-2,3.249054030E-2
4.013773334E0,-8.175898343E-2,-7.363634557E-2,3.781685978E-2
4.016261146E0,-8.282424510E-2,-6.511423737E-2,4.314317927E-2
4.018748959E0,-8.495477587E-2,-5.446160212E-2,4.953476042E-2
4.021236771E0,-8.602003753E-2,-4.167843983E-2,5.592634156E-2
4.023724584E0,-8.708529919E-2,-2.889527567E-2,6.231792271E-2
4.026212396E0,-8.815056831E-2,-1.398158539E-2,6.870950758E-2
4.028700209E0,-8.921582997E-2,-1.198421582E-3,7.510108501E-2
4.031188021E0,-8.815056831E-2,9.454214945E-3,7.829687744E-2
4.033675834E0,-8.815056831E-2,1.797632314E-2,8.042740822E-2
4.036163646E0,-8.708529919E-2,2.436790615E-2,8.042740822E-2
4.038651459E0,-8.708529919E-2,2.649843320E-2,7.936213911E-2
4.041139271E0,-8.495477587E-2,2.756369673E-2,7.829687744E-2
4.043627084E0,-8.495477587E-2,2.543316968E-2,7.616634667E-2
4.046114896E0,-8.495477587E-2,2.436790615E-2,7.297056168E-2
4.048602709E0,-8.495477587E-2,2.010685205E-2,6.870950758E-2
4.051090521E0,-8.495477587E-2,1.691105962E-2,6.551371515E-2
4.053578334E0,-8.602003753E-2,1.158474199E-2,6.018739566E-2
4.056066146E0,-8.708529919E-2,5.193160381E-3,5.592634156E-2
4.058553959E0,-8.815056831E-2,-2.263685223E-3,5.060002208E-2
4.061041771E0,-8.815056831E-2,-1.185105834E-2,4.420844093E-2
4.063529584E0,-8.921582997E-2,-2.356895804E-2,3.781685978E-2
4.066017396E0,-8.921582997E-2,-3.528685868E-2,3.142527863E-2
4.068505209E0,-8.921582997E-2,-4.807002097E-2,2.503369562E-2
4.070993021E0,-9.028109163E-2,-6.085318699E-2,1.970737800E-2
4.073480834E0,-9.028109163E-2,-7.044056058E-2,1.651158556E-2
4.075968646E0,-9.134636074E-2,-7.789740711E-2,1.331579592E-2
4.078456459E0,-9.134636074E-2,-8.322372288E-2,1.012000442E-2
4.080944271E0,-9.134636074E-2,-8.428898454E-2,9.054740891E-3
4.083432084E0,-9.028109163E-2,-8.322372288E-2,7.989477366E-3
4.085919896E0,-8.921582997E-2,-8.109319210E-2,5.858949851E-3
4.088407709E0,-8.815056831E-2,-7.683213800E-2,4.793686327E-3
4.090895521E0,-8.708529919E-2,-7.470161468E-2,3.728422802E-3
4.093383334E0,-8.495477587E-2,-7.044056058E-2,1.597895520E-3
4.095871146E0,-8.388951421E-2,-6.511423737E-2,1.597895520E-3
4.098358959E0,-8.175898343E-2,-6.085318699E-2,1.597895520E-3
4.100846771E0,-7.962846011E-2,-5.552686751E-2,3.728422802E-3
4.103334584E0,-7.749792933E-2,-4.913528636E-2,6.924213842E-3
4.105822396E0,-7.643266767E-2,-4.274370521E-2,1.118526794E-2
4.108310209E0,-7.536740601E-2,-3.635212034E-2,1.651158556E-2
4.110798021E0,-7.430213690E-2,-2.996053919E-2,2.183790505E-2
4.113285834E0,-7.323687524E-2,-2.356895804E-2,2.822948620E-2
4.115773646E0,-7.110634446E-2,-1.611211337E-2,3.355580568E-2
4.118261459E0,-6.897582114E-2,-8.655266836E-3,3.888212144E-2
4.120749271E0,-6.791055948E-2,-2.263685223E-3,4.314317927E-2
4.123237084E0,-6.684529036E-2,5.193160381E-3,4.846949503E-2
4.125724896E0,-6.791055948E-2,1.158474199E-2,5.060002208E-2
4.128212709E0,-6.897582114E-2,1.797632314E-2,5.273054913E-2
4.130700521E0,-7.004108280E-2,2.223737910E-2,5.379581451E-2
4.133188334E0,-7.004108280E-2,2.436790615E-2,5.486107618E-2
4.135676146E0,-7.004108280E-2,2.436790615E-2,5.486107618E-2
4.138163959E0,-7.004108280E-2,2.117211558E-2,5.379581451E-2
4.140651771E0,-7.004108280E-2,1.584579609E-2,5.273054913E-2
4.143139584E0,-7.004108280E-2,8.388951421E-3,4.953476042E-2
4.145627396E0,-7.110634446E-2,-1.331579551E-4,4.633896798E-2
4.148115209E0,-7.004108280E-2,-1.078579482E-2,4.101264849E-2
4.150603021E0,-7.004108280E-2,-2.143843099E-2,3.568633273E-2
4.153090834E0,-7.110634446E-2,-3.102580272E-2,2.822948620E-2
4.155578646E0,-7.323687524E-2,-3.954791278E-2,2.077264152E-2
4.158066459E0,-7.536740601E-2,-4.700475931E-2,1.331579592E-2
4.160554271E0,-7.749792933E-2,-5.552686751E-2,4.793686327E-3
4.163042084E0,-7.962846011E-2,-6.298371404E-2,-3.728422802E-3
4.165529896E0,-8.175898343E-2,-7.150582224E-2,-1.225053146E-2
4.168017709E0,-8.602003753E-2,-8.215846121E-2,-2.077264152E-2
4.170505521E0,-8.815056831E-2,-9.174583107E-2,-2.716422267E-2
4.172993334E0,-9.241162241E-2,-1.034637317E-1,-3.249054030E-2
4.175481146E0,-9.667267650E-2,-1.130511016E-1,-3.568633273E-2
4.177968959E0,-1.019989923E-1,-1.215732098E-1,-3.781685978E-2
4.180456771E0,-1.062600464E-1,-1.279647946E-1,-3.994738683E-2
4.182944584E0,-1.115863696E-1,-1.322258562E-1,-3.994738683E-2
4.185432396E0,-1.169126853E-1,-1.364869028E-1,-3.888212144E-2
4.187920209E0,-1.222390011E-1,-1.386174262E-1,-3.675159439E-2
4.190408021E0,-1.275653243E-1,-1.407479644E-1,-3.462106735E-2
4.192895834E0,-1.318263710E-1,-1.418132186E-1,-3.249054030E-2
4.195383646E0,-1.371526867E-1,-1.428784877E-1,-2.929474972E-2
4.197871459E0,-1.424790174E-1,-1.418132186E-1,-2.503369562E-2
4.200359271E0,-1.467400640E-1,-1.386174262E-1,-1.970737800E-2
4.202847084E0,-1.520663798E-1,-1.343563795E-1,-1.438105945E-2
4.205334896E0,-1.563274413E-1,-1.300953180E-1,-7.989477366E-3
4.207822709E0,-1.616537571E-1,-1.247690022E-1,-5.326318205E-4
4.210310521E0,-1.659148186E-1,-1.183774248E-1,6.924213842E-3
4.212798334E0,-1.712411344E-1,-1.109205782E-1,1.438105945E-2
4.215286146E0,-1.744369268E-1,-1.045289934E-1,2.077264152E-2
4.217773959E0,-1.786979735E-1,-9.600688517E-2,2.609895915E-2
4.220261771E0,-1.818937659E-1,-8.961530030E-2,3.142527863E-2
4.222749584E0,-1.840242893E-1,-8.322372288E-2,3.568633273E-2
4.225237396E0,-1.861548275E-1,-7.683213800E-2,3.994738683E-2
4.227725209E0,-1.882853508E-1,-7.044056058E-2,4.314317927E-2
4.230213021E0,-1.914811432E-1,-6.617950648E-2,4.633896798E-2
4.232700834E0,-1.936116666E-1,-6.085318699E-2,4.740423337E-2
4.235188646E0,-1.968074590E-1,-5.765739456E-2,4.846949503E-2
4.237676459E0,-2.000032514E-1,-5.339634046E-2,4.740423337E-2
4.240164271E0,-2.031990439E-1,-5.020054802E-2,4.527370632E-2
4.242652084E0,-2.074600905E-1,-4.913528636E-2,4.101264849E-2
4.245139896E0,-2.106558830E-1,-5.020054802E-2,3.568633273E-2
4.247627709E0,-2.149169445E-1,-5.233107507E-2,2.929474972E-2
4.250115521E0,-2.181127369E-1,-5.552686751E-2,2.290316857E-2
4.252603334E0,-2.223737836E-1,-5.872265995E-2,1.651158556E-2
4.255091146E0,-2.266348451E-1,-6.298371404E-2,1.118526794E-2
4.257578959E0,-2.298306376E-1,-6.404897571E-2,7.989477366E-3
4.260066771E0,-2.340916842E-1,-6.404897571E-2,4.793686327E-3
4.262554584E0,-2.372874767E-1,-6.191844866E-2,1.597895520E-3
4.265042448E0,-2.415485233E-1,-5.978792161E-2,-2.663159044E-3
4.267530313E0,-2.458095849E-1,-5.765739456E-2,-5.858949851E-3
4.270018177E0,-2.490053773E-1,-5.659212917E-2,-1.012000442E-2
4.272506042E0,-2.522011697E-1,-5.552686751E-2,-1.651158556E-2
4.274993907E0,-2.553969622E-1,-5.872265995E-2,-2.396843210E-2
4.277481771E0,-2.585927546E-1,-6.085318699E-2,-3.249054030E-2
4.279969636E0,-2.596580088E-1,-6.511423737E-2,-4.101264849E-2
4.282457500E0,-2.617885470E-1,-6.831002980E-2,-4.953476042E-2
4.284945365E0,-2.628538013E-1,-7.150582224E-2,-5.805686861E-2
4.287433230E0,-2.649843395E-1,-7.470161468E-2,-6.551371515E-2
4.289921094E0,-2.671148479E-1,-7.789740711E-2,-7.297056168E-2
4.292408959E0,-2.681801319E-1,-8.109319210E-2,-7.936213911E-2
4.294896823E0,-2.692453861E-1,-8.428898454E-2,-8.575372398E-2
4.297384688E0,-2.692453861E-1,-8.748477697E-2,-9.108003974E-2
4.299872552E0,-2.692453861E-1,-9.068056941E-2,-9.534109384E-2
4.302360417E0,-2.681801319E-1,-9.281109273E-2,-9.853688627E-2
4.304848282E0,-2.660495937E-1,-9.494162351E-2,-1.006674170E-1
4.307336146E0,-2.639190555E-1,-9.600688517E-2,-1.017326787E-1
4.309824011E0,-2.617885470E-1,-9.707214683E-2,-1.027979404E-1
4.312311875E0,-2.585927546E-1,-9.707214683E-2,-1.027979404E-1
4.314799740E0,-2.553969622E-1,-9.600688517E-2,-1.027979404E-1
4.317287605E0,-2.522011697E-1,-9.281109273E-2,-1.027979404E-1
4.319775469E0,-2.479401082E-1,-8.748477697E-2,-1.038632020E-1
4.322263334E0,-2.426137924E-1,-8.109319210E-2,-1.038632020E-1
4.324751198E0,-2.362222075E-1,-7.257108390E-2,-1.038632020E-1
4.327239063E0,-2.308958918E-1,-6.191844866E-2,-1.027979404E-1
4.329726927E0,-2.234390527E-1,-5.233107507E-2,-1.017326787E-1
4.332214792E0,-2.159821987E-1,-4.274370521E-2,-9.960214794E-2
4.334702657E0,-2.085253596E-1,-3.528685868E-2,-9.640636295E-2
4.337190521E0,-2.021337748E-1,-2.889527567E-2,-9.427583218E-2
4.339678334E0,-1.946769357E-1,-2.569948509E-2,-9.214530140E-2
4.342166146E0,-1.893506050E-1,-2.463422157E-2,-9.108003974E-2
4.344653959E0,-1.829590350E-1,-2.463422157E-2,-8.894951642E-2
4.347141771E0,-1.755021811E-1,-2.250369452E-2,-8.788424730E-2
4.349629584E0,-1.701758653E-1,-2.037316747E-2,-8.362319320E-2
4.352117396E0,-1.637842804E-1,-1.611211337E-2,-7.723161578E-2
4.354605209E0,-1.584579647E-1,-1.185105834E-2,-7.084003091E-2
4.357093021E0,-1.531316489E-1,-5.459476262E-3,-6.338318437E-2
4.359580834E0,-1.488705873E-1,-1.198421582E-3,-5.805686861E-2
4.362068646E0,-1.446095407E-1,4.127896391E-3,-5.273054913E-2
4.364556459E0,-1.403484792E-1,6.258423906E-3,-4.740423337E-2
4.367044271E0,-1.382179558E-1,9.454214945E-3,-4.527370632E-2
4.369532084E0,-1.339569092E-1,9.454214945E-3,-4.207791388E-2
4.372019896E0,-1.318263710E-1,9.454214945E-3,-4.207791388E-2
4.374507709E0,-1.307611167E-1,6.258423906E-3,-4.420844093E-2
4.376995521E0,-1.296958476E-1,9.321057005E-4,-4.846949503E-2
4.379483334E0,-1.286305785E-1,-6.524739787E-3,-5.379581451E-2
4.381971146E0,-1.286305785E-1,-1.717737690E-2,-6.125266105E-2
4.384458959E0,-1.286305785E-1,-2.783001214E-2,-6.977476925E-2
4.386946771E0,-1.275653243E-1,-3.741738573E-2,-7.936213911E-2
4.389434584E0,-1.254348010E-1,-4.593949392E-2,-8.894951642E-2
4.391922396E0,-1.254348010E-1,-5.339634046E-2,-9.853688627E-2
4.394410209E0,-1.243695319E-1,-6.085318699E-2,-1.081242561E-1
4.396898021E0,-1.254348010E-1,-6.831002980E-2,-1.166463718E-1
4.399385834E0,-1.275653243E-1,-7.789740711E-2,-1.272990108E-1
4.401873646E0,-1.296958476E-1,-8.961530030E-2,-1.358211190E-1
4.404361459E0,-1.307611167E-1,-1.023984700E-1,-1.454084814E-1
4.406849271E0,-1.318263710E-1,-1.130511016E-1,-1.528653353E-1
4.409337084E0,-1.318263710E-1,-1.205079481E-1,-1.571263820E-1
4.411824896E0,-1.328916401E-1,-1.237037405E-1,-1.592569202E-1
4.414312709E0,-1.328916401E-1,-1.237037405E-1,-1.592569202E-1
4.416800521E0,-1.339569092E-1,-1.215732098E-1,-1.571263820E-1
4.419288334E0,-1.360874325E-1,-1.173121557E-1,-1.560611278E-1
4.421776146E0,-1.382179558E-1,-1.130511016E-1,-1.539305896E-1
4.424263959E0,-1.392832249E-1,-1.109205782E-1,-1.518000662E-1
4.426751771E0,-1.403484792E-1,-1.087900475E-1,-1.507348120E-1
4.429239584E0,-1.424790174E-1,-1.087900475E-1,-1.464737505E-1
4.431727396E0,-1.424790174E-1,-1.077247858E-1,-1.432779580E-1
4.434215209E0,-1.424790174E-1,-1.077247858E-1,-1.400821656E-1
4.436703021E0,-1.435442716E-1,-1.055942550E-1,-1.368863732E-1
4.439190834E0,-1.456748098E-1,-1.045289934E-1,-1.326253265E-1
4.441678646E0,-1.467400640E-1,-1.013332009E-1,-1.283642650E-1
4.444166459E0,-1.488705873E-1,-9.707214683E-2,-1.230379492E-1
4.446654271E0,-1.520663798E-1,-9.174583107E-2,-1.177116334E-1
4.449142084E0,-1.552621722E-1,-8.641951531E-2,-1.113200486E-1
4.451629896E0,-1.573926955E-1,-8.002793044E-2,-1.049284711E-1
4.454117709E0,-1.627190262E-1,-7.470161468E-2,-9.853688627E-2
4.456605521E0,-1.669800729E-1,-7.150582224E-2,-9.321057051E-2
4.459093334E0,-1.712411344E-1,-6.937529147E-2,-8.788424730E-2
4.461581146E0,-1.765674502E-1,-6.831002980E-2,-8.255793154E-2
4.464068959E0,-1.829590350E-1,-6.724476814E-2,-7.829687744E-2
4.466556771E0,-1.893506050E-1,-6.831002980E-2,-7.510108501E-2
4.469044584E0,-1.957421899E-1,-6.937529147E-2,-7.297056168E-2
4.471532396E0,-2.021337748E-1,-7.044056058E-2,-6.977476925E-2
4.474020209E0,-2.085253596E-1,-7.150582224E-2,-6.657897681E-2
4.476508021E0,-2.138516754E-1,-7.470161468E-2,-6.551371515E-2
4.478995834E0,-2.202432603E-1,-8.002793044E-2,-6.338318437E-2
4.481483646E0,-2.266348451E-1,-8.748477697E-2,-6.338318437E-2
4.483971459E0,-2.319611609E-1,-9.707214683E-2,-6.444845349E-2
4.486459271E0,-2.372874767E-1,-1.066595241E-1,-6.444845349E-2
4.488947084E0,-2.415485233E-1,-1.141163707E-1,-6.551371515E-2
4.491434896E0,-2.447443157E-1,-1.215732098E-1,-6.657897681E-2
4.493922709E0,-2.468748540E-1,-1.258342713E-1,-6.870950758E-2
4.496410521E0,-2.490053773E-1,-1.290300637E-1,-6.977476925E-2
4.498898334E0,-2.511359155E-1,-1.290300637E-1,-7.190529257E-2
4.501386146E0,-2.532664239E-1,-1.290300637E-1,-7.510108501E-2
4.503873959E0,-2.553969622E-1,-1.279647946E-1,-7.723161578E-2
4.506361771E0,-2.575274706E-1,-1.279647946E-1,-8.042740822E-2
4.508849584E0,-2.585927546E-1,-1.268995255E-1,-8.362319320E-2
4.511337396E0,-2.585927546E-1,-1.258342713E-1,-8.468846232E-2
4.513825209E0,-2.575274706E-1,-1.237037405E-1,-8.681898564E-2
4.516313021E0,-2.553969622E-1,-1.215732098E-1,-8.681898564E-2
4.518800834E0,-2.543317080E-1,-1.183774248E-1,-8.575372398E-2
4.521288646E0,-2.543317080E-1,-1.151816323E-1,-8.362319320E-2
4.523776459E0,-2.543317080E-1,-1.130511016E-1,-8.042740822E-2
4.526264271E0,-2.543317080E-1,-1.141163707E-1,-7.616634667E-2
4.528752084E0,-2.543317080E-1,-1.173121557E-1,-7.297056168E-2
4.531239896E0,-2.532664239E-1,-1.226384789E-1,-6.977476925E-2
4.533727709E0,-2.522011697E-1,-1.300953180E-1,-6.764423847E-2
4.536215521E0,-2.500706315E-1,-1.364869028E-1,-6.657897681E-2
4.538703334E0,-2.490053773E-1,-1.418132186E-1,-6.444845349E-2
4.541191146E0,-2.458095849E-1,-1.450090110E-1,-6.231792271E-2
4.543678959E0,-2.426137924E-1,-1.450090110E-1,-6.018739566E-2
4.546166771E0,-2.394180000E-1,-1.428784877E-1,-5.699160323E-2
4.548654584E0,-2.372874767E-1,-1.396826953E-1,-5.273054913E-2
4.551142396E0,-2.340916842E-1,-1.354216337E-1,-4.846949503E-2
4.553630209E0,-2.308958918E-1,-1.322258562E-1,-4.207791388E-2
4.556118021E0,-2.287653685E-1,-1.290300637E-1,-3.462106735E-2
4.558605834E0,-2.255695760E-1,-1.268995255E-1,-2.609895915E-2
4.561093646E0,-2.223737836E-1,-1.226384789E-1,-1.757685095E-2
4.563581459E0,-2.191779912E-1,-1.173121557E-1,-7.989477366E-3
4.566069271E0,-2.138516754E-1,-1.098553166E-1,5.326318205E-4
4.568557084E0,-2.106558830E-1,-1.023984700E-1,9.054740891E-3
4.571044896E0,-2.074600905E-1,-9.600688517E-2,1.651158556E-2
4.573532709E0,-2.042642981E-1,-9.174583107E-2,2.290316857E-2
4.576020573E0,-2.021337748E-1,-8.855003864E-2,2.822948620E-2
4.578508438E0,-2.000032514E-1,-8.641951531E-2,3.249054030E-2
4.580996302E0,-1.968074590E-1,-8.748477697E-2,3.675159439E-2
4.583484167E0,-1.946769357E-1,-8.961530030E-2,3.994738683E-2
4.585972032E0,-1.936116666E-1,-9.387636185E-2,4.101264849E-2
4.588459896E0,-1.925463974E-1,-9.813741595E-2,4.207791388E-2
4.590947761E0,-1.914811432E-1,-1.023984700E-1,4.207791388E-2
4.593435625E0,-1.914811432E-1,-1.087900475E-1,4.207791388E-2
4.595923490E0,-1.914811432E-1,-1.141163707E-1,4.207791388E-2
4.598411355E0,-1.925463974E-1,-1.215732098E-1,4.314317927E-2
4.600899219E0,-1.936116666E-1,-1.279647946E-1,4.207791388E-2
4.603387084E0,-1.936116666E-1,-1.343563795E-1,4.207791388E-2
4.605874948E0,-1.936116666E-1,-1.396826953E-1,4.101264849E-2
4.608362813E0,-1.925463974E-1,-1.439437568E-1,4.101264849E-2
4.610850677E0,-1.925463974E-1,-1.460742801E-1,4.101264849E-2
4.613338542E0,-1.904158741E-1,-1.471395344E-1,4.101264849E-2
4.615826407E0,-1.882853508E-1,-1.482048035E-1,4.314317927E-2
4.618314271E0,-1.882853508E-1,-1.482048035E-1,4.527370632E-2
4.620802136E0,-1.872200817E-1,-1.471395344E-1,4.633896798E-2
4.623290000E0,-1.850895584E-1,-1.439437568E-1,4.740423337E-2
4.625777865E0,-1.840242893E-1,-1.407479644E-1,5.060002208E-2
4.628265730E0,-1.818937659E-1,-1.364869028E-1,5.273054913E-2
4.630753594E0,-1.797632426E-1,-1.311605871E-1,5.592634156E-2
4.633241459E0,-1.786979735E-1,-1.268995255E-1,5.912213027E-2
4.635729323E0,-1.765674502E-1,-1.226384789E-1,6.231792271E-2
4.638217188E0,-1.765674502E-1,-1.183774248E-1,6.551371515E-2
4.640705052E0,-1.765674502E-1,-1.151816323E-1,6.764423847E-2
4.643192917E0,-1.776327193E-1,-1.109205782E-1,6.977476925E-2
4.645680782E0,-1.776327193E-1,-1.066595241E-1,6.870950758E-2
4.648168646E0,-1.797632426E-1,-1.023984700E-1,6.870950758E-2
4.650656511E0,-1.818937659E-1,-9.707214683E-2,6.551371515E-2
4.653144375E0,-1.850895584E-1,-9.174583107E-2,6.125266105E-2
4.655632240E0,-1.882853508E-1,-8.535424620E-2,5.592634156E-2
4.658120105E0,-1.925463974E-1,-7.789740711E-2,5.166528746E-2
4.660607969E0,-1.968074590E-1,-7.044056058E-2,4.633896798E-2
4.663095834E0,-2.021337748E-1,-6.511423737E-2,4.101264849E-2
4.665583646E0,-2.063948363E-1,-5.872265995E-2,3.355580568E-2
4.668071459E0,-2.106558830E-1,-5.446160212E-2,2.396843210E-2
4.670559271E0,-2.159821987E-1,-5.020054802E-2,1.331579592E-2
4.673047084E0,-2.202432603E-1,-4.807002097E-2,5.326318205E-4
4.675534896E0,-2.255695760E-1,-4.700475931E-2,-1.225053146E-2
4.678022709E0,-2.308958918E-1,-4.913528636E-2,-2.716422267E-2
4.680510521E0,-2.351569533E-1,-5.339634046E-2,-4.207791388E-2
4.682998334E0,-2.404832691E-1,-5.872265995E-2,-5.699160323E-2
4.685486146E0,-2.436790615E-1,-6.298371404E-2,-7.084003091E-2
4.687973959E0,-2.468748540E-1,-6.831002980E-2,-8.255793154E-2
4.690461771E0,-2.500706315E-1,-7.150582224E-2,-9.321057051E-2
4.692949584E0,-2.532664239E-1,-7.363634557E-2,-1.027979404E-1
4.695437396E0,-2.564622164E-1,-7.470161468E-2,-1.123853177E-1
4.697925209E0,-2.575274706E-1,-7.683213800E-2,-1.209074259E-1
4.700413021E0,-2.585927546E-1,-7.896266878E-2,-1.283642650E-1
4.702900834E0,-2.575274706E-1,-8.002793044E-2,-1.358211190E-1
4.705388646E0,-2.553969622E-1,-8.002793044E-2,-1.411474347E-1
4.707876459E0,-2.532664239E-1,-7.789740711E-2,-1.443432271E-1
4.710364271E0,-2.511359155E-1,-7.363634557E-2,-1.464737505E-1
4.712852084E0,-2.479401082E-1,-6.724476814E-2,-1.454084814E-1
4.715339896E0,-2.458095849E-1,-5.978792161E-2,-1.432779580E-1
4.717827709E0,-2.426137924E-1,-4.913528636E-2,-1.400821656E-1
4.720315521E0,-2.383527458E-1,-3.741738573E-2,-1.347558498E-1
4.722803334E0,-2.340916842E-1,-2.463422157E-2,-1.272990108E-1
4.725291146E0,-2.277000993E-1,-1.185105834E-2,-1.177116334E-1
4.727778959E0,-2.223737836E-1,-1.331579551E-4,-1.059937328E-1
4.730266771E0,-2.159821987E-1,1.051947847E-2,-9.427583218E-2
4.732754584E0,-2.095906287E-1,2.010685205E-2,-8.149266988E-2
4.735242396E0,-2.031990439E-1,2.756369673E-2,-6.977476925E-2
4.737730209E0,-1.968074590E-1,3.608580679E-2,-5.805686861E-2
4.740218021E0,-1.904158741E-1,4.460791498E-2,-4.846949503E-2
4.742705834E0,-1.850895584E-1,5.206476152E-2,-4.101264849E-2
4.745193646E0,-1.786979735E-1,5.952160433E-2,-3.462106735E-2
4.747681459E0,-1.723063886E-1,6.697845459E-2,-2.822948620E-2
4.750169271E0,-1.659148186E-1,7.230477035E-2,-2.396843210E-2
4.752657084E0,-1.595232338E-1,7.443529367E-2,-2.183790505E-2
4.755144896E0,-1.541969180E-1,7.337003201E-2,-2.077264152E-2
4.757632709E0,-1.478053331E-1,7.017423958E-2,-2.183790505E-2
4.760120521E0,-1.446095407E-1,6.484792382E-2,-2.396843210E-2
4.762608334E0,-1.414137483E-1,5.739107728E-2,-2.822948620E-2
4.765096146E0,-1.371526867E-1,4.886896908E-2,-3.462106735E-2
4.767583959E0,-1.350221634E-1,4.034686089E-2,-4.314317927E-2
4.770071771E0,-1.328916401E-1,2.969422378E-2,-5.273054913E-2
4.772559584E0,-1.286305785E-1,1.904158667E-2,-6.444845349E-2
4.775047396E0,-1.243695319E-1,1.051947847E-2,-7.403582335E-2
4.777535209E0,-1.201084778E-1,5.193160381E-3,-8.042740822E-2
4.780023021E0,-1.158474237E-1,3.062632866E-3,-8.255793154E-2
4.782510834E0,-1.115863696E-1,5.193160381E-3,-8.362319320E-2
4.784998646E0,-1.073253155E-1,1.265000552E-2,-8.255793154E-2
4.787486459E0,-1.019989923E-1,2.117211558E-2,-8.042740822E-2
4.789974271E0,-9.667267650E-2,2.969422378E-2,-7.829687744E-2
4.792462084E0,-9.134636074E-2,3.821633384E-2,-7.510108501E-2
4.794949896E0,-8.495477587E-2,4.460791498E-2,-7.084003091E-2
4.797437709E0,-7.962846011E-2,5.206476152E-2,-6.657897681E-2
4.799925521E0,-7.323687524E-2,5.952160433E-2,-6.125266105E-2
4.802413334E0,-6.684529036E-2,6.804371625E-2,-5.486107618E-2
4.804901146E0,-6.045371294E-2,7.656582445E-2,-4.846949503E-2
4.807388959E0,-5.512739345E-2,8.508793265E-2,-4.207791388E-2
4.809876771E0,-4.980107397E-2,9.254477918E-2,-3.781685978E-2
4.812364584E0,-4.447475821E-2,9.893636405E-2,-3.355580568E-2
4.814852396E0,-3.914843872E-2,1.031974182E-1,-2.929474972E-2
4.817340209E0,-3.488738462E-2,1.074584723E-1,-2.716422267E-2
4.819828021E0,-2.956106514E-2,1.085237339E-1,-2.609895915E-2
4.822315834E0,-2.530001104E-2,1.074584723E-1,-2.396843210E-2
4.824803646E0,-2.103895694E-2,1.031974182E-1,-2.503369562E-2
4.827291459E0,-1.890842989E-2,9.574057162E-2,-2.503369562E-2
4.829779323E0,-1.677790284E-2,8.615319431E-2,-2.609895915E-2
4.832267188E0,-1.571263932E-2,7.443529367E-2,-2.609895915E-2
4.834755052E0,-1.358211134E-2,6.378266215E-2,-2.609895915E-2
4.837242917E0,-1.251684781E-2,5.313002318E-2,-2.503369562E-2
4.839730782E0,-1.145158429E-2,4.354264960E-2,-2.396843210E-2
4.842218646E0,-1.038632076E-2,3.608580679E-2,-2.290316857E-2
4.844706511E0,-9.321057238E-3,3.075948730E-2,-2.290316857E-2
4.847194375E0,-8.255792782E-3,2.862896025E-2,-2.183790505E-2
4.849682240E0,-6.125265732E-3,2.756369673E-2,-2.077264152E-2
4.852170105E0,-3.994738683E-3,2.862896025E-2,-2.077264152E-2
4.854657969E0,-7.989477599E-4,2.969422378E-2,-2.183790505E-2
4.857145834E0,3.462106921E-3,3.182475269E-2,-2.290316857E-2
4.859633698E0,7.723161485E-3,3.608580679E-2,-2.290316857E-2
4.862121563E0,1.304947957E-2,4.141212255E-2,-2.290316857E-2
4.864609427E0,1.731053367E-2,4.673844203E-2,-2.077264152E-2
4.867097292E0,2.263685316E-2,5.313002318E-2,-2.077264152E-2
4.869585157E0,2.689790726E-2,5.845634267E-2,-1.970737800E-2
4.872073021E0,3.009369783E-2,6.378266215E-2,-2.077264152E-2
4.874560886E0,3.435475379E-2,6.804371625E-2,-2.290316857E-2
4.877048750E0,3.755054250E-2,7.123950869E-2,-2.396843210E-2
4.879536615E0,4.181159660E-2,7.123950869E-2,-2.716422267E-2
4.882024480E0,4.394212365E-2,7.017423958E-2,-2.929474972E-2
4.884512344E0,4.820318148E-2,6.697845459E-2,-3.249054030E-2
4.887000209E0,5.033370852E-2,6.378266215E-2,-3.355580568E-2
4.889488073E0,5.246423557E-2,5.952160433E-2,-3.462106735E-2
4.891975938E0,5.352949724E-2,5.632581562E-2,-3.568633273E-2
4.894463802E0,5.352949724E-2,5.313002318E-2,-3.462106735E-2
4.896951667E0,5.352949724E-2,4.993423447E-2,-3.355580568E-2
4.899439532E0,5.352949724E-2,4.780370742E-2,-3.249054030E-2
4.901927396E0,5.352949724E-2,4.354264960E-2,-3.142527863E-2
4.904415261E0,5.352949724E-2,4.141212255E-2,-2.929474972E-2
4.906903125E0,5.459476262E-2,3.928159550E-2,-2.716422267E-2
4.909390990E0,5.459476262E-2,3.715106845E-2,-2.396843210E-2
4.911878855E0,5.459476262E-2,3.608580679E-2,-2.183790505E-2
4.914366719E0,5.566002429E-2,3.395527974E-2,-1.864211448E-2
4.916854584E0,5.566002429E-2,3.075948730E-2,-1.757685095E-2
4.919342448E0,5.566002429E-2,2.543316968E-2,-1.544632297E-2
4.921830313E0,5.566002429E-2,1.797632314E-2,-1.331579592E-2
4.924318177E0,5.459476262E-2,9.454214945E-3,-1.225053146E-2
4.926806042E0,5.352949724E-2,-1.331579551E-4,-1.118526794E-2
4.929293907E0,5.139897019E-2,-8.655266836E-3,-1.012000442E-2
4.931781771E0,4.820318148E-2,-1.611211337E-2,-9.054740891E-3
4.934269636E0,4.607265070E-2,-2.250369452E-2,-1.012000442E-2
4.936757500E0,4.287686199E-2,-2.676474862E-2,-1.012000442E-2
4.939245313E0,4.074633494E-2,-3.102580272E-2,-1.012000442E-2
4.941733125E0,3.755054250E-2,-3.422159329E-2,-9.054740891E-3
4.944220938E0,3.542001545E-2,-3.635212034E-2,-9.054740891E-3
4.946708750E0,3.435475379E-2,-3.741738573E-2,-6.924213842E-3
4.949196563E0,3.435475379E-2,-3.848264739E-2,-5.858949851E-3
4.951684375E0,3.328948840E-2,-3.848264739E-2,-4.793686327E-3
4.954172188E0,3.328948840E-2,-3.848264739E-2,-2.663159044E-3
4.956660000E0,3.435475379E-2,-3.848264739E-2,-2.663159044E-3
4.959147813E0,3.435475379E-2,-3.848264739E-2,-5.326318205E-4
4.961635625E0,3.328948840E-2,-4.061317816E-2,5.326318205E-4
4.964123438E0,3.222422674E-2,-4.380896688E-2,1.597895520E-3
4.966611250E0,3.115896136E-2,-4.807002097E-2,2.663159044E-3
4.969099063E0,3.115896136E-2,-5.446160212E-2,1.597895520E-3
4.971586875E0,3.222422674E-2,-6.085318699E-2,5.326318205E-4
4.974074688E0,3.222422674E-2,-6.937529147E-2,-5.326318205E-4
4.976562500E0,3.328948840E-2,-8.002793044E-2,-1.597895520E-3
4.979050313E0,3.328948840E-2,-9.174583107E-2,-3.728422802E-3
4.981538125E0,3.435475379E-2,-1.034637317E-1,-4.793686327E-3
4.984025938E0,3.435475379E-2,-1.141163707E-1,-5.858949851E-3
4.986513750E0,3.542001545E-2,-1.237037405E-1,-6.924213842E-3
4.989001563E0,3.542001545E-2,-1.322258562E-1,-6.924213842E-3
4.991489375E0,3.542001545E-2,-1.396826953E-1,-6.924213842E-3
4.993977188E0,3.542001545E-2,-1.450090110E-1,-6.924213842E-3
4.996465000E0,3.542001545E-2,-1.492700726E-1,-5.858949851E-3
4.998952813E0,3.435475379E-2,-1.524658650E-1,-4.793686327E-3
5.001440625E0,3.328948840E-2,-1.535311192E-1,-2.663159044E-3
5.003928438E0,3.222422674E-2,-1.545963883E-1,-1.597895520E-3
5.006416250E0,2.902843431E-2,-1.556616426E-1,1.597895520E-3
