"Time (s)","Acceleration x (m/s^2)","Acceleration y (m/s^2)","Acceleration z (m/s^2)"
3.279994800E-2,-1.818396211E0,9.731831551E0,-8.876502514E-1
3.529666700E-2,-1.981201887E0,1.007180786E1,-8.589198589E-1
3.779302100E-2,-2.072181463E0,1.022982502E1,-8.397662640E-1
4.028932300E-2,-2.115277290E0,1.034474659E1,-8.014590144E-1
4.278531300E-2,-2.153584480E0,1.045966911E1,-7.392097712E-1
4.528130200E-2,-2.177526474E0,1.055543709E1,-6.530185342E-1
4.777729200E-2,-2.206256866E0,1.064162827E1,-6.338648796E-1
5.027333300E-2,-2.230198860E0,1.074218464E1,-6.051344872E-1
5.276942700E-2,-2.244564056E0,1.081879902E1,-5.716156363E-1
5.526557300E-2,-2.239775658E0,1.087625980E1,-5.380968451E-1
5.776177100E-2,-2.230198860E0,1.093372059E1,-5.141547918E-1
6.025807300E-2,-2.230198860E0,1.099118137E1,-4.710591733E-1
6.275442700E-2,-2.244564056E0,1.104385376E1,-4.614823759E-1
6.525776000E-2,-2.249352455E0,1.108694935E1,-4.375403523E-1
6.770776000E-2,-2.258929253E0,1.113483334E1,-4.135983288E-1
7.015776000E-2,-2.273294449E0,1.115877533E1,-3.896563351E-1
7.261322900E-2,-2.278082848E0,1.120187092E1,-3.848679364E-1
7.507557300E-2,-2.297236443E0,1.123060131E1,-3.657143116E-1
7.754593800E-2,-2.330755472E0,1.122102451E1,-3.561375141E-1
8.002505200E-2,-2.335543871E0,1.123060131E1,-3.417722881E-1
8.251328100E-2,-2.340332270E0,1.122102451E1,-3.465606868E-1
8.501052100E-2,-2.345120668E0,1.121623611E1,-3.513490856E-1
8.751609400E-2,-2.345120668E0,1.119708252E1,-3.800795078E-1
9.002895800E-2,-2.316390038E0,1.118271732E1,-3.657143116E-1
9.254781300E-2,-2.316390038E0,1.115877533E1,-3.513490856E-1
9.507114600E-2,-2.316390038E0,1.113483334E1,-3.417722881E-1
9.759734400E-2,-2.292448044E0,1.108694935E1,-3.178302646E-1
1.001247920E-1,-2.278082848E0,1.105821896E1,-2.890998423E-1
1.026428650E-1,-2.230198860E0,1.101033497E1,-2.651578486E-1
1.051306770E-1,-2.206256866E0,1.095287418E1,-2.364274114E-1
1.076184380E-1,-2.182314873E0,1.089541340E1,-2.220622003E-1
1.101061980E-1,-2.139219284E0,1.082837582E1,-2.316390127E-1
1.125939580E-1,-2.105700493E0,1.076612663E1,-2.268506140E-1
1.150817190E-1,-2.086546898E0,1.068951225E1,-2.172738016E-1
1.175694790E-1,-2.067393064E0,1.061768627E1,-1.933317930E-1
1.200572400E-1,-2.053027868E0,1.053628349E1,-2.268506140E-1
1.225450000E-1,-2.033874273E0,1.046924591E1,-1.933317930E-1
1.250327600E-1,-2.009932280E0,1.038784218E1,-2.460042238E-1
1.275205210E-1,-1.981201887E0,1.029207420E1,-1.837549806E-1
1.300082810E-1,-1.962048292E0,1.022503662E1,-2.603694201E-1
1.324960420E-1,-1.923741102E0,1.012926865E1,-2.268506140E-1
1.349838020E-1,-1.899798989E0,1.004307747E1,-3.178302646E-1
1.374715630E-1,-1.871068597E0,9.952097893E0,-2.364274114E-1
1.399593230E-1,-1.847126603E0,9.880271912E0,-3.465606868E-1
1.424470830E-1,-1.818396211E0,9.794080734E0,-2.507926226E-1
1.449348440E-1,-1.789665818E0,9.717466354E0,-3.417722881E-1
1.474226040E-1,-1.751358509E0,9.621698380E0,-2.172738016E-1
1.499103650E-1,-1.741781712E0,9.554660797E0,-3.130418658E-1
1.523981250E-1,-1.727416515E0,9.473258018E0,-2.076970041E-1
1.548858850E-1,-1.722628117E0,9.391854286E0,-3.226186931E-1
1.573736460E-1,-1.703474522E0,9.320028305E0,-2.076970041E-1
1.598614060E-1,-1.698686123E0,9.248202324E0,-3.226186931E-1
1.623491670E-1,-1.698686123E0,9.171587944E0,-2.316390127E-1
1.648369270E-1,-1.703474522E0,9.109338760E0,-3.369838893E-1
1.673246880E-1,-1.693897724E0,9.056666374E0,-2.316390127E-1
1.698124480E-1,-1.708262920E0,9.008782387E0,-3.417722881E-1
1.723002080E-1,-1.732204914E0,8.956110001E0,-2.268506140E-1
1.747879690E-1,-1.746570110E0,8.922591209E0,-3.130418658E-1
1.772757290E-1,-1.756146908E0,8.884284019E0,-2.029085904E-1
1.797634900E-1,-1.732204914E0,8.874707222E0,-2.938882709E-1
1.822512500E-1,-1.741781712E0,8.836400032E0,-1.981201917E-1
1.847390100E-1,-1.760935307E0,8.831611633E0,-2.747346461E-1
1.872267710E-1,-1.789665818E0,8.802881241E0,-1.933317930E-1
1.897145310E-1,-1.789665818E0,8.817246437E0,-2.460042238E-1
1.922022920E-1,-1.770512104E0,8.802881241E0,-1.741781682E-1
1.946900520E-1,-1.756146908E0,8.831611633E0,-2.316390127E-1
1.971778130E-1,-1.760935307E0,8.845976830E0,-1.885433793E-1
1.996655730E-1,-1.751358509E0,8.874707222E0,-2.172738016E-1
2.021533330E-1,-1.727416515E0,8.879495621E0,-1.789665818E-1
2.046410940E-1,-1.717839718E0,8.922591209E0,-2.029085904E-1
2.071288540E-1,-1.717839718E0,8.936956406E0,-2.076970041E-1
2.096166150E-1,-1.698686123E0,8.984840393E0,-2.603694201E-1
2.121043750E-1,-1.674744129E0,9.003993988E0,-2.651578486E-1
2.145921350E-1,-1.646013618E0,9.037512779E0,-2.507926226E-1
2.170798960E-1,-1.641225219E0,9.075819969E0,-2.795230448E-1
2.195676560E-1,-1.617283225E0,9.114127159E0,-2.651578486E-1
2.220554170E-1,-1.631648421E0,9.128492355E0,-3.321954906E-1
2.245431770E-1,-1.598129630E0,9.176376343E0,-3.034650683E-1
2.270309380E-1,-1.588552833E0,9.190741539E0,-3.752911091E-1
2.295186980E-1,-1.598129630E0,9.229048729E0,-3.465606868E-1
2.320064580E-1,-1.631648421E0,9.252990723E0,-4.327519536E-1
2.344942190E-1,-1.617283225E0,9.276932716E0,-3.800795078E-1
2.369819790E-1,-1.636436820E0,9.315239906E0,-4.902127981E-1
2.394697400E-1,-1.636436820E0,9.334393501E0,-3.752911091E-1
2.419575000E-1,-1.650802016E0,9.396642685E0,-5.141547918E-1
2.444453130E-1,-1.674744129E0,9.439739227E0,-4.135983288E-1
2.469331250E-1,-1.708262920E0,9.497200012E0,-5.093663931E-1
2.494209380E-1,-1.751358509E0,9.545084000E0,-3.800795078E-1
2.519087500E-1,-1.770512104E0,9.612121582E0,-5.141547918E-1
2.543965630E-1,-1.799242616E0,9.645640373E0,-3.657143116E-1
2.568843750E-1,-1.827973008E0,9.707889557E0,-4.997895956E-1
2.593721880E-1,-1.837549806E0,9.765350342E0,-3.226186931E-1
2.618600000E-1,-1.851915002E0,9.822811127E0,-4.375403523E-1
2.643478130E-1,-1.856703401E0,9.865906715E0,-2.699462473E-1
2.668356250E-1,-1.856703401E0,9.918579102E0,-3.752911091E-1
2.693234380E-1,-1.861491799E0,9.952097893E0,-2.412158251E-1
2.718112500E-1,-1.871068597E0,1.002871227E1,-4.088099301E-1
2.742990630E-1,-1.880645394E0,1.004786587E1,-2.890998423E-1
2.767868750E-1,-1.899798989E0,1.012448025E1,-3.944447339E-1
2.792746880E-1,-1.914164305E0,1.016757584E1,-2.795230448E-1
2.817625000E-1,-1.909375906E0,1.022982502E1,-4.088099301E-1
2.842503130E-1,-1.918952703E0,1.025376701E1,-3.274070919E-1
2.867381250E-1,-1.942894697E0,1.031601620E1,-4.183867574E-1
2.892259380E-1,-1.957259893E0,1.033038139E1,-3.321954906E-1
2.917137500E-1,-1.942894697E0,1.037347698E1,-4.231751561E-1
2.942015630E-1,-1.933317900E0,1.038305378E1,-3.465606868E-1
2.966893750E-1,-1.923741102E0,1.040220737E1,-4.040215313E-1
2.991771880E-1,-1.899798989E0,1.038784218E1,-3.369838893E-1
3.016650000E-1,-1.895010591E0,1.040699577E1,-3.944447339E-1
3.041528130E-1,-1.890222192E0,1.038305378E1,-3.561375141E-1
3.066406250E-1,-1.866280198E0,1.040699577E1,-3.944447339E-1
3.091284380E-1,-1.842338204E0,1.038784218E1,-3.944447339E-1
3.116162500E-1,-1.837549806E0,1.038305378E1,-4.327519536E-1
3.141040630E-1,-1.866280198E0,1.035911179E1,-4.662707746E-1
3.165918750E-1,-1.866280198E0,1.035911179E1,-4.710591733E-1
3.190796880E-1,-1.885433793E0,1.035432339E1,-4.806360006E-1
3.215675000E-1,-1.871068597E0,1.033038139E1,-4.423287511E-1
3.240553130E-1,-1.885433793E0,1.028249741E1,-4.902127981E-1
3.265431250E-1,-1.866280198E0,1.026813221E1,-4.327519536E-1
3.290309380E-1,-1.890222192E0,1.023940182E1,-5.045779943E-1
3.315187500E-1,-1.875856996E0,1.019630623E1,-4.471171796E-1
3.340065630E-1,-1.885433793E0,1.016278744E1,-5.141547918E-1
3.364943750E-1,-1.875856996E0,1.011490345E1,-4.327519536E-1
3.389821880E-1,-1.871068597E0,1.007180786E1,-5.428852439E-1
3.414700000E-1,-1.875856996E0,1.001434708E1,-4.566939771E-1
3.439578130E-1,-1.904587507E0,9.976039886E0,-5.620388389E-1
3.464456250E-1,-1.871068597E0,9.928155899E0,-4.471171796E-1
3.489334380E-1,-1.866280198E0,9.899425507E0,-5.764040351E-1
3.514211980E-1,-1.856703401E0,9.851541519E0,-4.519055784E-1
3.539089580E-1,-1.861491799E0,9.803657532E0,-5.811924338E-1
3.563967190E-1,-1.856703401E0,9.765350342E0,-4.614823759E-1
3.588844790E-1,-1.851915002E0,9.717466354E0,-5.955576897E-1
3.613722400E-1,-1.837549806E0,9.664793968E0,-4.806360006E-1
3.638600000E-1,-1.842338204E0,9.631275177E0,-6.434416771E-1
3.663477600E-1,-1.827973008E0,9.607333183E0,-5.189431906E-1
3.688355210E-1,-1.813607812E0,9.573814392E0,-6.721721292E-1
3.713232810E-1,-1.799242616E0,9.516353607E0,-5.237316489E-1
3.738110420E-1,-1.784877419E0,9.501988411E0,-6.338648796E-1
3.762988020E-1,-1.775300503E0,9.449316025E0,-4.614823759E-1
3.787865630E-1,-1.756146908E0,9.430161476E0,-5.907692909E-1
3.812743230E-1,-1.765723705E0,9.396642685E0,-4.710591733E-1
3.837620830E-1,-1.756146908E0,9.391854286E0,-5.811924338E-1
3.862498440E-1,-1.732204914E0,9.339181900E0,-4.710591733E-1
3.887376040E-1,-1.722628117E0,9.339181900E0,-5.716156363E-1
3.912253650E-1,-1.732204914E0,9.315239906E0,-5.141547918E-1
3.937131250E-1,-1.722628117E0,9.320028305E0,-5.955576897E-1
3.962008850E-1,-1.732204914E0,9.310451508E0,-5.380968451E-1
3.986886460E-1,-1.727416515E0,9.315239906E0,-6.386532784E-1
4.011764060E-1,-1.732204914E0,9.310451508E0,-5.907692909E-1
4.036641670E-1,-1.717839718E0,9.320028305E0,-6.530185342E-1
4.061519270E-1,-1.736993313E0,9.315239906E0,-6.290764809E-1
4.086396880E-1,-1.717839718E0,9.320028305E0,-6.578069329E-1
4.111274480E-1,-1.732204914E0,9.324816704E0,-6.338648796E-1
4.136152080E-1,-1.727416515E0,9.343970299E0,-6.530185342E-1
4.161029690E-1,-1.722628117E0,9.358335495E0,-6.482301354E-1
4.185907290E-1,-1.713051319E0,9.363123894E0,-6.194996834E-1
4.210784900E-1,-1.708262920E0,9.372700691E0,-6.147112846E-1
4.235662500E-1,-1.698686123E0,9.411007881E0,-5.572504401E-1
4.260540100E-1,-1.703474522E0,9.444527626E0,-5.907692909E-1
4.285417710E-1,-1.693897724E0,9.454104424E0,-5.428852439E-1
4.310295310E-1,-1.708262920E0,9.492411613E0,-5.907692909E-1
4.335172920E-1,-1.698686123E0,9.521142006E0,-5.380968451E-1
4.360050520E-1,-1.703474522E0,9.549872398E0,-6.099228859E-1
4.384928130E-1,-1.708262920E0,9.583391190E0,-5.237316489E-1
4.409805730E-1,-1.713051319E0,9.616909981E0,-6.290764809E-1
4.434683330E-1,-1.727416515E0,9.664793968E0,-5.237316489E-1
4.459560940E-1,-1.708262920E0,9.698312759E0,-6.482301354E-1
4.484438540E-1,-1.674744129E0,9.707889557E0,-5.285200477E-1
4.509316150E-1,-1.684320927E0,9.750985146E0,-6.434416771E-1
4.534193750E-1,-1.669955730E0,9.770138741E0,-4.758476019E-1
4.559071350E-1,-1.669955730E0,9.803657532E0,-6.194996834E-1
4.583948960E-1,-1.655590534E0,9.832387924E0,-4.997895956E-1
4.608826560E-1,-1.646013618E0,9.875483513E0,-6.673837304E-1
4.633704170E-1,-1.641225219E0,9.880271912E0,-5.333084464E-1
4.658581770E-1,-1.660378933E0,9.904213905E0,-6.769605279E-1
4.683459380E-1,-1.646013618E0,9.923367500E0,-5.476736426E-1
4.708336980E-1,-1.655590534E0,9.971251488E0,-6.961141229E-1
4.733214580E-1,-1.669955730E0,9.995193481E0,-5.524620414E-1
4.758092190E-1,-1.679532528E0,1.002871227E1,-7.056909800E-1
4.782969790E-1,-1.679532528E0,1.003350067E1,-6.051344872E-1
4.807847400E-1,-1.665167332E0,1.007659626E1,-7.200561762E-1
4.832725000E-1,-1.660378933E0,1.008617306E1,-5.811924338E-1
4.857602600E-1,-1.655590534E0,1.011490345E1,-6.817489266E-1
4.882480210E-1,-1.665167332E0,1.011490345E1,-5.668272376E-1
4.907357810E-1,-1.669955730E0,1.013884544E1,-6.721721292E-1
4.932235940E-1,-1.684320927E0,1.012926865E1,-5.716156363E-1
4.957114060E-1,-1.669955730E0,1.016757584E1,-6.673837304E-1
4.981992190E-1,-1.669955730E0,1.017236423E1,-6.003460884E-1
5.006870310E-1,-1.679532528E0,1.017236423E1,-6.721721292E-1
5.031748440E-1,-1.684320927E0,1.016278744E1,-6.051344872E-1
5.056626560E-1,-1.693897724E0,1.018672943E1,-6.530185342E-1
5.081504690E-1,-1.689109325E0,1.015799904E1,-6.194996834E-1
5.106382810E-1,-1.684320927E0,1.017236423E1,-6.578069329E-1
5.131260940E-1,-1.679532528E0,1.017715263E1,-6.482301354E-1
5.156139060E-1,-1.669955730E0,1.018194103E1,-6.673837304E-1
5.181017190E-1,-1.669955730E0,1.017236423E1,-6.769605279E-1
5.205895310E-1,-1.660378933E0,1.018194103E1,-6.578069329E-1
5.230773440E-1,-1.655590534E0,1.016757584E1,-7.056909800E-1
5.255651560E-1,-1.631648421E0,1.017236423E1,-6.817489266E-1
5.280529690E-1,-1.631648421E0,1.015799904E1,-7.296329737E-1
5.305407810E-1,-1.617283225E0,1.014842224E1,-6.817489266E-1
5.330285940E-1,-1.626860023E0,1.012926865E1,-7.679402232E-1
5.355164060E-1,-1.612494826E0,1.011490345E1,-7.009025216E-1
5.380042190E-1,-1.617283225E0,1.009574986E1,-7.823054194E-1
5.404920310E-1,-1.631648421E0,1.005744267E1,-6.817489266E-1
5.429798440E-1,-1.650802016E0,1.004307747E1,-7.823054194E-1
5.454676560E-1,-1.646013618E0,9.999981880E0,-6.578069329E-1
5.479554690E-1,-1.650802016E0,9.976039886E0,-7.583633661E-1
5.504432810E-1,-1.631648421E0,9.918579102E0,-6.338648796E-1
5.529310940E-1,-1.626860023E0,9.904213905E0,-7.870938182E-1
5.554189060E-1,-1.626860023E0,9.856329918E0,-6.673837304E-1
5.579067190E-1,-1.641225219E0,9.846753120E0,-8.254010081E-1
5.603945310E-1,-1.655590534E0,9.794080734E0,-7.056909800E-1
5.628823440E-1,-1.660378933E0,9.765350342E0,-8.780734539E-1
5.653701560E-1,-1.655590534E0,9.727043152E0,-7.487865686E-1
5.678579690E-1,-1.665167332E0,9.722254753E0,-9.115923047E-1
5.703457810E-1,-1.669955730E0,9.669582367E0,-7.823054194E-1
5.728335940E-1,-1.669955730E0,9.655217171E0,-9.020155072E-1
5.753214060E-1,-1.650802016E0,9.631275177E0,-7.487865686E-1
5.778092190E-1,-1.646013618E0,9.621698380E0,-8.684966564E-1
5.802970310E-1,-1.650802016E0,9.602544785E0,-7.439981699E-1
5.827848440E-1,-1.650802016E0,9.621698380E0,-8.876502514E-1
5.852726560E-1,-1.665167332E0,9.607333183E0,-7.679402232E-1
5.877604690E-1,-1.660378933E0,9.636063576E0,-8.828618526E-1
5.902482810E-1,-1.684320927E0,9.636063576E0,-7.775170207E-1
5.927360940E-1,-1.684320927E0,9.688735962E0,-8.876502514E-1
5.952239060E-1,-1.674744129E0,9.693524361E0,-7.966706157E-1
5.977116670E-1,-1.684320927E0,9.717466354E0,-8.924387097E-1
6.001994270E-1,-1.684320927E0,9.717466354E0,-8.254010081E-1
6.026871880E-1,-1.674744129E0,9.774927139E0,-8.876502514E-1
6.051749480E-1,-1.650802016E0,9.798869133E0,-7.966706157E-1
6.076627080E-1,-1.636436820E0,9.827599525E0,-8.110358119E-1
6.101504690E-1,-1.646013618E0,9.818022728E0,-7.535749674E-1
6.126382290E-1,-1.607706428E0,9.818022728E0,-7.870938182E-1
6.151259900E-1,-1.607706428E0,9.832387924E0,-7.679402232E-1
6.176137500E-1,-1.607706428E0,9.837176323E0,-7.679402232E-1
6.201015100E-1,-1.617283225E0,9.837176323E0,-8.062474132E-1
6.225892710E-1,-1.641225219E0,9.851541519E0,-8.206126094E-1
6.250770310E-1,-1.646013618E0,9.846753120E0,-8.206126094E-1
6.275647920E-1,-1.660378933E0,9.856329918E0,-8.541314602E-1
6.300525520E-1,-1.684320927E0,9.861118317E0,-8.924387097E-1
6.325403130E-1,-1.713051319E0,9.899425507E0,-9.115923047E-1
6.350280730E-1,-1.732204914E0,9.928155899E0,-9.307458997E-1
6.375158330E-1,-1.775300503E0,9.961674690E0,-9.259575009E-1
6.400035940E-1,-1.804031014E0,1.000477028E1,-9.259575009E-1
6.424913540E-1,-1.818396211E0,1.003828907E1,-9.163807034E-1
6.449791150E-1,-1.823184609E0,1.008138466E1,-9.115923047E-1
6.474668750E-1,-1.832761407E0,1.011969185E1,-9.068039060E-1
6.499546350E-1,-1.832761407E0,1.015321064E1,-8.972271085E-1
6.524423960E-1,-1.847126603E0,1.017715263E1,-8.828618526E-1
6.549301560E-1,-1.861491799E0,1.019151783E1,-8.780734539E-1
6.574179170E-1,-1.856703401E0,1.022982502E1,-9.020155072E-1
6.599056770E-1,-1.837549806E0,1.025855541E1,-9.211691022E-1
6.623934380E-1,-1.827973008E0,1.030165100E1,-9.594763517E-1
6.648811980E-1,-1.827973008E0,1.035911179E1,-1.012148738E0
6.673689580E-1,-1.799242616E0,1.042136192E1,-1.083974838E0
6.698567190E-1,-1.804031014E0,1.047403431E1,-1.136647224E0
6.723444790E-1,-1.808819413E0,1.054586029E1,-1.151012421E0
6.748322400E-1,-1.818396211E0,1.064641666E1,-1.170166135E0
6.773200000E-1,-1.832761407E0,1.073260784E1,-1.198896527E0
6.798077600E-1,-1.871068597E0,1.083316422E1,-1.222838521E0
6.822955210E-1,-1.895010591E0,1.095766258E1,-1.218050122E0
6.847832810E-1,-1.914164305E0,1.107258415E1,-1.198896527E0
6.872710420E-1,-1.895010591E0,1.120187092E1,-1.170166135E0
6.897588020E-1,-1.871068597E0,1.134552288E1,-1.136647224E0
6.922465630E-1,-1.813607812E0,1.147959900E1,-1.098340034E0
6.947343230E-1,-1.770512104E0,1.159930897E1,-1.064821243E0
6.972220830E-1,-1.775300503E0,1.171423054E1,-1.079186440E0
6.997098440E-1,-1.799242616E0,1.183394051E1,-1.079186440E0
7.021976040E-1,-1.851915002E0,1.193449688E1,-1.098340034E0
7.046853650E-1,-1.918952703E0,1.202547646E1,-1.151012421E0
7.071731250E-1,-1.966836691E0,1.212124443E1,-1.213261724E0
7.096608850E-1,-1.981201887E0,1.220743561E1,-1.270722508E0
7.121486460E-1,-1.981201887E0,1.225053120E1,-1.304241419E0
7.146364060E-1,-1.976413488E0,1.227926159E1,-1.313818216E0
7.171241670E-1,-1.938106298E0,1.230320358E1,-1.313818216E0
7.196119270E-1,-1.899798989E0,1.232235718E1,-1.337760210E0
7.220996880E-1,-1.885433793E0,1.230799198E1,-1.376067400E0
7.245874480E-1,-1.904587507E0,1.230799198E1,-1.414374709E0
7.270752080E-1,-1.923741102E0,1.229362679E1,-1.471835494E0
7.295629690E-1,-1.962048292E0,1.229362679E1,-1.519719481E0
7.320507290E-1,-2.029085875E0,1.231756878E1,-1.591545582E0
7.345384900E-1,-2.086546898E0,1.231278038E1,-1.639429569E0
7.370262500E-1,-2.153584480E0,1.234629917E1,-1.682525277E0
7.395140100E-1,-2.215833664E0,1.240854931E1,-1.711255670E0
7.420017710E-1,-2.273294449E0,1.245643330E1,-1.735197663E0
7.444895830E-1,-2.335543871E0,1.254262447E1,-1.701678872E0
7.469773960E-1,-2.412158251E0,1.264796925E1,-1.668160081E0
7.494652080E-1,-2.474407434E0,1.276289082E1,-1.629852772E0
7.519530210E-1,-2.536656618E0,1.287781239E1,-1.553238392E0
7.544408330E-1,-2.594117641E0,1.302625275E1,-1.443105102E0
7.569286460E-1,-2.608482838E0,1.318905830E1,-1.400009394E0
7.594164580E-1,-2.637213230E0,1.337580681E1,-1.342548609E0
7.619042710E-1,-2.642001629E0,1.356734276E1,-1.285087705E0
7.643920830E-1,-2.622848034E0,1.376845551E1,-1.289876223E0
7.668798960E-1,-2.632424831E0,1.398872185E1,-1.261145711E0
7.693677080E-1,-2.646790028E0,1.419941139E1,-1.179742932E0
7.718555210E-1,-2.646790028E0,1.438137150E1,-1.079186440E0
7.743433330E-1,-2.680308819E0,1.455375385E1,-1.021725535E0
7.768311460E-1,-2.723404408E0,1.468782902E1,-9.834183455E-1
7.793189580E-1,-2.761711597E0,1.479796219E1,-9.690531492E-1
7.818067710E-1,-2.785653591E0,1.488415337E1,-9.163807034E-1
7.842945830E-1,-2.814383984E0,1.495597935E1,-8.924387097E-1
7.867823960E-1,-2.819172382E0,1.499428654E1,-8.780734539E-1
7.892702080E-1,-2.809595585E0,1.501344013E1,-8.445546627E-1
7.917580210E-1,-2.795230389E0,1.500386333E1,-8.158242106E-1
7.942458330E-1,-2.756923199E0,1.497513294E1,-7.870938182E-1
7.967336460E-1,-2.732981205E0,1.494161415E1,-7.870938182E-1
7.992214580E-1,-2.732981205E0,1.486499977E1,-7.392097712E-1
8.017092710E-1,-2.713827610E0,1.476923180E1,-6.913257241E-1
8.041970830E-1,-2.728192806E0,1.466867542E1,-6.817489266E-1
8.066848960E-1,-2.756923199E0,1.456333065E1,-7.056909800E-1
8.091727080E-1,-2.766499996E0,1.445798588E1,-7.439981699E-1
8.116605210E-1,-2.790441990E0,1.435742950E1,-7.152677774E-1
8.141483330E-1,-2.800018787E0,1.428081417E1,-6.673837304E-1
8.166361460E-1,-2.776076794E0,1.421377659E1,-6.242880821E-1
8.191239580E-1,-2.752134800E0,1.412758541E1,-5.811924338E-1
8.216117710E-1,-2.737769604E0,1.407491302E1,-5.668272376E-1
8.240995830E-1,-2.713827610E0,1.404139423E1,-5.668272376E-1
8.265873960E-1,-2.661155224E0,1.404139423E1,-5.716156363E-1
8.290752080E-1,-2.603694439E0,1.405575943E1,-5.380968451E-1
8.315630210E-1,-2.536656618E0,1.412279701E1,-4.997895956E-1
8.340508330E-1,-2.450465441E0,1.420419979E1,-4.423287511E-1
8.365386460E-1,-2.359485865E0,1.430475616E1,-4.279635549E-1
8.390264580E-1,-2.273294449E0,1.440052509E1,-4.088099301E-1
8.415142710E-1,-2.211045265E0,1.451065826E1,-3.992331326E-1
8.440020830E-1,-2.129642487E0,1.460163784E1,-3.896563351E-1
8.464898440E-1,-2.048239470E0,1.468304062E1,-3.992331326E-1
8.489776040E-1,-1.962048292E0,1.473571301E1,-3.752911091E-1
8.514653650E-1,-1.871068597E0,1.477402020E1,-3.513490856E-1
8.539531250E-1,-1.760935307E0,1.477402020E1,-3.226186931E-1
8.564408850E-1,-1.650802016E0,1.475965500E1,-2.986766696E-1
8.589286460E-1,-1.578976035E0,1.473571301E1,-2.843114436E-1
8.614164060E-1,-1.507149935E0,1.469740582E1,-2.890998423E-1
8.639041670E-1,-1.449689150E0,1.463994503E1,-3.226186931E-1
8.663919270E-1,-1.377863050E0,1.456811905E1,-3.609259129E-1
8.688796880E-1,-1.315613866E0,1.447713947E1,-4.135983288E-1
8.713674480E-1,-1.253364563E0,1.440531349E1,-4.614823759E-1
8.738552080E-1,-1.215057373E0,1.430954456E1,-4.710591733E-1
8.763429690E-1,-1.191115379E0,1.418504620E1,-4.758476019E-1
8.788307290E-1,-1.167173386E0,1.407491302E1,-4.758476019E-1
8.813184900E-1,-1.176750183E0,1.395520306E1,-4.806360006E-1
8.838062500E-1,-1.215057373E0,1.382591629E1,-4.327519536E-1
8.862940100E-1,-1.272518158E0,1.368705273E1,-3.705027103E-1
8.887817710E-1,-1.325190663E0,1.356255436E1,-3.082534671E-1
8.912695310E-1,-1.411381960E0,1.345720959E1,-2.651578486E-1
8.937572920E-1,-1.478419542E0,1.338538361E1,-2.316390127E-1
8.962450520E-1,-1.535880446E0,1.330876827E1,-1.837549806E-1
8.987328130E-1,-1.588552833E0,1.320342350E1,-1.071405262E-1
9.012205730E-1,-1.607706428E0,1.312680912E1,-1.137245819E-2
9.037083330E-1,-1.598129630E0,1.303582954E1,7.003039867E-2
9.061960940E-1,-1.569399238E0,1.294484997E1,1.274912357E-1
9.086838540E-1,-1.540668845E0,1.285865879E1,1.657984704E-1
9.111716150E-1,-1.516726732E0,1.275810242E1,1.753752679E-1
9.136593750E-1,-1.492784739E0,1.264318085E1,2.136825025E-1
9.161471350E-1,-1.487996340E0,1.254741287E1,2.088941038E-1
9.186348960E-1,-1.440112352E0,1.244685650E1,1.610100716E-1
9.211226560E-1,-1.401805043E0,1.233672237E1,1.274912357E-1
9.236104170E-1,-1.320402265E0,1.221701241E1,1.035492271E-1
9.260981770E-1,-1.234210968E0,1.206378365E1,7.481880486E-2
9.285859380E-1,-1.152808070E0,1.194886208E1,8.439560980E-2
9.310736980E-1,-1.057040095E0,1.182915211E1,1.083376259E-1
9.335614580E-1,-9.804255962E-1,1.170465374E1,1.418564469E-1
9.360492190E-1,-8.942343593E-1,1.159930897E1,1.610100716E-1
9.385369790E-1,-8.271966577E-1,1.150354099E1,1.610100716E-1
9.410247400E-1,-7.793126702E-1,1.141256142E1,1.370680481E-1
9.435125000E-1,-7.410054207E-1,1.134552288E1,1.131260321E-1
9.460002600E-1,-7.122750282E-1,1.130721569E1,7.481880486E-2
9.484880210E-1,-6.883329749E-1,1.131200409E1,1.735796221E-2
9.509757810E-1,-6.787561774E-1,1.127848530E1,-1.023521200E-1
9.534635420E-1,-6.739677787E-1,1.129763889E1,-2.938882709E-1
9.559513020E-1,-6.979097724E-1,1.131679249E1,-4.471171796E-1
9.584390630E-1,-7.122750282E-1,1.134552288E1,-4.997895956E-1
9.609268230E-1,-7.314286232E-1,1.137904167E1,-4.758476019E-1
9.634145830E-1,-7.457938194E-1,1.141734982E1,-4.231751561E-1
9.659023440E-1,-7.553706169E-1,1.145565701E1,-3.178302646E-1
9.683901040E-1,-7.888894677E-1,1.148438740E1,-1.550245583E-1
9.708778650E-1,-8.271966577E-1,1.148917580E1,1.256955881E-2
9.733656250E-1,-8.511387110E-1,1.150832939E1,1.945288926E-1
9.758533850E-1,-8.750807047E-1,1.153705978E1,3.333925903E-1
9.783411460E-1,-8.846575022E-1,1.153227139E1,4.435258508E-1
9.808289060E-1,-8.942343593E-1,1.150354099E1,5.632359385E-1
9.833166670E-1,-9.133879542E-1,1.148438740E1,6.829460263E-1
9.858044270E-1,-9.133879542E-1,1.142692661E1,7.882909179E-1
9.882921880E-1,-9.277531505E-1,1.132158089E1,9.080010056E-1
9.907799480E-1,-9.469067454E-1,1.119708252E1,9.750386477E-1
9.932677080E-1,-1.009155989E0,1.106300735E1,9.415197968E-1
9.957554690E-1,-1.071405292E0,1.087625980E1,9.367313981E-1
9.982432810E-1,-1.109712481E0,1.067035866E1,1.032499433E0
1.000731094E0,-1.124077678E0,1.043572712E1,9.271546006E-1
1.003218906E0,-1.095347285E0,1.016278744E1,8.218097091E-1
1.005706719E0,-1.076193690E0,9.875483513E0,7.260416746E-1
1.008194531E0,-1.052251697E0,9.636063576E0,5.776011348E-1
1.010682344E0,-1.033097982E0,9.401431084E0,4.387374520E-1
1.013170156E0,-1.009155989E0,9.205106735E0,2.902969420E-1
1.015657969E0,-9.756371975E-1,9.018359184E0,1.897404790E-1
1.018145781E0,-9.277531505E-1,8.850765228E0,1.179144308E-1
1.020633594E0,-8.798691034E-1,8.716690063E0,2.693476900E-2
1.023121406E0,-8.224082589E-1,8.582614899E0,-2.573766746E-2
1.025609219E0,-7.314286232E-1,8.486846924E0,-5.446808785E-2
1.028097031E0,-6.308721304E-1,8.415019989E0,-4.010287672E-2
1.030584844E0,-5.015852451E-1,8.376712799E0,-1.616086066E-2
1.033072656E0,-3.818751574E-1,8.371924400E0,8.439560980E-2
1.035560469E0,-2.669534981E-1,8.405443192E0,1.993172914E-1
1.038048281E0,-1.616086215E-1,8.472481728E0,2.711433470E-1
1.040536094E0,-7.541735470E-2,8.558672905E0,3.333925903E-1
1.043023906E0,2.992752194E-2,8.659229279E0,3.956418335E-1
1.045511719E0,9.217676520E-2,8.759785652E0,4.626794755E-1
1.047999531E0,1.209071875E-1,8.850765228E0,5.440823436E-1
1.050487344E0,1.161187813E-1,8.903437614E0,6.206967831E-1
1.052975156E0,7.302315533E-2,8.932168007E0,7.020996213E-1
1.055462969E0,-1.795651205E-2,8.908226013E0,7.882909179E-1
1.057950781E0,-1.137245819E-1,8.860342026E0,8.744821548E-1
1.060438594E0,-1.759738177E-1,8.783727646E0,1.085171938E0
1.062926406E0,-1.855506301E-1,8.654440880E0,1.185728431E0
1.065414219E0,-1.663970202E-1,8.501212120E0,1.200093627E0
1.067902031E0,-1.137245819E-1,8.319252014E0,1.233612418E0
1.070389844E0,-1.041477770E-1,8.094197273E0,1.252766013E0
1.072877656E0,-1.328781992E-1,7.873930931E0,1.224035621E0
1.075365469E0,-2.047042400E-1,7.682394505E0,1.171363235E0
1.077853281E0,-3.148375154E-1,7.471704960E0,1.070806742E0
1.080341094E0,-4.680664241E-1,7.270592213E0,9.175778031E-1
1.082828906E0,-6.117185354E-1,7.064690590E0,7.212532759E-1
1.085316719E0,-7.649474144E-1,6.863577843E0,5.201402903E-1
1.087804531E0,-9.038111567E-1,6.686406612E0,3.142389655E-1
1.090292344E0,-1.023521185E0,6.518812656E0,1.322796494E-1
1.092780156E0,-1.119289279E0,6.384737492E0,-3.052607179E-2
1.095267969E0,-1.171961784E0,6.279392719E0,-1.502361596E-1
1.097755781E0,-1.171961784E0,6.207566261E0,-2.699462473E-1
1.100243542E0,-1.114500880E0,6.145317078E0,-3.465606868E-1
1.102731302E0,-1.023521185E0,6.087856293E0,-3.513490856E-1
1.105219063E0,-8.990227580E-1,6.035183907E0,-2.747346461E-1
1.107706823E0,-8.032546639E-1,6.030395508E0,-1.933317930E-1
1.110194583E0,-7.074866295E-1,6.049549103E0,-1.262941360E-1
1.112682344E0,-6.548141837E-1,6.092644691E0,-2.573766746E-2
1.115170104E0,-6.117185354E-1,6.159682274E0,5.566519126E-2
1.117657865E0,-6.069301367E-1,6.269815922E0,1.562216580E-1
1.120145625E0,-6.117185354E-1,6.413467884E0,3.190273643E-1
1.122633385E0,-6.165069342E-1,6.547543049E0,5.249287486E-1
1.125121146E0,-6.165069342E-1,6.672041416E0,7.068880796E-1
1.127608906E0,-6.117185354E-1,6.748656273E0,8.696937561E-1
1.130096667E0,-6.165069342E-1,6.767809868E0,9.750386477E-1
1.132584427E0,-5.925649405E-1,6.796540260E0,1.080383539E0
1.135072188E0,-5.781996846E-1,6.743867874E0,1.171363235E0
1.137559948E0,-5.590460896E-1,6.662464619E0,1.195305228E0
1.140047708E0,-5.734112859E-1,6.581061840E0,1.166574836E0
1.142535469E0,-5.973533392E-1,6.466140270E0,1.128267527E0
1.145023229E0,-6.308721304E-1,6.312911510E0,1.080383539E0
1.147510990E0,-6.643909812E-1,6.130951881E0,1.061229944E0
1.149998750E0,-7.170634270E-1,5.939415932E0,1.042076349E0
1.152486510E0,-7.601590157E-1,5.723937511E0,9.702502489E-1
1.154974271E0,-8.128314614E-1,5.503671169E0,8.170213103E-1
1.157462031E0,-8.463503122E-1,5.283404827E0,6.542156339E-1
1.159949792E0,-8.942343593E-1,5.106233597E0,5.057750940E-1
1.162437552E0,-9.516952038E-1,4.933851242E0,3.142389655E-1
1.164925313E0,-1.009155989E0,4.799776077E0,1.227028370E-1
1.167413073E0,-1.071405292E0,4.699219227E0,-9.756372124E-2
1.169900833E0,-1.148019671E0,4.660912037E0,-3.561375141E-1
1.172388594E0,-1.282094955E0,4.641758442E0,-6.434416771E-1
1.174876354E0,-1.449689150E0,4.636970043E0,-9.738415480E-1
1.177364115E0,-1.631648421E0,4.689642429E0,-1.342548609E0
1.179851875E0,-1.804031014E0,4.761468410E0,-1.596333981E0
1.182339635E0,-1.976413488E0,4.876390457E0,-1.658583283E0
1.184827396E0,-2.100912094E0,4.972158432E0,-1.452681899E0
1.187315156E0,-2.096123695E0,5.067926407E0,-1.194108129E0
1.189802917E0,-1.995567083E0,5.120598793E0,-9.068039060E-1
1.192290677E0,-1.789665818E0,5.139752388E0,-5.859808922E-1
1.194778438E0,-1.555034041E0,5.111021996E0,-2.460042238E-1
1.197266198E0,-1.382651448E0,5.087080002E0,1.657984704E-1
1.199753958E0,-1.310825467E0,5.096656799E0,6.015431881E-1
1.202241719E0,-1.339555860E0,5.144540787E0,9.463081956E-1
1.204729479E0,-1.454477549E0,5.240308762E0,1.133055925E0
1.207217240E0,-1.602918029E0,5.374384403E0,1.209670424E0
1.209705000E0,-1.751358509E0,5.546766758E0,1.243189216E0
1.212192760E0,-1.851915002E0,5.695207119E0,1.247977614E0
1.214680521E0,-1.861491799E0,5.824494362E0,1.185728431E0
1.217168281E0,-1.808819413E0,5.925050735E0,1.085171938E0
1.219656042E0,-1.703474522E0,5.977723122E0,9.510966539E-1
1.222143802E0,-1.607706428E0,5.953781128E0,7.930793166E-1
1.224631563E0,-1.535880446E0,5.896320343E0,5.967547894E-1
1.227119323E0,-1.526303530E0,5.814917564E0,3.716998100E-1
1.229607083E0,-1.607706428E0,5.695207119E0,1.370680481E-1
1.232094844E0,-1.746570110E0,5.589862347E0,-8.798690885E-2
1.234582604E0,-1.895010591E0,5.513247967E0,-3.082534671E-1
1.237070365E0,-2.019509077E0,5.465363979E0,-4.902127981E-1
1.239558125E0,-2.029085875E0,5.422268391E0,-6.434416771E-1
1.242045885E0,-1.895010591E0,5.431845188E0,-7.823054194E-1
1.244533646E0,-1.631648421E0,5.455787182E0,-9.259575009E-1
1.247021406E0,-1.272518158E0,5.508459568E0,-8.158242106E-1
1.249509167E0,-9.516952038E-1,5.609015942E0,-1.012148738E0
1.251996927E0,-7.218518257E-1,5.685630322E0,-9.020155072E-1
1.254484688E0,-6.117185354E-1,5.795763969E0,-7.679402232E-1
1.256972448E0,-6.931213737E-1,5.939415932E0,-5.859808922E-1
1.259460260E0,-8.942343593E-1,6.083067894E0,-3.465606868E-1
1.261948073E0,-1.167173386E0,6.221931458E0,-2.124854028E-1
1.264435885E0,-1.464054346E0,6.346430302E0,-1.646013707E-1
1.266923698E0,-1.713051319E0,6.475717068E0,-1.310825497E-1
1.269411510E0,-1.885433793E0,6.542754650E0,-1.310825497E-1
1.271899323E0,-1.976413488E0,6.571485043E0,-1.262941360E-1
1.274387135E0,-2.014720678E0,6.585850239E0,-1.550245583E-1
1.276874948E0,-2.009932280E0,6.628945827E0,-2.364274114E-1
1.279362760E0,-2.043451071E0,6.686406612E0,-2.986766696E-1
1.281850573E0,-2.086546898E0,6.772598267E0,-3.321954906E-1
1.284338385E0,-2.153584480E0,6.854001045E0,-3.034650683E-1
1.286826198E0,-2.268506050E0,6.916250229E0,-2.747346461E-1
1.289314010E0,-2.412158251E0,6.964134216E0,-2.603694201E-1
1.291801823E0,-2.551021814E0,6.983287811E0,-2.555810213E-1
1.294289635E0,-2.713827610E0,7.012018204E0,-2.316390127E-1
1.296777448E0,-2.862268209E0,7.031171799E0,-1.646013707E-1
1.299265260E0,-3.025073767E0,7.040748596E0,-7.362170517E-2
1.301753073E0,-3.183091164E0,7.079055786E0,-1.795651275E-3
1.304240885E0,-3.365050554E0,7.122151375E0,5.087678507E-2
1.306728698E0,-3.523067713E0,7.189188957E0,2.693476900E-2
1.309216510E0,-3.609259129E0,7.289745808E0,-4.489128292E-2
1.311704323E0,-3.642777920E0,7.375936985E0,-1.119289324E-1
1.314192135E0,-3.623624325E0,7.471704960E0,-1.885433793E-1
1.316679948E0,-3.556586742E0,7.572261333E0,-2.460042238E-1
1.319167760E0,-3.436876535E0,7.677606106E0,-2.316390127E-1
1.321655573E0,-3.274070740E0,7.778162956E0,-1.167173311E-1
1.324143385E0,-3.092111588E0,7.873930931E0,3.651157767E-2
1.326631198E0,-2.867056608E0,7.969698906E0,1.705868691E-1
1.329119010E0,-2.675520420E0,8.103774071E0,2.519897223E-1
1.331606823E0,-2.507926226E0,8.247426033E0,2.472013235E-1
1.334094635E0,-2.369062662E0,8.405443192E0,2.711433470E-1
1.336582448E0,-2.234987259E0,8.568249702E0,2.998737693E-1
1.339070260E0,-2.110488892E0,8.726266861E0,3.046621680E-1
1.341558073E0,-2.014720678E0,8.884284019E0,3.381809890E-1
1.344045885E0,-1.918952703E0,9.042301178E0,3.381809890E-1
1.346533698E0,-1.818396211E0,9.171587944E0,3.286041915E-1
1.349021510E0,-1.746570110E0,9.310451508E0,2.902969420E-1
1.351509323E0,-1.689109325E0,9.415796280E0,2.519897223E-1
1.353997135E0,-1.636436820E0,9.540295601E0,1.993172914E-1
1.356484948E0,-1.631648421E0,9.655217171E0,1.131260321E-1
1.358972708E0,-1.646013618E0,9.770138741E0,-2.094926499E-2
1.361460469E0,-1.679532528E0,9.880271912E0,-1.693897694E-1
1.363948229E0,-1.717839718E0,9.971251488E0,-2.555810213E-1
1.366435990E0,-1.756146908E0,1.005744267E1,-3.369838893E-1
1.368923750E0,-1.799242616E0,1.009574986E1,-3.513490856E-1
1.371411510E0,-1.813607812E0,1.008138466E1,-3.178302646E-1
1.373899271E0,-1.827973008E0,1.007659626E1,-2.890998423E-1
1.376387031E0,-1.866280198E0,1.005744267E1,-2.460042238E-1
1.378874792E0,-1.890222192E0,1.005744267E1,-1.215057373E-1
1.381362552E0,-1.904587507E0,1.007180786E1,1.256955881E-2
1.383850313E0,-1.928529501E0,1.010053825E1,1.227028370E-1
1.386338073E0,-1.952471495E0,1.014842224E1,2.041056901E-1
1.388825833E0,-1.976413488E0,1.019630623E1,2.902969420E-1
1.391313594E0,-1.957259893E0,1.022982502E1,4.004302323E-1
1.393801354E0,-1.923741102E0,1.025855541E1,4.914098978E-1
1.396289115E0,-1.875856996E0,1.027292061E1,5.584475398E-1
1.398776875E0,-1.832761407E0,1.026813221E1,6.206967831E-1
1.401264635E0,-1.794454217E0,1.027770901E1,6.494272351E-1
1.403752396E0,-1.813607812E0,1.030165100E1,6.542156339E-1
1.406240156E0,-1.856703401E0,1.032559299E1,6.494272351E-1
1.408727917E0,-1.904587507E0,1.032080460E1,6.542156339E-1
1.411215677E0,-1.947683096E0,1.031122780E1,6.446388364E-1
1.413703438E0,-1.981201887E0,1.028728580E1,6.446388364E-1
1.416191198E0,-1.957259893E0,1.022024822E1,6.590040326E-1
1.418678958E0,-1.890222192E0,1.015321064E1,7.068880796E-1
1.421166719E0,-1.808819413E0,1.008138466E1,7.787141204E-1
1.423654479E0,-1.660378933E0,9.995193481E0,8.074445128E-1
1.426142240E0,-1.531091928E0,9.956886292E0,8.457517624E-1
1.428630000E0,-1.411381960E0,9.942521095E0,8.505401611E-1
1.431117760E0,-1.301248670E0,9.947309494E0,8.361749649E-1
1.433605521E0,-1.229422569E0,9.971251488E0,8.361749649E-1
1.436093281E0,-1.200692177E0,1.002392387E1,8.313865662E-1
1.438581042E0,-1.181538582E0,1.006223106E1,8.122329116E-1
1.441068802E0,-1.191115379E0,1.007180786E1,8.074445128E-1
1.443556563E0,-1.191115379E0,1.005744267E1,8.026561141E-1
1.446044323E0,-1.191115379E0,1.001913548E1,7.739257216E-1
1.448532083E0,-1.133654475E0,9.947309494E0,7.451952696E-1
1.451019844E0,-1.090558887E0,9.865906715E0,7.787141204E-1
1.453507604E0,-1.013944387E0,9.765350342E0,7.787141204E-1
1.455995365E0,-9.564836025E-1,9.679159164E0,7.643488646E-1
1.458483125E0,-9.325415492E-1,9.612121582E0,7.308300734E-1
1.460970885E0,-9.421183467E-1,9.559449196E0,7.212532759E-1
1.463458646E0,-9.995791912E-1,9.530718803E0,6.829460263E-1
1.465946406E0,-1.100135684E0,9.521142006E0,6.398503780E-1
1.468434167E0,-1.205480576E0,9.525930405E0,5.967547894E-1
1.470921927E0,-1.291671872E0,9.530718803E0,5.776011348E-1
1.473409688E0,-1.344344258E0,9.521142006E0,5.823895931E-1
1.475897448E0,-1.353921056E0,9.506776810E0,6.063315868E-1
1.478385208E0,-1.310825467E0,9.501988411E0,6.829460263E-1
1.480872969E0,-1.224634171E0,9.506776810E0,8.026561141E-1
1.483360729E0,-1.152808070E0,9.482834816E0,9.367313981E-1
1.485848490E0,-1.104924083E0,9.482834816E0,1.042076349E0
1.488336250E0,-1.066616893E0,9.473258018E0,1.118690729E0
1.490824010E0,-1.052251697E0,9.511565208E0,1.156997919E0
1.493311771E0,-1.023521185E0,9.564237595E0,1.171363235E0
1.495799531E0,-9.947907925E-1,9.616909981E0,1.209670424E0
1.498287292E0,-1.013944387E0,9.660005569E0,1.214458823E0
1.500775052E0,-1.018732786E0,9.698312759E0,1.209670424E0
1.503262813E0,-1.080982089E0,9.722254753E0,1.200093627E0
1.505750573E0,-1.133654475E0,9.722254753E0,1.200093627E0
1.508238333E0,-1.176750183E0,9.727043152E0,1.185728431E0
1.510726094E0,-1.181538582E0,9.712677956E0,1.171363235E0
1.513213854E0,-1.148019671E0,9.712677956E0,1.176151633E0
1.515701667E0,-1.066616893E0,9.722254753E0,1.180940032E0
1.518189479E0,-9.564836025E-1,9.731831551E0,1.156997919E0
1.520677292E0,-8.367735147E-1,9.779715538E0,1.128267527E0
1.523165104E0,-7.505822182E-1,9.832387924E0,1.128267527E0
1.525652917E0,-7.218518257E-1,9.913790703E0,1.156997919E0
1.528140729E0,-7.026981711E-1,9.961674690E0,1.195305228E0
1.530628542E0,-7.218518257E-1,1.001913548E1,1.200093627E0
1.533116354E0,-7.553706169E-1,1.005265427E1,1.156997919E0
1.535604167E0,-8.319851160E-1,1.005744267E1,1.099537134E0
1.538091979E0,-8.846575022E-1,1.004786587E1,1.051653147E0
1.540579792E0,-9.277531505E-1,1.003828907E1,1.003769040E0
1.543067604E0,-9.516952038E-1,1.001434708E1,9.654618502E-1
1.545555417E0,-9.373299479E-1,9.990405083E0,9.606734514E-1
1.548043229E0,-9.085995555E-1,9.952097893E0,9.606734514E-1
1.550531042E0,-8.559271097E-1,9.889848709E0,9.510966539E-1
1.553018854E0,-8.271966577E-1,9.832387924E0,9.558850527E-1
1.555506667E0,-8.415619135E-1,9.794080734E0,9.367313981E-1
1.557994479E0,-8.846575022E-1,9.779715538E0,8.936358094E-1
1.560482292E0,-9.660604000E-1,9.770138741E0,8.409633636E-1
1.562970104E0,-1.047463298E0,9.794080734E0,7.930793166E-1
1.565457917E0,-1.104924083E0,9.813234329E0,7.595604658E-1
1.567945729E0,-1.148019671E0,9.841964722E0,6.973112226E-1
1.570433542E0,-1.148019671E0,9.846753120E0,6.829460263E-1
1.572921354E0,-1.124077678E0,9.856329918E0,6.973112226E-1
1.575409167E0,-1.052251697E0,9.875483513E0,6.973112226E-1
1.577896979E0,-9.660604000E-1,9.856329918E0,6.877344251E-1
1.580384792E0,-8.990227580E-1,9.865906715E0,7.068880796E-1
1.582872604E0,-8.607155085E-1,9.889848709E0,7.116764784E-1
1.585360417E0,-8.894459605E-1,9.904213905E0,6.829460263E-1
1.587848229E0,-9.469067454E-1,9.923367500E0,6.398503780E-1
1.590336042E0,-1.013944387E0,9.971251488E0,6.159083843E-1
1.592823854E0,-1.057040095E0,9.999981880E0,5.680243373E-1
1.595311667E0,-1.071405292E0,1.000477028E1,5.632359385E-1
1.597799479E0,-1.057040095E0,1.001434708E1,6.015431881E-1
1.600287292E0,-1.004367590E0,1.003350067E1,5.871779919E-1
1.602775104E0,-9.277531505E-1,1.004786587E1,5.919663906E-1
1.605262917E0,-8.415619135E-1,1.008138466E1,6.206967831E-1
1.607750729E0,-7.697358727E-1,1.012926865E1,5.632359385E-1
1.610238542E0,-7.026981711E-1,1.020109463E1,5.249287486E-1
1.612726302E0,-6.548141837E-1,1.025376701E1,5.057750940E-1
1.615214063E0,-6.021417379E-1,1.030643940E1,5.440823436E-1
1.617701823E0,-5.925649405E-1,1.034953499E1,5.967547894E-1
1.620189583E0,-5.925649405E-1,1.034953499E1,6.159083843E-1
1.622677344E0,-6.165069342E-1,1.034474659E1,6.015431881E-1
1.625165104E0,-6.596025825E-1,1.033038139E1,5.967547894E-1
1.627652865E0,-7.026981711E-1,1.030165100E1,5.776011348E-1
1.630140625E0,-7.457938194E-1,1.023940182E1,5.919663906E-1
1.632628385E0,-7.649474144E-1,1.020588303E1,6.254851818E-1
1.635116146E0,-7.793126702E-1,1.017715263E1,6.446388364E-1
1.637603906E0,-7.649474144E-1,1.013405704E1,6.733692288E-1
1.640091667E0,-7.793126702E-1,1.012448025E1,6.877344251E-1
1.642579427E0,-7.841010690E-1,1.011011505E1,6.973112226E-1
1.645067188E0,-8.271966577E-1,1.013405704E1,7.068880796E-1
1.647554948E0,-8.846575022E-1,1.014842224E1,7.068880796E-1
1.650042708E0,-9.373299479E-1,1.019151783E1,6.829460263E-1
1.652530469E0,-9.804255962E-1,1.021545982E1,6.733692288E-1
1.655018229E0,-9.660604000E-1,1.020588303E1,6.637924314E-1
1.657505990E0,-9.325415492E-1,1.015799904E1,6.542156339E-1
1.659993750E0,-8.607155085E-1,1.008617306E1,6.829460263E-1
1.662481510E0,-7.505822182E-1,9.995193481E0,6.877344251E-1
1.664969271E0,-6.260837317E-1,9.894637108E0,6.781576276E-1
1.667457031E0,-5.351040959E-1,9.827599525E0,6.590040326E-1
1.669944792E0,-4.489128292E-1,9.770138741E0,6.063315868E-1
1.672432552E0,-4.010287821E-1,9.765350342E0,5.345055461E-1
1.674920313E0,-4.010287821E-1,9.784503937E0,3.812766075E-1
1.677408073E0,-4.249708056E-1,9.956886292E0,-1.071405262E-1
1.679895833E0,-6.404489279E-1,1.044530392E1,-1.735197663E0
1.682383594E0,-1.468842745E0,1.134073448E1,-4.785410881E0
1.684871354E0,-3.111265182E0,1.214518642E1,-6.461351871E0
1.687359115E0,-5.285200119E0,1.226010799E1,-4.656123638E0
1.689846875E0,-7.411251545E0,1.162325096E1,-1.438316703E0
1.692334635E0,-8.694543839E0,1.050755310E1,-3.034650683E-1
1.694822396E0,-8.455122948E0,9.118915558E0,-6.434416771E-1
1.697310156E0,-6.750451565E0,7.782951355E0,-1.055244446E0
1.699797917E0,-4.375403404E0,6.968922615E0,-1.318606615E0
1.702285677E0,-1.976413488E0,6.763021469E0,-2.555810213E-1
1.704773438E0,1.556231081E-2,7.126939774E0,1.726817966E0
1.707261198E0,1.361103654E0,8.055890083E0,2.823362350E0
1.709748958E0,1.969230890E0,9.248202324E0,2.799420357E0
1.712236719E0,1.983596087E0,1.031601620E1,1.903988957E0
1.714724479E0,1.538274646E0,1.108694935E1,6.063315868E-1
1.717212240E0,9.062053561E-1,1.144608021E1,3.172317147E-2
1.719700000E0,3.124433160E-1,1.135988808E1,4.004302323E-1
1.722187760E0,-2.094926536E-1,1.090499020E1,1.219247222E0
1.724675521E0,-6.500257850E-1,1.018194103E1,1.990180135E0
1.727163281E0,-1.013944387E0,9.492411613E0,1.927930951E0
1.729651042E0,-1.262941360E0,9.071031570E0,1.118690729E0
1.732138802E0,-1.267729759E0,8.984840393E0,2.088941038E-1
1.734626563E0,-9.612720013E-1,9.157222748E0,-4.614823759E-1
1.737114323E0,-3.866635859E-1,9.420584679E0,-5.668272376E-1
1.739602083E0,3.363853395E-1,9.597756386E0,-1.646013707E-1
1.742089844E0,9.876081944E-1,9.660005569E0,2.136825025E-1
1.744577604E0,1.442506552E0,9.669582367E0,2.807201445E-1
1.747065365E0,1.634042621E0,9.693524361E0,-3.052607179E-2
1.749553125E0,1.605312228E0,9.765350342E0,-4.423287511E-1
1.752040885E0,1.461660147E0,9.865906715E0,-5.237316489E-1
1.754528646E0,1.322796464E0,9.937732697E0,-1.933317930E-1
1.757016406E0,1.217451572E0,9.952097893E0,4.195838571E-1
1.759504167E0,1.102529883E0,9.880271912E0,9.702502489E-1
1.761991927E0,9.062053561E-1,9.861118317E0,1.109113932E0
1.764479688E0,6.763619781E-1,9.880271912E0,8.505401611E-1
1.766967448E0,4.225766063E-1,9.966463089E0,4.914098978E-1
1.769455208E0,2.214636505E-1,1.006223106E1,3.190273643E-1
1.771942969E0,1.065419763E-1,1.009096146E1,4.770447016E-1
1.774430729E0,6.823474914E-2,1.002871227E1,8.170213103E-1
1.776918490E0,5.386953801E-2,9.909002304E0,1.042076349E0
1.779406250E0,2.035071515E-2,9.818022728E0,1.013345838E0
1.781894063E0,-6.105214357E-2,9.784503937E0,7.691373229E-1
1.784381875E0,-1.376665980E-1,9.827599525E0,5.871779919E-1
1.786869688E0,-2.047042400E-1,9.904213905E0,6.398503780E-1
1.789357500E0,-2.430114746E-1,9.985616684E0,8.792705536E-1
1.791845313E0,-2.908954918E-1,1.002871227E1,1.147421122E0
1.794333125E0,-3.579331636E-1,1.006701946E1,1.214458823E0
1.796820938E0,-4.584896266E-1,1.012926865E1,1.080383539E0
1.799308750E0,-5.542576909E-1,1.016757584E1,8.840589523E-1
1.801796563E0,-5.877765417E-1,1.019151783E1,7.978677154E-1
1.804284375E0,-5.829881430E-1,1.022024822E1,8.361749649E-1
1.806772188E0,-5.111620426E-1,1.019630623E1,9.510966539E-1
1.809260000E0,-4.297592044E-1,1.014842224E1,1.013345838E0
1.811747813E0,-3.627215624E-1,1.011011505E1,8.792705536E-1
1.814235625E0,-3.292027414E-1,1.012448025E1,6.302735806E-1
1.816723438E0,-2.573766708E-1,1.014363384E1,3.812766075E-1
1.819211250E0,-1.759738177E-1,1.017236423E1,2.663549483E-1
1.821699063E0,-8.020575345E-2,1.019630623E1,2.615665495E-1
1.824186875E0,-3.591302549E-3,1.016278744E1,2.950853705E-1
1.826674688E0,5.865794048E-2,1.011490345E1,2.855085433E-1
1.829162500E0,7.302315533E-2,1.007659626E1,2.184709013E-1
1.831650313E0,7.781155407E-2,1.006223106E1,1.370680481E-1
1.834138125E0,6.823474914E-2,1.004307747E1,7.481880486E-2
1.836625938E0,4.429273307E-2,1.014363384E1,-1.454477459E-1
1.839113750E0,-5.626374111E-2,1.036868858E1,-9.163807034E-1
1.841601563E0,-7.601590157E-1,1.079485703E1,-2.295440912E0
1.844089375E0,-2.402581453E0,1.134073448E1,-3.052008629E0
1.846577188E0,-4.657919407E0,1.176690292E1,-3.013701439E0
1.849065000E0,-6.376956463E0,1.167592335E1,-2.410362482E0
1.851552813E0,-6.678625584E0,1.084274101E1,-1.409586191E0
1.854040625E0,-5.404910564E0,9.482834816E0,-1.837549806E-1
1.856528438E0,-3.341108561E0,8.228272438E0,9.654618502E-1
1.859016250E0,-1.416170359E0,7.644087315E0,1.568800688E0
1.861504063E0,-8.379706182E-3,7.888296127E0,1.607107878E0
1.863991875E0,7.912836671E-1,8.798092842E0,1.209670424E0
1.866479688E0,1.102529883E0,1.001913548E1,8.505401611E-1
1.868967500E0,1.150413871E0,1.107737255E1,7.308300734E-1
1.871455313E0,1.054645896E0,1.171423054E1,8.840589523E-1
1.873943125E0,8.583213091E-1,1.180999851E1,1.243189216E0
1.876430885E0,5.327098966E-1,1.147959900E1,1.434725404E0
1.878918646E0,4.429273307E-2,1.089541340E1,1.415571809E0
1.881406406E0,-5.494692922E-1,1.028249741E1,1.066018343E0
1.883894167E0,-1.133654475E0,9.813234329E0,4.483142793E-1
1.886381927E0,-1.511938334E0,9.525930405E0,-6.883329898E-2
1.888869688E0,-1.578976035E0,9.329605103E0,-3.992331326E-1
1.891357448E0,-1.373074651E0,9.252990723E0,-4.471171796E-1
1.893845208E0,-9.516952038E-1,9.233837128E0,-3.130418658E-1
1.896332969E0,-5.255272985E-1,9.272144318E0,-3.369838893E-1
1.898820729E0,-2.094926536E-1,9.377489090E0,-5.285200477E-1
1.901308490E0,-4.668693244E-2,9.487623215E0,-8.637082577E-1
1.903796250E0,-2.753331885E-2,9.612121582E0,-1.112705231E0
1.906284010E0,-1.089361757E-1,9.664793968E0,-1.093551636E0
1.908771771E0,-2.525882721E-1,9.660005569E0,-7.918822169E-1
1.911259531E0,-4.345476031E-1,9.578602791E0,-3.800795078E-1
1.913747292E0,-6.548141837E-1,9.497200012E0,-1.646013707E-1
1.916235052E0,-8.798691034E-1,9.439739227E0,-1.741781682E-1
1.918722813E0,-1.104924083E0,9.449316025E0,-3.082534671E-1
1.921210573E0,-1.248576164E0,9.473258018E0,-3.321954906E-1
1.923698333E0,-1.310825467E0,9.473258018E0,-2.555810213E-1
1.926186094E0,-1.344344258E0,9.463681221E0,-6.883329898E-2
1.928673854E0,-1.315613866E0,9.420584679E0,4.608838260E-2
1.931161615E0,-1.306037068E0,9.387065887E0,2.992752008E-3
1.933649375E0,-1.320402265E0,9.367912292E0,-9.756372124E-2
1.936137135E0,-1.339555860E0,9.377489090E0,-1.837549806E-1
1.938624896E0,-1.349132657E0,9.387065887E0,-1.598129570E-1
1.941112656E0,-1.349132657E0,9.363123894E0,2.992752008E-3
1.943600417E0,-1.382651448E0,9.329605103E0,1.562216580E-1
1.946088177E0,-1.444900751E0,9.334393501E0,2.232593149E-1
1.948575938E0,-1.550245643E0,9.348758698E0,1.993172914E-1
1.951063698E0,-1.669955730E0,9.339181900E0,1.418564469E-1
1.953551458E0,-1.784877419E0,9.320028305E0,1.418564469E-1
1.956039219E0,-1.899798989E0,9.296086311E0,1.753752679E-1
1.958526979E0,-2.000355482E0,9.267355919E0,2.280477136E-1
1.961014740E0,-2.091335297E0,9.243413925E0,2.615665495E-1
1.963502500E0,-2.148796082E0,9.219471931E0,1.849520802E-1
1.965990260E0,-2.187103271E0,9.195529938E0,7.960720360E-2
1.968478021E0,-2.163161278E0,9.147645950E0,-1.616086066E-2
1.970965781E0,-2.134430885E0,9.090185165E0,-6.404489279E-2
1.973453542E0,-2.043451071E0,9.027935982E0,-7.362170517E-2
1.975941302E0,-1.995567083E0,8.951321602E0,-6.404489279E-2
1.978429063E0,-1.962048292E0,8.898649216E0,-9.756372124E-2
1.980916823E0,-1.933317900E0,8.822034836E0,-1.837549806E-1
1.983404583E0,-1.942894697E0,8.798092842E0,-3.274070919E-1
1.985892344E0,-1.952471495E0,8.721478462E0,-4.423287511E-1
1.988380104E0,-1.971625090E0,8.654440880E0,-5.237316489E-1
1.990867865E0,-1.966836691E0,8.558672905E0,-5.285200477E-1
1.993355625E0,-1.981201887E0,8.477270126E0,-5.668272376E-1
1.995843385E0,-2.005143881E0,8.376712799E0,-5.859808922E-1
1.998331146E0,-2.029085875E0,8.276156425E0,-5.955576897E-1
2.000818906E0,-2.048239470E0,8.156446457E0,-6.578069329E-1
2.003306667E0,-2.096123695E0,8.075043678E0,-7.152677774E-1
2.005794427E0,-2.139219284E0,7.979275703E0,-8.301894665E-1
2.008282188E0,-2.201468468E0,7.917026520E0,-9.642647505E-1
2.010769948E0,-2.302024841E0,7.907449722E0,-1.093551636E0
2.013257708E0,-2.445677042E0,7.940968513E0,-1.184531331E0
2.015745469E0,-2.584540844E0,7.993640900E0,-1.213261724E0
2.018233229E0,-2.689885616E0,8.051101685E0,-1.160589218E0
2.020720990E0,-2.795230389E0,8.113350868E0,-1.069609642E0
2.023208750E0,-2.804807186E0,8.180388451E0,-9.834183455E-1
2.025696510E0,-2.742558002E0,8.223484039E0,-8.301894665E-1
2.028184271E0,-2.642001629E0,8.285733223E0,-6.578069329E-1
2.030672031E0,-2.488772631E0,8.371924400E0,-4.423287511E-1
2.033159792E0,-2.373851061E0,8.477270126E0,-2.412158251E-1
2.035647552E0,-2.278082848E0,8.568249702E0,-5.446808785E-2
2.038135313E0,-2.215833664E0,8.649652481E0,7.960720360E-2
2.040623073E0,-2.172738075E0,8.711901665E0,1.610100716E-1
2.043110833E0,-2.163161278E0,8.740632057E0,1.466448605E-1
2.045598594E0,-2.201468468E0,8.726266861E0,6.045359373E-2
2.048086354E0,-2.239775658E0,8.687959671E0,-9.277531505E-2
2.050574167E0,-2.249352455E0,8.620922089E0,-3.034650683E-1
2.053061979E0,-2.263717651E0,8.539519310E0,-5.476736426E-1
2.055549792E0,-2.254140854E0,8.443750381E0,-7.392097712E-1
2.058037604E0,-2.225410461E0,8.324040413E0,-9.020155072E-1
2.060525417E0,-2.167949677E0,8.204330444E0,-1.050456047E0
2.063013229E0,-2.081758261E0,8.079832077E0,-1.189319730E0
2.065501042E0,-1.985990286E0,7.955333710E0,-1.289876223E0
2.067988854E0,-1.875856996E0,7.821258545E0,-1.318606615E0
2.070476667E0,-1.780089021E0,7.691971302E0,-1.309029818E0
2.072964479E0,-1.698686123E0,7.553107738E0,-1.275510907E0
2.075452292E0,-1.674744129E0,7.404667377E0,-1.227626920E0
2.077940104E0,-1.684320927E0,7.289745808E0,-1.203684926E0
2.080427917E0,-1.717839718E0,7.150881767E0,-1.213261724E0
2.082915729E0,-1.813607812E0,7.045536995E0,-1.232415318E0
2.085403542E0,-1.942894697E0,6.925827026E0,-1.241992116E0
2.087891354E0,-2.072181463E0,6.801328659E0,-1.280299306E0
2.090379167E0,-2.225410461E0,6.700771809E0,-1.328183413E0
2.092866979E0,-2.378639460E0,6.590638638E0,-1.400009394E0
2.095354792E0,-2.493561029E0,6.514024258E0,-1.514931083E0
2.097842604E0,-2.589329243E0,6.442198277E0,-1.649006367E0
2.100330417E0,-2.661155224E0,6.384737492E0,-1.797446966E0
2.102818229E0,-2.685097218E0,6.336853504E0,-1.888426542E0
2.105306042E0,-2.713827610E0,6.312911510E0,-1.950675845E0
2.107793854E0,-2.732981205E0,6.312911510E0,-1.965041041E0
2.110281667E0,-2.756923199E0,6.312911510E0,-1.912368655E0
2.112769479E0,-2.752134800E0,6.322488308E0,-1.830965757E0
2.115257292E0,-2.723404408E0,6.327276707E0,-1.730409265E0
2.117745104E0,-2.651578426E0,6.370372295E0,-1.581968784E0
2.120232917E0,-2.560598612E0,6.413467884E0,-1.409586191E0
2.122720729E0,-2.445677042E0,6.461351871E0,-1.222838521E0
2.125208542E0,-2.292448044E0,6.523601055E0,-1.012148738E0
2.127696354E0,-2.139219284E0,6.609792233E0,-8.206126094E-1
2.130184167E0,-2.000355482E0,6.719925404E0,-6.530185342E-1
2.132671979E0,-1.866280198E0,6.844424248E0,-5.045779943E-1
2.135159792E0,-1.751358509E0,6.988076210E0,-4.040215313E-1
2.137647604E0,-1.646013618E0,7.150881767E0,-3.178302646E-1
2.140135417E0,-1.569399238E0,7.294534206E0,-2.412158251E-1
2.142623177E0,-1.502361536E0,7.457339764E0,-1.789665818E-1
2.145110938E0,-1.444900751E0,7.610568523E0,-1.406593472E-1
2.147598698E0,-1.377863050E0,7.735067368E0,-8.798690885E-2
2.150086458E0,-1.286883354E0,7.845200539E0,-3.052607179E-2
2.152574219E0,-1.219845772E0,7.917026520E0,1.735796221E-2
2.155061979E0,-1.205480576E0,7.960122108E0,1.256955881E-2
2.157549740E0,-1.210268974E0,7.960122108E0,-1.616086066E-2
2.160037500E0,-1.253364563E0,7.931391716E0,-8.319851011E-2
2.162525260E0,-1.325190663E0,7.864354134E0,-2.124854028E-1
2.165013021E0,-1.392228246E0,7.773374557E0,-3.944447339E-1
2.167500781E0,-1.430535555E0,7.648875713E0,-6.865373254E-1
2.169988542E0,-1.492784739E0,7.529165745E0,-1.055244446E0
2.172476302E0,-1.507149935E0,7.409455776E0,-1.423951507E0
2.174964063E0,-1.507149935E0,7.304111004E0,-1.649006367E0
2.177451823E0,-1.487996340E0,7.198765755E0,-1.802235365E0
2.179939583E0,-1.440112352E0,7.088632584E0,-1.883638144E0
2.182427344E0,-1.377863050E0,6.988076210E0,-1.869272947E0
2.184915104E0,-1.301248670E0,6.901885033E0,-1.869272947E0
2.187402865E0,-1.262941360E0,6.830059052E0,-1.907580256E0
2.189890625E0,-1.205480576E0,6.791751862E0,-1.993771434E0
2.192378385E0,-1.138442874E0,6.820482254E0,-2.099116325E0
2.194866146E0,-1.080982089E0,6.892308235E0,-2.123058319E0
2.197353906E0,-1.028309584E0,7.045536995E0,-2.099116325E0
2.199841667E0,-9.756371975E-1,7.280169010E0,-2.022501945E0
2.202329427E0,-9.660604000E-1,7.567472935E0,-1.941099048E0
2.204817188E0,-1.013944387E0,7.907449722E0,-1.816600561E0
2.207304948E0,-1.119289279E0,8.271368027E0,-1.711255670E0
2.209792708E0,-1.224634171E0,8.640075684E0,-1.668160081E0
2.212280469E0,-1.344344258E0,8.980051994E0,-1.644217968E0
2.214768229E0,-1.464054346E0,9.291297913E0,-1.577180386E0
2.217255990E0,-1.583764434E0,9.569025993E0,-1.423951507E0
2.219743750E0,-1.727416515E0,9.822811127E0,-1.265934110E0
2.222231510E0,-1.856703401E0,1.002871227E1,-1.088763237E0
2.224719271E0,-1.985990286E0,1.023461342E1,-9.451110959E-1
2.227207031E0,-2.134430885E0,1.040220737E1,-8.493430614E-1
2.229694792E0,-2.263717651E0,1.054586029E1,-7.966706157E-1
2.232182552E0,-2.402581453E0,1.064641666E1,-7.392097712E-1
2.234670313E0,-2.517503023E0,1.072781944E1,-6.290764809E-1
2.237158073E0,-2.613271236E0,1.071824265E1,-4.327519536E-1
2.239645833E0,-2.704250813E0,1.065120506E1,-2.747346461E-1
2.242133594E0,-2.780865192E0,1.049318790E1,-1.310825497E-1
2.244621354E0,-2.838326216E0,1.027770901E1,-5.925649032E-2
2.247109115E0,-2.886210203E0,9.976039886E0,-7.362170517E-2
2.249596875E0,-2.910152197E0,9.631275177E0,-1.598129570E-1
2.252084635E0,-2.919728994E0,9.262567520E0,-2.986766696E-1
2.254572396E0,-2.890998602E0,8.898649216E0,-4.662707746E-1
2.257060156E0,-2.847903013E0,8.539519310E0,-6.721721292E-1
2.259547917E0,-2.790441990E0,8.185176849E0,-9.163807034E-1
2.262035677E0,-2.718616009E0,7.845200539E0,-1.151012421E0
2.264523438E0,-2.665943623E0,7.538742542E0,-1.404797792E0
2.267011198E0,-2.598906040E0,7.270592213E0,-1.701678872E0
2.269498958E0,-2.541445017E0,7.031171799E0,-2.103904724E0
2.271986719E0,-2.460042238E0,6.849212646E0,-2.486977100E0
2.274474479E0,-2.349909067E0,6.715137005E0,-2.759916067E0
2.276962240E0,-2.239775658E0,6.643311024E0,-2.779069662E0
2.279450000E0,-2.096123695E0,6.638522625E0,-2.592321873E0
2.281937760E0,-1.962048292E0,6.672041416E0,-2.295440912E0
2.284425521E0,-1.827973008E0,6.777386665E0,-1.965041041E0
2.286913281E0,-1.722628117E0,6.882731438E0,-1.720832467E0
2.289401042E0,-1.588552833E0,7.040748596E0,-1.534084797E0
2.291888802E0,-1.468842745E0,7.275380611E0,-1.342548609E0
2.294376563E0,-1.315613866E0,7.553107738E0,-1.136647224E0
2.296864323E0,-1.162384868E0,7.869142532E0,-9.020155072E-1
2.299352083E0,-1.004367590E0,8.266579628E0,-6.147112846E-1
2.301839844E0,-8.559271097E-1,8.726266861E0,-3.657143116E-1
2.304327604E0,-7.362170219E-1,9.209895134E0,-1.310825497E-1
2.306815365E0,-6.931213737E-1,9.717466354E0,-6.584054790E-3
2.309303125E0,-7.218518257E-1,1.021545982E1,3.172317147E-2
2.311790885E0,-8.367735147E-1,1.066078186E1,-3.531447425E-2
2.314278646E0,-1.028309584E0,1.102948856E1,-1.310825497E-1
2.316766406E0,-1.224634171E0,1.131200409E1,-2.651578486E-1
2.319254167E0,-1.416170359E0,1.149396420E1,-3.992331326E-1
2.321741927E0,-1.540668845E0,1.159452057E1,-5.045779943E-1
2.324229688E0,-1.646013618E0,1.158015537E1,-5.620388389E-1
2.326717448E0,-1.641225219E0,1.146044540E1,-5.572504401E-1
2.329205208E0,-1.574187636E0,1.126412010E1,-5.093663931E-1
2.331693021E0,-1.502361536E0,1.101033497E1,-4.327519536E-1
2.334180833E0,-1.430535555E0,1.069908905E1,-4.279635549E-1
2.336668646E0,-1.401805043E0,1.033516979E1,-4.902127981E-1
2.339156458E0,-1.377863050E0,1.000477028E1,-6.194996834E-1
2.341644271E0,-1.387439847E0,9.664793968E0,-7.918822169E-1
2.344132083E0,-1.444900751E0,9.339181900E0,-9.738415480E-1
2.346619896E0,-1.516726732E0,9.013570786E0,-1.136647224E0
2.349107708E0,-1.588552833E0,8.697536469E0,-1.285087705E0
2.351595521E0,-1.660378933E0,8.424596786E0,-1.428739905E0
2.354083333E0,-1.703474522E0,8.170811653E0,-1.581968784E0
2.356571146E0,-1.708262920E0,7.936180115E0,-1.787870169E0
2.359058958E0,-1.674744129E0,7.768586159E0,-1.993771434E0
2.361546771E0,-1.559822440E0,7.648875713E0,-2.103904724E0
2.364034583E0,-1.349132657E0,7.600991726E0,-2.118269920E0
2.366522396E0,-1.071405292E0,7.624933720E0,-1.969829440E0
2.369010208E0,-7.793126702E-1,7.715913296E0,-1.692102075E0
2.371498021E0,-5.686228871E-1,7.888296127E0,-1.447893500E0
2.373985833E0,-3.866635859E-1,8.142081261E0,-1.275510907E0
2.376473646E0,-2.956839204E-1,8.424596786E0,-1.194108129E0
2.378961458E0,-2.669534981E-1,8.764574051E0,-1.194108129E0
2.381449271E0,-2.382230759E-1,9.142857552E0,-1.165377736E0
2.383937083E0,-1.759738177E-1,9.545084000E0,-1.055244446E0
2.386424896E0,-9.457096457E-2,9.937732697E0,-9.068039060E-1
2.388912708E0,-2.274491638E-2,1.033038139E1,-7.727286220E-1
2.391400521E0,6.344634295E-2,1.070866585E1,-7.296329737E-1
2.393888333E0,7.302315533E-2,1.105821896E1,-7.775170207E-1
2.396376146E0,1.077390742E-2,1.133594608E1,-9.211691022E-1
2.398863958E0,-1.041477770E-1,1.157057858E1,-1.127070427E0
2.401351771E0,-2.621650994E-1,1.174774933E1,-1.342548609E0
2.403839583E0,-4.153940082E-1,1.188661289E1,-1.510142684E0
2.406327396E0,-5.590460896E-1,1.192970848E1,-1.634641171E0
2.408815208E0,-6.835445762E-1,1.189618969E1,-1.787870169E0
2.411303021E0,-7.697358727E-1,1.181478691E1,-1.893214941E0
2.413790833E0,-8.319851160E-1,1.163761616E1,-1.917157054E0
2.416278646E0,-8.511387110E-1,1.138383007E1,-1.854907751E0
2.418766458E0,-8.224082589E-1,1.109173775E1,-1.754351258E0
2.421254219E0,-8.607155085E-1,1.079006863E1,-1.692102075E0
2.423741979E0,-9.133879542E-1,1.049318790E1,-1.677736878E0
2.426229740E0,-9.804255962E-1,1.022503662E1,-1.687313676E0
2.428717500E0,-1.061828494E0,9.952097893E0,-1.744774461E0
2.431205260E0,-1.157596469E0,9.736619949E0,-1.797446966E0
2.433693021E0,-1.238999367E0,9.506776810E0,-1.830965757E0
2.436180781E0,-1.329979062E0,9.291297913E0,-1.878849745E0
2.438668542E0,-1.425747156E0,9.104550362E0,-2.003348351E0
2.441156302E0,-1.526303530E0,8.956110001E0,-2.237980127E0
2.443644063E0,-1.598129630E0,8.831611633E0,-2.554014683E0
2.446131823E0,-1.626860023E0,8.735843658E0,-2.855684042E0
2.448619583E0,-1.588552833E0,8.668806076E0,-3.023278236E0
2.451107344E0,-1.526303530E0,8.640075684E0,-2.932298422E0
2.453595104E0,-1.420958757E0,8.620922089E0,-2.702455282E0
2.456082865E0,-1.329979062E0,8.625710487E0,-2.434304476E0
2.458570625E0,-1.325190663E0,8.649652481E0,-2.218826532E0
2.461058385E0,-1.406593442E0,8.683171272E0,-2.132635117E0
2.463546146E0,-1.559822440E0,8.731055260E0,-2.060809135E0
2.466033906E0,-1.741781712E0,8.822034836E0,-1.941099048E0
2.468521667E0,-1.933317900E0,8.936956406E0,-1.807023764E0
2.471009427E0,-2.100912094E0,9.075819969E0,-1.653794765E0
2.473497188E0,-2.225410461E0,9.224260330E0,-1.438316703E0
2.475984948E0,-2.325966835E0,9.406219482E0,-1.227626920E0
2.478472708E0,-2.388216257E0,9.602544785E0,-1.036090732E0
2.480960469E0,-2.426523447E0,9.794080734E0,-8.684966564E-1
2.483448229E0,-2.498349428E0,9.990405083E0,-7.344213724E-1
2.485935990E0,-2.594117641E0,1.016757584E1,-6.147112846E-1
2.488423750E0,-2.689885616E0,1.028728580E1,-4.758476019E-1
2.490911510E0,-2.795230389E0,1.036390018E1,-3.657143116E-1
2.493399271E0,-2.900575399E0,1.040220737E1,-2.795230448E-1
2.495887031E0,-2.991554976E0,1.035911179E1,-2.220622003E-1
2.498374792E0,-3.049015760E0,1.025376701E1,-2.268506140E-1
2.500862552E0,-3.077746391E0,1.013405704E1,-2.890998423E-1
2.503350313E0,-3.039438963E0,9.956886292E0,-3.992331326E-1
2.505838073E0,-2.977189779E0,9.755773544E0,-5.955576897E-1
2.508325833E0,-2.905363798E0,9.540295601E0,-8.110358119E-1
2.510813594E0,-2.809595585E0,9.348758698E0,-1.002571940E0
2.513301354E0,-2.699462414E0,9.152434349E0,-1.160589218E0
2.515789115E0,-2.589329243E0,8.960898399E0,-1.265934110E0
2.518276875E0,-2.493561029E0,8.769362450E0,-1.419163108E0
2.520764635E0,-2.378639460E0,8.582614899E0,-1.653794765E0
2.523252396E0,-2.225410461E0,8.429385185E0,-1.965041041E0
2.525740156E0,-2.038662672E0,8.314463615E0,-2.237980127E0
2.528227917E0,-1.804031014E0,8.228272438E0,-2.352901697E0
2.530715677E0,-1.559822440E0,8.156446457E0,-2.261922121E0
2.533203438E0,-1.373074651E0,8.118139267E0,-2.027290344E0
2.535691198E0,-1.306037068E0,8.103774071E0,-1.739986062E0
2.538178958E0,-1.377863050E0,8.118139267E0,-1.558026791E0
2.540666719E0,-1.602918029E0,8.161234856E0,-1.490989089E0
2.543154479E0,-1.923741102E0,8.228272438E0,-1.543661594E0
2.545642240E0,-2.234987259E0,8.352770805E0,-1.572391987E0
2.548130000E0,-2.498349428E0,8.482058525E0,-1.596333981E0
2.550617760E0,-2.685097218E0,8.687959671E0,-1.591545582E0
2.553105521E0,-2.790441990E0,8.946533203E0,-1.476623893E0
2.555593281E0,-2.800018787E0,9.267355919E0,-1.261145711E0
2.558081042E0,-2.732981205E0,9.636063576E0,-9.451110959E-1
2.560568802E0,-2.656366825E0,1.000955868E1,-6.482301354E-1
2.563056563E0,-2.555810213E0,1.037347698E1,-4.135983288E-1
2.565544323E0,-2.479195833E0,1.073739624E1,-3.274070919E-1
2.568032083E0,-2.450465441E0,1.108216095E1,-3.705027103E-1
2.570519844E0,-2.455253839E0,1.140777302E1,-5.189431906E-1
2.573007604E0,-2.488772631E0,1.169028854E1,-7.009025216E-1
2.575495365E0,-2.574964046E0,1.194407368E1,-9.355342984E-1
2.577983125E0,-2.632424831E0,1.216912842E1,-1.155800819E0
2.580470885E0,-2.704250813E0,1.229362679E1,-1.390432596E0
2.582958646E0,-2.771288395E0,1.238460732E1,-1.634641171E0
2.585446406E0,-2.814383984E0,1.240854931E1,-1.921945453E0
2.587934167E0,-2.809595585E0,1.238939571E1,-2.190095901E0
2.590421927E0,-2.785653591E0,1.228883839E1,-2.376843691E0
2.592909688E0,-2.728192806E0,1.214518642E1,-2.577956676E0
2.595397448E0,-2.665943623E0,1.197759247E1,-2.750339270E0
2.597885208E0,-2.594117641E0,1.180521011E1,-2.879626036E0
2.600372969E0,-2.536656618E0,1.163761616E1,-2.980182648E0
2.602860729E0,-2.498349428E0,1.148438740E1,-3.071162224E0
2.605348490E0,-2.483984232E0,1.137904167E1,-3.157353401E0
2.607836250E0,-2.522291422E0,1.130721569E1,-3.214814425E0
2.610324010E0,-2.598906040E0,1.128327370E1,-3.262698412E0
2.612811771E0,-2.709039211E0,1.129763889E1,-3.296217203E0
2.615299531E0,-2.819172382E0,1.134073448E1,-3.329735994E0
2.617787344E0,-2.919728994E0,1.141734982E1,-3.320159197E0
2.620275156E0,-3.015496969E0,1.150832939E1,-3.277063608E0
2.622762969E0,-3.087323189E0,1.162803936E1,-3.171718597E0
2.625250781E0,-3.149572372E0,1.175732613E1,-3.032855034E0
2.627738594E0,-3.259705544E0,1.188182449E1,-2.855684042E0
2.630226406E0,-3.374627352E0,1.201111126E1,-2.668936253E0
2.632714219E0,-3.547009706E0,1.214039803E1,-2.525284290E0
2.635202031E0,-3.752911091E0,1.226010799E1,-2.386420488E0
2.637689844E0,-3.954024076E0,1.236545277E1,-2.266710520E0
2.640177656E0,-4.155137062E0,1.245643330E1,-2.204461098E0
2.642665469E0,-4.313154221E0,1.256177807E1,-2.156577110E0
2.645153281E0,-4.461595058E0,1.269585323E1,-2.151788712E0
2.647641094E0,-4.566939831E0,1.279162121E1,-2.228403330E0
2.650128906E0,-4.653131008E0,1.291133118E1,-2.290652514E0
2.652616719E0,-4.696226597E0,1.302625275E1,-2.343324900E0
2.655104531E0,-4.677073002E0,1.310765553E1,-2.400785685E0
2.657592344E0,-4.657919407E0,1.314596272E1,-2.400785685E0
2.660080156E0,-4.581305027E0,1.316511631E1,-2.386420488E0
2.662567969E0,-4.495113850E0,1.315553951E1,-2.362478495E0
2.665055781E0,-4.404133797E0,1.310765553E1,-2.271498919E0
2.667543594E0,-4.337096214E0,1.301667595E1,-2.170942307E0
2.670031406E0,-4.255693436E0,1.291611958E1,-2.209249735E0
2.672519219E0,-4.164713860E0,1.281077480E1,-2.309806108E0
2.675007031E0,-4.121618271E0,1.271021843E1,-2.443881273E0
2.677494844E0,-4.068945885E0,1.260966206E1,-2.534861088E0
2.679982656E0,-4.006696701E0,1.251868248E1,-2.544437885E0
2.682470469E0,-3.920505285E0,1.244685650E1,-2.558803082E0
2.684958281E0,-3.853467703E0,1.237981796E1,-2.592321873E0
2.687446094E0,-3.786429882E0,1.228883839E1,-2.630629063E0
2.689933906E0,-3.719392300E0,1.221222401E1,-2.611475468E0
2.692421719E0,-3.623624325E0,1.214518642E1,-2.568379879E0
2.694909531E0,-3.566163540E0,1.204941845E1,-2.520495892E0
2.697397344E0,-3.523067713E0,1.196801567E1,-2.520495892E0
2.699885156E0,-3.475183725E0,1.192492008E1,-2.544437885E0
2.702372969E0,-3.432088137E0,1.189140129E1,-2.549226284E0
2.704860729E0,-3.355473757E0,1.188182449E1,-2.539649487E0
2.707348490E0,-3.278859138E0,1.188182449E1,-2.482188702E0
2.709836250E0,-3.226186752E0,1.187703609E1,-2.400785685E0
2.712324010E0,-3.187879562E0,1.189618969E1,-2.300229311E0
2.714811771E0,-3.154360771E0,1.188182449E1,-2.214038134E0
2.717299531E0,-3.168725967E0,1.188182449E1,-2.170942307E0
2.719787292E0,-3.226186752E0,1.187703609E1,-2.170942307E0
2.722275052E0,-3.288435936E0,1.186745930E1,-2.194884300E0
2.724762813E0,-3.345896959E0,1.185788250E1,-2.190095901E0
2.727250573E0,-3.384204149E0,1.181957531E1,-2.127846718E0
2.729738333E0,-3.412934542E0,1.183394051E1,-2.065597534E0
2.732226094E0,-3.403357744E0,1.181957531E1,-1.998559833E0
2.734713854E0,-3.365050554E0,1.180042171E1,-1.907580256E0
2.737201615E0,-3.302801132E0,1.177647972E1,-1.792658567E0
2.739689375E0,-3.254917145E0,1.173338413E1,-1.706467271E0
2.742177135E0,-3.183091164E0,1.168550014E1,-1.653794765E0
2.744664896E0,-3.096899986E0,1.160888577E1,-1.692102075E0
2.747152656E0,-3.039438963E0,1.154184818E1,-1.744774461E0
2.749640417E0,-2.962824583E0,1.145565701E1,-1.821388960E0
2.752128177E0,-2.890998602E0,1.137425327E1,-1.883638144E0
2.754615938E0,-2.843114614E0,1.126412010E1,-1.926733851E0
2.757103698E0,-2.814383984E0,1.114441013E1,-1.960252643E0
2.759591458E0,-2.823961020E0,1.101991177E1,-2.003348351E0
2.762079219E0,-2.852691412E0,1.088104820E1,-2.089539528E0
2.764566979E0,-2.867056608E0,1.073260784E1,-2.185307503E0
2.767054740E0,-2.895787001E0,1.058895588E1,-2.261922121E0
2.769542500E0,-2.905363798E0,1.045009232E1,-2.314594507E0
2.772030260E0,-2.886210203E0,1.032080460E1,-2.395997286E0
2.774518021E0,-2.852691412E0,1.019630623E1,-2.491765499E0
2.777005781E0,-2.780865192E0,1.009574986E1,-2.558803082E0
2.779493542E0,-2.713827610E0,9.995193481E0,-2.587533474E0
2.781981302E0,-2.618059635E0,9.894637108E0,-2.582745075E0
2.784469063E0,-2.522291422E0,9.789292336E0,-2.544437885E0
2.786956823E0,-2.440888643E0,9.712677956E0,-2.496553898E0
2.789444583E0,-2.393004656E0,9.645640373E0,-2.448669672E0
2.791932344E0,-2.325966835E0,9.588179588E0,-2.439092875E0
2.794420104E0,-2.297236443E0,9.549872398E0,-2.429516077E0
2.796907865E0,-2.263717651E0,9.492411613E0,-2.424727678E0
2.799395625E0,-2.225410461E0,9.473258018E0,-2.352901697E0
2.801883385E0,-2.172738075E0,9.439739227E0,-2.266710520E0
2.804371146E0,-2.163161278E0,9.415796280E0,-2.185307503E0
2.806858906E0,-2.163161278E0,9.396642685E0,-2.084751129E0
2.809346667E0,-2.172738075E0,9.358335495E0,-2.008136749E0
2.811834427E0,-2.211045265E0,9.343970299E0,-1.988983035E0
2.814322188E0,-2.268506050E0,9.324816704E0,-1.974617839E0
2.816809948E0,-2.330755472E0,9.324816704E0,-1.984194636E0
2.819297708E0,-2.393004656E0,9.315239906E0,-2.008136749E0
2.821785469E0,-2.460042238E0,9.320028305E0,-2.022501945E0
2.824273229E0,-2.488772631E0,9.334393501E0,-2.032078743E0
2.826760990E0,-2.522291422E0,9.358335495E0,-2.008136749E0
2.829248750E0,-2.527079821E0,9.387065887E0,-1.945887446E0
2.831736510E0,-2.531868219E0,9.396642685E0,-1.874061346E0
2.834224271E0,-2.517503023E0,9.430161476E0,-1.807023764E0
2.836712031E0,-2.522291422E0,9.473258018E0,-1.749562860E0
2.839199792E0,-2.517503023E0,9.501988411E0,-1.725620866E0
2.841687552E0,-2.527079821E0,9.497200012E0,-1.706467271E0
2.844175313E0,-2.565387011E0,9.521142006E0,-1.749562860E0
2.846663073E0,-2.589329243E0,9.525930405E0,-1.807023764E0
2.849150833E0,-2.627636433E0,9.521142006E0,-1.821388960E0
2.851638594E0,-2.661155224E0,9.530718803E0,-1.859696150E0
2.854126354E0,-2.689885616E0,9.545084000E0,-1.936310649E0
2.856614115E0,-2.685097218E0,9.564237595E0,-1.988983035E0
2.859101875E0,-2.675520420E0,9.578602791E0,-2.032078743E0
2.861589635E0,-2.651578426E0,9.583391190E0,-2.056020737E0
2.864077396E0,-2.613271236E0,9.583391190E0,-2.070385933E0
2.866565156E0,-2.584540844E0,9.583391190E0,-2.060809135E0
2.869052917E0,-2.551021814E0,9.578602791E0,-2.032078743E0
2.871540677E0,-2.536656618E0,9.583391190E0,-1.984194636E0
2.874028438E0,-2.541445017E0,9.573814392E0,-1.931522250E0
2.876516198E0,-2.555810213E0,9.588179588E0,-1.859696150E0
2.879003958E0,-2.579752445E0,9.583391190E0,-1.778293371E0
2.881491719E0,-2.608482838E0,9.588179588E0,-1.725620866E0
2.883979479E0,-2.637213230E0,9.636063576E0,-1.701678872E0
2.886467240E0,-2.665943623E0,9.688735962E0,-1.701678872E0
2.888955000E0,-2.713827610E0,9.736619949E0,-1.706467271E0
2.891442760E0,-2.771288395E0,9.832387924E0,-1.735197663E0
2.893930521E0,-2.800018787E0,9.923367500E0,-1.720832467E0
2.896418281E0,-2.809595585E0,1.000955868E1,-1.672948480E0
2.898906094E0,-2.828749418E0,1.011011505E1,-1.581968784E0
2.901393906E0,-2.819172382E0,1.021067142E1,-1.514931083E0
2.903881719E0,-2.809595585E0,1.028728580E1,-1.495777488E0
2.906369531E0,-2.814383984E0,1.036390018E1,-1.510142684E0
2.908857344E0,-2.804807186E0,1.045966911E1,-1.548449993E0
2.911345156E0,-2.800018787E0,1.055064869E1,-1.577180386E0
2.913832969E0,-2.804807186E0,1.062726307E1,-1.596333981E0
2.916320781E0,-2.828749418E0,1.069430065E1,-1.615487576E0
2.918808594E0,-2.819172382E0,1.076133823E1,-1.629852772E0
2.921296406E0,-2.804807186E0,1.081401062E1,-1.615487576E0
2.923784219E0,-2.800018787E0,1.085710621E1,-1.577180386E0
2.926272031E0,-2.795230389E0,1.090020180E1,-1.567603588E0
2.928759844E0,-2.795230389E0,1.091456699E1,-1.558026791E0
2.931247656E0,-2.814383984E0,1.093372059E1,-1.562815189E0
2.933735469E0,-2.847903013E0,1.094808578E1,-1.577180386E0
2.936223281E0,-2.929305792E0,1.097202778E1,-1.620275974E0
2.938711094E0,-2.986766577E0,1.095766258E1,-1.672948480E0
2.941198906E0,-3.068169594E0,1.098160458E1,-1.730409265E0
2.943686719E0,-3.120841980E0,1.098639297E1,-1.754351258E0
2.946174531E0,-3.173514366E0,1.099118137E1,-1.787870169E0
2.948662344E0,-3.192667961E0,1.100075817E1,-1.797446966E0
2.951150156E0,-3.216609955E0,1.098639297E1,-1.811812162E0
2.953637969E0,-3.235763550E0,1.095287418E1,-1.773504853E0
2.956125781E0,-3.254917145E0,1.093372059E1,-1.730409265E0
2.958613594E0,-3.254917145E0,1.091456699E1,-1.692102075E0
2.961101406E0,-3.259705544E0,1.090499020E1,-1.677736878E0
2.963589219E0,-3.264493942E0,1.090977859E1,-1.711255670E0
2.966077031E0,-3.235763550E0,1.092893219E1,-1.735197663E0
2.968564844E0,-3.211821556E0,1.092414379E1,-1.773504853E0
2.971052656E0,-3.163937569E0,1.095287418E1,-1.811812162E0
2.973540469E0,-3.130418777E0,1.100075817E1,-1.816600561E0
2.976028281E0,-3.068169594E0,1.103906536E1,-1.869272947E0
2.978516094E0,-2.991554976E0,1.107258415E1,-1.898003340E0
2.981003906E0,-2.919728994E0,1.108694935E1,-1.893214941E0
2.983491719E0,-2.838326216E0,1.106779575E1,-1.864484549E0
2.985979531E0,-2.771288395E0,1.104864216E1,-1.816600561E0
2.988467292E0,-2.732981205E0,1.101033497E1,-1.787870169E0
2.990955052E0,-2.704250813E0,1.096723938E1,-1.739986062E0
2.993442813E0,-2.685097218E0,1.089541340E1,-1.701678872E0
2.995930573E0,-2.670732021E0,1.080443382E1,-1.687313676E0
2.998418333E0,-2.665943623E0,1.072781944E1,-1.687313676E0
3.000906094E0,-2.670732021E0,1.065120506E1,-1.658583283E0
3.003393854E0,-2.675520420E0,1.056980228E1,-1.634641171E0
3.005881615E0,-2.689885616E0,1.048361111E1,-1.658583283E0
3.008369375E0,-2.694674015E0,1.039741898E1,-1.663371682E0
3.010857135E0,-2.689885616E0,1.029686260E1,-1.668160081E0
3.013344896E0,-2.685097218E0,1.019630623E1,-1.668160081E0
3.015832656E0,-2.689885616E0,1.009096146E1,-1.692102075E0
3.018320417E0,-2.713827610E0,9.999981880E0,-1.773504853E0
3.020808177E0,-2.723404408E0,9.904213905E0,-1.811812162E0
3.023295938E0,-2.732981205E0,9.789292336E0,-1.854907751E0
3.025783698E0,-2.728192806E0,9.688735962E0,-1.859696150E0
3.028271458E0,-2.713827610E0,9.588179588E0,-1.869272947E0
3.030759219E0,-2.680308819E0,9.492411613E0,-1.854907751E0
3.033246979E0,-2.642001629E0,9.396642685E0,-1.821388960E0
3.035734740E0,-2.584540844E0,9.305663109E0,-1.735197663E0
3.038222500E0,-2.541445017E0,9.229048729E0,-1.682525277E0
3.040710260E0,-2.498349428E0,9.128492355E0,-1.620275974E0
3.043198021E0,-2.469619036E0,9.080608368E0,-1.581968784E0
3.045685781E0,-2.440888643E0,9.023147583E0,-1.581968784E0
3.048173542E0,-2.426523447E0,8.956110001E0,-1.605910778E0
3.050661302E0,-2.431311846E0,8.913014412E0,-1.610699177E0
3.053149063E0,-2.426523447E0,8.860342026E0,-1.625064373E0
3.055636823E0,-2.426523447E0,8.807669640E0,-1.620275974E0
3.058124583E0,-2.412158251E0,8.774150848E0,-1.596333981E0
3.060612344E0,-2.393004656E0,8.735843658E0,-1.558026791E0
3.063100104E0,-2.383427858E0,8.683171272E0,-1.524507880E0
3.065587865E0,-2.349909067E0,8.644864082E0,-1.471835494E0
3.068075625E0,-2.311601639E0,8.616133690E0,-1.457470298E0
3.070563385E0,-2.297236443E0,8.587403297E0,-1.452681899E0
3.073051146E0,-2.306813240E0,8.544307709E0,-1.486200690E0
3.075538906E0,-2.302024841E0,8.520365715E0,-1.471835494E0
3.078026667E0,-2.282871246E0,8.520365715E0,-1.486200690E0
3.080514427E0,-2.287659645E0,8.491635323E0,-1.510142684E0
3.083002188E0,-2.297236443E0,8.477270126E0,-1.505354285E0
3.085489948E0,-2.297236443E0,8.462904930E0,-1.505354285E0
3.087977708E0,-2.282871246E0,8.443750381E0,-1.495777488E0
3.090465469E0,-2.278082848E0,8.453327179E0,-1.467047095E0
3.092953229E0,-2.258929253E0,8.458115578E0,-1.467047095E0
3.095440990E0,-2.254140854E0,8.462904930E0,-1.476623893E0
3.097928750E0,-2.234987259E0,8.467693329E0,-1.462258697E0
3.100416510E0,-2.225410461E0,8.467693329E0,-1.443105102E0
3.102904271E0,-2.234987259E0,8.482058525E0,-1.414374709E0
3.105392031E0,-2.230198860E0,8.496423721E0,-1.423951507E0
3.107879792E0,-2.234987259E0,8.520365715E0,-1.438316703E0
3.110367552E0,-2.244564056E0,8.558672905E0,-1.423951507E0
3.112855313E0,-2.206256866E0,8.611345291E0,-1.419163108E0
3.115343073E0,-2.187103271E0,8.654440880E0,-1.390432596E0
3.117830833E0,-2.182314873E0,8.707113266E0,-1.371279001E0
3.120318594E0,-2.153584480E0,8.774150848E0,-1.361702204E0
3.122806354E0,-2.115277290E0,8.841188431E0,-1.342548609E0
3.125294115E0,-2.115277290E0,8.903437614E0,-1.328183413E0
3.127781875E0,-2.096123695E0,8.960898399E0,-1.337760210E0
3.130269635E0,-2.081758261E0,9.042301178E0,-1.342548609E0
3.132757396E0,-2.043451071E0,9.123703957E0,-1.347337008E0
3.135245156E0,-1.990778685E0,9.214683533E0,-1.337760210E0
3.137732917E0,-1.942894697E0,9.281721115E0,-1.328183413E0
3.140220677E0,-1.890222192E0,9.367912292E0,-1.309029818E0
3.142708438E0,-1.861491799E0,9.458892822E0,-1.304241419E0
3.145196198E0,-1.837549806E0,9.530718803E0,-1.337760210E0
3.147683958E0,-1.832761407E0,9.616909981E0,-1.385644197E0
3.150171719E0,-1.847126603E0,9.703101158E0,-1.419163108E0
3.152659479E0,-1.861491799E0,9.789292336E0,-1.452681899E0
3.155147240E0,-1.899798989E0,9.865906715E0,-1.505354285E0
3.157635000E0,-1.928529501E0,9.952097893E0,-1.524507880E0
3.160122760E0,-1.947683096E0,1.004786587E1,-1.534084797E0
3.162610521E0,-1.947683096E0,1.012448025E1,-1.558026791E0
3.165098281E0,-1.933317900E0,1.021545982E1,-1.548449993E0
3.167586042E0,-1.914164305E0,1.027770901E1,-1.514931083E0
3.170073802E0,-1.895010591E0,1.036868858E1,-1.486200690E0
3.172561563E0,-1.875856996E0,1.045488071E1,-1.452681899E0
3.175049323E0,-1.832761407E0,1.054107189E1,-1.443105102E0
3.177537135E0,-1.813607812E0,1.064162827E1,-1.462258697E0
3.180024948E0,-1.813607812E0,1.072781944E1,-1.476623893E0
3.182512760E0,-1.837549806E0,1.086189461E1,-1.529296279E0
3.185000573E0,-1.842338204E0,1.100554657E1,-1.572391987E0
3.187488385E0,-1.837549806E0,1.114919853E1,-1.605910778E0
3.189976198E0,-1.842338204E0,1.130721569E1,-1.644217968E0
3.192464010E0,-1.813607812E0,1.149396420E1,-1.668160081E0
3.194951823E0,-1.799242616E0,1.166634655E1,-1.658583283E0
3.197439635E0,-1.780089021E0,1.184351730E1,-1.596333981E0
3.199927448E0,-1.746570110E0,1.201111126E1,-1.519719481E0
3.202415260E0,-1.756146908E0,1.215955162E1,-1.524507880E0
3.204903073E0,-1.765723705E0,1.231756878E1,-1.572391987E0
3.207390885E0,-1.808819413E0,1.246122169E1,-1.596333981E0
3.209878698E0,-1.847126603E0,1.260008526E1,-1.634641171E0
3.212366510E0,-1.899798989E0,1.274373722E1,-1.711255670E0
3.214854323E0,-1.952471495E0,1.286823559E1,-1.759139657E0
3.217342135E0,-2.024297476E0,1.298794556E1,-1.821388960E0
3.219829948E0,-2.105700493E0,1.309807873E1,-1.888426542E0
3.222317760E0,-2.234987259E0,1.319384670E1,-1.936310649E0
3.224805573E0,-2.369062662E0,1.327524948E1,-1.941099048E0
3.227293385E0,-2.522291422E0,1.330876827E1,-1.960252643E0
3.229781198E0,-2.675520420E0,1.335665226E1,-1.979406238E0
3.232269010E0,-2.800018787E0,1.338059521E1,-2.003348351E0
3.234756823E0,-2.929305792E0,1.340932560E1,-1.974617839E0
3.237244635E0,-3.025073767E0,1.345720959E1,-1.960252643E0
3.239732448E0,-3.106476784E0,1.350988197E1,-1.921945453E0
3.242220260E0,-3.187879562E0,1.355776596E1,-1.878849745E0
3.244708073E0,-3.264493942E0,1.362001514E1,-1.816600561E0
3.247195885E0,-3.341108561E0,1.366311073E1,-1.725620866E0
3.249683698E0,-3.398569345E0,1.373972511E1,-1.629852772E0
3.252171510E0,-3.441664934E0,1.378282070E1,-1.519719481E0
3.254659323E0,-3.475183725E0,1.382591629E1,-1.457470298E0
3.257147135E0,-3.499125719E0,1.386901188E1,-1.390432596E0
3.259634948E0,-3.513490915E0,1.394562626E1,-1.337760210E0
3.262122760E0,-3.523067713E0,1.401745224E1,-1.313818216E0
3.264610573E0,-3.518279314E0,1.410364342E1,-1.309029818E0
3.267098385E0,-3.503914118E0,1.421856499E1,-1.270722508E0
3.269586146E0,-3.470395327E0,1.431912136E1,-1.251568913E0
3.272073906E0,-3.427299738E0,1.443404388E1,-1.246780515E0
3.274561667E0,-3.408146143E0,1.455854225E1,-1.280299306E0
3.277049427E0,-3.365050554E0,1.465909863E1,-1.289876223E0
3.279537188E0,-3.345896959E0,1.475965500E1,-1.337760210E0
3.282024948E0,-3.336320162E0,1.484105778E1,-1.414374709E0
3.284512708E0,-3.317166567E0,1.491767216E1,-1.457470298E0
3.287000469E0,-3.307589531E0,1.499907494E1,-1.500565886E0
3.289488229E0,-3.312378168E0,1.503738213E1,-1.534084797E0
3.291975990E0,-3.321954966E0,1.506132412E1,-1.586757183E0
3.294463750E0,-3.326743364E0,1.508526611E1,-1.668160081E0
3.296951510E0,-3.345896959E0,1.509484291E1,-1.739986062E0
3.299439271E0,-3.345896959E0,1.510920811E1,-1.783081770E0
3.301927031E0,-3.341108561E0,1.509963131E1,-1.864484549E0
3.304414792E0,-3.341108561E0,1.507568932E1,-1.878849745E0
3.306902552E0,-3.312378168E0,1.505653572E1,-1.869272947E0
3.309390313E0,-3.350685358E0,1.506611252E1,-1.883638144E0
3.311878073E0,-3.379415751E0,1.507568932E1,-1.883638144E0
3.314365833E0,-3.432088137E0,1.506132412E1,-1.878849745E0
3.316853594E0,-3.503914118E0,1.502301693E1,-1.864484549E0
3.319341354E0,-3.547009706E0,1.498949814E1,-1.816600561E0
3.321829115E0,-3.566163540E0,1.493682575E1,-1.754351258E0
3.324316875E0,-3.570951939E0,1.487457657E1,-1.668160081E0
3.326804635E0,-3.566163540E0,1.484105778E1,-1.605910778E0
3.329292396E0,-3.551798105E0,1.480753899E1,-1.567603588E0
3.331780156E0,-3.537432909E0,1.475965500E1,-1.529296279E0
3.334267917E0,-3.551798105E0,1.474528980E1,-1.514931083E0
3.336755677E0,-3.542221308E0,1.471177101E1,-1.505354285E0
3.339243438E0,-3.542221308E0,1.467825222E1,-1.510142684E0
3.341731198E0,-3.503914118E0,1.465431023E1,-1.514931083E0
3.344218958E0,-3.446453333E0,1.460642624E1,-1.514931083E0
3.346706719E0,-3.360262156E0,1.455375385E1,-1.385644197E0
3.349194479E0,-3.369838953E0,1.456333065E1,-2.649782658E0
3.351682240E0,-3.532644510E0,1.460163784E1,-2.127846718E0
3.354170000E0,-3.417722940E0,1.449150467E1,-1.031302333E0
3.356657760E0,-3.293224335E0,1.439573669E1,-1.481412292E0
3.359145521E0,-3.173514366E0,1.425208378E1,-1.835754156E0
3.361633281E0,-3.029862165E0,1.406054783E1,-1.950675845E0
3.364121042E0,-2.943670988E0,1.395041466E1,-2.170942307E0
3.366608802E0,-2.905363798E0,1.391689587E1,-2.290652514E0
3.369096563E0,-2.852691412E0,1.393604946E1,-2.305017710E0
3.371584323E0,-2.809595585E0,1.399351025E1,-2.376843691E0
3.374072083E0,-2.795230389E0,1.405575943E1,-2.477400303E0
3.376559844E0,-2.785653591E0,1.411322021E1,-2.554014683E0
3.379047604E0,-2.800018787E0,1.413237381E1,-2.558803082E0
3.381535365E0,-2.814383984E0,1.412758541E1,-2.448669672E0
3.384023125E0,-2.819172382E0,1.411322021E1,-2.391208887E0
3.386510885E0,-2.780865192E0,1.407012463E1,-2.372055292E0
3.388998646E0,-2.709039211E0,1.403660583E1,-2.348113298E0
3.391486406E0,-2.665943623E0,1.402702904E1,-2.276287317E0
3.393974167E0,-2.608482838E0,1.405097103E1,-2.147000313E0
3.396461927E0,-2.541445017E0,1.406533623E1,-2.041655540E0
3.398949688E0,-2.483984232E0,1.409885502E1,-1.988983035E0
3.401437448E0,-2.436100245E0,1.413716221E1,-1.993771434E0
3.403925208E0,-2.383427858E0,1.415152740E1,-1.965041041E0
3.406412969E0,-2.349909067E0,1.416110420E1,-1.921945453E0
3.408900729E0,-2.282871246E0,1.416589260E1,-1.926733851E0
3.411388490E0,-2.211045265E0,1.414195061E1,-1.965041041E0
3.413876250E0,-2.120065689E0,1.408927822E1,-1.979406238E0
3.416364010E0,-2.053027868E0,1.402224064E1,-2.008136749E0
3.418851771E0,-1.957259893E0,1.390731907E1,-2.022501945E0
3.421339531E0,-1.909375906E0,1.379239750E1,-2.022501945E0
3.423827292E0,-1.861491799E0,1.366311073E1,-2.056020737E0
3.426315052E0,-1.808819413E0,1.350988197E1,-2.099116325E0
3.428802813E0,-1.756146908E0,1.335186386E1,-2.118269920E0
3.431290573E0,-1.650802016E0,1.318905830E1,-2.132635117E0
3.433778333E0,-1.521515131E0,1.302146435E1,-2.127846718E0
3.436266094E0,-1.382651448E0,1.284429359E1,-2.056020737E0
3.438753906E0,-1.258152962E0,1.265754604E1,-1.965041041E0
3.441241719E0,-1.157596469E0,1.247558689E1,-1.883638144E0
3.443729531E0,-1.066616893E0,1.230799198E1,-1.773504853E0
3.446217344E0,-9.900023937E-1,1.215476322E1,-1.605910778E0
3.448705156E0,-9.325415492E-1,1.201111126E1,-1.419163108E0
3.451192969E0,-8.990227580E-1,1.184351730E1,-1.218050122E0
3.453680781E0,-8.655039072E-1,1.171423054E1,-1.088763237E0
3.456168594E0,-8.224082589E-1,1.154184818E1,-9.498994946E-1
3.458656406E0,-7.697358727E-1,1.135988808E1,-8.301894665E-1
3.461144219E0,-7.026981711E-1,1.117314053E1,-7.966706157E-1
3.463632031E0,-6.643909812E-1,1.101033497E1,-8.349778652E-1
3.466119844E0,-7.074866295E-1,1.087147141E1,-9.642647505E-1
3.468607656E0,-7.697358727E-1,1.076612663E1,-1.031302333E0
3.471095469E0,-8.942343593E-1,1.067514706E1,-1.026513934E0
3.473583281E0,-9.804255962E-1,1.060810947E1,-1.055244446E0
3.476071094E0,-1.066616893E0,1.050276470E1,-1.031302333E0
3.478558906E0,-1.109712481E0,1.036390018E1,-9.929951429E-1
3.481046719E0,-1.138442874E0,1.019630623E1,-9.546879530E-1
3.483534531E0,-1.148019671E0,9.995193481E0,-8.972271085E-1
3.486022344E0,-1.080982089E0,9.755773544E0,-8.062474132E-1
3.488510156E0,-1.004367590E0,9.497200012E0,-6.817489266E-1
3.490997969E0,-9.038111567E-1,9.209895134E0,-6.099228859E-1
3.493485781E0,-8.128314614E-1,8.941744804E0,-5.380968451E-1
3.495973594E0,-7.697358727E-1,8.697536469E0,-5.476736426E-1
3.498461406E0,-7.553706169E-1,8.472481728E0,-6.578069329E-1
3.500949219E0,-7.984662652E-1,8.280944824E0,-8.301894665E-1
3.503437031E0,-8.655039072E-1,8.108562469E0,-1.040879130E0
3.505924844E0,-9.708487988E-1,7.955333710E0,-1.189319730E0
3.508412656E0,-1.061828494E0,7.816470146E0,-1.189319730E0
3.510900469E0,-1.157596469E0,7.687182903E0,-1.088763237E0
3.513388281E0,-1.205480576E0,7.553107738E0,-8.684966564E-1
3.515876094E0,-1.210268974E0,7.390302181E0,-6.865373254E-1
3.518363906E0,-1.195903778E0,7.203554153E0,-6.721721292E-1
3.520851719E0,-1.157596469E0,6.997653008E0,-7.056909800E-1
3.523339531E0,-1.128866076E0,6.791751862E0,-6.913257241E-1
3.525827344E0,-1.104924083E0,6.600215435E0,-7.439981699E-1
3.528315156E0,-1.100135684E0,6.470928669E0,-8.014590144E-1
3.530802969E0,-1.143231273E0,6.336853504E0,-7.248445749E-1
3.533290781E0,-1.167173386E0,6.255450726E0,-4.519055784E-1
3.535778542E0,-1.195903778E0,6.154893875E0,-2.507926226E-1
3.538266302E0,-1.215057373E0,6.107009888E0,-1.454477459E-1
3.540754063E0,-1.248576164E0,6.054337502E0,-1.310825497E-1
3.543241823E0,-1.267729759E0,5.996876717E0,-2.268506140E-1
3.545729583E0,-1.282094955E0,5.963357925E0,-3.992331326E-1
3.548217344E0,-1.325190663E0,5.934627533E0,-5.859808922E-1
3.550705104E0,-1.368286252E0,5.934627533E0,-5.955576897E-1
3.553192865E0,-1.430535555E0,5.934627533E0,-5.428852439E-1
3.555680625E0,-1.531091928E0,5.948992729E0,-5.045779943E-1
3.558168385E0,-1.646013618E0,5.958569527E0,-4.375403523E-1
3.560656146E0,-1.770512104E0,5.934627533E0,-2.555810213E-1
3.563143906E0,-1.866280198E0,5.862801552E0,-6.404489279E-2
3.565631667E0,-1.904587507E0,5.757456303E0,3.172317147E-2
3.568119427E0,-1.875856996E0,5.609015942E0,1.179144308E-1
3.570607188E0,-1.827973008E0,5.436633587E0,2.376245260E-1
3.573094948E0,-1.775300503E0,5.273828030E0,3.333925903E-1
3.575582708E0,-1.775300503E0,5.139752388E0,3.860650361E-1
3.578070469E0,-1.794454217E0,5.029619217E0,3.956418335E-1
3.580558229E0,-1.861491799E0,4.976946831E0,3.381809890E-1
3.583045990E0,-1.971625090E0,4.943428040E0,2.328361124E-1
3.585533750E0,-2.096123695E0,4.919486046E0,7.003039867E-2
3.588021510E0,-2.172738075E0,4.909909248E0,-1.215057373E-1
3.590509271E0,-2.182314873E0,4.885967255E0,-3.465606868E-1
3.592997031E0,-2.086546898E0,4.838083267E0,-5.907692909E-1
3.595484792E0,-1.933317900E0,4.785410881E0,-7.487865686E-1
3.597972552E0,-1.741781712E0,4.699219227E0,-7.487865686E-1
3.600460313E0,-1.550245643E0,4.632181644E0,-8.589198589E-1
3.602948073E0,-1.430535555E0,4.598662853E0,-1.021725535E0
3.605435833E0,-1.353921056E0,4.574720860E0,-1.227626920E0
3.607923594E0,-1.320402265E0,4.569932461E0,-1.371279001E0
3.610411354E0,-1.320402265E0,4.584297657E0,-1.452681899E0
3.612899115E0,-1.325190663E0,4.617816448E0,-1.529296279E0
3.615386875E0,-1.325190663E0,4.641758442E0,-1.586757183E0
3.617874635E0,-1.329979062E0,4.660912037E0,-1.625064373E0
3.620362396E0,-1.358709455E0,4.675277233E0,-1.644217968E0
3.622850156E0,-1.382651448E0,4.704007626E0,-1.615487576E0
3.625337917E0,-1.397016644E0,4.737526417E0,-1.577180386E0
3.627825677E0,-1.435323954E0,4.766256809E0,-1.519719481E0
3.630313438E0,-1.430535555E0,4.785410881E0,-1.385644197E0
3.632801198E0,-1.397016644E0,4.756680012E0,-1.194108129E0
3.635288958E0,-1.320402265E0,4.737526417E0,-8.972271085E-1
3.637776719E0,-1.195903778E0,4.727949619E0,-6.003460884E-1
3.640264479E0,-1.052251697E0,4.704007626E0,-3.609259129E-1
3.642752240E0,-9.181763530E-1,4.689642429E0,-2.029085904E-1
3.645240000E0,-8.176198602E-1,4.723161221E0,-1.406593472E-1
3.647727760E0,-7.888894677E-1,4.775833607E0,-9.756372124E-2
3.650215521E0,-8.463503122E-1,4.876390457E0,-8.319851011E-2
3.652703281E0,-9.660604000E-1,4.996100426E0,-9.756372124E-2
3.655191042E0,-1.109712481E0,5.134963989E0,-2.076970041E-1
3.657678802E0,-1.267729759E0,5.273828030E0,-3.848679364E-1
3.660166563E0,-1.411381960E0,5.403114796E0,-5.716156363E-1
3.662654323E0,-1.507149935E0,5.474940777E0,-7.823054194E-1
3.665142083E0,-1.583764434E0,5.498882771E0,-9.498994946E-1
3.667629844E0,-1.669955730E0,5.479729176E0,-1.165377736E0
3.670117604E0,-1.780089021E0,5.460575581E0,-1.481412292E0
3.672605365E0,-2.005143881E0,5.446210384E0,-1.816600561E0
3.675093125E0,-2.278082848E0,5.441421986E0,-2.060809135E0
3.677580885E0,-2.555810213E0,5.446210384E0,-2.223614931E0
3.680068646E0,-2.771288395E0,5.455787182E0,-2.348113298E0
3.682556406E0,-2.871845007E0,5.417479992E0,-2.405574083E0
3.685044167E0,-2.857479811E0,5.360019207E0,-2.338536501E0
3.687531979E0,-2.713827610E0,5.297770023E0,-2.214038134E0
3.690019792E0,-2.498349428E0,5.235520363E0,-2.094327927E0
3.692507604E0,-2.258929253E0,5.187636375E0,-1.950675845E0
3.694995417E0,-2.067393064E0,5.192424774E0,-1.735197663E0
3.697483229E0,-1.928529501E0,5.264250755E0,-1.543661594E0
3.699971042E0,-1.880645394E0,5.407903194E0,-1.385644197E0
3.702458854E0,-1.904587507E0,5.642534733E0,-1.184531331E0
3.704946667E0,-2.005143881E0,5.948992729E0,-9.977835417E-1
3.707434479E0,-2.153584480E0,6.274604321E0,-7.344213724E-1
3.709922292E0,-2.306813240E0,6.581061840E0,-4.662707746E-1
3.712410104E0,-2.460042238E0,6.863577843E0,-2.076970041E-1
3.714897917E0,-2.584540844E0,7.079055786E0,1.735796221E-2
3.717385729E0,-2.627636433E0,7.232284546E0,1.993172914E-1
3.719873542E0,-2.589329243E0,7.299322605E0,4.291606545E-1
3.722361354E0,-2.507926226E0,7.308899403E0,6.877344251E-1
3.724849167E0,-2.364274263E0,7.299322605E0,9.319429994E-1
3.727336979E0,-2.268506050E0,7.265803814E0,7.260416746E-1
3.729824792E0,-2.215833664E0,7.193977356E0,6.973112226E-1
3.732312604E0,-2.225410461E0,7.102997780E0,7.260416746E-1
3.734800417E0,-2.302024841E0,7.055113792E0,5.584475398E-1
3.737288229E0,-2.450465441E0,6.997653008E0,2.759317458E-1
3.739776042E0,-2.637213230E0,6.968922615E0,-1.616086066E-2
3.742263854E0,-2.814383984E0,6.935403824E0,-3.130418658E-1
3.744751667E0,-3.010708570E0,6.901885033E0,-5.716156363E-1
3.747239479E0,-3.216609955E0,6.882731438E0,-7.439981699E-1
3.749727292E0,-3.317166567E0,6.897096634E0,-2.412158251E-1
3.752215104E0,-3.374627352E0,6.973711014E0,-1.438316703E0
3.754702917E0,-3.341108561E0,6.911461830E0,-1.739986062E0
3.757190729E0,-3.183091164E0,6.772598267E0,-1.112705231E0
3.759678542E0,-2.991554976E0,6.815693855E0,-8.684966564E-1
3.762166354E0,-2.809595585E0,6.988076210E0,-8.780734539E-1
3.764654167E0,-2.656366825E0,7.170035362E0,-7.918822169E-1
3.767141979E0,-2.527079821E0,7.361571789E0,-6.673837304E-1
3.769629792E0,-2.440888643E0,7.543530941E0,-5.045779943E-1
3.772117604E0,-2.373851061E0,7.730278969E0,-3.513490856E-1
3.774605417E0,-2.306813240E0,7.897872925E0,-1.981201917E-1
3.777093229E0,-2.258929253E0,8.036736488E0,-3.531447425E-2
3.779581042E0,-2.220622063E0,8.122927666E0,1.562216580E-1
3.782068854E0,-2.201468468E0,8.146869659E0,3.812766075E-1
3.784556667E0,-2.230198860E0,8.151658058E0,5.967547894E-1
3.787044479E0,-2.287659645E0,8.170811653E0,7.308300734E-1
3.789532292E0,-2.373851061E0,8.194753647E0,7.643488646E-1
3.792020052E0,-2.469619036E0,8.213907242E0,7.547720671E-1
3.794507813E0,-2.527079821E0,8.213907242E0,6.637924314E-1
3.796995573E0,-2.570175409E0,8.233060837E0,5.345055461E-1
3.799483333E0,-2.598906040E0,8.213907242E0,3.860650361E-1
3.801971094E0,-2.608482838E0,8.170811653E0,2.663549483E-1
3.804458854E0,-2.570175409E0,8.113350868E0,1.849520802E-1
3.806946615E0,-2.493561029E0,8.046313286E0,9.876082093E-2
3.809434375E0,-2.364274263E0,7.998429298E0,-6.584054790E-3
3.811922135E0,-2.249352455E0,7.926603317E0,-1.023521200E-1
3.814409896E0,-2.124854088E0,7.888296127E0,-1.454477459E-1
3.816897656E0,-2.014720678E0,7.869142532E0,-1.550245583E-1
3.819385417E0,-1.933317900E0,7.869142532E0,-1.310825497E-1
3.821873177E0,-1.895010591E0,7.912238121E0,-1.502361596E-1
3.824360938E0,-1.875856996E0,7.998429298E0,-2.699462473E-1
3.826848698E0,-1.890222192E0,8.103774071E0,-3.657143116E-1
3.829336458E0,-1.923741102E0,8.233060837E0,-4.231751561E-1
3.831824219E0,-1.918952703E0,8.391077995E0,-3.944447339E-1
3.834311979E0,-1.851915002E0,8.549096107E0,-3.513490856E-1
3.836799740E0,-1.660378933E0,8.673594475E0,-2.603694201E-1
3.839287500E0,-1.420958757E0,8.764574051E0,-9.756372124E-2
3.841775260E0,-1.124077678E0,8.865130424E0,7.960720360E-2
3.844263021E0,-8.607155085E-1,8.980051994E0,2.232593149E-1
3.846750781E0,-6.596025825E-1,9.128492355E0,3.190273643E-1
3.849238542E0,-5.590460896E-1,9.272144318E0,3.716998100E-1
3.851726302E0,-5.542576909E-1,9.420584679E0,4.052186310E-1
3.854214063E0,-6.691793799E-1,9.549872398E0,3.573346138E-1
3.856701823E0,-8.415619135E-1,9.669582367E0,2.328361124E-1
3.859189583E0,-1.057040095E0,9.727043152E0,6.524199992E-2
3.861677344E0,-1.267729759E0,9.750985146E0,-1.023521200E-1
3.864165104E0,-1.464054346E0,9.746196747E0,-2.268506140E-1
3.866652865E0,-1.626860023E0,9.731831551E0,-2.890998423E-1
3.869140625E0,-1.741781712E0,9.693524361E0,-3.130418658E-1
3.871628385E0,-1.813607812E0,9.650428772E0,-2.651578486E-1
3.874116146E0,-1.837549806E0,9.660005569E0,-2.172738016E-1
3.876603906E0,-1.827973008E0,9.688735962E0,-1.167173311E-1
3.879091667E0,-1.789665818E0,9.755773544E0,-1.616086066E-2
3.881579427E0,-1.746570110E0,9.837176323E0,6.045359373E-2
3.884067188E0,-1.732204914E0,9.928155899E0,1.418564469E-1
3.886554948E0,-1.722628117E0,1.002871227E1,2.184709013E-1
3.889042708E0,-1.736993313E0,1.011490345E1,2.472013235E-1
3.891530469E0,-1.746570110E0,1.017715263E1,3.477577865E-1
3.894018229E0,-1.713051319E0,1.022982502E1,4.291606545E-1
3.896505990E0,-1.655590534E0,1.022024822E1,4.483142793E-1
3.898993750E0,-1.578976035E0,1.019151783E1,4.435258508E-1
3.901481510E0,-1.459265947E0,1.012926865E1,4.195838571E-1
3.903969271E0,-1.368286252E0,1.008138466E1,4.004302323E-1
3.906457031E0,-1.301248670E0,1.002392387E1,3.669114113E-1
3.908944792E0,-1.272518158E0,9.980828285E0,3.669114113E-1
3.911432552E0,-1.291671872E0,9.971251488E0,3.333925903E-1
3.913920313E0,-1.306037068E0,9.985616684E0,2.902969420E-1
3.916408073E0,-1.349132657E0,1.001434708E1,2.663549483E-1
3.918895833E0,-1.344344258E0,1.003350067E1,2.280477136E-1
3.921383594E0,-1.282094955E0,1.003350067E1,1.753752679E-1
3.923871354E0,-1.186326981E0,1.006701946E1,1.227028370E-1
3.926359115E0,-1.071405292E0,1.010532665E1,4.129998013E-2
3.928846927E0,-9.085995555E-1,1.018672943E1,-4.967968538E-2
3.931334740E0,-7.936778665E-1,1.025855541E1,-8.798690885E-2
3.933822552E0,-7.410054207E-1,1.032559299E1,-1.167173311E-1
3.936310365E0,-7.074866295E-1,1.038784218E1,-5.925649032E-2
3.938798177E0,-7.074866295E-1,1.039741898E1,2.214636654E-2
3.941285990E0,-6.979097724E-1,1.037826538E1,1.035492271E-1
3.943773802E0,-7.122750282E-1,1.033995819E1,1.801636815E-1
3.946261615E0,-7.314286232E-1,1.029686260E1,2.519897223E-1
3.948749427E0,-7.697358727E-1,1.026813221E1,2.663549483E-1
3.951237240E0,-8.511387110E-1,1.027770901E1,2.472013235E-1
3.953725052E0,-9.373299479E-1,1.030643940E1,1.753752679E-1
3.956212865E0,-1.023521185E0,1.033038139E1,1.083376259E-1
3.958700677E0,-1.133654475E0,1.031601620E1,7.960720360E-2
3.961188490E0,-1.238999367E0,1.030165100E1,6.524199992E-2
3.963676302E0,-1.310825467E0,1.022503662E1,8.439560980E-2
3.966164115E0,-1.344344258E0,1.014363384E1,7.960720360E-2
3.968651927E0,-1.387439847E0,1.006223106E1,1.322796494E-1
3.971139740E0,-1.406593442E0,9.985616684E0,1.945288926E-1
3.973627552E0,-1.440112352E0,9.942521095E0,2.472013235E-1
3.976115365E0,-1.483207941E0,9.909002304E0,2.950853705E-1
3.978603177E0,-1.526303530E0,9.909002304E0,3.429693878E-1
3.981090990E0,-1.626860023E0,9.909002304E0,3.860650361E-1
3.983578802E0,-1.751358509E0,9.918579102E0,4.483142793E-1
3.986066615E0,-1.827973008E0,9.942521095E0,4.961982965E-1
3.988554427E0,-1.871068597E0,9.932944298E0,5.728127360E-1
3.991042240E0,-1.832761407E0,9.918579102E0,6.590040326E-1
3.993530052E0,-1.717839718E0,9.870695114E0,7.547720671E-1
3.996017865E0,-1.545457244E0,9.803657532E0,8.313865662E-1
3.998505677E0,-1.349132657E0,9.727043152E0,9.080010056E-1
4.000993490E0,-1.143231273E0,9.655217171E0,8.218097091E-1
4.003481302E0,-1.329979062E0,9.837176323E0,-7.009025216E-1
4.005969115E0,-2.943670988E0,1.092893219E1,-4.632181644E0
4.008456927E0,-6.276399612E0,1.268627644E1,-8.434173584E0
4.010944740E0,-1.044231033E1,1.397435665E1,-8.855553627E0
4.013432552E0,-1.382771206E1,1.396956825E1,-5.661688328E0
4.015920365E0,-1.489073753E1,1.234151077E1,-2.008136749E0
4.018408177E0,-1.287003136E1,9.276932716E0,3.429693878E-1
4.020895990E0,-8.637083054E0,5.867589951E0,1.463455796E0
4.023383802E0,-4.121618271E0,3.803787947E0,1.453878999E0
4.025871615E0,-5.207388401E-1,3.899555922E0,1.219247222E0
4.028359427E0,1.777694821E0,5.723937511E0,1.540070295E0
4.030847240E0,2.859874010E0,8.319252014E0,1.899200439E0
4.033335052E0,3.147178173E0,1.069908905E1,1.760336757E0
4.035822865E0,3.060986757E0,1.221222401E1,1.415571809E0
4.038310677E0,2.577358246E0,1.262881565E1,1.520916581E0
4.040798438E0,1.734599113E0,1.202547646E1,2.521692991E0
4.043286198E0,6.093243361E-1,1.089062500E1,3.263895512E0
4.045773958E0,-6.643909812E-1,9.803657532E0,2.852092743E0
4.048261719E0,-1.813607812E0,9.104550362E0,1.549647093E0
4.050749479E0,-2.522291422E0,8.841188431E0,-2.076970041E-1
4.053237240E0,-2.718616009E0,8.845976830E0,-1.538873196E0
4.055725000E0,-2.383427858E0,8.889072418E0,-1.414374709E0
4.058212760E0,-1.602918029E0,8.865130424E0,-2.029085904E-1
4.060700521E0,-5.877765417E-1,8.903437614E0,8.840589523E-1
4.063188281E0,3.651157618E-1,9.047089577E0,1.228824019E0
4.065676042E0,1.073799491E0,9.320028305E0,7.882909179E-1
4.068163802E0,1.423352957E0,9.703101158E0,-1.167173311E-1
4.070651563E0,1.437718153E0,1.002392387E1,-3.657143116E-1
4.073139323E0,1.265335560E0,1.014842224E1,4.195838571E-1
4.075627083E0,1.030703783E0,1.007180786E1,1.520916581E0
4.078114844E0,7.864952683E-1,9.904213905E0,2.320580006E0
4.080602604E0,6.093243361E-1,9.784503937E0,2.387617588E0
4.083090365E0,4.608838260E-1,9.827599525E0,1.827374458E0
4.085578125E0,3.651157618E-1,9.995193481E0,1.334168911E0
4.088065885E0,3.603273630E-1,1.016278744E1,1.214458823E0
4.090553646E0,4.560954273E-1,1.022024822E1,1.463455796E0
4.093041406E0,6.236895323E-1,1.011969185E1,1.760336757E0
4.095529167E0,7.864952683E-1,9.928155899E0,1.664568782E0
4.098016927E0,8.726865053E-1,9.794080734E0,1.257554412E0
4.100504688E0,9.014169574E-1,9.760561943E0,8.218097091E-1
4.102992448E0,8.966285586E-1,9.784503937E0,6.877344251E-1
4.105480208E0,8.774749041E-1,9.808445930E0,8.744821548E-1
4.107967969E0,8.487445116E-1,9.798869133E0,1.171363235E0
4.110455729E0,8.008604646E-1,9.765350342E0,1.353322506E0
4.112943490E0,6.715735793E-1,9.779715538E0,1.343745708E0
4.115431250E0,4.848258495E-1,9.899425507E0,1.228824019E0
4.117919010E0,2.501940727E-1,1.007180786E1,1.195305228E0
4.120406771E0,2.513911761E-2,1.022982502E1,1.267131209E0
4.122894531E0,-1.520318091E-1,1.032080460E1,1.358110905E0
4.125382292E0,-2.861070931E-1,1.033038139E1,1.415571809E0
4.127870052E0,-3.722983599E-1,1.028728580E1,1.396418095E0
4.130357813E0,-4.106055796E-1,1.021067142E1,1.358110905E0
4.132845573E0,-4.201824069E-1,1.014842224E1,1.358110905E0
4.135333333E0,-3.914519846E-1,1.008138466E1,1.401206493E0
4.137821094E0,-3.387795389E-1,9.980828285E0,1.482609391E0
4.140308854E0,-3.100491166E-1,9.885060310E0,1.554435492E0
4.142796615E0,-2.861070931E-1,9.808445930E0,1.602319479E0
4.145284375E0,-2.861070931E-1,9.798869133E0,1.631049871E0
4.147772135E0,-3.100491166E-1,9.822811127E0,1.607107878E0
4.150259896E0,-3.100491166E-1,9.841964722E0,1.573589087E0
4.152747656E0,-2.525882721E-1,9.856329918E0,1.554435492E0
4.155235417E0,-1.520318091E-1,9.861118317E0,1.564012289E0
4.157723177E0,-4.668693244E-2,9.846753120E0,1.592742682E0
4.160210938E0,7.781155407E-2,9.813234329E0,1.621473074E0
4.162698698E0,1.448491961E-1,9.779715538E0,1.602319479E0
4.165186510E0,2.023100406E-1,9.712677956E0,1.549647093E0
4.167674323E0,2.262520641E-1,9.636063576E0,1.511339784E0
4.170162135E0,2.070984542E-1,9.569025993E0,1.468244195E0
4.172649948E0,1.735796183E-1,9.506776810E0,1.362899303E0
4.175137760E0,7.781155407E-2,9.449316025E0,1.228824019E0
4.177625573E0,-3.232172132E-2,9.430161476E0,1.022922635E0
4.180113385E0,-1.568202078E-1,9.415796280E0,7.691373229E-1
4.182601198E0,-2.765302956E-1,9.425373077E0,5.871779919E-1
4.185089010E0,-3.483563364E-1,9.463681221E0,4.243722558E-1
4.187576823E0,-3.818751574E-1,9.492411613E0,2.328361124E-1
4.190064635E0,-4.920084476E-1,9.545084000E0,-8.158242106E-1
4.192552448E0,-1.382651448E0,9.899425507E0,-3.257910013E0
4.195040260E0,-3.652354717E0,1.087147141E1,-5.939415932E0
4.197528073E0,-7.329848289E0,1.234629917E1,-7.395090580E0
4.200015885E0,-1.135210705E1,1.343805599E1,-5.910685539E0
4.202503698E0,-1.386601925E1,1.341411400E1,-3.463811398E0
4.204991510E0,-1.360265732E1,1.182915211E1,-1.912368655E0
4.207479323E0,-1.038484955E1,8.850765228E0,-5.446808785E-2
4.209967135E0,-5.859808445E0,5.910685539E0,2.085948229E0
4.212454948E0,-1.578976035E0,4.498106480E0,3.848080635E0
4.214942760E0,1.552639842E0,5.077503204E0,5.207987309E0
4.217430573E0,3.305195332E0,7.026383400E0,5.682039261E0
4.219918385E0,3.903745890E0,9.454104424E0,4.427477360E0
4.222406198E0,3.860650301E0,1.150354099E1,2.378040791E0
4.224894010E0,3.515885115E0,1.261445045E1,1.319803715E0
4.227381823E0,2.993949175E0,1.266233444E1,1.750759959E0
4.229869635E0,2.170343876E0,1.183872890E1,2.919130325E0
4.232357448E0,1.030703783E0,1.058895588E1,3.503315687E0
4.234845260E0,-1.903390288E-1,9.530718803E0,2.718017578E0
4.237333073E0,-1.234210968E0,8.975263596E0,9.510966539E-1
4.239820885E0,-1.818396211E0,8.845976830E0,-5.764040351E-1
4.242308698E0,-1.832761407E0,8.960898399E0,-8.924387097E-1
4.244796510E0,-1.315613866E0,9.090185165E0,-5.925649032E-2
4.247284323E0,-4.680664241E-1,9.190741539E0,8.601169586E-1
4.249772135E0,4.177882075E-1,9.267355919E0,9.415197968E-1
4.252259948E0,1.116895080E0,9.377489090E0,4.129998013E-2
4.254747760E0,1.547851443E0,9.583391190E0,-1.127070427E0
4.257235573E0,1.729810715E0,9.789292336E0,-1.553238392E0
4.259723385E0,1.782483220E0,9.918579102E0,-1.007360339E0
4.262211198E0,1.725022316E0,9.894637108E0,-3.052607179E-2
4.264699010E0,1.533486247E0,9.755773544E0,7.691373229E-1
4.267186823E0,1.241393566E0,9.640851974E0,8.170213103E-1
4.269674635E0,8.774749041E-1,9.679159164E0,4.626794755E-1
4.272162448E0,5.279214978E-1,9.832387924E0,3.190273643E-1
4.274650260E0,2.741360962E-1,1.008138466E1,4.961982965E-1
4.277138073E0,5.386953801E-2,1.029686260E1,4.722562730E-1
4.279625885E0,-5.829881430E-1,1.065120506E1,-9.163807034E-1
4.282113698E0,-1.866280198E0,1.107737255E1,-3.052008629E0
4.284601458E0,-3.781641483E0,1.150832939E1,-4.287416458E0
4.287089219E0,-5.874173641E0,1.166634655E1,-3.870825529E0
4.289576979E0,-7.296329498E0,1.122581291E1,-1.783081770E0
4.292064740E0,-7.329848289E0,1.019151783E1,2.424129248E-1
4.294552500E0,-5.974730492E0,8.836400032E0,1.315015316E0
4.297040260E0,-3.781641483E0,7.744644165E0,1.808220863E0
4.299528021E0,-1.607706428E0,7.495646954E0,2.009333849E0
4.302015781E0,9.696517140E-2,8.103774071E0,2.435501575E0
4.304503542E0,1.193509579E0,9.305663109E0,2.962226152E0
4.306991302E0,1.744175911E0,1.062726307E1,3.038840532E0
4.309479063E0,1.906981707E0,1.160888577E1,2.694075346E0
4.311966823E0,1.796848416E0,1.206857204E1,2.311003208E0
4.314454583E0,1.476025343E0,1.189140129E1,2.220023632E0
4.316942344E0,9.684545994E-1,1.128806210E1,2.272696018E0
4.319430104E0,3.268085420E-1,1.053149509E1,2.095525026E0
4.321917865E0,-3.292027414E-1,9.875483513E0,1.449090600E0
4.324405625E0,-8.942343593E-1,9.439739227E0,3.429693878E-1
4.326893385E0,-1.373074651E0,9.281721115E0,-8.972271085E-1
4.329381146E0,-1.923741102E0,9.391854286E0,-1.792658567E0
4.331868906E0,-2.675520420E0,9.770138741E0,-2.439092875E0
4.334356667E0,-3.585317135E0,1.028728580E1,-2.913144827E0
4.336844427E0,-4.274847031E0,1.059374428E1,-2.779069662E0
4.339332188E0,-4.260481834E0,1.047882271E1,-2.223614931E0
4.341819948E0,-3.388992548E0,9.913790703E0,-1.548449993E0
4.344307708E0,-1.938106298E0,9.190741539E0,-6.242880821E-1
4.346795469E0,-3.100491166E-1,8.683171272E0,3.956418335E-1
4.349283229E0,1.083376288E0,8.687959671E0,1.286284804E0
4.351770990E0,2.064998865E0,9.157222748E0,1.822586060E0
4.354258750E0,2.567781210E0,9.937732697E0,1.927930951E0
4.356746510E0,2.663549423E0,1.072781944E1,1.635838270E0
4.359234271E0,2.491166830E0,1.123060131E1,1.372476101E0
4.361722031E0,1.988384485E0,1.137425327E1,1.204882026E0
4.364209792E0,1.045069098E0,1.129763889E1,7.787141204E-1
4.366697552E0,-3.148375154E-1,1.113004494E1,-1.137245819E-2
4.369185313E0,-1.813607812E0,1.092414379E1,-9.738415480E-1
4.371673073E0,-3.029862165E0,1.057937908E1,-1.404797792E0
4.374160833E0,-3.609259129E0,1.006701946E1,-1.050456047E0
4.376648594E0,-3.388992548E0,9.468469620E0,-3.752911091E-1
4.379136354E0,-2.522291422E0,8.951321602E0,2.663549483E-1
4.381624115E0,-1.363497853E0,8.726266861E0,6.254851818E-1
4.384111875E0,-2.525882721E-1,8.855553627E0,8.265981078E-1
4.386599635E0,5.949591398E-1,9.286509514E0,9.606734514E-1
4.389087396E0,1.088164687E0,9.880271912E0,9.654618502E-1
4.391575156E0,1.145625472E0,1.046445751E1,7.882909179E-1
4.394062917E0,7.817068696E-1,1.096245098E1,3.860650361E-1
4.396550677E0,7.781155407E-2,1.120665932E1,-2.094926499E-2
4.399038438E0,-7.649474144E-1,1.107258415E1,7.781155407E-3
4.401526198E0,-1.487996340E0,1.059853268E1,3.381809890E-1
4.404014010E0,-1.962048292E0,9.937732697E0,6.350619793E-1
4.406501823E0,-2.096123695E0,9.286509514E0,7.978677154E-1
4.408989635E0,-1.890222192E0,8.836400032E0,7.978677154E-1
4.411477448E0,-1.444900751E0,8.731055260E0,6.781576276E-1
4.413965260E0,-9.756371975E-1,8.936956406E0,5.009866953E-1
4.416453073E0,-6.021417379E-1,9.353547096E0,2.280477136E-1
4.418940885E0,-3.627215624E-1,9.832387924E0,-4.489128292E-2
4.421428698E0,-3.244143426E-1,1.022982502E1,-2.316390127E-1
4.423916510E0,-4.297592044E-1,1.039741898E1,-2.268506140E-1
4.426404323E0,-6.165069342E-1,1.032559299E1,-3.052607179E-2
4.428892135E0,-8.176198602E-1,1.003350067E1,2.088941038E-1
4.431379948E0,-1.013944387E0,9.660005569E0,3.525462151E-1
4.433867760E0,-1.143231273E0,9.382277489E0,3.429693878E-1
4.436355573E0,-1.215057373E0,9.233837128E0,1.849520802E-1
4.438843385E0,-1.248576164E0,9.195529938E0,5.566519126E-2
4.441331198E0,-1.157596469E0,9.238625526E0,5.566519126E-2
4.443819010E0,-1.009155989E0,9.334393501E0,8.439560980E-2
4.446306823E0,-8.032546639E-1,9.420584679E0,1.131260321E-1
4.448794635E0,-6.260837317E-1,9.487623215E0,1.849520802E-1
4.451282448E0,-4.680664241E-1,9.530718803E0,2.855085433E-1
4.453770260E0,-3.914519846E-1,9.559449196E0,3.477577865E-1
4.456258073E0,-4.106055796E-1,9.592967987E0,3.525462151E-1
4.458745885E0,-5.111620426E-1,9.645640373E0,3.621230125E-1
4.461233698E0,-6.691793799E-1,9.707889557E0,3.381809890E-1
4.463721510E0,-8.511387110E-1,9.736619949E0,2.615665495E-1
4.466209323E0,-1.052251697E0,9.736619949E0,1.849520802E-1
4.468697135E0,-1.224634171E0,9.712677956E0,1.179144308E-1
4.471184948E0,-1.382651448E0,9.679159164E0,6.045359373E-2
4.473672760E0,-1.507149935E0,9.626486778E0,-1.795651275E-3
4.476160573E0,-1.602918029E0,9.602544785E0,-7.362170517E-2
4.478648385E0,-1.684320927E0,9.564237595E0,-1.262941360E-1
4.481136198E0,-1.746570110E0,9.535507202E0,-1.646013707E-1
4.483624010E0,-1.856703401E0,9.525930405E0,-2.412158251E-1
4.486111823E0,-1.985990286E0,9.540295601E0,-3.513490856E-1
4.488599635E0,-2.096123695E0,9.545084000E0,-4.135983288E-1
4.491087448E0,-2.187103271E0,9.573814392E0,-3.752911091E-1
4.493575260E0,-2.244564056E0,9.645640373E0,-4.040215313E-1
4.496063073E0,-2.249352455E0,9.712677956E0,-4.040215313E-1
4.498550885E0,-2.239775658E0,9.774927139E0,-3.321954906E-1
4.501038698E0,-2.220622063E0,9.841964722E0,-2.124854028E-1
4.503526510E0,-2.225410461E0,9.928155899E0,-1.119289324E-1
4.506014323E0,-2.225410461E0,9.995193481E0,-3.052607179E-2
4.508502135E0,-2.239775658E0,1.001434708E1,4.129998013E-2
4.510989948E0,-2.206256866E0,1.002392387E1,1.562216580E-1
4.513477760E0,-2.167949677E0,1.003350067E1,2.424129248E-1
4.515965573E0,-2.124854088E0,1.002392387E1,3.190273643E-1
4.518453385E0,-2.096123695E0,9.995193481E0,3.621230125E-1
4.520941198E0,-2.076969862E0,9.971251488E0,3.716998100E-1
4.523429010E0,-2.100912094E0,9.923367500E0,3.333925903E-1
4.525916823E0,-2.163161278E0,9.856329918E0,2.615665495E-1
4.528404635E0,-2.239775658E0,9.765350342E0,1.418564469E-1
4.530892448E0,-2.330755472E0,9.669582367E0,4.129998013E-2
4.533380208E0,-2.436100245E0,9.540295601E0,-1.616086066E-2
4.535867969E0,-2.531868219E0,9.430161476E0,-1.119289324E-1
4.538355729E0,-2.603694439E0,9.334393501E0,-2.890998423E-1
4.540843490E0,-2.685097218E0,9.229048729E0,-4.423287511E-1
4.543331250E0,-2.723404408E0,9.142857552E0,-5.764040351E-1
4.545819010E0,-2.742558002E0,9.042301178E0,-6.625953317E-1
4.548306771E0,-2.756923199E0,8.941744804E0,-7.152677774E-1
4.550794531E0,-2.766499996E0,8.850765228E0,-7.583633661E-1
4.553282292E0,-2.790441990E0,8.754997253E0,-8.062474132E-1
4.555770052E0,-2.823961020E0,8.673594475E0,-8.589198589E-1
4.558257813E0,-2.857479811E0,8.611345291E0,-8.972271085E-1
4.560745573E0,-2.900575399E0,8.573038101E0,-9.163807034E-1
4.563233333E0,-2.934094191E0,8.529942513E0,-9.451110959E-1
4.565721094E0,-2.967612982E0,8.510788918E0,-9.690531492E-1
4.568208854E0,-2.986766577E0,8.482058525E0,-9.786299467E-1
4.570696615E0,-2.996343374E0,8.443750381E0,-9.498994946E-1
4.573184375E0,-2.996343374E0,8.419808388E0,-9.163807034E-1
4.575672135E0,-3.010708570E0,8.376712799E0,-8.876502514E-1
4.578159896E0,-2.986766577E0,8.347982407E0,-8.637082577E-1
4.580647656E0,-2.972401381E0,8.304886818E0,-8.301894665E-1
4.583135417E0,-2.938882589E0,8.237849236E0,-8.254010081E-1
4.585623177E0,-2.886210203E0,8.180388451E0,-8.397662640E-1
4.588110938E0,-2.838326216E0,8.108562469E0,-8.684966564E-1
4.590598698E0,-2.771288395E0,8.031948090E0,-9.259575009E-1
4.593086458E0,-2.680308819E0,7.964910507E0,-9.882067442E-1
4.595574219E0,-2.627636433E0,7.873930931E0,-1.040879130E0
4.598061979E0,-2.570175409E0,7.782951355E0,-1.088763237E0
4.600549740E0,-2.531868219E0,7.682394505E0,-1.179742932E0
4.603037500E0,-2.512714624E0,7.567472935E0,-1.318606615E0
4.605525260E0,-2.512714624E0,7.486070156E0,-1.462258697E0
4.608013021E0,-2.522291422E0,7.409455776E0,-1.615487576E0
4.610500781E0,-2.584540844E0,7.347206593E0,-1.739986062E0
4.612988542E0,-2.670732021E0,7.289745808E0,-1.888426542E0
4.615476302E0,-2.766499996E0,7.256227016E0,-2.089539528E0
4.617964063E0,-2.914940596E0,7.256227016E0,-2.290652514E0
4.620451823E0,-3.077746391E0,7.280169010E0,-2.434304476E0
4.622939583E0,-3.235763550E0,7.313687801E0,-2.472611904E0
4.625427344E0,-3.355473757E0,7.356783390E0,-2.439092875E0
4.627915104E0,-3.384204149E0,7.414244175E0,-2.333748102E0
4.630402865E0,-3.374627352E0,7.457339764E0,-2.147000313E0
4.632890625E0,-3.288435936E0,7.533954144E0,-1.883638144E0
4.635378385E0,-3.096899986E0,7.605780125E0,-1.596333981E0
4.637866146E0,-2.843114614E0,7.687182903E0,-1.313818216E0
4.640353906E0,-2.527079821E0,7.787739754E0,-1.036090732E0
4.642841667E0,-2.196680069E0,7.907449722E0,-7.344213724E-1
4.645329479E0,-1.909375906E0,8.031948090E0,-4.614823759E-1
4.647817292E0,-1.708262920E0,8.194753647E0,-2.555810213E-1
4.650305104E0,-1.602918029E0,8.386289597E0,-1.310825497E-1
4.652792917E0,-1.550245643E0,8.582614899E0,-1.262941360E-1
4.655280729E0,-1.598129630E0,8.731055260E0,-2.029085904E-1
4.657768542E0,-1.693897724E0,8.869918823E0,-3.705027103E-1
4.660256354E0,-1.813607812E0,8.975263596E0,-6.099228859E-1
4.662744167E0,-1.928529501E0,8.999205589E0,-8.828618526E-1
4.665231979E0,-2.033874273E0,8.951321602E0,-1.151012421E0
4.667719792E0,-2.124854088E0,8.850765228E0,-1.309029818E0
4.670207604E0,-2.177526474E0,8.678382874E0,-1.380855799E0
4.672695417E0,-2.191891670E0,8.477270126E0,-1.404797792E0
4.675183229E0,-2.215833664E0,8.223484039E0,-1.380855799E0
4.677671042E0,-2.215833664E0,7.950545311E0,-1.332971811E0
4.680158854E0,-2.196680069E0,7.644087315E0,-1.328183413E0
4.682646667E0,-2.144007683E0,7.342418194E0,-1.347337008E0
4.685134479E0,-2.105700493E0,7.074267387E0,-1.414374709E0
4.687622292E0,-2.053027868E0,6.849212646E0,-1.510142684E0
4.690110104E0,-2.000355482E0,6.652887821E0,-1.596333981E0
4.692597917E0,-1.957259893E0,6.466140270E0,-1.653794765E0
4.695085729E0,-1.947683096E0,6.312911510E0,-1.653794765E0
4.697573542E0,-1.990778685E0,6.174047470E0,-1.625064373E0
4.700061354E0,-2.072181463E0,6.030395508E0,-1.620275974E0
4.702549167E0,-2.215833664E0,5.920262337E0,-1.634641171E0
4.705036979E0,-2.393004656E0,5.824494362E0,-1.663371682E0
4.707524792E0,-2.589329243E0,5.762245178E0,-1.644217968E0
4.710012604E0,-2.780865192E0,5.733514309E0,-1.591545582E0
4.712500417E0,-2.958036184E0,5.728725910E0,-1.457470298E0
4.714988229E0,-3.072957993E0,5.743091106E0,-1.299453020E0
4.717476042E0,-3.101688385E0,5.767033577E0,-1.079186440E0
4.719963854E0,-3.063380957E0,5.814917564E0,-7.918822169E-1
4.722451667E0,-2.938882589E0,5.853224754E0,-4.566939771E-1
4.724939479E0,-2.756923199E0,5.910685539E0,-1.454477459E-1
4.727427292E0,-2.574964046E0,5.987299919E0,8.439560980E-2
4.729915104E0,-2.393004656E0,6.097433090E0,2.280477136E-1
4.732402917E0,-2.225410461E0,6.231508255E0,2.807201445E-1
4.734890729E0,-2.100912094E0,6.403891087E0,3.094505668E-1
4.737378542E0,-2.009932280E0,6.576273441E0,2.807201445E-1
4.739866354E0,-1.957259893E0,6.777386665E0,2.232593149E-1
4.742354167E0,-1.928529501E0,6.954557419E0,1.657984704E-1
4.744841979E0,-1.866280198E0,7.112574577E0,5.087678507E-2
4.747329792E0,-1.799242616E0,7.237073421E0,-8.319851011E-2
4.749817604E0,-1.713051319E0,7.304111004E0,-2.220622003E-1
4.752305417E0,-1.598129630E0,7.318476200E0,-3.705027103E-1
4.754793229E0,-1.478419542E0,7.294534206E0,-5.045779943E-1
4.757281042E0,-1.392228246E0,7.227496147E0,-6.769605279E-1
4.759768854E0,-1.286883354E0,7.170035362E0,-9.355342984E-1
4.762256667E0,-1.167173386E0,7.107786179E0,-1.270722508E0
4.764744479E0,-1.009155989E0,7.079055786E0,-1.634641171E0
4.767232292E0,-8.511387110E-1,7.093420982E0,-1.902791858E0
4.769720104E0,-6.691793799E-1,7.112574577E0,-2.051232338E0
4.772207917E0,-5.159504414E-1,7.184400558E0,-2.089539528E0
4.774695729E0,-4.441244006E-1,7.284957409E0,-2.113481522E0
4.777183542E0,-4.537012279E-1,7.399878979E0,-2.151788712E0
4.779671302E0,-5.542576909E-1,7.510012150E0,-2.247556925E0
4.782159063E0,-6.835445762E-1,7.615356922E0,-2.352901697E0
4.784646823E0,-8.367735147E-1,7.701548100E0,-2.376843691E0
4.787134583E0,-9.612720013E-1,7.768586159E0,-2.376843691E0
4.789622344E0,-1.047463298E0,7.840412140E0,-2.252345324E0
4.792110104E0,-1.085770488E0,7.912238121E0,-2.056020737E0
4.794597865E0,-1.124077678E0,8.046313286E0,-1.754351258E0
4.797085625E0,-1.148019671E0,8.218695641E0,-1.366490602E0
4.799573385E0,-1.210268974E0,8.434173584E0,-9.882067442E-1
4.802061146E0,-1.272518158E0,8.678382874E0,-6.003460884E-1
4.804548906E0,-1.358709455E0,8.941744804E0,-2.651578486E-1
4.807036667E0,-1.459265947E0,9.224260330E0,-4.489128292E-2
4.809524427E0,-1.540668845E0,9.487623215E0,7.960720360E-2
4.812012188E0,-1.602918029E0,9.660005569E0,1.514332592E-1
4.814499948E0,-1.626860023E0,9.794080734E0,1.753752679E-1
4.816987708E0,-1.626860023E0,9.889848709E0,1.897404790E-1
4.819475469E0,-1.646013618E0,9.894637108E0,2.088941038E-1
4.821963229E0,-1.665167332E0,9.851541519E0,2.280477136E-1
4.824450990E0,-1.698686123E0,9.765350342E0,2.424129248E-1
4.826938750E0,-1.775300503E0,9.621698380E0,2.088941038E-1
4.829426510E0,-1.832761407E0,9.415796280E0,9.876082093E-2
4.831914271E0,-1.895010591E0,9.190741539E0,-9.277531505E-2
4.834402031E0,-1.938106298E0,8.917802811E0,-3.513490856E-1
4.836889792E0,-1.957259893E0,8.659229279E0,-6.338648796E-1
4.839377552E0,-1.928529501E0,8.381501198E0,-8.972271085E-1
4.841865313E0,-1.866280198E0,8.113350868E0,-1.146224022E0
4.844353073E0,-1.799242616E0,7.869142532E0,-1.337760210E0
4.846840833E0,-1.722628117E0,7.663240910E0,-1.452681899E0
4.849328594E0,-1.631648421E0,7.500435352E0,-1.486200690E0
4.851816354E0,-1.569399238E0,7.366360188E0,-1.447893500E0
4.854304115E0,-1.550245643E0,7.265803814E0,-1.395220995E0
4.856791875E0,-1.578976035E0,7.213130951E0,-1.356913805E0
4.859279635E0,-1.612494826E0,7.213130951E0,-1.270722508E0
4.861767396E0,-1.674744129E0,7.280169010E0,-1.232415318E0
4.864255156E0,-1.717839718E0,7.380725384E0,-1.160589218E0
4.866742917E0,-1.732204914E0,7.543530941E0,-1.122282028E0
4.869230677E0,-1.732204914E0,7.778162956E0,-1.074398041E0
4.871718438E0,-1.693897724E0,8.084620476E0,-9.738415480E-1
4.874206198E0,-1.626860023E0,8.453327179E0,-8.445546627E-1
4.876693958E0,-1.578976035E0,8.874707222E0,-6.578069329E-1
4.879181719E0,-1.526303530E0,9.320028305E0,-4.806360006E-1
4.881669479E0,-1.473631144E0,9.784503937E0,-3.657143116E-1
4.884157240E0,-1.464054346E0,1.025376701E1,-2.986766696E-1
4.886645000E0,-1.416170359E0,1.067514706E1,-2.938882709E-1
4.889132813E0,-1.349132657E0,1.106779575E1,-2.986766696E-1
4.891620625E0,-1.229422569E0,1.139340687E1,-2.603694201E-1
4.894108438E0,-1.085770488E0,1.166634655E1,-1.837549806E-1
4.896596250E0,-9.133879542E-1,1.186267090E1,-9.277531505E-2
4.899084063E0,-7.362170219E-1,1.198716927E1,-4.010287672E-2
4.901571875E0,-5.973533392E-1,1.204941845E1,-5.925649032E-2
4.904059688E0,-5.063736439E-1,1.203984165E1,-1.981201917E-1
4.906547500E0,-4.680664241E-1,1.195365047E1,-4.183867574E-1
4.909035313E0,-4.872200489E-1,1.179084492E1,-6.721721292E-1
4.911523125E0,-5.446808934E-1,1.158494377E1,-9.307458997E-1
4.914010938E0,-6.452373862E-1,1.133115768E1,-1.184531331E0
4.916498750E0,-7.697358727E-1,1.104385376E1,-1.395220995E0
4.918986563E0,-9.038111567E-1,1.070387745E1,-1.605910778E0
4.921474375E0,-1.023521185E0,1.035432339E1,-1.845330954E0
4.923962188E0,-1.133654475E0,1.001913548E1,-2.032078743E0
4.926450000E0,-1.195903778E0,9.664793968E0,-2.175730705E0
4.928937813E0,-1.205480576E0,9.353547096E0,-2.233191729E0
4.931425625E0,-1.210268974E0,9.080608368E0,-2.242768526E0
4.933913438E0,-1.205480576E0,8.841188431E0,-2.223614931E0
4.936401250E0,-1.248576164E0,8.673594475E0,-2.161365509E0
4.938889063E0,-1.339555860E0,8.534730911E0,-2.084751129E0
4.941376875E0,-1.459265947E0,8.405443192E0,-1.988983035E0
4.943864688E0,-1.583764434E0,8.304886818E0,-1.917157054E0
4.946352500E0,-1.727416515E0,8.252214432E0,-1.854907751E0
4.948840313E0,-1.861491799E0,8.233060837E0,-1.840542555E0
4.951328125E0,-1.923741102E0,8.242637634E0,-1.773504853E0
4.953815938E0,-1.962048292E0,8.276156425E0,-1.586757183E0
4.956303750E0,-1.909375906E0,8.386289597E0,-1.323395014E0
4.958791563E0,-1.813607812E0,8.539519310E0,-1.012148738E0
4.961279375E0,-1.698686123E0,8.764574051E0,-7.200561762E-1
4.963767188E0,-1.602918029E0,9.023147583E0,-4.566939771E-1
4.966255000E0,-1.550245643E0,9.320028305E0,-2.795230448E-1
4.968742813E0,-1.540668845E0,9.583391190E0,-1.502361596E-1
4.971230625E0,-1.535880446E0,9.865906715E0,-8.319851011E-2
4.973718438E0,-1.569399238E0,1.015799904E1,-6.883329898E-2
4.976206250E0,-1.602918029E0,1.041657257E1,-9.756372124E-2
4.978694063E0,-1.636436820E0,1.065599346E1,-1.215057373E-1
4.981181875E0,-1.650802016E0,1.085710621E1,-1.598129570E-1
4.983669688E0,-1.665167332E0,1.102948856E1,-2.076970041E-1
4.986157500E0,-1.646013618E0,1.114919853E1,-3.178302646E-1
4.988645313E0,-1.612494826E0,1.120665932E1,-4.758476019E-1
4.991133125E0,-1.550245643E0,1.119229412E1,-6.434416771E-1
4.993620938E0,-1.473631144E0,1.113004494E1,-7.727286220E-1
4.996108750E0,-1.363497853E0,1.100554657E1,-8.589198589E-1
4.998596563E0,-1.267729759E0,1.083316422E1,-9.834183455E-1
5.001084375E0,-1.152808070E0,1.064641666E1,-1.151012421E0
5.003572188E0,-1.037886381E0,1.044051552E1,-1.318606615E0
5.006060000E0,-9.038111567E-1,1.024897861E1,-1.505354285E0
5.008547813E0,-7.649474144E-1,1.006701946E1,-1.677736878E0
5.011035625E0,-6.117185354E-1,9.932944298E0,-1.830965757E0
5.013523438E0,-4.824316502E-1,9.798869133E0,-1.936310649E0
5.016011250E0,-4.249708056E-1,9.688735962E0,-2.027290344E0
5.018499063E0,-4.584896266E-1,9.621698380E0,-2.084751129E0
5.020986875E0,-5.925649405E-1,9.540295601E0,-2.151788712E0
5.023474688E0,-8.271966577E-1,9.501988411E0,-2.218826532E0
5.025962448E0,-1.080982089E0,9.482834816E0,-2.285864115E0
5.028450208E0,-1.339555860E0,9.506776810E0,-2.309806108E0
5.030937969E0,-1.535880446E0,9.549872398E0,-2.281075716E0
5.033425729E0,-1.650802016E0,9.640851974E0,-2.142211914E0
5.035913490E0,-1.732204914E0,9.770138741E0,-1.917157054E0
5.038401250E0,-1.794454217E0,9.942521095E0,-1.625064373E0
5.040889010E0,-1.861491799E0,1.014842224E1,-1.285087705E0
5.043376771E0,-1.952471495E0,1.038784218E1,-9.355342984E-1
5.045864531E0,-2.072181463E0,1.063205147E1,-6.434416771E-1
5.048352292E0,-2.225410461E0,1.090499020E1,-4.088099301E-1
5.050840052E0,-2.440888643E0,1.117792892E1,-2.220622003E-1
5.053327813E0,-2.642001629E0,1.144608021E1,-6.883329898E-2
5.055815573E0,-2.795230389E0,1.172380733E1,5.566519126E-2
5.058303333E0,-2.914940596E0,1.193928528E1,1.514332592E-1
5.060791094E0,-2.991554976E0,1.212124443E1,1.753752679E-1
5.063278854E0,-3.034650564E0,1.224095440E1,1.849520802E-1
5.065766615E0,-3.049015760E0,1.228883839E1,1.993172914E-1
5.068254375E0,-3.029862165E0,1.228883839E1,2.232593149E-1
5.070742135E0,-2.991554976E0,1.218828201E1,1.849520802E-1
5.073229896E0,-2.934094191E0,1.203505325E1,5.087678507E-2
5.075717656E0,-2.871845007E0,1.183872890E1,-1.262941360E-1
5.078205417E0,-2.804807186E0,1.161367416E1,-3.130418658E-1
5.080693177E0,-2.699462414E0,1.136467648E1,-4.806360006E-1
5.083180938E0,-2.560598612E0,1.109173775E1,-6.242880821E-1
5.085668698E0,-2.431311846E0,1.083795261E1,-7.631517649E-1
5.088156458E0,-2.273294449E0,1.056980228E1,-9.211691022E-1
5.090644219E0,-2.177526474E0,1.030643940E1,-1.107916832E0
5.093131979E0,-2.105700493E0,1.009574986E1,-1.275510907E0
5.095619740E0,-2.048239470E0,9.894637108E0,-1.476623893E0
5.098107500E0,-2.005143881E0,9.746196747E0,-1.682525277E0
5.100595260E0,-1.995567083E0,9.645640373E0,-1.926733851E0
5.103083021E0,-1.971625090E0,9.583391190E0,-2.194884300E0
5.105570781E0,-1.909375906E0,9.569025993E0,-2.367266893E0
5.108058542E0,-1.804031014E0,9.602544785E0,-2.386420488E0
5.110546302E0,-1.717839718E0,9.679159164E0,-2.261922121E0
5.113034063E0,-1.674744129E0,9.765350342E0,-2.123058319E0
5.115521823E0,-1.727416515E0,9.894637108E0,-2.036867142E0
5.118009583E0,-1.914164305E0,1.005265427E1,-2.036867142E0
5.120497344E0,-2.172738075E0,1.026813221E1,-2.032078743E0
