"Time (s)","Acceleration x (m/s^2)","Acceleration y (m/s^2)","Acceleration z (m/s^2)"
4.592265700E-2,-1.938106298E0,-9.258976936E0,1.956661344E0
4.841843800E-2,-1.933317900E0,-9.278130531E0,1.961449742E0
5.091421900E-2,-1.947683096E0,-9.268553734E0,1.942296147E0
5.341000100E-2,-1.957259893E0,-9.273342133E0,1.923142552E0
5.590578200E-2,-1.962048292E0,-9.258976936E0,1.937507749E0
5.840156300E-2,-1.962048292E0,-9.258976936E0,1.923142552E0
6.089734400E-2,-1.962048292E0,-9.263765335E0,1.918354154E0
6.339312600E-2,-1.942894697E0,-9.278130531E0,1.932719350E0
6.588890700E-2,-1.928529501E0,-9.273342133E0,1.951872945E0
6.838468800E-2,-1.909375906E0,-9.287707329E0,1.956661344E0
7.088046900E-2,-1.904587507E0,-9.302072525E0,1.956661344E0
7.337625100E-2,-1.909375906E0,-9.292495728E0,1.961449742E0
7.587208400E-2,-1.895010591E0,-9.297284126E0,1.947084546E0
7.836796900E-2,-1.904587507E0,-9.311649323E0,1.932719350E0
8.086390700E-2,-1.880645394E0,-9.297284126E0,1.923142552E0
8.335989600E-2,-1.895010591E0,-9.292495728E0,1.932719350E0
8.585593800E-2,-1.909375906E0,-9.282918930E0,1.942296147E0
8.835198000E-2,-1.895010591E0,-9.263765335E0,1.942296147E0
9.084802100E-2,-1.909375906E0,-9.263765335E0,1.951872945E0
9.334406300E-2,-1.918952703E0,-9.258976936E0,1.923142552E0
9.584010500E-2,-1.952471495E0,-9.244611740E0,1.899200439E0
9.833614600E-2,-1.966836691E0,-9.249400139E0,1.880046844E0
1.008321880E-1,-1.976413488E0,-9.244611740E0,1.836951256E0
1.033282300E-1,-1.976413488E0,-9.249400139E0,1.817797661E0
1.058242710E-1,-1.962048292E0,-9.249400139E0,1.798644066E0
1.083199490E-1,-1.942894697E0,-9.244611740E0,1.793855667E0
1.108155740E-1,-1.923741102E0,-9.249400139E0,1.798644066E0
1.133111990E-1,-1.895010591E0,-9.239823341E0,1.817797661E0
1.158070320E-1,-1.866280198E0,-9.258976936E0,1.841739655E0
1.183028650E-1,-1.837549806E0,-9.258976936E0,1.884835243E0
1.207528650E-1,-1.794454217E0,-9.273342133E0,1.918354154E0
1.232056780E-1,-1.741781712E0,-9.287707329E0,1.923142552E0
1.256584900E-1,-1.713051319E0,-9.297284126E0,1.951872945E0
1.281184380E-1,-1.650802016E0,-9.311649323E0,1.985391736E0
1.305867190E-1,-1.626860023E0,-9.311649323E0,1.999756932E0
1.330641150E-1,-1.602918029E0,-9.330802917E0,2.014122248E0
1.355509900E-1,-1.598129630E0,-9.326014519E0,2.014122248E0
1.380470320E-1,-1.598129630E0,-9.326014519E0,2.014122248E0
1.405515630E-1,-1.588552833E0,-9.335591316E0,1.990180135E0
1.430635420E-1,-1.583764434E0,-9.311649323E0,1.966238141E0
1.455817190E-1,-1.569399238E0,-9.306860924E0,1.956661344E0
1.481046360E-1,-1.602918029E0,-9.306860924E0,1.961449742E0
1.506306780E-1,-1.598129630E0,-9.306860924E0,1.961449742E0
1.531582300E-1,-1.612494826E0,-9.287707329E0,1.961449742E0
1.556823440E-1,-1.626860023E0,-9.287707329E0,1.951872945E0
1.581701050E-1,-1.626860023E0,-9.268553734E0,1.971026540E0
1.606578650E-1,-1.650802016E0,-9.263765335E0,1.971026540E0
1.631456260E-1,-1.674744129E0,-9.249400139E0,1.985391736E0
1.656333860E-1,-1.703474522E0,-9.239823341E0,1.966238141E0
1.681211460E-1,-1.736993313E0,-9.239823341E0,1.932719350E0
1.706089070E-1,-1.765723705E0,-9.244611740E0,1.918354154E0
1.730966670E-1,-1.784877419E0,-9.249400139E0,1.875258446E0
1.755844280E-1,-1.832761407E0,-9.249400139E0,1.856104851E0
1.780721880E-1,-1.856703401E0,-9.249400139E0,1.832162857E0
1.805599490E-1,-1.904587507E0,-9.235034943E0,1.856104851E0
1.830477090E-1,-1.933317900E0,-9.249400139E0,1.832162857E0
1.855354690E-1,-1.957259893E0,-9.249400139E0,1.836951256E0
1.880232300E-1,-1.971625090E0,-9.239823341E0,1.875258446E0
1.905109900E-1,-1.976413488E0,-9.239823341E0,1.894412041E0
1.929987510E-1,-2.000355482E0,-9.254188538E0,1.899200439E0
1.954865110E-1,-2.000355482E0,-9.268553734E0,1.956661344E0
1.979742710E-1,-1.990778685E0,-9.273342133E0,1.999756932E0
2.004620320E-1,-1.981201887E0,-9.282918930E0,2.033275843E0
2.029497920E-1,-1.947683096E0,-9.297284126E0,2.057217836E0
2.054375530E-1,-1.928529501E0,-9.316437721E0,2.033275843E0
2.079253130E-1,-1.914164305E0,-9.340379715E0,2.085948229E0
2.104130740E-1,-1.904587507E0,-9.335591316E0,2.042852640E0
2.129008340E-1,-1.861491799E0,-9.330802917E0,2.071583033E0
2.153885940E-1,-1.823184609E0,-9.340379715E0,2.023699045E0
2.178763550E-1,-1.794454217E0,-9.354744911E0,2.090736628E0
2.203641150E-1,-1.780089021E0,-9.345168114E0,2.009333849E0
2.228518760E-1,-1.756146908E0,-9.364321709E0,2.081159830E0
2.253396360E-1,-1.741781712E0,-9.345168114E0,1.990180135E0
2.278273960E-1,-1.717839718E0,-9.335591316E0,2.052429438E0
2.303151570E-1,-1.713051319E0,-9.311649323E0,1.956661344E0
2.328029170E-1,-1.698686123E0,-9.330802917E0,2.038064241E0
2.352906780E-1,-1.703474522E0,-9.316437721E0,1.903988957E0
2.377784380E-1,-1.698686123E0,-9.330802917E0,1.999756932E0
2.402661990E-1,-1.703474522E0,-9.316437721E0,1.884835243E0
2.427539590E-1,-1.713051319E0,-9.321226120E0,2.014122248E0
2.452417190E-1,-1.722628117E0,-9.311649323E0,1.865681648E0
2.477294800E-1,-1.756146908E0,-9.345168114E0,1.980603337E0
2.502172400E-1,-1.770512104E0,-9.326014519E0,1.856104851E0
2.527050010E-1,-1.808819413E0,-9.326014519E0,1.975814939E0
2.551927610E-1,-1.823184609E0,-9.316437721E0,1.851316452E0
2.576805210E-1,-1.861491799E0,-9.316437721E0,1.961449742E0
2.601682820E-1,-1.875856996E0,-9.311649323E0,1.836951256E0
2.626560420E-1,-1.885433793E0,-9.311649323E0,1.942296147E0
2.651438030E-1,-1.904587507E0,-9.297284126E0,1.832162857E0
2.676315630E-1,-1.899798989E0,-9.306860924E0,1.923142552E0
2.701193240E-1,-1.904587507E0,-9.297284126E0,1.827374458E0
2.726070840E-1,-1.904587507E0,-9.297284126E0,1.932719350E0
2.750948440E-1,-1.880645394E0,-9.297284126E0,1.846528053E0
2.775826050E-1,-1.880645394E0,-9.306860924E0,1.918354154E0
2.800703650E-1,-1.871068597E0,-9.311649323E0,1.817797661E0
2.825581260E-1,-1.871068597E0,-9.330802917E0,1.865681648E0
2.850458860E-1,-1.861491799E0,-9.345168114E0,1.789067268E0
2.875336460E-1,-1.875856996E0,-9.354744911E0,1.822586060E0
2.900214070E-1,-1.861491799E0,-9.345168114E0,1.760336757E0
2.925091670E-1,-1.880645394E0,-9.349956512E0,1.798644066E0
2.949969280E-1,-1.895010591E0,-9.335591316E0,1.769913554E0
2.974846880E-1,-1.909375906E0,-9.335591316E0,1.784278870E0
2.999724490E-1,-1.918952703E0,-9.311649323E0,1.784278870E0
3.024602090E-1,-1.909375906E0,-9.321226120E0,1.793855667E0
3.049479690E-1,-1.914164305E0,-9.297284126E0,1.817797661E0
3.074357300E-1,-1.923741102E0,-9.292495728E0,1.803432465E0
3.099234900E-1,-1.918952703E0,-9.287707329E0,1.822586060E0
3.124112510E-1,-1.909375906E0,-9.263765335E0,1.817797661E0
3.148990110E-1,-1.885433793E0,-9.254188538E0,1.899200439E0
3.173867710E-1,-1.885433793E0,-9.249400139E0,1.860893250E0
3.198745320E-1,-1.871068597E0,-9.273342133E0,1.947084546E0
3.223622920E-1,-1.861491799E0,-9.268553734E0,1.875258446E0
3.248500530E-1,-1.856703401E0,-9.282918930E0,1.994968534E0
3.273378130E-1,-1.842338204E0,-9.292495728E0,1.923142552E0
3.298255740E-1,-1.832761407E0,-9.306860924E0,2.033275843E0
3.323133340E-1,-1.832761407E0,-9.306860924E0,1.923142552E0
3.348010940E-1,-1.827973008E0,-9.321226120E0,2.042852640E0
3.372888550E-1,-1.832761407E0,-9.316437721E0,1.918354154E0
3.397766150E-1,-1.813607812E0,-9.321226120E0,2.062006235E0
3.422643760E-1,-1.813607812E0,-9.311649323E0,1.889623642E0
3.447521360E-1,-1.832761407E0,-9.311649323E0,2.042852640E0
3.472398960E-1,-1.837549806E0,-9.302072525E0,1.884835243E0
3.497276570E-1,-1.856703401E0,-9.316437721E0,2.014122248E0
3.522154170E-1,-1.861491799E0,-9.287707329E0,1.856104851E0
3.547031780E-1,-1.890222192E0,-9.297284126E0,1.985391736E0
3.571909380E-1,-1.895010591E0,-9.282918930E0,1.827374458E0
3.596786990E-1,-1.890222192E0,-9.292495728E0,1.990180135E0
3.621664590E-1,-1.904587507E0,-9.287707329E0,1.856104851E0
3.646542190E-1,-1.914164305E0,-9.287707329E0,2.033275843E0
3.671419800E-1,-1.909375906E0,-9.282918930E0,1.927930951E0
3.696297400E-1,-1.914164305E0,-9.297284126E0,2.066794634E0
3.721175010E-1,-1.899798989E0,-9.302072525E0,1.937507749E0
3.746052610E-1,-1.904587507E0,-9.297284126E0,2.062006235E0
3.770930210E-1,-1.895010591E0,-9.278130531E0,1.913565755E0
3.795807820E-1,-1.899798989E0,-9.282918930E0,1.994968534E0
3.820685420E-1,-1.880645394E0,-9.273342133E0,1.894412041E0
3.845563030E-1,-1.880645394E0,-9.273342133E0,1.966238141E0
3.870440630E-1,-1.847126603E0,-9.263765335E0,1.856104851E0
3.895318240E-1,-1.842338204E0,-9.287707329E0,1.918354154E0
3.920195840E-1,-1.823184609E0,-9.273342133E0,1.880046844E0
3.945073440E-1,-1.813607812E0,-9.282918930E0,1.927930951E0
3.969951570E-1,-1.780089021E0,-9.273342133E0,1.894412041E0
3.994829690E-1,-1.784877419E0,-9.297284126E0,1.908777356E0
4.019707820E-1,-1.784877419E0,-9.287707329E0,1.880046844E0
4.044585940E-1,-1.770512104E0,-9.297284126E0,1.865681648E0
4.069464070E-1,-1.756146908E0,-9.306860924E0,1.870470047E0
4.094342190E-1,-1.770512104E0,-9.311649323E0,1.827374458E0
4.119220320E-1,-1.751358509E0,-9.311649323E0,1.870470047E0
4.144098440E-1,-1.736993313E0,-9.330802917E0,1.827374458E0
4.168976570E-1,-1.736993313E0,-9.326014519E0,1.875258446E0
4.193854690E-1,-1.746570110E0,-9.302072525E0,1.784278870E0
4.218732820E-1,-1.770512104E0,-9.321226120E0,1.865681648E0
4.243610940E-1,-1.770512104E0,-9.311649323E0,1.760336757E0
4.268489070E-1,-1.804031014E0,-9.306860924E0,1.827374458E0
4.293367190E-1,-1.842338204E0,-9.297284126E0,1.722029567E0
4.318245320E-1,-1.871068597E0,-9.297284126E0,1.841739655E0
4.343123440E-1,-1.880645394E0,-9.282918930E0,1.741183162E0
4.368001570E-1,-1.909375906E0,-9.297284126E0,1.884835243E0
4.392879690E-1,-1.933317900E0,-9.297284126E0,1.765125155E0
4.417757820E-1,-1.918952703E0,-9.311649323E0,1.923142552E0
4.442635940E-1,-1.928529501E0,-9.287707329E0,1.813009262E0
4.467514070E-1,-1.904587507E0,-9.316437721E0,1.980603337E0
4.492392190E-1,-1.885433793E0,-9.311649323E0,1.856104851E0
4.517270320E-1,-1.885433793E0,-9.330802917E0,2.018910646E0
4.542148440E-1,-1.866280198E0,-9.330802917E0,1.880046844E0
4.567026570E-1,-1.871068597E0,-9.349956512E0,2.038064241E0
4.591904690E-1,-1.880645394E0,-9.349956512E0,1.880046844E0
4.616782820E-1,-1.890222192E0,-9.340379715E0,2.009333849E0
4.641660940E-1,-1.895010591E0,-9.321226120E0,1.860893250E0
4.666539070E-1,-1.909375906E0,-9.330802917E0,1.966238141E0
4.691417190E-1,-1.895010591E0,-9.316437721E0,1.803432465E0
4.716295320E-1,-1.904587507E0,-9.321226120E0,1.932719350E0
4.741173440E-1,-1.880645394E0,-9.292495728E0,1.813009262E0
4.766051050E-1,-1.914164305E0,-9.292495728E0,1.923142552E0
4.790928650E-1,-1.918952703E0,-9.273342133E0,1.813009262E0
4.815806260E-1,-1.909375906E0,-9.268553734E0,1.942296147E0
4.840683860E-1,-1.914164305E0,-9.258976936E0,1.860893250E0
4.865561460E-1,-1.923741102E0,-9.263765335E0,1.956661344E0
4.890439070E-1,-1.928529501E0,-9.249400139E0,1.899200439E0
4.915316670E-1,-1.928529501E0,-9.235034943E0,1.985391736E0
4.940194280E-1,-1.928529501E0,-9.225458145E0,1.942296147E0
4.965071880E-1,-1.952471495E0,-9.239823341E0,1.990180135E0
4.989949490E-1,-1.947683096E0,-9.230246544E0,1.975814939E0
5.014827090E-1,-1.942894697E0,-9.244611740E0,1.975814939E0
5.039704690E-1,-1.962048292E0,-9.239823341E0,1.951872945E0
5.064582300E-1,-1.976413488E0,-9.239823341E0,1.903988957E0
5.089459900E-1,-2.000355482E0,-9.244611740E0,1.894412041E0
5.114337510E-1,-2.014720678E0,-9.244611740E0,1.880046844E0
5.139215110E-1,-2.019509077E0,-9.239823341E0,1.923142552E0
5.164092710E-1,-2.019509077E0,-9.230246544E0,1.865681648E0
5.188970320E-1,-2.009932280E0,-9.230246544E0,1.932719350E0
5.213847920E-1,-2.024297476E0,-9.206304550E0,1.875258446E0
5.238725530E-1,-2.005143881E0,-9.211092949E0,1.956661344E0
5.263603130E-1,-2.014720678E0,-9.215881348E0,1.889623642E0
5.288480740E-1,-2.014720678E0,-9.211092949E0,2.004545450E0
5.313358340E-1,-2.009932280E0,-9.191938400E0,1.913565755E0
5.338235940E-1,-1.995567083E0,-9.191938400E0,2.038064241E0
5.363113550E-1,-2.024297476E0,-9.158419609E0,1.932719350E0
5.387991150E-1,-2.043451071E0,-9.167996407E0,2.062006235E0
5.412868760E-1,-2.062604666E0,-9.158419609E0,1.927930951E0
5.437746360E-1,-2.081758261E0,-9.144054413E0,2.066794634E0
5.462623960E-1,-2.124854088E0,-9.129689217E0,1.927930951E0
5.487501570E-1,-2.158372879E0,-9.129689217E0,2.138620615E0
5.512379170E-1,-2.220622063E0,-9.096170425E0,2.085948229E0
5.537256780E-1,-2.273294449E0,-9.100958824E0,2.296638012E0
5.562134380E-1,-2.302024841E0,-9.110535622E0,2.138620615E0
5.587011990E-1,-2.330755472E0,-9.124900818E0,2.277484417E0
5.611889590E-1,-2.345120668E0,-9.129689217E0,2.090736628E0
5.636767190E-1,-2.340332270E0,-9.148842812E0,2.196081400E0
5.661644800E-1,-2.311601639E0,-9.144054413E0,2.018910646E0
5.686522400E-1,-2.268506050E0,-9.187150002E0,2.119467020E0
5.711400010E-1,-2.220622063E0,-9.191938400E0,1.932719350E0
5.736277610E-1,-2.172738075E0,-9.235034943E0,2.047641039E0
5.761155210E-1,-2.115277290E0,-9.278130531E0,1.927930951E0
5.786032820E-1,-2.062604666E0,-9.330802917E0,2.047641039E0
5.810910420E-1,-2.038662672E0,-9.349956512E0,1.908777356E0
5.835788030E-1,-2.005143881E0,-9.388263702E0,1.990180135E0
5.860665630E-1,-1.985990286E0,-9.397840500E0,1.880046844E0
5.885543240E-1,-2.000355482E0,-9.440936089E0,1.942296147E0
5.910420840E-1,-1.990778685E0,-9.450512886E0,1.827374458E0
5.935298440E-1,-2.019509077E0,-9.488820076E0,1.841739655E0
5.960176050E-1,-2.029085875E0,-9.493608475E0,1.722029567E0
5.985053650E-1,-2.038662672E0,-9.522338867E0,1.707664371E0
6.009931260E-1,-2.048239470E0,-9.522338867E0,1.640626669E0
6.034808860E-1,-2.043451071E0,-9.522338867E0,1.674145579E0
6.059686460E-1,-2.029085875E0,-9.536704063E0,1.698087573E0
6.084564070E-1,-2.009932280E0,-9.541492462E0,1.741183162E0
6.109441670E-1,-1.952471495E0,-9.541492462E0,1.803432465E0
6.134319280E-1,-1.952471495E0,-9.527127266E0,1.793855667E0
6.159196880E-1,-1.895010591E0,-9.536704063E0,1.856104851E0
6.184074490E-1,-1.842338204E0,-9.527127266E0,1.808220863E0
6.208952090E-1,-1.775300503E0,-9.555857658E0,1.913565755E0
6.233829690E-1,-1.722628117E0,-9.570222855E0,1.808220863E0
6.258707300E-1,-1.669955730E0,-9.575011253E0,1.870470047E0
6.283584900E-1,-1.617283225E0,-9.584588051E0,1.765125155E0
6.308462510E-1,-1.574187636E0,-9.598953247E0,1.822586060E0
6.333340110E-1,-1.559822440E0,-9.603741646E0,1.698087573E0
6.358217710E-1,-1.540668845E0,-9.627683640E0,1.803432465E0
6.383095320E-1,-1.535880446E0,-9.642048836E0,1.592742682E0
6.407972920E-1,-1.555034041E0,-9.680356026E0,1.640626669E0
6.432850530E-1,-1.578976035E0,-9.675567627E0,1.449090600E0
6.457728130E-1,-1.607706428E0,-9.689932823E0,1.587954283E0
6.482605740E-1,-1.660378933E0,-9.685144424E0,1.434725404E0
6.507483340E-1,-1.689109325E0,-9.680356026E0,1.607107878E0
6.532360940E-1,-1.736993313E0,-9.661202431E0,1.463455796E0
6.557238550E-1,-1.784877419E0,-9.656414032E0,1.688510776E0
6.582116150E-1,-1.847126603E0,-9.627683640E0,1.592742682E0
6.606993760E-1,-1.885433793E0,-9.637260437E0,1.803432465E0
6.631871360E-1,-1.918952703E0,-9.613318443E0,1.712452769E0
6.656748960E-1,-1.976413488E0,-9.594164848E0,1.932719350E0
6.681626570E-1,-2.009932280E0,-9.584588051E0,1.851316452E0
6.706504170E-1,-2.038662672E0,-9.598953247E0,2.052429438E0
6.731381780E-1,-2.057816267E0,-9.584588051E0,1.947084546E0
6.756259380E-1,-2.100912094E0,-9.594164848E0,2.148197412E0
6.781136990E-1,-2.134430885E0,-9.589376450E0,2.071583033E0
6.806014590E-1,-2.153584480E0,-9.594164848E0,2.205658197E0
6.830892190E-1,-2.163161278E0,-9.579799652E0,2.114678621E0
6.855769800E-1,-2.182314873E0,-9.579799652E0,2.196081400E0
6.880647400E-1,-2.172738075E0,-9.575011253E0,2.085948229E0
6.905525010E-1,-2.163161278E0,-9.589376450E0,2.124255419E0
6.930402610E-1,-2.139219284E0,-9.579799652E0,2.085948229E0
6.955280210E-1,-2.120065689E0,-9.579799652E0,2.047641039E0
6.980157820E-1,-2.076969862E0,-9.570222855E0,1.985391736E0
7.005035420E-1,-2.053027868E0,-9.584588051E0,1.961449742E0
7.029913030E-1,-2.005143881E0,-9.594164848E0,1.942296147E0
7.054790630E-1,-1.966836691E0,-9.608530045E0,1.932719350E0
7.079668240E-1,-1.952471495E0,-9.603741646E0,1.918354154E0
7.104545840E-1,-1.923741102E0,-9.594164848E0,1.937507749E0
7.129423440E-1,-1.885433793E0,-9.575011253E0,1.927930951E0
7.154301050E-1,-1.861491799E0,-9.579799652E0,1.918354154E0
7.179178650E-1,-1.832761407E0,-9.575011253E0,1.889623642E0
7.204056260E-1,-1.799242616E0,-9.546280861E0,1.880046844E0
7.228933860E-1,-1.741781712E0,-9.527127266E0,1.880046844E0
7.253811460E-1,-1.689109325E0,-9.507973671E0,1.894412041E0
7.278689070E-1,-1.631648421E0,-9.484031677E0,1.908777356E0
7.303566670E-1,-1.578976035E0,-9.464878082E0,1.932719350E0
7.328444280E-1,-1.540668845E0,-9.455301285E0,1.975814939E0
7.353321880E-1,-1.502361536E0,-9.440936089E0,2.018910646E0
7.378199490E-1,-1.464054346E0,-9.412205696E0,2.023699045E0
7.403077090E-1,-1.430535555E0,-9.407417297E0,1.994968534E0
7.427954690E-1,-1.392228246E0,-9.388263702E0,1.985391736E0
7.452832300E-1,-1.382651448E0,-9.373898506E0,1.947084546E0
7.477709900E-1,-1.368286252E0,-9.349956512E0,1.913565755E0
7.502588030E-1,-1.363497853E0,-9.316437721E0,1.870470047E0
7.527466150E-1,-1.363497853E0,-9.287707329E0,1.808220863E0
7.552344280E-1,-1.377863050E0,-9.244611740E0,1.769913554E0
7.577222400E-1,-1.406593442E0,-9.215881348E0,1.765125155E0
7.602100530E-1,-1.387439847E0,-9.196727753E0,1.779490471E0
7.626978650E-1,-1.401805043E0,-9.163208008E0,1.779490471E0
7.651856780E-1,-1.416170359E0,-9.139266014E0,1.784278870E0
7.676734900E-1,-1.425747156E0,-9.110535622E0,1.779490471E0
7.701613030E-1,-1.440112352E0,-9.091382027E0,1.789067268E0
7.726491150E-1,-1.449689150E0,-9.096170425E0,1.798644066E0
7.751369280E-1,-1.468842745E0,-9.077016830E0,1.784278870E0
7.776247400E-1,-1.459265947E0,-9.057863235E0,1.798644066E0
7.801125530E-1,-1.468842745E0,-9.043498039E0,1.813009262E0
7.826003650E-1,-1.478419542E0,-9.029132843E0,1.832162857E0
7.850881780E-1,-1.478419542E0,-9.014767647E0,1.832162857E0
7.875759900E-1,-1.487996340E0,-9.000402451E0,1.856104851E0
7.900638030E-1,-1.483207941E0,-9.014767647E0,1.870470047E0
7.925516150E-1,-1.478419542E0,-9.005190849E0,1.880046844E0
7.950394280E-1,-1.454477549E0,-9.005190849E0,1.903988957E0
7.975272400E-1,-1.430535555E0,-8.990825653E0,1.923142552E0
8.000150530E-1,-1.401805043E0,-8.986037254E0,1.927930951E0
8.025028650E-1,-1.401805043E0,-9.000402451E0,1.913565755E0
8.049906780E-1,-1.382651448E0,-8.995614052E0,1.865681648E0
8.074784900E-1,-1.373074651E0,-9.000402451E0,1.822586060E0
8.099663030E-1,-1.397016644E0,-8.981248856E0,1.755548358E0
8.124541150E-1,-1.430535555E0,-8.966883659E0,1.731606364E0
8.149419280E-1,-1.444900751E0,-8.942941666E0,1.712452769E0
8.174297400E-1,-1.464054346E0,-8.923788071E0,1.712452769E0
8.199175530E-1,-1.502361536E0,-8.890269279E0,1.712452769E0
8.224053650E-1,-1.516726732E0,-8.871115685E0,1.731606364E0
8.248931780E-1,-1.516726732E0,-8.847173691E0,1.750759959E0
8.273809380E-1,-1.516726732E0,-8.847173691E0,1.803432465E0
8.298686990E-1,-1.511938334E0,-8.832808495E0,1.856104851E0
8.323564590E-1,-1.502361536E0,-8.832808495E0,1.903988957E0
8.348442190E-1,-1.492784739E0,-8.828020096E0,1.961449742E0
8.373319800E-1,-1.483207941E0,-8.799289703E0,1.980603337E0
8.398197400E-1,-1.507149935E0,-8.789712906E0,1.999756932E0
8.423075010E-1,-1.502361536E0,-8.765770912E0,2.018910646E0
8.447952610E-1,-1.492784739E0,-8.746617317E0,2.004545450E0
8.472830210E-1,-1.502361536E0,-8.737040520E0,1.980603337E0
8.497707820E-1,-1.492784739E0,-8.717886925E0,1.971026540E0
8.522585420E-1,-1.483207941E0,-8.679579735E0,1.942296147E0
8.547463030E-1,-1.478419542E0,-8.660426140E0,1.903988957E0
8.572340630E-1,-1.468842745E0,-8.622118950E0,1.870470047E0
8.597218240E-1,-1.449689150E0,-8.598176956E0,1.846528053E0
8.622095840E-1,-1.430535555E0,-8.564658165E0,1.774701953E0
8.646973440E-1,-1.449689150E0,-8.535927773E0,1.722029567E0
8.671851050E-1,-1.425747156E0,-8.521562576E0,1.664568782E0
8.696728650E-1,-1.420958757E0,-8.492832184E0,1.611896276E0
8.721606260E-1,-1.420958757E0,-8.473678589E0,1.554435492E0
8.746483860E-1,-1.425747156E0,-8.444948196E0,1.511339784E0
8.771361460E-1,-1.435323954E0,-8.425794601E0,1.492186189E0
8.796239070E-1,-1.454477549E0,-8.382699013E0,1.458667397E0
8.821116670E-1,-1.454477549E0,-8.358757019E0,1.410783410E0
8.845994280E-1,-1.454477549E0,-8.315661430E0,1.377264500E0
8.870871880E-1,-1.459265947E0,-8.277354240E0,1.362899303E0
8.895749490E-1,-1.454477549E0,-8.243835449E0,1.334168911E0
8.920627090E-1,-1.435323954E0,-8.205527306E0,1.315015316E0
8.945504690E-1,-1.435323954E0,-8.172008514E0,1.286284804E0
8.970382300E-1,-1.425747156E0,-8.104970932E0,1.281496406E0
8.995259900E-1,-1.406593442E0,-8.081028938E0,1.276708007E0
9.020137510E-1,-1.401805043E0,-8.042721748E0,1.276708007E0
9.045015110E-1,-1.401805043E0,-7.980473042E0,1.291073322E0
9.069892710E-1,-1.387439847E0,-7.946953773E0,1.315015316E0
9.094770320E-1,-1.377863050E0,-7.894281387E0,1.315015316E0
9.119647920E-1,-1.363497853E0,-7.827243805E0,1.329380512E0
9.144525530E-1,-1.358709455E0,-7.745841026E0,1.329380512E0
9.169403130E-1,-1.377863050E0,-7.683591843E0,1.362899303E0
9.194280740E-1,-1.382651448E0,-7.630919456E0,1.401206493E0
9.219158340E-1,-1.392228246E0,-7.559093475E0,1.439513803E0
9.244035940E-1,-1.377863050E0,-7.492055893E0,1.439513803E0
9.268913550E-1,-1.353921056E0,-7.425017834E0,1.434725404E0
9.293791150E-1,-1.325190663E0,-7.338826656E0,1.434725404E0
9.318668760E-1,-1.301248670E0,-7.281365871E0,1.463455796E0
9.343546360E-1,-1.272518158E0,-7.223905087E0,1.468244195E0
9.368423960E-1,-1.243787766E0,-7.166444302E0,1.453878999E0
9.393301570E-1,-1.224634171E0,-7.104195118E0,1.429937005E0
9.418179170E-1,-1.195903778E0,-7.051522732E0,1.401206493E0
9.443056780E-1,-1.191115379E0,-6.994061947E0,1.372476101E0
9.467934380E-1,-1.181538582E0,-6.931812286E0,1.315015316E0
9.492811990E-1,-1.200692177E0,-6.855197906E0,1.281496406E0
9.517689590E-1,-1.195903778E0,-6.773795128E0,1.262342811E0
9.542567190E-1,-1.200692177E0,-6.706757545E0,1.228824019E0
9.567444800E-1,-1.219845772E0,-6.644508362E0,1.185728431E0
9.592322400E-1,-1.224634171E0,-6.572682381E0,1.161786318E0
9.617200010E-1,-1.248576164E0,-6.524798393E0,1.133055925E0
9.642077610E-1,-1.253364563E0,-6.448183537E0,1.061229944E0
9.666955210E-1,-1.267729759E0,-6.395511150E0,9.606734514E-1
9.691832820E-1,-1.296460271E0,-6.357203960E0,8.696937561E-1
9.716710420E-1,-1.325190663E0,-6.309319973E0,8.218097091E-1
9.741588030E-1,-1.344344258E0,-6.256647587E0,7.451952696E-1
9.766465630E-1,-1.368286252E0,-6.227917194E0,6.925228238E-1
9.791343240E-1,-1.387439847E0,-6.203975201E0,6.206967831E-1
9.816220840E-1,-1.430535555E0,-6.180033207E0,5.776011348E-1
9.841098440E-1,-1.473631144E0,-6.180033207E0,5.776011348E-1
9.865976050E-1,-1.516726732E0,-6.175244808E0,5.728127360E-1
9.890853650E-1,-1.540668845E0,-6.184821606E0,5.488707423E-1
9.915731260E-1,-1.564610839E0,-6.223128796E0,5.488707423E-1
9.940608860E-1,-1.578976035E0,-6.261435986E0,5.584475398E-1
9.965486460E-1,-1.593341231E0,-6.304531574E0,5.823895931E-1
9.990364070E-1,-1.593341231E0,-6.371569157E0,6.254851818E-1
1.001524167E0,-1.588552833E0,-6.424241543E0,6.590040326E-1
1.004011928E0,-1.583764434E0,-6.476913929E0,6.829460263E-1
1.006499688E0,-1.574187636E0,-6.534375191E0,7.212532759E-1
1.008987449E0,-1.574187636E0,-6.587047577E0,7.068880796E-1
1.011475209E0,-1.578976035E0,-6.634931564E0,7.212532759E-1
1.013962969E0,-1.588552833E0,-6.663661957E0,7.404068708E-1
1.016450730E0,-1.574187636E0,-6.692392349E0,7.356184721E-1
1.018938490E0,-1.559822440E0,-6.706757545E0,7.451952696E-1
1.021426251E0,-1.559822440E0,-6.725911140E0,7.691373229E-1
1.023914011E0,-1.550245643E0,-6.745064735E0,7.882909179E-1
1.026401771E0,-1.535880446E0,-6.749853134E0,7.835025191E-1
1.028889532E0,-1.507149935E0,-6.749853134E0,7.739257216E-1
1.031377292E0,-1.483207941E0,-6.778583527E0,7.787141204E-1
1.033865053E0,-1.464054346E0,-6.773795128E0,7.451952696E-1
1.036352813E0,-1.444900751E0,-6.797737122E0,7.164648771E-1
1.038840574E0,-1.435323954E0,-6.807313919E0,6.733692288E-1
1.041328334E0,-1.440112352E0,-6.845621109E0,6.302735806E-1
1.043816094E0,-1.449689150E0,-6.869563103E0,5.680243373E-1
1.046303855E0,-1.449689150E0,-6.907870293E0,4.961982965E-1
1.048791615E0,-1.487996340E0,-6.941389084E0,4.195838571E-1
1.051279376E0,-1.511938334E0,-6.989273548E0,3.286041915E-1
1.053767136E0,-1.555034041E0,-7.022792339E0,2.567781210E-1
1.056254896E0,-1.598129630E0,-7.051522732E0,1.897404790E-1
1.058742657E0,-1.626860023E0,-7.075464725E0,1.083376259E-1
1.061230417E0,-1.622071624E0,-7.118560314E0,8.918401599E-2
1.063718178E0,-1.612494826E0,-7.171232700E0,6.524199992E-2
1.066205938E0,-1.588552833E0,-7.209539890E0,8.439560980E-2
1.068693699E0,-1.559822440E0,-7.247847080E0,9.397241473E-2
1.071181459E0,-1.526303530E0,-7.281365871E0,9.397241473E-2
1.073669219E0,-1.492784739E0,-7.319673061E0,1.227028370E-1
1.076156980E0,-1.473631144E0,-7.362768650E0,1.274912357E-1
1.078644740E0,-1.449689150E0,-7.381922245E0,1.274912357E-1
1.081132501E0,-1.425747156E0,-7.410652637E0,1.466448605E-1
1.083620261E0,-1.397016644E0,-7.444171429E0,1.274912357E-1
1.086108021E0,-1.382651448E0,-7.453748226E0,9.397241473E-2
1.088595782E0,-1.377863050E0,-7.482479095E0,5.566519126E-2
1.091083542E0,-1.377863050E0,-7.506421089E0,1.256955881E-2
1.093571303E0,-1.387439847E0,-7.530363083E0,-3.052607179E-2
1.096059063E0,-1.411381960E0,-7.563881874E0,-5.446808785E-2
1.098546824E0,-1.459265947E0,-7.578247070E0,-9.756372124E-2
1.101034584E0,-1.502361536E0,-7.587823868E0,-1.406593472E-1
1.103522344E0,-1.559822440E0,-7.616554260E0,-2.076970041E-1
1.106010105E0,-1.646013618E0,-7.659649849E0,-2.507926226E-1
1.108497865E0,-1.713051319E0,-7.693168640E0,-2.843114436E-1
1.110985626E0,-1.770512104E0,-7.731475830E0,-2.986766696E-1
1.113473386E0,-1.823184609E0,-7.764994621E0,-2.938882709E-1
1.115961146E0,-1.851915002E0,-7.808090210E0,-2.890998423E-1
1.118448907E0,-1.871068597E0,-7.860762596E0,-2.986766696E-1
1.120936667E0,-1.875856996E0,-7.908646584E0,-3.178302646E-1
1.123424428E0,-1.880645394E0,-7.956530571E0,-3.369838893E-1
1.125912188E0,-1.885433793E0,-8.004414558E0,-3.321954906E-1
1.128399949E0,-1.885433793E0,-8.037933350E0,-3.417722881E-1
1.130887761E0,-1.875856996E0,-8.076240540E0,-3.800795078E-1
1.133375574E0,-1.851915002E0,-8.104970932E0,-4.231751561E-1
1.135863386E0,-1.818396211E0,-8.124124527E0,-4.519055784E-1
1.138351199E0,-1.813607812E0,-8.157643318E0,-4.806360006E-1
1.140839011E0,-1.818396211E0,-8.167220116E0,-4.806360006E-1
1.143326824E0,-1.799242616E0,-8.210315704E0,-4.854243994E-1
1.145814636E0,-1.775300503E0,-8.219893456E0,-4.519055784E-1
1.148302449E0,-1.741781712E0,-8.262989044E0,-3.992331326E-1
1.150790261E0,-1.722628117E0,-8.301296234E0,-3.321954906E-1
1.153278074E0,-1.684320927E0,-8.363545418E0,-2.699462473E-1
1.155765886E0,-1.646013618E0,-8.421006203E0,-2.220622003E-1
1.158253699E0,-1.607706428E0,-8.492832184E0,-1.454477459E-1
1.160741511E0,-1.564610839E0,-8.545504570E0,-9.756372124E-2
1.163229324E0,-1.540668845E0,-8.612542152E0,-4.967968538E-2
1.165717136E0,-1.521515131E0,-8.674791336E0,-1.795651275E-3
1.168204949E0,-1.492784739E0,-8.732252121E0,1.735796221E-2
1.170692761E0,-1.478419542E0,-8.780136108E0,1.735796221E-2
1.173180574E0,-1.497573137E0,-8.842385292E0,-1.137245819E-2
1.175668386E0,-1.502361536E0,-8.885480881E0,-4.489128292E-2
1.178156199E0,-1.535880446E0,-8.914211273E0,-9.277531505E-2
1.180644011E0,-1.559822440E0,-8.952518463E0,-1.550245583E-1
1.183131824E0,-1.583764434E0,-8.990825653E0,-2.172738016E-1
1.185619636E0,-1.607706428E0,-9.038709641E0,-3.034650683E-1
1.188107449E0,-1.655590534E0,-9.077016830E0,-3.944447339E-1
1.190595261E0,-1.698686123E0,-9.120112419E0,-4.997895956E-1
1.193083074E0,-1.736993313E0,-9.167996407E0,-6.099228859E-1
1.195570886E0,-1.751358509E0,-9.206304550E0,-6.865373254E-1
1.198058699E0,-1.808819413E0,-9.239823341E0,-7.823054194E-1
1.200546511E0,-1.866280198E0,-9.268553734E0,-8.541314602E-1
1.203034324E0,-1.942894697E0,-9.287707329E0,-9.355342984E-1
1.205522084E0,-2.005143881E0,-9.306860924E0,-1.007360339E0
1.208009844E0,-2.062604666E0,-9.321226120E0,-1.083974838E0
1.210497605E0,-2.110488892E0,-9.330802917E0,-1.117493629E0
1.212985365E0,-2.153584480E0,-9.326014519E0,-1.127070427E0
1.215473126E0,-2.196680069E0,-9.330802917E0,-1.112705231E0
1.217960886E0,-2.234987259E0,-9.330802917E0,-1.079186440E0
1.220448646E0,-2.297236443E0,-9.335591316E0,-1.055244446E0
1.222936407E0,-2.340332270E0,-9.330802917E0,-1.031302333E0
1.225424167E0,-2.378639460E0,-9.326014519E0,-9.546879530E-1
1.227911928E0,-2.421735048E0,-9.330802917E0,-8.684966564E-1
1.230399688E0,-2.455253839E0,-9.326014519E0,-7.583633661E-1
1.232887449E0,-2.483984232E0,-9.340379715E0,-6.242880821E-1
1.235375209E0,-2.483984232E0,-9.349956512E0,-4.997895956E-1
1.237862969E0,-2.460042238E0,-9.378686905E0,-3.848679364E-1
1.240350730E0,-2.421735048E0,-9.412205696E0,-3.082534671E-1
1.242838490E0,-2.378639460E0,-9.416994095E0,-2.076970041E-1
1.245326251E0,-2.340332270E0,-9.455301285E0,-1.119289324E-1
1.247814011E0,-2.306813240E0,-9.484031677E0,-8.319851011E-2
1.250301771E0,-2.263717651E0,-9.522338867E0,-6.883329898E-2
1.252789532E0,-2.225410461E0,-9.546280861E0,-6.883329898E-2
1.255277292E0,-2.230198860E0,-9.575011253E0,-1.167173311E-1
1.257765053E0,-2.220622063E0,-9.603741646E0,-1.981201917E-1
1.260252813E0,-2.201468468E0,-9.618106842E0,-2.890998423E-1
1.262740574E0,-2.191891670E0,-9.613318443E0,-3.657143116E-1
1.265228334E0,-2.191891670E0,-9.594164848E0,-4.423287511E-1
1.267716094E0,-2.182314873E0,-9.575011253E0,-5.141547918E-1
1.270203855E0,-2.201468468E0,-9.546280861E0,-5.716156363E-1
1.272691615E0,-2.206256866E0,-9.522338867E0,-6.194996834E-1
1.275179376E0,-2.211045265E0,-9.517550468E0,-6.625953317E-1
1.277667136E0,-2.215833664E0,-9.493608475E0,-7.056909800E-1
1.280154896E0,-2.234987259E0,-9.469666481E0,-7.344213724E-1
1.282642657E0,-2.258929253E0,-9.445724487E0,-7.583633661E-1
1.285130417E0,-2.258929253E0,-9.421782494E0,-7.631517649E-1
1.287618178E0,-2.244564056E0,-9.402628899E0,-7.535749674E-1
1.290105938E0,-2.206256866E0,-9.397840500E0,-7.344213724E-1
1.292593699E0,-2.191891670E0,-9.373898506E0,-6.961141229E-1
1.295081459E0,-2.134430885E0,-9.359533310E0,-6.482301354E-1
1.297569219E0,-2.081758261E0,-9.359533310E0,-5.859808922E-1
1.300056980E0,-2.038662672E0,-9.373898506E0,-5.811924338E-1
1.302544740E0,-1.962048292E0,-9.378686905E0,-5.093663931E-1
1.305032501E0,-1.928529501E0,-9.378686905E0,-4.471171796E-1
1.307520261E0,-1.880645394E0,-9.378686905E0,-3.800795078E-1
1.310008021E0,-1.861491799E0,-9.378686905E0,-3.465606868E-1
1.312495782E0,-1.837549806E0,-9.369110107E0,-3.082534671E-1
1.314983542E0,-1.827973008E0,-9.359533310E0,-2.795230448E-1
1.317471303E0,-1.818396211E0,-9.378686905E0,-2.172738016E-1
1.319959063E0,-1.780089021E0,-9.388263702E0,-1.215057373E-1
1.322446824E0,-1.736993313E0,-9.412205696E0,1.256955881E-2
1.324934584E0,-1.679532528E0,-9.450512886E0,8.439560980E-2
1.327422344E0,-1.598129630E0,-9.469666481E0,4.608838260E-2
1.329910105E0,-1.545457244E0,-9.503185272E0,-3.052607179E-2
1.332397865E0,-1.526303530E0,-9.517550468E0,-1.598129570E-1
1.334885626E0,-1.502361536E0,-9.551069260E0,-2.699462473E-1
1.337373386E0,-1.507149935E0,-9.579799652E0,-3.848679364E-1
1.339861146E0,-1.531091928E0,-9.627683640E0,-4.950011969E-1
1.342348907E0,-1.550245643E0,-9.651625633E0,-6.147112846E-1
1.344836667E0,-1.583764434E0,-9.694721222E0,-7.487865686E-1
1.347324428E0,-1.631648421E0,-9.728240013E0,-8.397662640E-1
1.349812188E0,-1.689109325E0,-9.752182007E0,-9.594763517E-1
1.352299949E0,-1.760935307E0,-9.776124001E0,-1.031302333E0
1.354787709E0,-1.837549806E0,-9.780912399E0,-1.079186440E0
1.357275469E0,-1.895010591E0,-9.785700798E0,-1.098340034E0
1.359763230E0,-1.957259893E0,-9.804854393E0,-1.146224022E0
1.362250990E0,-2.005143881E0,-9.814431190E0,-1.184531331E0
1.364738751E0,-2.009932280E0,-9.824007988E0,-1.184531331E0
1.367226511E0,-2.043451071E0,-9.847949982E0,-1.179742932E0
1.369714271E0,-2.038662672E0,-9.862315178E0,-1.179742932E0
1.372202032E0,-2.043451071E0,-9.857526779E0,-1.155800819E0
1.374689792E0,-2.067393064E0,-9.862315178E0,-1.103128433E0
1.377177553E0,-2.067393064E0,-9.843161583E0,-1.026513934E0
1.379665313E0,-2.081758261E0,-9.824007988E0,-9.498994946E-1
1.382153074E0,-2.057816267E0,-9.804854393E0,-8.876502514E-1
1.384640834E0,-2.038662672E0,-9.776124001E0,-8.493430614E-1
1.387128594E0,-2.009932280E0,-9.737816811E0,-8.110358119E-1
1.389616355E0,-2.014720678E0,-9.699509621E0,-8.062474132E-1
1.392104115E0,-2.048239470E0,-9.651625633E0,-7.775170207E-1
1.394591876E0,-2.091335297E0,-9.603741646E0,-7.679402232E-1
1.397079636E0,-2.134430885E0,-9.575011253E0,-7.200561762E-1
1.399567396E0,-2.167949677E0,-9.560646057E0,-6.625953317E-1
1.402055157E0,-2.182314873E0,-9.546280861E0,-6.242880821E-1
1.404542917E0,-2.167949677E0,-9.565434456E0,-6.147112846E-1
1.407030678E0,-2.115277290E0,-9.598953247E0,-5.907692909E-1
1.409518438E0,-2.043451071E0,-9.665990829E0,-5.955576897E-1
1.412006199E0,-2.005143881E0,-9.718663216E0,-6.003460884E-1
1.414493959E0,-1.938106298E0,-9.776124001E0,-5.907692909E-1
1.416981719E0,-1.885433793E0,-9.833584785E0,-5.668272376E-1
1.419469480E0,-1.842338204E0,-9.900622368E0,-5.380968451E-1
1.421957240E0,-1.780089021E0,-9.972448349E0,-5.141547918E-1
1.424445001E0,-1.717839718E0,-1.005863953E1,-4.854243994E-1
1.426932761E0,-1.665167332E0,-1.012088871E1,-4.662707746E-1
1.429420521E0,-1.622071624E0,-1.018792725E1,-4.710591733E-1
1.431908282E0,-1.598129630E0,-1.023102283E1,-4.758476019E-1
1.434396042E0,-1.574187636E0,-1.026454163E1,-4.854243994E-1
1.436883803E0,-1.545457244E0,-1.029806042E1,-5.045779943E-1
1.439371563E0,-1.507149935E0,-1.029806042E1,-5.620388389E-1
1.441859324E0,-1.483207941E0,-1.032200241E1,-6.099228859E-1
1.444347084E0,-1.464054346E0,-1.033636761E1,-6.625953317E-1
1.446834844E0,-1.473631144E0,-1.034115601E1,-6.961141229E-1
1.449322605E0,-1.483207941E0,-1.034115601E1,-7.535749674E-1
1.451810365E0,-1.502361536E0,-1.033636761E1,-7.775170207E-1
1.454298126E0,-1.531091928E0,-1.034115601E1,-8.206126094E-1
1.456785886E0,-1.569399238E0,-1.034594440E1,-8.493430614E-1
1.459273646E0,-1.607706428E0,-1.032679081E1,-9.068039060E-1
1.461761407E0,-1.636436820E0,-1.031721401E1,-9.834183455E-1
1.464249167E0,-1.698686123E0,-1.030763721E1,-1.036090732E0
1.466736928E0,-1.775300503E0,-1.029806042E1,-1.103128433E0
1.469224688E0,-1.880645394E0,-1.025496483E1,-1.184531331E0
1.471712449E0,-2.000355482E0,-1.024059963E1,-1.256357312E0
1.474200209E0,-2.115277290E0,-1.019271564E1,-1.280299306E0
1.476687969E0,-2.230198860E0,-1.015440750E1,-1.275510907E0
1.479175730E0,-2.316390038E0,-1.011131191E1,-1.246780515E0
1.481663490E0,-2.397793055E0,-1.007300472E1,-1.227626920E0
1.484151251E0,-2.474407434E0,-1.000596714E1,-1.198896527E0
1.486639011E0,-2.479195833E0,-9.967659950E0,-1.174954534E0
1.489126771E0,-2.445677042E0,-9.924564362E0,-1.146224022E0
1.491614532E0,-2.383427858E0,-9.905410767E0,-1.107916832E0
1.494102292E0,-2.349909067E0,-9.886257172E0,-1.026513934E0
1.496590053E0,-2.316390038E0,-9.886257172E0,-9.259575009E-1
1.499077813E0,-2.278082848E0,-9.914987564E0,-8.062474132E-1
1.501565574E0,-2.278082848E0,-9.938929558E0,-7.296329737E-1
1.504053334E0,-2.254140854E0,-9.967659950E0,-6.721721292E-1
1.506541094E0,-2.234987259E0,-1.001075554E1,-6.051344872E-1
1.509028855E0,-2.158372879E0,-1.006821632E1,-5.620388389E-1
1.511516615E0,-2.043451071E0,-1.013525391E1,-5.093663931E-1
1.514004376E0,-1.918952703E0,-1.016877270E1,-4.662707746E-1
1.516492136E0,-1.760935307E0,-1.019750404E1,-3.944447339E-1
1.518979896E0,-1.617283225E0,-1.024059963E1,-3.465606868E-1
1.521467657E0,-1.492784739E0,-1.025975323E1,-2.699462473E-1
1.523955417E0,-1.377863050E0,-1.025975323E1,-1.933317930E-1
1.526443178E0,-1.272518158E0,-1.025496483E1,-1.598129570E-1
1.528930938E0,-1.224634171E0,-1.023102283E1,-1.454477459E-1
1.531418699E0,-1.215057373E0,-1.019750404E1,-1.454477459E-1
1.533906459E0,-1.200692177E0,-1.016877270E1,-1.741781682E-1
1.536394219E0,-1.224634171E0,-1.013046551E1,-2.172738016E-1
1.538881980E0,-1.272518158E0,-1.008258152E1,-2.651578486E-1
1.541369740E0,-1.315613866E0,-1.006821632E1,-3.321954906E-1
1.543857501E0,-1.353921056E0,-1.005385113E1,-3.848679364E-1
1.546345313E0,-1.368286252E0,-1.003948593E1,-4.135983288E-1
1.548833126E0,-1.416170359E0,-1.003469753E1,-4.519055784E-1
1.551320938E0,-1.459265947E0,-1.002512074E1,-4.950011969E-1
1.553808751E0,-1.511938334E0,-1.004427433E1,-5.476736426E-1
1.556296563E0,-1.583764434E0,-1.006821632E1,-6.194996834E-1
1.558784376E0,-1.665167332E0,-1.006342793E1,-7.104793787E-1
1.561272188E0,-1.751358509E0,-1.005863953E1,-8.206126094E-1
1.563760001E0,-1.837549806E0,-1.007779312E1,-9.451110959E-1
1.566247813E0,-1.933317900E0,-1.006821632E1,-1.064821243E0
1.568735626E0,-2.005143881E0,-1.004906273E1,-1.165377736E0
1.571223438E0,-2.091335297E0,-1.004906273E1,-1.237203717E0
1.573711251E0,-2.172738075E0,-1.007300472E1,-1.275510907E0
1.576199063E0,-2.225410461E0,-1.009215832E1,-1.294664621E0
1.578686876E0,-2.273294449E0,-1.013046551E1,-1.304241419E0
1.581174688E0,-2.316390038E0,-1.015919590E1,-1.328183413E0
1.583662501E0,-2.321178436E0,-1.019271564E1,-1.304241419E0
1.586150313E0,-2.335543871E0,-1.023581123E1,-1.318606615E0
1.588638126E0,-2.311601639E0,-1.027890682E1,-1.318606615E0
1.591125938E0,-2.287659645E0,-1.032679081E1,-1.275510907E0
1.593613751E0,-2.211045265E0,-1.039382839E1,-1.189319730E0
1.596101563E0,-2.096123695E0,-1.045128918E1,-1.079186440E0
1.598589376E0,-1.952471495E0,-1.052790356E1,-9.451110959E-1
1.601077188E0,-1.789665818E0,-1.059015274E1,-8.062474132E-1
1.603565001E0,-1.617283225E0,-1.064282513E1,-6.913257241E-1
1.606052813E0,-1.449689150E0,-1.067155552E1,-5.859808922E-1
1.608540626E0,-1.320402265E0,-1.069549751E1,-5.141547918E-1
1.611028438E0,-1.205480576E0,-1.069549751E1,-4.566939771E-1
1.613516251E0,-1.128866076E0,-1.066197872E1,-4.327519536E-1
1.616004063E0,-1.095347285E0,-1.059972954E1,-4.135983288E-1
1.618491824E0,-1.100135684E0,-1.056142235E1,-3.992331326E-1
1.620979584E0,-1.090558887E0,-1.048480797E1,-4.135983288E-1
1.623467344E0,-1.124077678E0,-1.041298199E1,-4.423287511E-1
1.625955105E0,-1.152808070E0,-1.034594440E1,-4.662707746E-1
1.628442865E0,-1.176750183E0,-1.029327202E1,-5.045779943E-1
1.630930626E0,-1.186326981E0,-1.025975323E1,-5.524620414E-1
1.633418386E0,-1.200692177E0,-1.024538803E1,-6.099228859E-1
1.635906146E0,-1.205480576E0,-1.023581123E1,-6.530185342E-1
1.638393907E0,-1.200692177E0,-1.026933002E1,-6.769605279E-1
1.640881667E0,-1.200692177E0,-1.029327202E1,-7.296329737E-1
1.643369428E0,-1.224634171E0,-1.033636761E1,-7.487865686E-1
1.645857188E0,-1.267729759E0,-1.034594440E1,-8.014590144E-1
1.648344949E0,-1.325190663E0,-1.037467480E1,-8.397662640E-1
1.650832709E0,-1.411381960E0,-1.039382839E1,-8.780734539E-1
1.653320469E0,-1.468842745E0,-1.038425159E1,-8.828618526E-1
1.655808230E0,-1.545457244E0,-1.036509800E1,-8.924387097E-1
1.658295990E0,-1.612494826E0,-1.035073280E1,-8.828618526E-1
1.660783751E0,-1.674744129E0,-1.031242561E1,-8.206126094E-1
1.663271511E0,-1.713051319E0,-1.026933002E1,-7.870938182E-1
1.665759271E0,-1.746570110E0,-1.024059963E1,-7.344213724E-1
1.668247032E0,-1.789665818E0,-1.021186924E1,-7.104793787E-1
1.670734792E0,-1.842338204E0,-1.019271564E1,-6.769605279E-1
1.673222553E0,-1.871068597E0,-1.017835045E1,-6.434416771E-1
1.675710313E0,-1.895010591E0,-1.015440750E1,-6.530185342E-1
1.678198074E0,-1.914164305E0,-1.013046551E1,-6.721721292E-1
1.680685834E0,-1.933317900E0,-1.013525391E1,-6.817489266E-1
1.683173594E0,-1.918952703E0,-1.012567711E1,-7.104793787E-1
1.685661355E0,-1.875856996E0,-1.014483070E1,-7.296329737E-1
1.688149115E0,-1.861491799E0,-1.015919590E1,-7.248445749E-1
1.690636876E0,-1.823184609E0,-1.019271564E1,-6.913257241E-1
1.693124636E0,-1.789665818E0,-1.022623444E1,-6.386532784E-1
1.695612396E0,-1.703474522E0,-1.028848362E1,-5.859808922E-1
1.698100157E0,-1.626860023E0,-1.034594440E1,-5.476736426E-1
1.700587917E0,-1.559822440E0,-1.039382839E1,-5.476736426E-1
1.703075678E0,-1.473631144E0,-1.042734718E1,-5.285200477E-1
1.705563438E0,-1.420958757E0,-1.044650078E1,-5.141547918E-1
1.708051199E0,-1.382651448E0,-1.048959637E1,-5.237316489E-1
1.710538959E0,-1.353921056E0,-1.048001957E1,-5.237316489E-1
1.713026719E0,-1.339555860E0,-1.049438477E1,-5.476736426E-1
1.715514480E0,-1.339555860E0,-1.050874996E1,-5.859808922E-1
1.718002240E0,-1.368286252E0,-1.052311516E1,-6.194996834E-1
1.720490001E0,-1.377863050E0,-1.054226875E1,-6.051344872E-1
1.722977761E0,-1.387439847E0,-1.055663395E1,-5.859808922E-1
1.725465521E0,-1.382651448E0,-1.056621075E1,-6.147112846E-1
1.727953282E0,-1.373074651E0,-1.060451794E1,-6.147112846E-1
1.730441042E0,-1.358709455E0,-1.061888313E1,-6.338648796E-1
1.732928803E0,-1.353921056E0,-1.062367153E1,-6.625953317E-1
1.735416563E0,-1.373074651E0,-1.062845993E1,-6.913257241E-1
1.737904324E0,-1.368286252E0,-1.059494114E1,-7.344213724E-1
1.740392084E0,-1.397016644E0,-1.055663395E1,-7.679402232E-1
1.742879844E0,-1.406593442E0,-1.050396156E1,-7.775170207E-1
1.745367605E0,-1.430535555E0,-1.043213558E1,-7.823054194E-1
1.747855365E0,-1.478419542E0,-1.036509800E1,-7.918822169E-1
1.750343126E0,-1.531091928E0,-1.029327202E1,-7.775170207E-1
1.752830886E0,-1.598129630E0,-1.019750404E1,-7.631517649E-1
1.755318646E0,-1.679532528E0,-1.011610031E1,-7.631517649E-1
1.757806407E0,-1.727416515E0,-1.005385113E1,-7.775170207E-1
1.760294167E0,-1.746570110E0,-1.001554394E1,-7.631517649E-1
1.762781928E0,-1.765723705E0,-9.982025146E0,-7.487865686E-1
1.765269688E0,-1.775300503E0,-9.996390343E0,-7.392097712E-1
1.767757449E0,-1.770512104E0,-9.996390343E0,-7.344213724E-1
1.770245209E0,-1.770512104E0,-1.001075554E1,-7.344213724E-1
1.772732969E0,-1.765723705E0,-1.003469753E1,-7.439981699E-1
1.775220730E0,-1.789665818E0,-1.005385113E1,-7.775170207E-1
1.777708490E0,-1.832761407E0,-1.008258152E1,-8.349778652E-1
1.780196251E0,-1.851915002E0,-1.010173512E1,-9.020155072E-1
1.782684011E0,-1.875856996E0,-1.012567711E1,-9.259575009E-1
1.785171771E0,-1.890222192E0,-1.014004230E1,-9.594763517E-1
1.787659532E0,-1.866280198E0,-1.013046551E1,-9.882067442E-1
1.790147292E0,-1.842338204E0,-1.014483070E1,-1.012148738E0
1.792635053E0,-1.808819413E0,-1.015440750E1,-1.040879130E0
1.795122813E0,-1.708262920E0,-1.015919590E1,-1.064821243E0
1.797610574E0,-1.641225219E0,-1.019271564E1,-1.055244446E0
1.800098334E0,-1.545457244E0,-1.020229244E1,-1.064821243E0
1.802586094E0,-1.464054346E0,-1.022623444E1,-1.069609642E0
1.805073855E0,-1.392228246E0,-1.023581123E1,-1.083974838E0
1.807561615E0,-1.353921056E0,-1.024059963E1,-1.103128433E0
1.810049376E0,-1.325190663E0,-1.024059963E1,-1.107916832E0
1.812537136E0,-1.329979062E0,-1.025017643E1,-1.074398041E0
1.815024896E0,-1.334767461E0,-1.025017643E1,-1.016937137E0
1.817512657E0,-1.353921056E0,-1.027411842E1,-9.498994946E-1
1.820000417E0,-1.368286252E0,-1.030763721E1,-8.972271085E-1
1.822488178E0,-1.344344258E0,-1.034594440E1,-8.493430614E-1
1.824975938E0,-1.320402265E0,-1.040819359E1,-8.014590144E-1
1.827463699E0,-1.291671872E0,-1.043692398E1,-7.870938182E-1
1.829951459E0,-1.229422569E0,-1.049917316E1,-7.487865686E-1
1.832439219E0,-1.181538582E0,-1.051353836E1,-7.200561762E-1
1.834926980E0,-1.124077678E0,-1.050874996E1,-6.961141229E-1
1.837414740E0,-1.109712481E0,-1.049438477E1,-6.817489266E-1
1.839902501E0,-1.080982089E0,-1.046086597E1,-7.009025216E-1
1.842390261E0,-1.052251697E0,-1.040340519E1,-7.152677774E-1
1.844878021E0,-1.076193690E0,-1.032679081E1,-7.344213724E-1
1.847365782E0,-1.119289279E0,-1.023581123E1,-7.679402232E-1
1.849853542E0,-1.162384868E0,-1.016877270E1,-8.062474132E-1
1.852341303E0,-1.205480576E0,-1.009694672E1,-8.254010081E-1
1.854829063E0,-1.258152962E0,-1.002990913E1,-8.445546627E-1
1.857316824E0,-1.291671872E0,-1.000117874E1,-8.445546627E-1
1.859804584E0,-1.349132657E0,-9.958083153E0,-8.589198589E-1
1.862292344E0,-1.401805043E0,-9.934141159E0,-8.637082577E-1
1.864780105E0,-1.464054346E0,-9.934141159E0,-8.924387097E-1
1.867267865E0,-1.531091928E0,-9.938929558E0,-9.307458997E-1
1.869755626E0,-1.593341231E0,-9.938929558E0,-9.738415480E-1
1.872243386E0,-1.665167332E0,-9.934141159E0,-1.040879130E0
1.874731146E0,-1.751358509E0,-9.938929558E0,-1.093551636E0
1.877218907E0,-1.832761407E0,-9.953294754E0,-1.160589218E0
1.879706667E0,-1.895010591E0,-9.972448349E0,-1.213261724E0
1.882194428E0,-1.981201887E0,-9.991601944E0,-1.241992116E0
1.884682188E0,-2.038662672E0,-9.996390343E0,-1.256357312E0
1.887169949E0,-2.115277290E0,-1.002033234E1,-1.256357312E0
1.889657709E0,-2.172738075E0,-1.004427433E1,-1.218050122E0
1.892145469E0,-2.206256866E0,-1.006821632E1,-1.189319730E0
1.894633230E0,-2.249352455E0,-1.008736992E1,-1.141435623E0
1.897120990E0,-2.278082848E0,-1.010173512E1,-1.107916832E0
1.899608751E0,-2.268506050E0,-1.011131191E1,-1.093551636E0
1.902096511E0,-2.230198860E0,-1.015919590E1,-1.026513934E0
1.904584271E0,-2.182314873E0,-1.017356110E1,-9.882067442E-1
1.907072032E0,-2.134430885E0,-1.017356110E1,-9.259575009E-1
1.909559792E0,-2.062604666E0,-1.018313885E1,-8.397662640E-1
1.912047553E0,-2.014720678E0,-1.018792725E1,-7.631517649E-1
1.914535313E0,-1.947683096E0,-1.019271564E1,-6.865373254E-1
1.917023074E0,-1.871068597E0,-1.019271564E1,-6.003460884E-1
1.919510834E0,-1.794454217E0,-1.019271564E1,-5.189431906E-1
1.921998594E0,-1.722628117E0,-1.019271564E1,-4.566939771E-1
1.924486355E0,-1.684320927E0,-1.017356110E1,-4.088099301E-1
1.926974115E0,-1.602918029E0,-1.016877270E1,-3.705027103E-1
1.929461876E0,-1.526303530E0,-1.019271564E1,-3.226186931E-1
1.931949636E0,-1.459265947E0,-1.019750404E1,-2.986766696E-1
1.934437396E0,-1.382651448E0,-1.022144604E1,-2.890998423E-1
1.936925157E0,-1.334767461E0,-1.020708084E1,-3.178302646E-1
1.939412917E0,-1.291671872E0,-1.021665764E1,-3.657143116E-1
1.941900678E0,-1.272518158E0,-1.020229244E1,-4.423287511E-1
1.944388438E0,-1.282094955E0,-1.018792725E1,-5.045779943E-1
1.946876199E0,-1.301248670E0,-1.014961910E1,-5.955576897E-1
1.949363959E0,-1.349132657E0,-1.011610031E1,-6.769605279E-1
1.951851719E0,-1.373074651E0,-1.009215832E1,-7.870938182E-1
1.954339480E0,-1.406593442E0,-1.007779312E1,-8.780734539E-1
1.956827240E0,-1.435323954E0,-1.007300472E1,-9.355342984E-1
1.959315001E0,-1.487996340E0,-1.006342793E1,-1.031302333E0
1.961802761E0,-1.545457244E0,-1.006821632E1,-1.112705231E0
1.964290521E0,-1.641225219E0,-1.006821632E1,-1.203684926E0
1.966778282E0,-1.741781712E0,-1.006821632E1,-1.275510907E0
1.969266042E0,-1.866280198E0,-1.007300472E1,-1.352125406E0
1.971753803E0,-1.976413488E0,-1.010173512E1,-1.414374709E0
1.974241563E0,-2.072181463E0,-1.013525391E1,-1.462258697E0
1.976729324E0,-2.144007683E0,-1.016398430E1,-1.495777488E0
1.979217084E0,-2.191891670E0,-1.018792725E1,-1.500565886E0
1.981704844E0,-2.239775658E0,-1.018313885E1,-1.467047095E0
1.984192605E0,-2.287659645E0,-1.019750404E1,-1.404797792E0
1.986680365E0,-2.306813240E0,-1.024538803E1,-1.332971811E0
1.989168126E0,-2.302024841E0,-1.027411842E1,-1.232415318E0
1.991655886E0,-2.234987259E0,-1.030284882E1,-1.107916832E0
1.994143646E0,-2.201468468E0,-1.033636761E1,-1.021725535E0
1.996631407E0,-2.144007683E0,-1.038903999E1,-9.211691022E-1
1.999119167E0,-2.100912094E0,-1.042255878E1,-8.014590144E-1
2.001606928E0,-2.072181463E0,-1.047044277E1,-7.248445749E-1
2.004094688E0,-2.057816267E0,-1.050874996E1,-6.721721292E-1
2.006582449E0,-2.029085875E0,-1.052790356E1,-6.194996834E-1
2.009070209E0,-2.000355482E0,-1.055184555E1,-5.668272376E-1
2.011557969E0,-1.966836691E0,-1.056621075E1,-5.237316489E-1
2.014045730E0,-1.933317900E0,-1.056621075E1,-4.902127981E-1
2.016533490E0,-1.856703401E0,-1.054226875E1,-4.662707746E-1
2.019021251E0,-1.775300503E0,-1.055184555E1,-4.423287511E-1
2.021509011E0,-1.679532528E0,-1.054705715E1,-4.423287511E-1
2.023996771E0,-1.631648421E0,-1.053269196E1,-4.471171796E-1
2.026484532E0,-1.583764434E0,-1.051832676E1,-4.566939771E-1
2.028972292E0,-1.540668845E0,-1.051353836E1,-5.141547918E-1
2.031460053E0,-1.507149935E0,-1.050874996E1,-5.859808922E-1
2.033947813E0,-1.492784739E0,-1.050396156E1,-6.578069329E-1
2.036435574E0,-1.511938334E0,-1.052311516E1,-7.439981699E-1
2.038923334E0,-1.502361536E0,-1.052790356E1,-8.397662640E-1
2.041411094E0,-1.526303530E0,-1.053269196E1,-9.163807034E-1
2.043898855E0,-1.550245643E0,-1.055184555E1,-9.738415480E-1
2.046386615E0,-1.559822440E0,-1.057578754E1,-1.040879130E0
2.048874376E0,-1.588552833E0,-1.059494114E1,-1.122282028E0
2.051362136E0,-1.607706428E0,-1.060451794E1,-1.194108129E0
2.053849896E0,-1.646013618E0,-1.059972954E1,-1.265934110E0
2.056337657E0,-1.698686123E0,-1.059972954E1,-1.275510907E0
2.058825469E0,-1.765723705E0,-1.059972954E1,-1.299453020E0
2.061313282E0,-1.808819413E0,-1.059972954E1,-1.299453020E0
2.063801094E0,-1.861491799E0,-1.062845993E1,-1.304241419E0
2.066288907E0,-1.928529501E0,-1.063803673E1,-1.261145711E0
2.068776719E0,-1.981201887E0,-1.064761353E1,-1.198896527E0
2.071264532E0,-2.053027868E0,-1.068592072E1,-1.146224022E0
2.073752344E0,-2.096123695E0,-1.073380470E1,-1.069609642E0
2.076240157E0,-2.124854088E0,-1.076732349E1,-1.016937137E0
2.078727969E0,-2.134430885E0,-1.081520748E1,-9.834183455E-1
2.081215782E0,-2.148796082E0,-1.084872627E1,-9.068039060E-1
2.083703594E0,-2.134430885E0,-1.089182186E1,-8.541314602E-1
2.086191407E0,-2.124854088E0,-1.092534065E1,-8.158242106E-1
2.088679219E0,-2.134430885E0,-1.096364784E1,-7.870938182E-1
2.091167032E0,-2.120065689E0,-1.098280144E1,-7.583633661E-1
2.093654844E0,-2.124854088E0,-1.099716663E1,-7.487865686E-1
2.096142657E0,-2.144007683E0,-1.100674343E1,-7.296329737E-1
2.098630469E0,-2.172738075E0,-1.101632023E1,-6.817489266E-1
2.101118282E0,-2.206256866E0,-1.103068542E1,-6.482301354E-1
2.103606094E0,-2.201468468E0,-1.103068542E1,-6.003460884E-1
2.106093907E0,-2.215833664E0,-1.101153183E1,-5.764040351E-1
2.108581719E0,-2.191891670E0,-1.103068542E1,-5.620388389E-1
2.111069532E0,-2.158372879E0,-1.105462742E1,-5.811924338E-1
2.113557344E0,-2.100912094E0,-1.104505062E1,-5.764040351E-1
2.116045157E0,-2.072181463E0,-1.106899261E1,-5.764040351E-1
2.118532969E0,-2.000355482E0,-1.110251141E1,-5.764040351E-1
2.121020782E0,-1.923741102E0,-1.111687660E1,-5.716156363E-1
2.123508594E0,-1.861491799E0,-1.114560699E1,-5.572504401E-1
2.125996407E0,-1.842338204E0,-1.117912674E1,-5.572504401E-1
2.128484167E0,-1.837549806E0,-1.123179913E1,-5.428852439E-1
2.130971928E0,-1.851915002E0,-1.124616432E1,-5.476736426E-1
2.133459688E0,-1.866280198E0,-1.125574112E1,-5.716156363E-1
2.135947449E0,-1.899798989E0,-1.127968311E1,-6.242880821E-1
2.138435209E0,-1.962048292E0,-1.128925991E1,-6.578069329E-1
2.140922969E0,-2.019509077E0,-1.129404831E1,-6.673837304E-1
2.143410730E0,-2.053027868E0,-1.131320190E1,-7.056909800E-1
2.145898490E0,-2.067393064E0,-1.133235550E1,-7.248445749E-1
2.148386251E0,-2.076969862E0,-1.137545109E1,-7.200561762E-1
2.150874011E0,-2.124854088E0,-1.140418148E1,-7.344213724E-1
2.153361771E0,-2.148796082E0,-1.142812347E1,-7.535749674E-1
2.155849532E0,-2.172738075E0,-1.146164227E1,-7.727286220E-1
2.158337292E0,-2.172738075E0,-1.150473785E1,-7.535749674E-1
2.160825053E0,-2.158372879E0,-1.154783344E1,-7.487865686E-1
2.163312813E0,-2.153584480E0,-1.158614063E1,-7.248445749E-1
2.165800574E0,-2.163161278E0,-1.161965942E1,-7.296329737E-1
2.168288334E0,-2.148796082E0,-1.165796661E1,-7.344213724E-1
2.170776094E0,-2.134430885E0,-1.171542740E1,-7.104793787E-1
2.173263855E0,-2.105700493E0,-1.176331139E1,-7.152677774E-1
2.175751615E0,-2.091335297E0,-1.181119537E1,-7.344213724E-1
2.178239376E0,-2.081758261E0,-1.187344456E1,-7.344213724E-1
2.180727136E0,-2.076969862E0,-1.192132854E1,-7.487865686E-1
2.183214896E0,-2.076969862E0,-1.193569374E1,-7.439981699E-1
2.185702657E0,-2.081758261E0,-1.198357773E1,-7.631517649E-1
2.188190417E0,-2.120065689E0,-1.200751972E1,-7.583633661E-1
2.190678178E0,-2.144007683E0,-1.206019211E1,-7.631517649E-1
2.193165938E0,-2.191891670E0,-1.209371090E1,-7.535749674E-1
2.195653699E0,-2.244564056E0,-1.212722969E1,-7.727286220E-1
2.198141459E0,-2.268506050E0,-1.217032623E1,-7.918822169E-1
2.200629219E0,-2.263717651E0,-1.220863342E1,-8.110358119E-1
2.203116980E0,-2.268506050E0,-1.224694061E1,-8.254010081E-1
2.205604740E0,-2.254140854E0,-1.230918980E1,-8.206126094E-1
2.208092501E0,-2.234987259E0,-1.234749699E1,-8.301894665E-1
2.210580261E0,-2.191891670E0,-1.240974617E1,-8.254010081E-1
2.213068021E0,-2.153584480E0,-1.246720695E1,-8.110358119E-1
2.215555782E0,-2.129642487E0,-1.252466774E1,-7.679402232E-1
2.218043542E0,-2.115277290E0,-1.257255173E1,-7.152677774E-1
2.220531303E0,-2.139219284E0,-1.260607052E1,-6.961141229E-1
2.223019063E0,-2.167949677E0,-1.262522411E1,-7.104793787E-1
2.225506824E0,-2.201468468E0,-1.263480091E1,-7.104793787E-1
2.227994584E0,-2.234987259E0,-1.265395451E1,-7.535749674E-1
2.230482344E0,-2.273294449E0,-1.267310810E1,-7.966706157E-1
2.232970105E0,-2.302024841E0,-1.268747330E1,-8.637082577E-1
2.235457865E0,-2.340332270E0,-1.271141529E1,-9.163807034E-1
2.237945626E0,-2.345120668E0,-1.274014568E1,-9.738415480E-1
2.240433386E0,-2.397793055E0,-1.278324127E1,-1.012148738E0
2.242921146E0,-2.431311846E0,-1.282154846E1,-1.064821243E0
2.245408907E0,-2.479195833E0,-1.285027885E1,-1.103128433E0
2.247896667E0,-2.536656618E0,-1.288379765E1,-1.098340034E0
2.250384428E0,-2.594117641E0,-1.289337444E1,-1.088763237E0
2.252872188E0,-2.675520420E0,-1.289337444E1,-1.103128433E0
2.255359949E0,-2.742558002E0,-1.289337444E1,-1.088763237E0
2.257847709E0,-2.823961020E0,-1.286464405E1,-1.050456047E0
2.260335469E0,-2.871845007E0,-1.283591366E1,-1.026513934E0
2.262823230E0,-2.919728994E0,-1.281197166E1,-1.002571940E0
2.265310990E0,-2.943670988E0,-1.277366447E1,-1.002571940E0
2.267798751E0,-2.914940596E0,-1.272578049E1,-9.594763517E-1
2.270286511E0,-2.857479811E0,-1.268268490E1,-9.115923047E-1
2.272774271E0,-2.809595585E0,-1.264437771E1,-8.732850552E-1
2.275262032E0,-2.785653591E0,-1.260128212E1,-8.014590144E-1
2.277749792E0,-2.723404408E0,-1.254382133E1,-7.056909800E-1
2.280237553E0,-2.718616009E0,-1.248636055E1,-5.859808922E-1
2.282725313E0,-2.689885616E0,-1.245284176E1,-4.471171796E-1
2.285213074E0,-2.665943623E0,-1.242889977E1,-3.417722881E-1
2.287700834E0,-2.637213230E0,-1.241932297E1,-2.603694201E-1
2.290188594E0,-2.584540844E0,-1.243847656E1,-1.837549806E-1
2.292676355E0,-2.517503023E0,-1.249114895E1,-1.454477459E-1
2.295164115E0,-2.431311846E0,-1.253424454E1,-1.550245583E-1
2.297651876E0,-2.364274263E0,-1.258691692E1,-2.029085904E-1
2.300139636E0,-2.335543871E0,-1.266353130E1,-2.795230448E-1
2.302627396E0,-2.321178436E0,-1.274493408E1,-3.369838893E-1
2.305115157E0,-2.345120668E0,-1.284070206E1,-3.944447339E-1
2.307602917E0,-2.354697466E0,-1.292689323E1,-4.854243994E-1
2.310090678E0,-2.359485865E0,-1.299871922E1,-5.620388389E-1
2.312578438E0,-2.378639460E0,-1.309927559E1,-6.434416771E-1
2.315066199E0,-2.383427858E0,-1.318546772E1,-7.439981699E-1
2.317553959E0,-2.393004656E0,-1.326687050E1,-8.397662640E-1
2.320041719E0,-2.397793055E0,-1.332911968E1,-9.355342984E-1
2.322529480E0,-2.402581453E0,-1.340573406E1,-1.050456047E0
2.325017240E0,-2.407369852E0,-1.347756004E1,-1.170166135E0
2.327505001E0,-2.450465441E0,-1.352544403E1,-1.289876223E0
2.329992761E0,-2.522291422E0,-1.355417442E1,-1.404797792E0
2.332480521E0,-2.589329243E0,-1.356853962E1,-1.495777488E0
2.334968282E0,-2.656366825E0,-1.358290482E1,-1.567603588E0
2.337456042E0,-2.752134800E0,-1.357332802E1,-1.605910778E0
2.339943803E0,-2.814383984E0,-1.355417442E1,-1.658583283E0
2.342431563E0,-2.876633406E0,-1.355896282E1,-1.672948480E0
2.344919324E0,-2.905363798E0,-1.353023243E1,-1.644217968E0
2.347407084E0,-2.914940596E0,-1.351586723E1,-1.610699177E0
2.349894844E0,-2.924517393E0,-1.350150204E1,-1.534084797E0
2.352382605E0,-2.934094191E0,-1.343446445E1,-1.462258697E0
2.354870365E0,-2.953247786E0,-1.336742687E1,-1.371279001E0
2.357358126E0,-2.972401381E0,-1.330038929E1,-1.251568913E0
2.359845886E0,-2.967612982E0,-1.326687050E1,-1.131858826E0
2.362333646E0,-2.948459387E0,-1.319504452E1,-1.021725535E0
2.364821407E0,-2.934094191E0,-1.313279533E1,-9.307458997E-1
2.367309167E0,-2.876633406E0,-1.308012199E1,-8.349778652E-1
2.369796928E0,-2.823961020E0,-1.305618000E1,-7.535749674E-1
2.372284688E0,-2.742558002E0,-1.305618000E1,-6.865373254E-1
2.374772449E0,-2.670732021E0,-1.305139160E1,-6.194996834E-1
2.377260209E0,-2.608482838E0,-1.306096840E1,-5.859808922E-1
2.379747969E0,-2.579752445E0,-1.307054520E1,-6.194996834E-1
2.382235730E0,-2.546233416E0,-1.308969879E1,-6.482301354E-1
2.384723490E0,-2.512714624E0,-1.311843014E1,-6.961141229E-1
2.387211251E0,-2.469619036E0,-1.316152573E1,-7.487865686E-1
2.389699011E0,-2.412158251E0,-1.320940971E1,-7.775170207E-1
2.392186771E0,-2.330755472E0,-1.325729370E1,-8.110358119E-1
2.394674532E0,-2.258929253E0,-1.328602409E1,-8.493430614E-1
2.397162292E0,-2.167949677E0,-1.332433128E1,-8.637082577E-1
2.399650053E0,-2.105700493E0,-1.332911968E1,-9.211691022E-1
2.402137813E0,-2.057816267E0,-1.333390808E1,-9.594763517E-1
2.404625574E0,-2.033874273E0,-1.332433128E1,-1.026513934E0
2.407113334E0,-2.029085875E0,-1.332433128E1,-1.122282028E0
2.409601094E0,-2.033874273E0,-1.329560089E1,-1.241992116E0
2.412088855E0,-2.096123695E0,-1.326208210E1,-1.347337008E0
2.414576615E0,-2.163161278E0,-1.321419811E1,-1.462258697E0
2.417064376E0,-2.239775658E0,-1.318546772E1,-1.567603588E0
2.419552136E0,-2.306813240E0,-1.315194893E1,-1.610699177E0
2.422039896E0,-2.354697466E0,-1.314237213E1,-1.663371682E0
2.424527657E0,-2.397793055E0,-1.314237213E1,-1.692102075E0
2.427015417E0,-2.436100245E0,-1.314237213E1,-1.716044068E0
2.429503178E0,-2.507926226E0,-1.313758373E1,-1.711255670E0
2.431990938E0,-2.589329243E0,-1.312800694E1,-1.696890473E0
2.434478699E0,-2.665943623E0,-1.309448719E1,-1.658583283E0
2.436966459E0,-2.771288395E0,-1.308012199E1,-1.615487576E0
2.439454219E0,-2.862268209E0,-1.303702641E1,-1.534084797E0
2.441941980E0,-2.924517393E0,-1.297956562E1,-1.423951507E0
2.444429740E0,-2.972401381E0,-1.292689323E1,-1.318606615E0
2.446917501E0,-2.972401381E0,-1.286464405E1,-1.213261724E0
2.449405261E0,-2.948459387E0,-1.281197166E1,-1.117493629E0
2.451893021E0,-2.924517393E0,-1.277366447E1,-1.031302333E0
2.454380782E0,-2.886210203E0,-1.272578049E1,-9.451110959E-1
2.456868542E0,-2.847903013E0,-1.268747330E1,-8.349778652E-1
2.459356303E0,-2.852691412E0,-1.264916611E1,-7.200561762E-1
2.461844063E0,-2.838326216E0,-1.260128212E1,-6.338648796E-1
2.464331824E0,-2.814383984E0,-1.255339813E1,-5.764040351E-1
2.466819584E0,-2.795230389E0,-1.254382133E1,-5.189431906E-1
2.469307344E0,-2.785653591E0,-1.252945614E1,-4.758476019E-1
2.471795105E0,-2.747346401E0,-1.249593735E1,-4.614823759E-1
2.474282865E0,-2.723404408E0,-1.247678375E1,-4.614823759E-1
2.476770626E0,-2.680308819E0,-1.244805336E1,-4.710591733E-1
2.479258386E0,-2.603694439E0,-1.244326496E1,-5.141547918E-1
2.481746146E0,-2.527079821E0,-1.242411137E1,-5.237316489E-1
2.484233907E0,-2.445677042E0,-1.240495777E1,-5.380968451E-1
2.486721667E0,-2.340332270E0,-1.239538097E1,-5.668272376E-1
2.489209428E0,-2.263717651E0,-1.240016937E1,-5.811924338E-1
2.491697188E0,-2.206256866E0,-1.239538097E1,-6.338648796E-1
2.494184949E0,-2.182314873E0,-1.239538097E1,-6.817489266E-1
2.496672709E0,-2.153584480E0,-1.241932297E1,-7.727286220E-1
2.499160469E0,-2.163161278E0,-1.242411137E1,-8.493430614E-1
2.501648230E0,-2.187103271E0,-1.242889977E1,-9.068039060E-1
2.504135990E0,-2.211045265E0,-1.243847656E1,-9.594763517E-1
2.506623751E0,-2.225410461E0,-1.244805336E1,-9.642647505E-1
2.509111511E0,-2.220622063E0,-1.246720695E1,-9.690531492E-1
2.511599271E0,-2.201468468E0,-1.245763016E1,-9.786299467E-1
2.514087032E0,-2.191891670E0,-1.244326496E1,-1.012148738E0
2.516574792E0,-2.172738075E0,-1.241453457E1,-1.031302333E0
2.519062553E0,-2.177526474E0,-1.235707378E1,-1.040879130E0
2.521550313E0,-2.225410461E0,-1.228045940E1,-1.026513934E0
2.524038074E0,-2.278082848E0,-1.220384502E1,-1.012148738E0
2.526525834E0,-2.345120668E0,-1.211765289E1,-9.882067442E-1
2.529013594E0,-2.421735048E0,-1.203625011E1,-9.786299467E-1
2.531501355E0,-2.450465441E0,-1.197878933E1,-9.690531492E-1
2.533989115E0,-2.469619036E0,-1.193090534E1,-9.307458997E-1
2.536476876E0,-2.464830637E0,-1.188780975E1,-9.115923047E-1
2.538964636E0,-2.474407434E0,-1.184950256E1,-9.115923047E-1
2.541452396E0,-2.483984232E0,-1.180640697E1,-8.876502514E-1
2.543940157E0,-2.503137827E0,-1.177767658E1,-8.780734539E-1
2.546427917E0,-2.536656618E0,-1.174415779E1,-8.397662640E-1
2.548915678E0,-2.574964046E0,-1.168669701E1,-8.206126094E-1
2.551403438E0,-2.622848034E0,-1.164360142E1,-7.918822169E-1
2.553891199E0,-2.632424831E0,-1.159092903E1,-7.679402232E-1
2.556378959E0,-2.632424831E0,-1.154783344E1,-7.392097712E-1
2.558866719E0,-2.579752445E0,-1.149994946E1,-6.817489266E-1
2.561354480E0,-2.512714624E0,-1.144727707E1,-6.147112846E-1
2.563842240E0,-2.402581453E0,-1.136108589E1,-5.764040351E-1
2.566330001E0,-2.297236443E0,-1.128925991E1,-5.668272376E-1
2.568817761E0,-2.191891670E0,-1.122701073E1,-5.572504401E-1
2.571305521E0,-2.100912094E0,-1.112645340E1,-5.428852439E-1
2.573793282E0,-2.062604666E0,-1.102589703E1,-5.333084464E-1
2.576281042E0,-2.033874273E0,-1.091097546E1,-5.045779943E-1
2.578768803E0,-2.024297476E0,-1.080084229E1,-4.806360006E-1
2.581256563E0,-2.014720678E0,-1.068113232E1,-4.279635549E-1
2.583744324E0,-2.000355482E0,-1.058057594E1,-4.040215313E-1
2.586232084E0,-1.962048292E0,-1.049917316E1,-4.040215313E-1
2.588719844E0,-1.923741102E0,-1.040340519E1,-3.848679364E-1
2.591207605E0,-1.890222192E0,-1.030763721E1,-3.992331326E-1
2.593695365E0,-1.832761407E0,-1.021665764E1,-4.135983288E-1
2.596183126E0,-1.780089021E0,-1.012567711E1,-4.710591733E-1
2.598670886E0,-1.736993313E0,-1.003469753E1,-5.141547918E-1
2.601158646E0,-1.689109325E0,-9.919775963E0,-5.620388389E-1
2.603646407E0,-1.646013618E0,-9.833584785E0,-6.003460884E-1
2.606134167E0,-1.607706428E0,-9.728240013E0,-6.434416771E-1
2.608621928E0,-1.593341231E0,-9.603741646E0,-6.721721292E-1
2.611109688E0,-1.602918029E0,-9.488820076E0,-6.721721292E-1
2.613597449E0,-1.622071624E0,-9.354744911E0,-6.673837304E-1
2.616085209E0,-1.646013618E0,-9.239823341E0,-6.578069329E-1
2.618572969E0,-1.646013618E0,-9.110535622E0,-6.386532784E-1
2.621060730E0,-1.607706428E0,-8.990825653E0,-6.003460884E-1
2.623548490E0,-1.578976035E0,-8.875904083E0,-6.003460884E-1
2.626036251E0,-1.550245643E0,-8.775347710E0,-6.051344872E-1
2.628524011E0,-1.564610839E0,-8.650849342E0,-6.194996834E-1
2.631011771E0,-1.578976035E0,-8.516774178E0,-6.338648796E-1
2.633499532E0,-1.626860023E0,-8.401852608E0,-6.290764809E-1
2.635987292E0,-1.703474522E0,-8.272565842E0,-6.338648796E-1
2.638475053E0,-1.770512104E0,-8.143278122E0,-6.242880821E-1
2.640962813E0,-1.837549806E0,-8.013991356E0,-6.051344872E-1
2.643450574E0,-1.871068597E0,-7.894281387E0,-5.476736426E-1
2.645938334E0,-1.890222192E0,-7.769783020E0,-5.045779943E-1
2.648426094E0,-1.856703401E0,-7.640496254E0,-4.471171796E-1
2.650913855E0,-1.808819413E0,-7.530363083E0,-3.465606868E-1
2.653401615E0,-1.727416515E0,-7.391499043E0,-2.747346461E-1
2.655889376E0,-1.655590534E0,-7.286154270E0,-2.076970041E-1
2.658377136E0,-1.588552833E0,-7.156867504E0,-1.262941360E-1
2.660864896E0,-1.521515131E0,-7.041945934E0,-6.404489279E-2
2.663352657E0,-1.507149935E0,-6.912658691E0,7.781155407E-3
2.665840417E0,-1.497573137E0,-6.797737122E0,6.045359373E-2
2.668328178E0,-1.511938334E0,-6.692392349E0,9.397241473E-2
2.670815938E0,-1.521515131E0,-6.582259178E0,1.083376259E-1
2.673303699E0,-1.555034041E0,-6.476913929E0,1.179144308E-1
2.675791459E0,-1.578976035E0,-6.376357555E0,1.131260321E-1
2.678279219E0,-1.574187636E0,-6.299743176E0,1.322796494E-1
2.680766980E0,-1.564610839E0,-6.227917194E0,1.801636815E-1
2.683254740E0,-1.511938334E0,-6.170456409E0,2.232593149E-1
2.685742501E0,-1.449689150E0,-6.112995625E0,2.950853705E-1
2.688230261E0,-1.368286252E0,-6.060323238E0,3.621230125E-1
2.690718021E0,-1.291671872E0,-6.031592846E0,4.531026781E-1
2.693205782E0,-1.205480576E0,-6.031592846E0,5.057750940E-1
2.695693542E0,-1.104924083E0,-6.031592846E0,5.249287486E-1
2.698181303E0,-1.023521185E0,-6.036381245E0,5.057750940E-1
2.700669063E0,-9.325415492E-1,-6.050746441E0,4.770447016E-1
2.703156824E0,-8.559271097E-1,-6.084265232E0,4.531026781E-1
2.705644584E0,-8.032546639E-1,-6.146514416E0,3.908534348E-1
2.708132344E0,-7.553706169E-1,-6.175244808E0,3.333925903E-1
2.710620105E0,-7.218518257E-1,-6.203975201E0,2.998737693E-1
2.713107865E0,-7.266402245E-1,-6.223128796E0,2.615665495E-1
2.715595678E0,-7.218518257E-1,-6.232705593E0,1.945288926E-1
2.718083490E0,-7.601590157E-1,-6.251859188E0,1.035492271E-1
2.720571303E0,-8.128314614E-1,-6.256647587E0,1.256955881E-2
2.723059115E0,-8.894459605E-1,-6.203975201E0,-8.798690885E-2
2.725546928E0,-9.947907925E-1,-6.136937618E0,-1.933317930E-1
2.728034740E0,-1.100135684E0,-6.055534840E0,-2.938882709E-1
2.730522553E0,-1.215057373E0,-5.954977989E0,-3.705027103E-1
2.733010365E0,-1.282094955E0,-5.844844818E0,-3.705027103E-1
2.735498178E0,-1.349132657E0,-5.725134850E0,-3.226186931E-1
2.737985990E0,-1.368286252E0,-5.605424881E0,-2.172738016E-1
2.740473803E0,-1.315613866E0,-5.485714436E0,-6.883329898E-2
2.742961615E0,-1.238999367E0,-5.399523258E0,1.035492271E-1
2.745449428E0,-1.128866076E0,-5.332485676E0,2.759317458E-1
2.747937240E0,-9.995791912E-1,-5.275024891E0,4.195838571E-1
2.750425053E0,-8.750807047E-1,-5.246294498E0,5.009866953E-1
2.752912865E0,-7.457938194E-1,-5.227140903E0,5.776011348E-1
2.755400678E0,-6.308721304E-1,-5.203198910E0,6.015431881E-1
2.757888490E0,-5.255272985E-1,-5.193622112E0,6.398503780E-1
2.760376303E0,-4.680664241E-1,-5.203198910E0,6.685808301E-1
2.762864115E0,-4.249708056E-1,-5.198410511E0,7.164648771E-1
2.765351928E0,-3.962403834E-1,-5.188833714E0,7.164648771E-1
2.767839740E0,-3.914519846E-1,-5.160103321E0,6.973112226E-1
2.770327553E0,-3.866635859E-1,-5.150526524E0,6.398503780E-1
2.772815365E0,-4.106055796E-1,-5.112219334E0,5.776011348E-1
2.775303178E0,-4.489128292E-1,-5.088277340E0,5.009866953E-1
2.777790990E0,-4.920084476E-1,-5.069123745E0,4.674678743E-1
2.780278803E0,-5.255272985E-1,-4.997297287E0,4.100070298E-1
2.782766563E0,-5.638344884E-1,-4.958990097E0,3.860650361E-1
2.785254324E0,-5.877765417E-1,-4.920682907E0,3.716998100E-1
2.787742084E0,-6.069301367E-1,-4.868010521E0,3.333925903E-1
2.790229844E0,-6.404489279E-1,-4.824914932E0,3.190273643E-1
2.792717605E0,-6.452373862E-1,-4.781819344E0,2.950853705E-1
2.795205365E0,-6.404489279E-1,-4.757877350E0,2.855085433E-1
2.797693126E0,-6.356605291E-1,-4.719570160E0,2.950853705E-1
2.800180886E0,-6.356605291E-1,-4.695628166E0,3.381809890E-1
2.802668646E0,-6.308721304E-1,-4.686051369E0,3.764882088E-1
2.805156407E0,-6.021417379E-1,-4.662109375E0,4.435258508E-1
2.807644167E0,-5.829881430E-1,-4.638167381E0,5.345055461E-1
2.810131928E0,-5.446808934E-1,-4.628590584E0,6.206967831E-1
2.812619688E0,-5.063736439E-1,-4.623802185E0,7.260416746E-1
2.815107449E0,-4.632780254E-1,-4.638167381E0,8.265981078E-1
2.817595209E0,-4.106055796E-1,-4.623802185E0,8.984242082E-1
2.820082969E0,-3.866635859E-1,-4.604648590E0,9.606734514E-1
2.822570730E0,-3.675099611E-1,-4.571129799E0,9.846154451E-1
2.825058490E0,-3.627215624E-1,-4.542399406E0,9.894038439E-1
2.827546251E0,-3.770867586E-1,-4.470572948E0,9.606734514E-1
2.830034011E0,-4.010287821E-1,-4.422688961E0,9.175778031E-1
2.832521771E0,-4.441244006E-1,-4.341286182E0,8.936358094E-1
2.835009532E0,-5.063736439E-1,-4.279036999E0,8.122329116E-1
2.837497292E0,-5.877765417E-1,-4.183269024E0,6.781576276E-1
2.839985053E0,-6.643909812E-1,-4.058770657E0,4.914098978E-1
2.842472813E0,-7.649474144E-1,-3.948637247E0,3.238157928E-1
2.844960574E0,-8.607155085E-1,-3.804985046E0,1.993172914E-1
2.847448334E0,-9.564836025E-1,-3.675698042E0,1.466448605E-1
2.849936094E0,-1.066616893E0,-3.522469282E0,1.179144308E-1
2.852423855E0,-1.152808070E0,-3.383605480E0,9.876082093E-2
2.854911615E0,-1.205480576E0,-3.259107113E0,1.322796494E-1
2.857399376E0,-1.253364563E0,-3.125031710E0,2.041056901E-1
2.859887136E0,-1.277306557E0,-2.995744944E0,3.238157928E-1
2.862374896E0,-1.277306557E0,-2.880823135E0,4.387374520E-1
2.864862657E0,-1.253364563E0,-2.751536369E0,5.536591411E-1
2.867350417E0,-1.205480576E0,-2.665344954E0,6.733692288E-1
2.869838178E0,-1.162384868E0,-2.569576979E0,8.026561141E-1
2.872325938E0,-1.104924083E0,-2.459443808E0,9.223662019E-1
2.874813699E0,-1.047463298E0,-2.378040791E0,1.056441545E0
2.877301459E0,-9.947907925E-1,-2.291849613E0,1.161786318E0
2.879789219E0,-9.756371975E-1,-2.191293001E0,1.252766013E0
2.882276980E0,-9.660604000E-1,-2.119467020E0,1.310226917E0
2.884764740E0,-9.373299479E-1,-2.028487444E0,1.367687702E0
2.887252501E0,-9.038111567E-1,-1.947084546E0,1.415571809E0
2.889740261E0,-8.655039072E-1,-1.860893250E0,1.477820992E0
2.892228021E0,-8.271966577E-1,-1.793855667E0,1.496974587E0
2.894715782E0,-7.793126702E-1,-1.726817966E0,1.511339784E0
2.897203542E0,-7.026981711E-1,-1.654991984E0,1.511339784E0
2.899691303E0,-6.260837317E-1,-1.592742682E0,1.516128182E0
2.902179063E0,-5.446808934E-1,-1.535281897E0,1.549647093E0
2.904666824E0,-4.584896266E-1,-1.492186189E0,1.578377485E0
2.907154584E0,-3.675099611E-1,-1.434725404E0,1.626261473E0
2.909642344E0,-2.861070931E-1,-1.377264500E0,1.688510776E0
2.912130105E0,-2.047042400E-1,-1.334168911E0,1.741183162E0
2.914617865E0,-1.472434103E-1,-1.291073322E0,1.755548358E0
2.917105626E0,-9.457096457E-2,-1.257554412E0,1.760336757E0
2.919593386E0,-3.232172132E-2,-1.233612418E0,1.736394763E0
2.922081146E0,-3.591302549E-3,-1.238400817E0,1.707664371E0
2.924568907E0,2.992752194E-2,-1.267131209E0,1.654991984E0
2.927056667E0,1.113303825E-1,-1.300650120E0,1.626261473E0
2.929544428E0,1.735796183E-1,-1.367687702E0,1.645415068E0
2.932032188E0,2.549824715E-1,-1.444302201E0,1.683722377E0
2.934519949E0,3.507505357E-1,-1.549647093E0,1.683722377E0
2.937007709E0,4.129997790E-1,-1.678933978E0,1.659780383E0
2.939495469E0,4.608838260E-1,-1.827374458E0,1.607107878E0
2.941983230E0,5.039794445E-1,-1.990180135E0,1.544858694E0
2.944470990E0,5.279214978E-1,-2.162562609E0,1.487397790E0
2.946958751E0,5.374982953E-1,-2.349310398E0,1.410783410E0
2.949446511E0,5.135562420E-1,-2.536058187E0,1.300650120E0
2.951934271E0,4.944026470E-1,-2.708440781E0,1.214458823E0
2.954422032E0,4.417302012E-1,-2.899976730E0,1.137844324E0
2.956909792E0,3.459621370E-1,-3.072359324E0,1.056441545E0
2.959397553E0,2.406172752E-1,-3.239953518E0,9.941922426E-1
2.961885313E0,1.017535701E-1,-3.421912670E0,9.175778031E-1
2.964373074E0,-3.232172132E-2,-3.618237257E0,8.553285599E-1
2.966860834E0,-1.807622313E-1,-3.824138641E0,7.930793166E-1
2.969348594E0,-3.196259141E-1,-4.049193859E0,7.499836683E-1
2.971836355E0,-4.632780254E-1,-4.302978992E0,7.356184721E-1
2.974324115E0,-6.117185354E-1,-4.551976204E0,7.260416746E-1
2.976811876E0,-7.218518257E-1,-4.853645325E0,7.499836683E-1
2.979299636E0,-8.176198602E-1,-5.184045315E0,7.930793166E-1
2.981787396E0,-8.894459605E-1,-5.557540894E0,8.361749649E-1
2.984275157E0,-9.277531505E-1,-5.959766388E0,8.840589523E-1
2.986762917E0,-9.325415492E-1,-6.452971935E0,9.989806414E-1
2.989250678E0,-8.990227580E-1,-7.022792339E0,1.190516829E0
2.991738438E0,-8.607155085E-1,-7.669226646E0,1.434725404E0
2.994226199E0,-7.936778665E-1,-8.406641006E0,1.712452769E0
2.996713959E0,-6.787561774E-1,-9.268553734E0,2.076371431E0
2.999201719E0,-5.398924947E-1,-1.027890682E1,2.526481390E0
3.001689480E0,-3.627215624E-1,-1.139460468E1,3.014898539E0
3.004177240E0,-1.568202078E-1,-1.262522411E1,3.517680883E0
3.006665001E0,8.738835901E-2,-1.393245792E1,3.895964622E0
3.009152761E0,3.028665185E-1,-1.525884628E1,4.173692226E0
3.011640521E0,4.704606235E-1,-1.650861931E1,4.293402195E0
3.014128282E0,5.758054852E-1,-1.769135475E1,4.235941410E0
3.016616042E0,5.949591398E-1,-1.866340065E1,4.087501049E0
3.019103803E0,5.039794445E-1,-1.943433380E1,3.852869034E0
3.021591563E0,2.980781198E-1,-1.998021126E1,3.465008497E0
3.024079324E0,3.471592441E-2,-2.025793839E1,3.005321741E0
3.026567084E0,-3.148375154E-1,-2.024357414E1,2.588730574E0
3.029054844E0,-7.410054207E-1,-1.996584702E1,2.215235233E0
3.031542605E0,-1.171961784E0,-1.943912125E1,1.836951256E0
3.034030365E0,-1.622071624E0,-1.874480438E1,1.482609391E0
3.036518126E0,-2.009932280E0,-1.794514084E1,1.209670424E0
3.039005886E0,-2.359485865E0,-1.712632370E1,1.056441545E0
3.041493646E0,-2.661155224E0,-1.632187080E1,9.702502489E-1
3.043981407E0,-2.881421804E0,-1.556530380E1,9.319429994E-1
3.046469167E0,-3.106476784E0,-1.484704304E1,9.367313981E-1
3.048956928E0,-3.331531763E0,-1.419582081E1,9.750386477E-1
3.051444688E0,-3.542221308E0,-1.361642361E1,1.032499433E0
3.053932449E0,-3.772064686E0,-1.309448719E1,1.166574836E0
3.056420209E0,-4.006696701E0,-1.262043571E1,1.396418095E0
3.058907969E0,-4.226963043E0,-1.221821022E1,1.607107878E0
3.061395730E0,-4.428076267E0,-1.186865616E1,1.760336757E0
3.063883490E0,-4.619612217E0,-1.154783344E1,1.923142552E0
3.066371251E0,-4.787206173E0,-1.127968311E1,2.114678621E0
3.068859011E0,-4.945223808E0,-1.104505062E1,2.330156803E0
3.071346771E0,-5.055356979E0,-1.085830307E1,2.459443808E0
3.073834532E0,-5.098452568E0,-1.068113232E1,2.526481390E0
3.076322292E0,-5.084087372E0,-1.050874996E1,2.560000181E0
3.078810053E0,-5.050568581E0,-1.037467480E1,2.607884169E0
3.081297813E0,-4.978742599E0,-1.026454163E1,2.674921751E0
3.083785574E0,-4.863820553E0,-1.014004230E1,2.713229179E0
3.086273334E0,-4.705803394E0,-1.004427433E1,2.732382774E0
3.088761094E0,-4.523844242E0,-9.982025146E0,2.746747971E0
3.091248855E0,-4.279635429E0,-9.938929558E0,2.765901566E0
3.093736615E0,-4.030638695E0,-9.943717957E0,2.818573952E0
3.096224376E0,-3.748122692E0,-9.924564362E0,2.842515945E0
3.098712136E0,-3.441664934E0,-9.900622368E0,2.871246338E0
3.101199896E0,-3.135207176E0,-9.910199165E0,2.895188332E0
3.103687657E0,-2.838326216E0,-9.881468773E0,2.919130325E0
3.106175417E0,-2.560598612E0,-9.876680374E0,2.938283920E0
3.108663178E0,-2.316390038E0,-9.828796387E0,2.971802950E0
3.111150938E0,-2.086546898E0,-9.771335602E0,3.000533342E0
3.113638699E0,-1.895010591E0,-9.699509621E0,3.005321741E0
3.116126459E0,-1.732204914E0,-9.603741646E0,2.990956545E0
3.118614219E0,-1.578976035E0,-9.488820076E0,2.943072557E0
3.121101980E0,-1.464054346E0,-9.383475304E0,2.904765129E0
3.123589740E0,-1.334767461E0,-9.263765335E0,2.880823135E0
3.126077501E0,-1.210268974E0,-9.134477615E0,2.923918724E0
3.128565261E0,-1.095347285E0,-9.019556046E0,2.976591349E0
3.131053021E0,-9.756371975E-1,-8.904634476E0,2.995744944E0
3.133540782E0,-8.798691034E-1,-8.780136108E0,3.038840532E0
3.136028542E0,-7.601590157E-1,-8.655637741E0,3.086724520E0
3.138516303E0,-6.500257850E-1,-8.559869766E0,3.158550501E0
3.141004063E0,-5.877765417E-1,-8.464101791E0,3.192069530E0
3.143491824E0,-5.063736439E-1,-8.377910614E0,3.220799923E0
3.145979584E0,-4.872200489E-1,-8.272565842E0,3.153762102E0
3.148467344E0,-4.872200489E-1,-8.172008514E0,3.072359324E0
3.150955105E0,-5.111620426E-1,-8.066663742E0,2.986168146E0
3.153442865E0,-6.021417379E-1,-7.956530571E0,2.890399933E0
3.155930626E0,-7.122750282E-1,-7.855974197E0,2.837727547E0
3.158418386E0,-8.319851160E-1,-7.736264229E0,2.785055161E0
3.160906146E0,-9.804255962E-1,-7.635707855E0,2.694075346E0
3.163393907E0,-1.124077678E0,-7.511209488E0,2.569576979E0
3.165881667E0,-1.258152962E0,-7.391499043E0,2.425924778E0
3.168369428E0,-1.406593442E0,-7.271789074E0,2.301426411E0
3.170857188E0,-1.531091928E0,-7.180809498E0,2.200869799E0
3.173344949E0,-1.665167332E0,-7.075464725E0,2.152985811E0
3.175832709E0,-1.794454217E0,-6.979696274E0,2.124255419E0
3.178320469E0,-1.938106298E0,-6.917447090E0,2.143409014E0
3.180808230E0,-2.081758261E0,-6.883928299E0,2.157774210E0
3.183295990E0,-2.215833664E0,-6.859986305E0,2.196081400E0
3.185783751E0,-2.345120668E0,-6.898293495E0,2.253542423E0
3.188271511E0,-2.455253839E0,-6.960542679E0,2.334945202E0
3.190759271E0,-2.546233416E0,-7.065887928E0,2.368463993E0
3.193247032E0,-2.613271236E0,-7.176021099E0,2.358887196E0
3.195734792E0,-2.651578426E0,-7.314884663E0,2.315791607E0
3.198222553E0,-2.685097218E0,-7.482479095E0,2.282272816E0
3.200710313E0,-2.718616009E0,-7.664438248E0,2.296638012E0
3.203198074E0,-2.704250813E0,-7.846397400E0,2.344521999E0
3.205685834E0,-2.709039211E0,-8.037933350E0,2.392405987E0
3.208173594E0,-2.709039211E0,-8.234258652E0,2.435501575E0
3.210661355E0,-2.709039211E0,-8.425794601E0,2.478597403E0
3.213149115E0,-2.718616009E0,-8.612542152E0,2.492962599E0
3.215636876E0,-2.723404408E0,-8.784924507E0,2.492962599E0
3.218124636E0,-2.718616009E0,-8.928576469E0,2.545634985E0
3.220612396E0,-2.718616009E0,-9.077016830E0,2.646191359E0
3.223100157E0,-2.713827610E0,-9.191938400E0,2.718017578E0
3.225587917E0,-2.728192806E0,-9.335591316E0,2.780266762E0
3.228075678E0,-2.728192806E0,-9.474454880E0,2.818573952E0
3.230563438E0,-2.718616009E0,-9.565434456E0,2.866457939E0
3.233051199E0,-2.704250813E0,-9.685144424E0,2.914341927E0
3.235538959E0,-2.723404408E0,-9.776124001E0,2.943072557E0
3.238026719E0,-2.728192806E0,-9.867103577E0,2.947860956E0
3.240514480E0,-2.718616009E0,-9.953294754E0,2.914341927E0
3.243002240E0,-2.742558002E0,-1.002512074E1,2.871246338E0
3.245490001E0,-2.752134800E0,-1.007779312E1,2.794631958E0
3.247977761E0,-2.771288395E0,-1.012088871E1,2.718017578E0
3.250465521E0,-2.776076794E0,-1.016877270E1,2.622249365E0
3.252953282E0,-2.780865192E0,-1.021186924E1,2.531269789E0
3.255441042E0,-2.800018787E0,-1.022623444E1,2.459443808E0
3.257928803E0,-2.800018787E0,-1.023102283E1,2.416347980E0
3.260416563E0,-2.800018787E0,-1.024059963E1,2.373252392E0
3.262904324E0,-2.785653591E0,-1.025017643E1,2.315791607E0
3.265392084E0,-2.756923199E0,-1.022623444E1,2.291849613E0
3.267879844E0,-2.713827610E0,-1.021186924E1,2.272696018E0
3.270367605E0,-2.661155224E0,-1.020229244E1,2.263119221E0
3.272855365E0,-2.574964046E0,-1.018792725E1,2.253542423E0
3.275343126E0,-2.488772631E0,-1.015440750E1,2.267907619E0
3.277830886E0,-2.402581453E0,-1.012567711E1,2.248754025E0
3.280318646E0,-2.311601639E0,-1.010173512E1,2.229600430E0
3.282806407E0,-2.225410461E0,-1.010173512E1,2.224812031E0
3.285294167E0,-2.148796082E0,-1.007779312E1,2.234388828E0
3.287781928E0,-2.057816267E0,-1.004427433E1,2.229600430E0
3.290269688E0,-1.985990286E0,-1.001554394E1,2.234388828E0
3.292757449E0,-1.918952703E0,-9.986813545E0,2.248754025E0
3.295245209E0,-1.832761407E0,-9.943717957E0,2.272696018E0
3.297732969E0,-1.751358509E0,-9.919775963E0,2.296638012E0
3.300220730E0,-1.703474522E0,-9.895833969E0,2.330156803E0
3.302708490E0,-1.641225219E0,-9.871891975E0,2.330156803E0
3.305196251E0,-1.593341231E0,-9.833584785E0,2.325368404E0
3.307684011E0,-1.535880446E0,-9.824007988E0,2.325368404E0
3.310171771E0,-1.464054346E0,-9.819219589E0,2.349310398E0
3.312659532E0,-1.420958757E0,-9.800065994E0,2.358887196E0
3.315147292E0,-1.353921056E0,-9.795277596E0,2.358887196E0
3.317635053E0,-1.310825467E0,-9.761758804E0,2.330156803E0
3.320122813E0,-1.277306557E0,-9.737816811E0,2.239177227E0
3.322610574E0,-1.238999367E0,-9.713874817E0,2.148197412E0
3.325098334E0,-1.191115379E0,-9.675567627E0,2.062006235E0
3.327586094E0,-1.171961784E0,-9.632472038E0,1.999756932E0
3.330073855E0,-1.152808070E0,-9.579799652E0,1.971026540E0
3.332561615E0,-1.124077678E0,-9.531915665E0,1.923142552E0
3.335049376E0,-1.119289279E0,-9.469666481E0,1.875258446E0
3.337537136E0,-1.104924083E0,-9.426570892E0,1.841739655E0
3.340024896E0,-1.071405292E0,-9.388263702E0,1.822586060E0
3.342512657E0,-1.042674899E0,-9.321226120E0,1.760336757E0
3.345000417E0,-1.009155989E0,-9.278130531E0,1.693299174E0
3.347488178E0,-9.900023937E-1,-9.249400139E0,1.640626669E0
3.349975938E0,-9.612720013E-1,-9.220669746E0,1.602319479E0
3.352463699E0,-9.421183467E-1,-9.196727753E0,1.578377485E0
3.354951459E0,-9.277531505E-1,-9.158419609E0,1.568800688E0
3.357439219E0,-9.373299479E-1,-9.129689217E0,1.573589087E0
3.359926980E0,-9.564836025E-1,-9.105747223E0,1.559223890E0
3.362414740E0,-9.612720013E-1,-9.086593628E0,1.544858694E0
3.364902501E0,-9.708487988E-1,-9.077016830E0,1.544858694E0
3.367390261E0,-9.947907925E-1,-9.033921242E0,1.540070295E0
3.369878021E0,-9.995791912E-1,-9.014767647E0,1.554435492E0
3.372365782E0,-1.023521185E0,-8.971672058E0,1.540070295E0
3.374853542E0,-1.042674899E0,-8.933364868E0,1.544858694E0
3.377341303E0,-1.076193690E0,-8.914211273E0,1.597531080E0
3.379829063E0,-1.114500880E0,-8.880692482E0,1.626261473E0
3.382316824E0,-1.138442874E0,-8.851962090E0,1.654991984E0
3.384804584E0,-1.181538582E0,-8.832808495E0,1.659780383E0
3.387292344E0,-1.224634171E0,-8.808866501E0,1.683722377E0
3.389780105E0,-1.272518158E0,-8.760982513E0,1.702875972E0
3.392267865E0,-1.325190663E0,-8.732252121E0,1.731606364E0
3.394755626E0,-1.377863050E0,-8.722675323E0,1.760336757E0
3.397243386E0,-1.449689150E0,-8.717886925E0,1.798644066E0
3.399731146E0,-1.507149935E0,-8.708310127E0,1.803432465E0
3.402218907E0,-1.574187636E0,-8.703521729E0,1.789067268E0
3.404706667E0,-1.641225219E0,-8.713098526E0,1.789067268E0
3.407194428E0,-1.708262920E0,-8.717886925E0,1.803432465E0
3.409682188E0,-1.775300503E0,-8.722675323E0,1.827374458E0
3.412169949E0,-1.837549806E0,-8.760982513E0,1.846528053E0
3.414657709E0,-1.880645394E0,-8.784924507E0,1.875258446E0
3.417145469E0,-1.928529501E0,-8.813654900E0,1.894412041E0
3.419633230E0,-1.990778685E0,-8.842385292E0,1.942296147E0
3.422120990E0,-2.033874273E0,-8.880692482E0,2.004545450E0
3.424608751E0,-2.067393064E0,-8.928576469E0,2.038064241E0
3.427096511E0,-2.076969862E0,-8.952518463E0,2.066794634E0
3.429584271E0,-2.091335297E0,-8.976460457E0,2.085948229E0
3.432072032E0,-2.110488892E0,-9.029132843E0,2.090736628E0
3.434559792E0,-2.139219284E0,-9.062651634E0,2.114678621E0
3.437047553E0,-2.153584480E0,-9.077016830E0,2.124255419E0
3.439535313E0,-2.196680069E0,-9.072228432E0,2.143409014E0
3.442023074E0,-2.225410461E0,-9.053074837E0,2.143409014E0
3.444510834E0,-2.249352455E0,-9.043498039E0,2.157774210E0
3.446998594E0,-2.278082848E0,-9.038709641E0,2.181716204E0
3.449486355E0,-2.297236443E0,-9.048286438E0,2.224812031E0
3.451974115E0,-2.316390038E0,-9.048286438E0,2.258330822E0
3.454461876E0,-2.325966835E0,-9.038709641E0,2.315791607E0
3.456949636E0,-2.302024841E0,-9.048286438E0,2.363675594E0
3.459437396E0,-2.302024841E0,-9.072228432E0,2.416347980E0
3.461925157E0,-2.297236443E0,-9.096170425E0,2.435501575E0
3.464412917E0,-2.316390038E0,-9.144054413E0,2.469020605E0
3.466900678E0,-2.292448044E0,-9.191938400E0,2.492962599E0
3.469388438E0,-2.263717651E0,-9.230246544E0,2.521692991E0
3.471876199E0,-2.234987259E0,-9.282918930E0,2.550423384E0
3.474363959E0,-2.215833664E0,-9.345168114E0,2.569576979E0
3.476851719E0,-2.211045265E0,-9.393052101E0,2.564788580E0
3.479339480E0,-2.206256866E0,-9.450512886E0,2.560000181E0
3.481827240E0,-2.191891670E0,-9.503185272E0,2.516904593E0
3.484315001E0,-2.172738075E0,-9.536704063E0,2.483385801E0
3.486802761E0,-2.177526474E0,-9.579799652E0,2.469020605E0
3.489290521E0,-2.167949677E0,-9.608530045E0,2.440289974E0
3.491778282E0,-2.148796082E0,-9.651625633E0,2.406771183E0
3.494266042E0,-2.134430885E0,-9.680356026E0,2.378040791E0
3.496753803E0,-2.115277290E0,-9.704298019E0,2.334945202E0
3.499241563E0,-2.100912094E0,-9.737816811E0,2.287061214E0
3.501729324E0,-2.100912094E0,-9.737816811E0,2.210446835E0
3.504217084E0,-2.086546898E0,-9.747393608E0,2.105101824E0
3.506704844E0,-2.105700493E0,-9.728240013E0,2.038064241E0
3.509192605E0,-2.120065689E0,-9.709086418E0,1.985391736E0
3.511680365E0,-2.148796082E0,-9.680356026E0,1.956661344E0
3.514168126E0,-2.167949677E0,-9.646837234E0,1.913565755E0
3.516655886E0,-2.182314873E0,-9.632472038E0,1.884835243E0
3.519143646E0,-2.172738075E0,-9.594164848E0,1.865681648E0
3.521631407E0,-2.148796082E0,-9.575011253E0,1.822586060E0
3.524119167E0,-2.110488892E0,-9.551069260E0,1.789067268E0
3.526606928E0,-2.067393064E0,-9.531915665E0,1.765125155E0
3.529094688E0,-2.029085875E0,-9.517550468E0,1.779490471E0
3.531582449E0,-2.000355482E0,-9.512762070E0,1.793855667E0
3.534070209E0,-1.942894697E0,-9.493608475E0,1.798644066E0
3.536557969E0,-1.909375906E0,-9.474454880E0,1.793855667E0
3.539045730E0,-1.871068597E0,-9.484031677E0,1.760336757E0
3.541533490E0,-1.847126603E0,-9.474454880E0,1.755548358E0
3.544021251E0,-1.813607812E0,-9.445724487E0,1.745971560E0
3.546509011E0,-1.789665818E0,-9.440936089E0,1.726817966E0
3.548996771E0,-1.751358509E0,-9.445724487E0,1.736394763E0
3.551484532E0,-1.741781712E0,-9.440936089E0,1.736394763E0
3.553972292E0,-1.722628117E0,-9.431359291E0,1.755548358E0
3.556460053E0,-1.708262920E0,-9.412205696E0,1.765125155E0
3.558947813E0,-1.693897724E0,-9.383475304E0,1.765125155E0
3.561435574E0,-1.693897724E0,-9.359533310E0,1.765125155E0
3.563923334E0,-1.669955730E0,-9.359533310E0,1.774701953E0
3.566411094E0,-1.665167332E0,-9.340379715E0,1.789067268E0
3.568898855E0,-1.655590534E0,-9.326014519E0,1.798644066E0
3.571386615E0,-1.650802016E0,-9.316437721E0,1.817797661E0
3.573874376E0,-1.636436820E0,-9.287707329E0,1.841739655E0
3.576362136E0,-1.650802016E0,-9.278130531E0,1.846528053E0
3.578849896E0,-1.660378933E0,-9.263765335E0,1.875258446E0
3.581337657E0,-1.665167332E0,-9.258976936E0,1.899200439E0
3.583825417E0,-1.665167332E0,-9.244611740E0,1.927930951E0
3.586313178E0,-1.679532528E0,-9.230246544E0,1.956661344E0
3.588800938E0,-1.684320927E0,-9.215881348E0,1.975814939E0
3.591288699E0,-1.693897724E0,-9.215881348E0,1.994968534E0
3.593776459E0,-1.684320927E0,-9.211092949E0,1.966238141E0
3.596264219E0,-1.665167332E0,-9.187150002E0,1.971026540E0
3.598751980E0,-1.689109325E0,-9.182361603E0,1.994968534E0
3.601239740E0,-1.713051319E0,-9.187150002E0,2.009333849E0
3.603727501E0,-1.727416515E0,-9.182361603E0,2.014122248E0
3.606215261E0,-1.732204914E0,-9.191938400E0,2.028487444E0
3.608703021E0,-1.736993313E0,-9.196727753E0,2.047641039E0
3.611190782E0,-1.698686123E0,-9.206304550E0,2.052429438E0
3.613678542E0,-1.679532528E0,-9.220669746E0,2.081159830E0
3.616166303E0,-1.665167332E0,-9.244611740E0,2.066794634E0
3.618654063E0,-1.631648421E0,-9.254188538E0,2.062006235E0
3.621141824E0,-1.626860023E0,-9.282918930E0,2.062006235E0
3.623629584E0,-1.626860023E0,-9.287707329E0,2.047641039E0
3.626117344E0,-1.631648421E0,-9.278130531E0,2.038064241E0
3.628605105E0,-1.650802016E0,-9.287707329E0,1.999756932E0
3.631092865E0,-1.674744129E0,-9.292495728E0,1.927930951E0
3.633580626E0,-1.703474522E0,-9.282918930E0,1.860893250E0
3.636068386E0,-1.717839718E0,-9.282918930E0,1.832162857E0
3.638556146E0,-1.727416515E0,-9.258976936E0,1.808220863E0
3.641043907E0,-1.756146908E0,-9.263765335E0,1.822586060E0
3.643531667E0,-1.765723705E0,-9.249400139E0,1.870470047E0
3.646019428E0,-1.794454217E0,-9.235034943E0,1.884835243E0
3.648507188E0,-1.775300503E0,-9.239823341E0,1.913565755E0
3.650994949E0,-1.775300503E0,-9.244611740E0,1.951872945E0
3.653482709E0,-1.784877419E0,-9.239823341E0,1.985391736E0
3.655970469E0,-1.770512104E0,-9.258976936E0,2.018910646E0
3.658458230E0,-1.770512104E0,-9.273342133E0,2.057217836E0
3.660945990E0,-1.770512104E0,-9.297284126E0,2.076371431E0
3.663433751E0,-1.780089021E0,-9.321226120E0,2.100313425E0
3.665921511E0,-1.780089021E0,-9.340379715E0,2.129043818E0
3.668409271E0,-1.794454217E0,-9.354744911E0,2.129043818E0
3.670897032E0,-1.794454217E0,-9.388263702E0,2.152985811E0
3.673384792E0,-1.794454217E0,-9.416994095E0,2.138620615E0
3.675872553E0,-1.804031014E0,-9.426570892E0,2.143409014E0
3.678360313E0,-1.808819413E0,-9.436147690E0,2.148197412E0
3.680848074E0,-1.818396211E0,-9.440936089E0,2.162562609E0
3.683335834E0,-1.789665818E0,-9.455301285E0,2.148197412E0
3.685823594E0,-1.789665818E0,-9.455301285E0,2.138620615E0
3.688311355E0,-1.784877419E0,-9.445724487E0,2.138620615E0
3.690799115E0,-1.789665818E0,-9.431359291E0,2.148197412E0
3.693286876E0,-1.789665818E0,-9.416994095E0,2.133832216E0
3.695774636E0,-1.799242616E0,-9.407417297E0,2.109890223E0
3.698262396E0,-1.823184609E0,-9.393052101E0,2.076371431E0
3.700750157E0,-1.827973008E0,-9.378686905E0,2.052429438E0
3.703237917E0,-1.851915002E0,-9.369110107E0,2.047641039E0
3.705725678E0,-1.875856996E0,-9.349956512E0,2.018910646E0
3.708213438E0,-1.856703401E0,-9.345168114E0,2.023699045E0
3.710701199E0,-1.866280198E0,-9.349956512E0,2.009333849E0
3.713188959E0,-1.856703401E0,-9.369110107E0,2.014122248E0
3.715676719E0,-1.851915002E0,-9.373898506E0,2.014122248E0
3.718164480E0,-1.827973008E0,-9.383475304E0,1.999756932E0
3.720652240E0,-1.842338204E0,-9.397840500E0,2.004545450E0
3.723140001E0,-1.837549806E0,-9.393052101E0,2.018910646E0
3.725627761E0,-1.861491799E0,-9.397840500E0,2.033275843E0
3.728115521E0,-1.885433793E0,-9.416994095E0,2.042852640E0
3.730603282E0,-1.885433793E0,-9.407417297E0,2.057217836E0
3.733091042E0,-1.899798989E0,-9.397840500E0,2.042852640E0
3.735578803E0,-1.914164305E0,-9.388263702E0,2.038064241E0
3.738066563E0,-1.914164305E0,-9.388263702E0,2.023699045E0
3.740554324E0,-1.928529501E0,-9.402628899E0,2.014122248E0
3.743042084E0,-1.938106298E0,-9.383475304E0,2.009333849E0
3.745529844E0,-1.947683096E0,-9.373898506E0,1.990180135E0
3.748017605E0,-1.952471495E0,-9.378686905E0,1.966238141E0
3.750505365E0,-1.976413488E0,-9.359533310E0,1.956661344E0
3.752993126E0,-1.966836691E0,-9.364321709E0,1.932719350E0
3.755480886E0,-1.957259893E0,-9.369110107E0,1.927930951E0
3.757968646E0,-1.957259893E0,-9.335591316E0,1.927930951E0
3.760456407E0,-2.009932280E0,-9.335591316E0,1.903988957E0
3.762944167E0,-2.009932280E0,-9.316437721E0,1.903988957E0
3.765431928E0,-2.014720678E0,-9.316437721E0,1.884835243E0
3.767919688E0,-2.024297476E0,-9.311649323E0,1.865681648E0
3.770407449E0,-2.019509077E0,-9.302072525E0,1.808220863E0
3.772895209E0,-2.014720678E0,-9.287707329E0,1.808220863E0
3.775382969E0,-2.005143881E0,-9.282918930E0,1.798644066E0
3.777870730E0,-1.971625090E0,-9.278130531E0,1.827374458E0
3.780358490E0,-1.947683096E0,-9.273342133E0,1.822586060E0
3.782846251E0,-1.918952703E0,-9.287707329E0,1.832162857E0
3.785334011E0,-1.875856996E0,-9.292495728E0,1.851316452E0
3.787821771E0,-1.813607812E0,-9.297284126E0,1.870470047E0
3.790309532E0,-1.770512104E0,-9.297284126E0,1.889623642E0
3.792797292E0,-1.751358509E0,-9.287707329E0,1.894412041E0
3.795285053E0,-1.722628117E0,-9.287707329E0,1.875258446E0
3.797772813E0,-1.689109325E0,-9.278130531E0,1.860893250E0
3.800260574E0,-1.679532528E0,-9.258976936E0,1.846528053E0
3.802748334E0,-1.665167332E0,-9.239823341E0,1.836951256E0
3.805236094E0,-1.650802016E0,-9.244611740E0,1.817797661E0
3.807723855E0,-1.665167332E0,-9.235034943E0,1.798644066E0
3.810211615E0,-1.660378933E0,-9.220669746E0,1.779490471E0
3.812699376E0,-1.655590534E0,-9.239823341E0,1.784278870E0
3.815187136E0,-1.660378933E0,-9.235034943E0,1.769913554E0
3.817674896E0,-1.655590534E0,-9.254188538E0,1.765125155E0
3.820162657E0,-1.665167332E0,-9.239823341E0,1.774701953E0
3.822650417E0,-1.669955730E0,-9.244611740E0,1.784278870E0
3.825138178E0,-1.689109325E0,-9.249400139E0,1.808220863E0
3.827625938E0,-1.703474522E0,-9.263765335E0,1.822586060E0
3.830113699E0,-1.722628117E0,-9.273342133E0,1.808220863E0
3.832601459E0,-1.746570110E0,-9.292495728E0,1.813009262E0
3.835089219E0,-1.760935307E0,-9.302072525E0,1.822586060E0
3.837576980E0,-1.799242616E0,-9.297284126E0,1.827374458E0
3.840064740E0,-1.813607812E0,-9.292495728E0,1.832162857E0
3.842552501E0,-1.837549806E0,-9.297284126E0,1.841739655E0
3.845040261E0,-1.861491799E0,-9.311649323E0,1.846528053E0
3.847528021E0,-1.875856996E0,-9.306860924E0,1.870470047E0
3.850015782E0,-1.890222192E0,-9.287707329E0,1.889623642E0
3.852503542E0,-1.890222192E0,-9.292495728E0,1.918354154E0
3.854991303E0,-1.890222192E0,-9.287707329E0,1.942296147E0
3.857479063E0,-1.895010591E0,-9.287707329E0,1.961449742E0
3.859966824E0,-1.899798989E0,-9.297284126E0,1.956661344E0
3.862454584E0,-1.909375906E0,-9.297284126E0,1.899200439E0
3.864942344E0,-1.904587507E0,-9.302072525E0,1.884835243E0
3.867430105E0,-1.899798989E0,-9.321226120E0,1.870470047E0
3.869917865E0,-1.890222192E0,-9.297284126E0,1.870470047E0
3.872405626E0,-1.890222192E0,-9.311649323E0,1.894412041E0
3.874893386E0,-1.885433793E0,-9.306860924E0,1.894412041E0
3.877381146E0,-1.880645394E0,-9.297284126E0,1.927930951E0
3.879868907E0,-1.847126603E0,-9.273342133E0,1.937507749E0
3.882356667E0,-1.842338204E0,-9.258976936E0,1.951872945E0
3.884844428E0,-1.818396211E0,-9.258976936E0,1.951872945E0
3.887332188E0,-1.804031014E0,-9.258976936E0,1.937507749E0
3.889819949E0,-1.808819413E0,-9.263765335E0,1.942296147E0
3.892307709E0,-1.780089021E0,-9.244611740E0,1.971026540E0
3.894795469E0,-1.760935307E0,-9.244611740E0,1.990180135E0
3.897283230E0,-1.727416515E0,-9.239823341E0,2.018910646E0
3.899770990E0,-1.717839718E0,-9.244611740E0,2.018910646E0
3.902258751E0,-1.713051319E0,-9.273342133E0,2.042852640E0
3.904746511E0,-1.689109325E0,-9.278130531E0,2.057217836E0
3.907234271E0,-1.708262920E0,-9.287707329E0,2.071583033E0
3.909722032E0,-1.698686123E0,-9.311649323E0,2.052429438E0
3.912209792E0,-1.722628117E0,-9.321226120E0,2.023699045E0
3.914697553E0,-1.741781712E0,-9.340379715E0,1.994968534E0
3.917185313E0,-1.760935307E0,-9.335591316E0,1.994968534E0
3.919673074E0,-1.794454217E0,-9.349956512E0,1.971026540E0
3.922160834E0,-1.837549806E0,-9.364321709E0,1.961449742E0
3.924648594E0,-1.847126603E0,-9.373898506E0,1.937507749E0
3.927136355E0,-1.875856996E0,-9.397840500E0,1.903988957E0
3.929624115E0,-1.899798989E0,-9.431359291E0,1.846528053E0
3.932111876E0,-1.909375906E0,-9.440936089E0,1.817797661E0
3.934599636E0,-1.918952703E0,-9.455301285E0,1.798644066E0
3.937087396E0,-1.923741102E0,-9.460089684E0,1.779490471E0
3.939575157E0,-1.923741102E0,-9.450512886E0,1.779490471E0
3.942062917E0,-1.933317900E0,-9.460089684E0,1.789067268E0
3.944550678E0,-1.933317900E0,-9.450512886E0,1.798644066E0
3.947038438E0,-1.947683096E0,-9.450512886E0,1.827374458E0
3.949526199E0,-1.962048292E0,-9.426570892E0,1.836951256E0
3.952013959E0,-1.947683096E0,-9.416994095E0,1.832162857E0
3.954501719E0,-1.938106298E0,-9.416994095E0,1.851316452E0
3.956989480E0,-1.909375906E0,-9.402628899E0,1.846528053E0
3.959477240E0,-1.866280198E0,-9.383475304E0,1.880046844E0
3.961965001E0,-1.823184609E0,-9.373898506E0,1.908777356E0
3.964452761E0,-1.780089021E0,-9.369110107E0,1.932719350E0
3.966940521E0,-1.732204914E0,-9.369110107E0,1.932719350E0
3.969428282E0,-1.693897724E0,-9.340379715E0,1.937507749E0
3.971916042E0,-1.655590534E0,-9.335591316E0,1.947084546E0
3.974403803E0,-1.626860023E0,-9.330802917E0,1.956661344E0
3.976891563E0,-1.588552833E0,-9.316437721E0,1.956661344E0
3.979379324E0,-1.555034041E0,-9.316437721E0,1.947084546E0
3.981867084E0,-1.526303530E0,-9.287707329E0,1.937507749E0
3.984354844E0,-1.507149935E0,-9.273342133E0,1.932719350E0
3.986842605E0,-1.487996340E0,-9.258976936E0,1.937507749E0
3.989330365E0,-1.478419542E0,-9.249400139E0,1.932719350E0
3.991818126E0,-1.468842745E0,-9.230246544E0,1.923142552E0
3.994305886E0,-1.478419542E0,-9.211092949E0,1.913565755E0
3.996793646E0,-1.497573137E0,-9.211092949E0,1.899200439E0
3.999281407E0,-1.507149935E0,-9.211092949E0,1.903988957E0
4.001769167E0,-1.526303530E0,-9.201516151E0,1.903988957E0
4.004256928E0,-1.545457244E0,-9.196727753E0,1.913565755E0
4.006744688E0,-1.564610839E0,-9.191938400E0,1.894412041E0
4.009232449E0,-1.588552833E0,-9.177573204E0,1.884835243E0
4.011720209E0,-1.602918029E0,-9.172784805E0,1.884835243E0
4.014207969E0,-1.636436820E0,-9.177573204E0,1.870470047E0
4.016695730E0,-1.646013618E0,-9.187150002E0,1.841739655E0
4.019183490E0,-1.669955730E0,-9.177573204E0,1.832162857E0
4.021671251E0,-1.713051319E0,-9.182361603E0,1.817797661E0
4.024159011E0,-1.756146908E0,-9.177573204E0,1.808220863E0
4.026646771E0,-1.804031014E0,-9.182361603E0,1.808220863E0
4.029134532E0,-1.866280198E0,-9.191938400E0,1.817797661E0
4.031622292E0,-1.918952703E0,-9.182361603E0,1.827374458E0
4.034110053E0,-1.981201887E0,-9.177573204E0,1.827374458E0
4.036597813E0,-2.000355482E0,-9.163208008E0,1.846528053E0
4.039085574E0,-2.029085875E0,-9.177573204E0,1.880046844E0
4.041573334E0,-2.038662672E0,-9.182361603E0,1.913565755E0
4.044061094E0,-2.062604666E0,-9.191938400E0,1.961449742E0
4.046548855E0,-2.048239470E0,-9.191938400E0,1.999756932E0
4.049036615E0,-2.033874273E0,-9.211092949E0,2.047641039E0
4.051524376E0,-2.029085875E0,-9.220669746E0,2.066794634E0
4.054012136E0,-2.014720678E0,-9.211092949E0,2.052429438E0
4.056499896E0,-2.005143881E0,-9.225458145E0,2.038064241E0
4.058987657E0,-2.005143881E0,-9.220669746E0,1.994968534E0
4.061475417E0,-2.000355482E0,-9.225458145E0,1.971026540E0
4.063963178E0,-1.981201887E0,-9.220669746E0,1.971026540E0
4.066450938E0,-1.947683096E0,-9.215881348E0,1.942296147E0
4.068938699E0,-1.933317900E0,-9.211092949E0,1.923142552E0
4.071426459E0,-1.933317900E0,-9.201516151E0,1.889623642E0
4.073914219E0,-1.909375906E0,-9.215881348E0,1.851316452E0
4.076401980E0,-1.895010591E0,-9.220669746E0,1.827374458E0
4.078889740E0,-1.899798989E0,-9.201516151E0,1.798644066E0
4.081377501E0,-1.895010591E0,-9.215881348E0,1.755548358E0
4.083865261E0,-1.890222192E0,-9.215881348E0,1.702875972E0
4.086353021E0,-1.904587507E0,-9.191938400E0,1.669357181E0
4.088840782E0,-1.904587507E0,-9.191938400E0,1.640626669E0
4.091328542E0,-1.918952703E0,-9.201516151E0,1.645415068E0
4.093816303E0,-1.938106298E0,-9.201516151E0,1.664568782E0
4.096304063E0,-1.918952703E0,-9.206304550E0,1.698087573E0
4.098791824E0,-1.904587507E0,-9.201516151E0,1.745971560E0
4.101279584E0,-1.890222192E0,-9.211092949E0,1.793855667E0
4.103767344E0,-1.871068597E0,-9.201516151E0,1.851316452E0
4.106255105E0,-1.856703401E0,-9.211092949E0,1.875258446E0
4.108742865E0,-1.856703401E0,-9.220669746E0,1.903988957E0
4.111230626E0,-1.856703401E0,-9.225458145E0,1.923142552E0
4.113718386E0,-1.842338204E0,-9.225458145E0,1.942296147E0
4.116206146E0,-1.851915002E0,-9.220669746E0,1.961449742E0
4.118693907E0,-1.842338204E0,-9.225458145E0,1.975814939E0
4.121181667E0,-1.842338204E0,-9.225458145E0,1.990180135E0
4.123669428E0,-1.832761407E0,-9.206304550E0,1.985391736E0
4.126157188E0,-1.832761407E0,-9.182361603E0,1.985391736E0
4.128644949E0,-1.837549806E0,-9.191938400E0,1.980603337E0
4.131132709E0,-1.861491799E0,-9.172784805E0,1.961449742E0
4.133620469E0,-1.885433793E0,-9.148842812E0,1.923142552E0
4.136108230E0,-1.895010591E0,-9.153631210E0,1.913565755E0
4.138595990E0,-1.933317900E0,-9.139266014E0,1.908777356E0
4.141083751E0,-1.966836691E0,-9.110535622E0,1.889623642E0
4.143571511E0,-1.981201887E0,-9.091382027E0,1.875258446E0
4.146059271E0,-2.005143881E0,-9.086593628E0,1.894412041E0
4.148547032E0,-2.009932280E0,-9.105747223E0,1.889623642E0
4.151034792E0,-2.009932280E0,-9.096170425E0,1.903988957E0
4.153522553E0,-2.024297476E0,-9.110535622E0,1.951872945E0
4.156010313E0,-2.024297476E0,-9.124900818E0,1.994968534E0
4.158498074E0,-2.024297476E0,-9.129689217E0,2.023699045E0
4.160985834E0,-2.009932280E0,-9.148842812E0,2.033275843E0
4.163473594E0,-2.009932280E0,-9.148842812E0,2.071583033E0
4.165961355E0,-2.014720678E0,-9.177573204E0,2.081159830E0
4.168449115E0,-2.005143881E0,-9.182361603E0,2.076371431E0
4.170936876E0,-1.976413488E0,-9.191938400E0,2.057217836E0
4.173424636E0,-1.981201887E0,-9.196727753E0,2.033275843E0
4.175912396E0,-1.962048292E0,-9.201516151E0,1.999756932E0
4.178400157E0,-1.947683096E0,-9.215881348E0,1.956661344E0
4.180887917E0,-1.918952703E0,-9.220669746E0,1.942296147E0
4.183375678E0,-1.918952703E0,-9.230246544E0,1.913565755E0
4.185863438E0,-1.909375906E0,-9.230246544E0,1.899200439E0
4.188351199E0,-1.904587507E0,-9.249400139E0,1.870470047E0
4.190838959E0,-1.890222192E0,-9.254188538E0,1.827374458E0
4.193326719E0,-1.875856996E0,-9.258976936E0,1.808220863E0
4.195814480E0,-1.856703401E0,-9.273342133E0,1.798644066E0
4.198302240E0,-1.832761407E0,-9.273342133E0,1.808220863E0
4.200790001E0,-1.799242616E0,-9.292495728E0,1.827374458E0
4.203277761E0,-1.775300503E0,-9.306860924E0,1.836951256E0
4.205765521E0,-1.760935307E0,-9.326014519E0,1.827374458E0
4.208253282E0,-1.741781712E0,-9.321226120E0,1.813009262E0
4.210741042E0,-1.722628117E0,-9.335591316E0,1.836951256E0
4.213228803E0,-1.698686123E0,-9.378686905E0,1.832162857E0
4.215716563E0,-1.674744129E0,-9.393052101E0,1.841739655E0
4.218204324E0,-1.660378933E0,-9.378686905E0,1.875258446E0
4.220692084E0,-1.669955730E0,-9.378686905E0,1.889623642E0
4.223179844E0,-1.669955730E0,-9.378686905E0,1.913565755E0
4.225667605E0,-1.689109325E0,-9.373898506E0,1.923142552E0
4.228155365E0,-1.679532528E0,-9.369110107E0,1.899200439E0
4.230643126E0,-1.669955730E0,-9.378686905E0,1.908777356E0
4.233130886E0,-1.679532528E0,-9.373898506E0,1.899200439E0
4.235618646E0,-1.679532528E0,-9.364321709E0,1.899200439E0
4.238106407E0,-1.698686123E0,-9.383475304E0,1.903988957E0
4.240594167E0,-1.717839718E0,-9.397840500E0,1.913565755E0
4.243081928E0,-1.717839718E0,-9.412205696E0,1.913565755E0
4.245569688E0,-1.732204914E0,-9.431359291E0,1.927930951E0
4.248057449E0,-1.756146908E0,-9.440936089E0,1.942296147E0
4.250545209E0,-1.775300503E0,-9.450512886E0,1.961449742E0
4.253032969E0,-1.789665818E0,-9.474454880E0,1.971026540E0
4.255520730E0,-1.794454217E0,-9.474454880E0,1.980603337E0
4.258008490E0,-1.808819413E0,-9.484031677E0,1.990180135E0
4.260496251E0,-1.823184609E0,-9.488820076E0,1.990180135E0
4.262984011E0,-1.823184609E0,-9.484031677E0,2.004545450E0
4.265471771E0,-1.813607812E0,-9.474454880E0,2.004545450E0
4.267959532E0,-1.827973008E0,-9.469666481E0,2.014122248E0
4.270447292E0,-1.818396211E0,-9.450512886E0,2.023699045E0
4.272935053E0,-1.823184609E0,-9.412205696E0,2.014122248E0
4.275422813E0,-1.813607812E0,-9.388263702E0,2.014122248E0
4.277910574E0,-1.804031014E0,-9.354744911E0,2.014122248E0
4.280398334E0,-1.804031014E0,-9.321226120E0,2.028487444E0
4.282886094E0,-1.799242616E0,-9.292495728E0,2.009333849E0
4.285373855E0,-1.799242616E0,-9.268553734E0,2.023699045E0
4.287861615E0,-1.808819413E0,-9.249400139E0,2.018910646E0
4.290349376E0,-1.813607812E0,-9.239823341E0,2.004545450E0
4.292837136E0,-1.808819413E0,-9.215881348E0,1.990180135E0
4.295324896E0,-1.808819413E0,-9.211092949E0,1.994968534E0
4.297812657E0,-1.789665818E0,-9.196727753E0,2.018910646E0
4.300300417E0,-1.780089021E0,-9.211092949E0,2.028487444E0
4.302788178E0,-1.770512104E0,-9.211092949E0,2.066794634E0
4.305275938E0,-1.756146908E0,-9.201516151E0,2.081159830E0
4.307763699E0,-1.736993313E0,-9.211092949E0,2.105101824E0
4.310251459E0,-1.732204914E0,-9.225458145E0,2.124255419E0
4.312739219E0,-1.732204914E0,-9.249400139E0,2.157774210E0
4.315226980E0,-1.722628117E0,-9.282918930E0,2.196081400E0
4.317714740E0,-1.741781712E0,-9.311649323E0,2.215235233E0
4.320202501E0,-1.746570110E0,-9.330802917E0,2.210446835E0
4.322690261E0,-1.770512104E0,-9.349956512E0,2.220023632E0
4.325178021E0,-1.789665818E0,-9.349956512E0,2.248754025E0
4.327665782E0,-1.799242616E0,-9.349956512E0,2.253542423E0
4.330153542E0,-1.808819413E0,-9.345168114E0,2.263119221E0
4.332641303E0,-1.827973008E0,-9.349956512E0,2.282272816E0
4.335129063E0,-1.871068597E0,-9.335591316E0,2.277484417E0
4.337616824E0,-1.918952703E0,-9.316437721E0,2.277484417E0
4.340104584E0,-1.938106298E0,-9.287707329E0,2.272696018E0
4.342592344E0,-1.938106298E0,-9.254188538E0,2.229600430E0
4.345080105E0,-1.947683096E0,-9.239823341E0,2.220023632E0
4.347567865E0,-1.928529501E0,-9.215881348E0,2.186504602E0
4.350055626E0,-1.923741102E0,-9.196727753E0,2.186504602E0
4.352543386E0,-1.928529501E0,-9.191938400E0,2.210446835E0
4.355031146E0,-1.914164305E0,-9.182361603E0,2.248754025E0
4.357518907E0,-1.909375906E0,-9.182361603E0,2.291849613E0
4.360006667E0,-1.909375906E0,-9.177573204E0,2.291849613E0
4.362494428E0,-1.928529501E0,-9.201516151E0,2.282272816E0
4.364982188E0,-1.923741102E0,-9.220669746E0,2.267907619E0
4.367469949E0,-1.928529501E0,-9.244611740E0,2.287061214E0
4.369957709E0,-1.938106298E0,-9.263765335E0,2.296638012E0
4.372445469E0,-1.947683096E0,-9.287707329E0,2.306214809E0
4.374933230E0,-1.947683096E0,-9.306860924E0,2.334945202E0
4.377420990E0,-1.957259893E0,-9.306860924E0,2.334945202E0
4.379908751E0,-1.971625090E0,-9.302072525E0,2.330156803E0
4.382396511E0,-2.005143881E0,-9.302072525E0,2.306214809E0
4.384884271E0,-2.014720678E0,-9.306860924E0,2.277484417E0
4.387372032E0,-2.009932280E0,-9.287707329E0,2.253542423E0
4.389859792E0,-2.014720678E0,-9.282918930E0,2.215235233E0
4.392347553E0,-2.014720678E0,-9.273342133E0,2.200869799E0
4.394835313E0,-2.005143881E0,-9.263765335E0,2.196081400E0
4.397323074E0,-2.014720678E0,-9.254188538E0,2.243965626E0
4.399810834E0,-2.014720678E0,-9.244611740E0,2.258330822E0
4.402298594E0,-2.019509077E0,-9.244611740E0,2.267907619E0
4.404786355E0,-2.000355482E0,-9.249400139E0,2.267907619E0
4.407274115E0,-1.995567083E0,-9.258976936E0,2.248754025E0
4.409761876E0,-1.971625090E0,-9.273342133E0,2.229600430E0
4.412249636E0,-1.938106298E0,-9.282918930E0,2.215235233E0
4.414737396E0,-1.890222192E0,-9.282918930E0,2.200869799E0
4.417225157E0,-1.823184609E0,-9.292495728E0,2.196081400E0
4.419712917E0,-1.765723705E0,-9.321226120E0,2.200869799E0
4.422200678E0,-1.708262920E0,-9.326014519E0,2.200869799E0
4.424688438E0,-1.646013618E0,-9.326014519E0,2.205658197E0
4.427176199E0,-1.564610839E0,-9.345168114E0,2.181716204E0
4.429663959E0,-1.497573137E0,-9.364321709E0,2.143409014E0
4.432151719E0,-1.435323954E0,-9.388263702E0,2.138620615E0
4.434639480E0,-1.387439847E0,-9.412205696E0,2.152985811E0
4.437127240E0,-1.363497853E0,-9.445724487E0,2.148197412E0
4.439615001E0,-1.310825467E0,-9.469666481E0,2.181716204E0
4.442102761E0,-1.291671872E0,-9.484031677E0,2.196081400E0
4.444590521E0,-1.282094955E0,-9.498396873E0,2.210446835E0
4.447078282E0,-1.253364563E0,-9.512762070E0,2.234388828E0
4.449566042E0,-1.258152962E0,-9.531915665E0,2.263119221E0
4.452053803E0,-1.262941360E0,-9.527127266E0,2.258330822E0
4.454541563E0,-1.267729759E0,-9.551069260E0,2.215235233E0
4.457029324E0,-1.282094955E0,-9.546280861E0,2.181716204E0
4.459517084E0,-1.296460271E0,-9.546280861E0,2.162562609E0
4.462004844E0,-1.291671872E0,-9.536704063E0,2.157774210E0
4.464492605E0,-1.296460271E0,-9.527127266E0,2.167351007E0
4.466980365E0,-1.301248670E0,-9.522338867E0,2.172139406E0
4.469468126E0,-1.329979062E0,-9.488820076E0,2.186504602E0
4.471955886E0,-1.363497853E0,-9.460089684E0,2.181716204E0
4.474443646E0,-1.406593442E0,-9.436147690E0,2.157774210E0
4.476931407E0,-1.464054346E0,-9.402628899E0,2.148197412E0
4.479419167E0,-1.507149935E0,-9.364321709E0,2.129043818E0
4.481906928E0,-1.526303530E0,-9.326014519E0,2.138620615E0
4.484394688E0,-1.516726732E0,-9.273342133E0,2.109890223E0
4.486882449E0,-1.526303530E0,-9.225458145E0,2.138620615E0
4.489370209E0,-1.521515131E0,-9.172784805E0,2.162562609E0
4.491857969E0,-1.511938334E0,-9.115324020E0,2.181716204E0
4.494345730E0,-1.511938334E0,-9.077016830E0,2.210446835E0
4.496833490E0,-1.492784739E0,-9.033921242E0,2.229600430E0
4.499321251E0,-1.473631144E0,-9.000402451E0,2.243965626E0
4.501809011E0,-1.454477549E0,-8.966883659E0,2.239177227E0
4.504296771E0,-1.449689150E0,-8.942941666E0,2.224812031E0
4.506784532E0,-1.440112352E0,-8.914211273E0,2.220023632E0
4.509272292E0,-1.397016644E0,-8.895057678E0,2.220023632E0
4.511760053E0,-1.377863050E0,-8.861538887E0,2.253542423E0
4.514247813E0,-1.353921056E0,-8.837596893E0,2.267907619E0
4.516735574E0,-1.306037068E0,-8.808866501E0,2.291849613E0
4.519223334E0,-1.277306557E0,-8.799289703E0,2.339733601E0
4.521711094E0,-1.229422569E0,-8.784924507E0,2.358887196E0
4.524198855E0,-1.195903778E0,-8.760982513E0,2.382829189E0
4.526686615E0,-1.143231273E0,-8.732252121E0,2.373252392E0
4.529174376E0,-1.138442874E0,-8.693944931E0,2.373252392E0
4.531662136E0,-1.119289279E0,-8.655637741E0,2.382829189E0
4.534149896E0,-1.095347285E0,-8.631695747E0,2.373252392E0
4.536637657E0,-1.090558887E0,-8.588600159E0,2.368463993E0
4.539125417E0,-1.100135684E0,-8.555081367E0,2.344521999E0
4.541613178E0,-1.128866076E0,-8.502408981E0,2.325368404E0
4.544100938E0,-1.152808070E0,-8.430583000E0,2.296638012E0
4.546588699E0,-1.181538582E0,-8.363545418E0,2.277484417E0
4.549076459E0,-1.215057373E0,-8.296507835E0,2.258330822E0
4.551564219E0,-1.238999367E0,-8.239047050E0,2.210446835E0
4.554051980E0,-1.267729759E0,-8.186373711E0,2.200869799E0
4.556539740E0,-1.296460271E0,-8.133701324E0,2.176927805E0
4.559027501E0,-1.310825467E0,-8.076240540E0,2.162562609E0
4.561515261E0,-1.320402265E0,-8.013991356E0,2.138620615E0
4.564003021E0,-1.325190663E0,-7.966107368E0,2.124255419E0
4.566490782E0,-1.325190663E0,-7.918223381E0,2.090736628E0
4.568978542E0,-1.358709455E0,-7.870339394E0,2.076371431E0
4.571466303E0,-1.368286252E0,-7.803301811E0,2.076371431E0
4.573954063E0,-1.368286252E0,-7.750629425E0,2.057217836E0
4.576441824E0,-1.382651448E0,-7.707533836E0,2.009333849E0
4.578929584E0,-1.406593442E0,-7.654861450E0,1.980603337E0
4.581417344E0,-1.411381960E0,-7.583035469E0,1.923142552E0
4.583905105E0,-1.401805043E0,-7.511209488E0,1.870470047E0
4.586392865E0,-1.397016644E0,-7.448959827E0,1.822586060E0
4.588880626E0,-1.368286252E0,-7.386710644E0,1.769913554E0
4.591368386E0,-1.329979062E0,-7.329249859E0,1.736394763E0
4.593856146E0,-1.291671872E0,-7.267000675E0,1.707664371E0
4.596343907E0,-1.267729759E0,-7.204751492E0,1.683722377E0
4.598831667E0,-1.234210968E0,-7.156867504E0,1.674145579E0
4.601319428E0,-1.215057373E0,-7.108983517E0,1.654991984E0
4.603807188E0,-1.176750183E0,-7.056311131E0,1.678933978E0
4.606294949E0,-1.128866076E0,-7.022792339E0,1.664568782E0
4.608782709E0,-1.080982089E0,-6.994061947E0,1.654991984E0
4.611270469E0,-1.061828494E0,-6.974907875E0,1.645415068E0
4.613758230E0,-1.018732786E0,-6.950965881E0,1.640626669E0
4.616245990E0,-9.612720013E-1,-6.946177483E0,1.631049871E0
4.618733751E0,-9.133879542E-1,-6.917447090E0,1.635838270E0
4.621221511E0,-8.846575022E-1,-6.917447090E0,1.635838270E0
4.623709271E0,-8.511387110E-1,-6.893505096E0,1.650203466E0
4.626197032E0,-8.176198602E-1,-6.898293495E0,1.654991984E0
4.628684792E0,-7.745242715E-1,-6.893505096E0,1.645415068E0
4.631172553E0,-7.649474144E-1,-6.898293495E0,1.621473074E0
4.633660313E0,-7.649474144E-1,-6.912658691E0,1.583165884E0
4.636148074E0,-7.601590157E-1,-6.912658691E0,1.516128182E0
4.638635834E0,-7.841010690E-1,-6.898293495E0,1.434725404E0
4.641123594E0,-8.367735147E-1,-6.883928299E0,1.362899303E0
4.643611355E0,-8.798691034E-1,-6.879139900E0,1.276708007E0
4.646099115E0,-9.133879542E-1,-6.874351501E0,1.200093627E0
4.648586876E0,-1.004367590E0,-6.883928299E0,1.075595140E0
4.651074636E0,-1.057040095E0,-6.874351501E0,1.003769040E0
4.653562396E0,-1.119289279E0,-6.888716698E0,9.271546006E-1
4.656050157E0,-1.195903778E0,-6.883928299E0,8.457517624E-1
4.658537917E0,-1.262941360E0,-6.903081894E0,7.978677154E-1
4.661025678E0,-1.329979062E0,-6.912658691E0,7.356184721E-1
4.663513438E0,-1.387439847E0,-6.927023888E0,6.973112226E-1
4.666001199E0,-1.440112352E0,-6.917447090E0,6.877344251E-1
4.668488959E0,-1.507149935E0,-6.912658691E0,6.877344251E-1
4.670976719E0,-1.574187636E0,-6.888716698E0,6.590040326E-1
4.673464480E0,-1.641225219E0,-6.879139900E0,6.398503780E-1
4.675952240E0,-1.669955730E0,-6.840832710E0,6.206967831E-1
4.678440001E0,-1.684320927E0,-6.797737122E0,6.063315868E-1
4.680927761E0,-1.650802016E0,-6.745064735E0,6.494272351E-1
4.683415521E0,-1.583764434E0,-6.706757545E0,6.973112226E-1
4.685903282E0,-1.516726732E0,-6.654085159E0,8.122329116E-1
4.688391042E0,-1.435323954E0,-6.610989571E0,9.319429994E-1
4.690878803E0,-1.344344258E0,-6.558317184E0,1.075595140E0
4.693366563E0,-1.272518158E0,-6.524798393E0,1.214458823E0
4.695854324E0,-1.210268974E0,-6.510433197E0,1.338957310E0
4.698342084E0,-1.152808070E0,-6.500856400E0,1.420360208E0
4.700829844E0,-1.109712481E0,-6.500856400E0,1.496974587E0
4.703317605E0,-1.095347285E0,-6.529586792E0,1.559223890E0
4.705805365E0,-1.114500880E0,-6.534375191E0,1.564012289E0
4.708293126E0,-1.114500880E0,-6.577470779E0,1.530493379E0
4.710780886E0,-1.133654475E0,-6.620566368E0,1.492186189E0
4.713268646E0,-1.138442874E0,-6.692392349E0,1.449090600E0
4.715756407E0,-1.133654475E0,-6.778583527E0,1.386841297E0
4.718244167E0,-1.114500880E0,-6.855197906E0,1.372476101E0
4.720731928E0,-1.061828494E0,-6.946177483E0,1.372476101E0
4.723219688E0,-9.995791912E-1,-7.032369137E0,1.372476101E0
4.725707449E0,-9.229647517E-1,-7.104195118E0,1.348534107E0
4.728195209E0,-8.750807047E-1,-7.195174694E0,1.329380512E0
4.730682969E0,-7.793126702E-1,-7.290942669E0,1.315015316E0
4.733170730E0,-7.122750282E-1,-7.377133846E0,1.262342811E0
4.735658490E0,-6.356605291E-1,-7.448959827E0,1.185728431E0
4.738146251E0,-5.877765417E-1,-7.515997887E0,1.089960337E0
4.740634011E0,-5.494692922E-1,-7.578247070E0,9.798270464E-1
4.743121771E0,-5.542576909E-1,-7.616554260E0,8.505401611E-1
4.745609532E0,-5.542576909E-1,-7.683591843E0,7.404068708E-1
4.748097292E0,-5.638344884E-1,-7.736264229E0,6.350619793E-1
4.750585053E0,-5.973533392E-1,-7.764994621E0,5.392939448E-1
4.753072813E0,-6.452373862E-1,-7.803301811E0,4.770447016E-1
4.755560574E0,-7.122750282E-1,-7.812878609E0,3.860650361E-1
4.758048334E0,-7.649474144E-1,-7.832032204E0,2.902969420E-1
4.760536094E0,-7.888894677E-1,-7.879916191E0,2.280477136E-1
4.763023855E0,-8.415619135E-1,-7.918223381E0,1.945288926E-1
4.765511615E0,-8.750807047E-1,-7.946953773E0,1.610100716E-1
4.767999376E0,-8.798691034E-1,-7.985261440E0,1.897404790E-1
4.770487136E0,-8.990227580E-1,-8.018779755E0,2.136825025E-1
4.772974896E0,-9.085995555E-1,-8.076240540E0,2.567781210E-1
4.775462657E0,-9.181763530E-1,-8.148066521E0,2.950853705E-1
4.777950417E0,-9.564836025E-1,-8.210315704E0,3.716998100E-1
4.780438178E0,-9.756371975E-1,-8.286931038E0,4.483142793E-1
4.782925938E0,-1.004367590E0,-8.368333817E0,5.249287486E-1
4.785413699E0,-1.037886381E0,-8.440159798E0,5.680243373E-1
4.787901459E0,-1.085770488E0,-8.492832184E0,5.871779919E-1
4.790389219E0,-1.148019671E0,-8.574234962E0,5.680243373E-1
4.792876980E0,-1.215057373E0,-8.679579735E0,5.345055461E-1
4.795364740E0,-1.267729759E0,-8.746617317E0,5.009866953E-1
4.797852501E0,-1.320402265E0,-8.823231697E0,4.818331003E-1
4.800340261E0,-1.411381960E0,-8.918999672E0,4.578910768E-1
4.802828021E0,-1.464054346E0,-9.005190849E0,4.052186310E-1
4.805315782E0,-1.531091928E0,-9.081805229E0,3.860650361E-1
4.807803542E0,-1.602918029E0,-9.158419609E0,3.525462151E-1
4.810291303E0,-1.650802016E0,-9.230246544E0,3.238157928E-1
4.812779063E0,-1.693897724E0,-9.258976936E0,3.238157928E-1
4.815266824E0,-1.775300503E0,-9.292495728E0,3.286041915E-1
4.817754584E0,-1.823184609E0,-9.311649323E0,3.142389655E-1
4.820242344E0,-1.885433793E0,-9.321226120E0,2.807201445E-1
4.822730105E0,-1.938106298E0,-9.326014519E0,2.711433470E-1
4.825217865E0,-1.985990286E0,-9.306860924E0,2.519897223E-1
4.827705626E0,-2.038662672E0,-9.282918930E0,2.519897223E-1
4.830193386E0,-2.048239470E0,-9.268553734E0,2.472013235E-1
4.832681146E0,-2.072181463E0,-9.230246544E0,2.472013235E-1
4.835168907E0,-2.096123695E0,-9.206304550E0,2.855085433E-1
4.837656667E0,-2.091335297E0,-9.182361603E0,3.381809890E-1
4.840144428E0,-2.076969862E0,-9.148842812E0,3.860650361E-1
4.842632188E0,-2.043451071E0,-9.091382027E0,3.908534348E-1
4.845119949E0,-2.014720678E0,-9.024344444E0,3.908534348E-1
4.847607709E0,-1.976413488E0,-8.976460457E0,3.812766075E-1
4.850095469E0,-1.938106298E0,-8.928576469E0,3.573346138E-1
4.852583230E0,-1.914164305E0,-8.861538887E0,3.190273643E-1
4.855070990E0,-1.861491799E0,-8.789712906E0,2.902969420E-1
4.857558751E0,-1.823184609E0,-8.727463722E0,2.807201445E-1
4.860046511E0,-1.789665818E0,-8.698733330E0,2.519897223E-1
4.862534271E0,-1.780089021E0,-8.631695747E0,2.472013235E-1
4.865022032E0,-1.746570110E0,-8.602965355E0,2.136825025E-1
4.867509792E0,-1.727416515E0,-8.574234962E0,1.705868691E-1
4.869997553E0,-1.703474522E0,-8.579023361E0,1.466448605E-1
4.872485313E0,-1.689109325E0,-8.579023361E0,1.083376259E-1
4.874973074E0,-1.650802016E0,-8.588600159E0,8.918401599E-2
4.877460834E0,-1.626860023E0,-8.622118950E0,7.960720360E-2
4.879948594E0,-1.612494826E0,-8.660426140E0,9.876082093E-2
4.882436355E0,-1.588552833E0,-8.708310127E0,1.083376259E-1
4.884924115E0,-1.550245643E0,-8.756194115E0,1.035492271E-1
4.887411876E0,-1.521515131E0,-8.823231697E0,1.418564469E-1
4.889899636E0,-1.492784739E0,-8.875904083E0,1.753752679E-1
4.892387396E0,-1.483207941E0,-8.895057678E0,1.993172914E-1
4.894875157E0,-1.483207941E0,-8.895057678E0,2.280477136E-1
4.897362917E0,-1.487996340E0,-8.909422874E0,2.663549483E-1
4.899850678E0,-1.502361536E0,-8.895057678E0,3.046621680E-1
4.902338438E0,-1.526303530E0,-8.871115685E0,3.094505668E-1
4.904826199E0,-1.559822440E0,-8.842385292E0,3.046621680E-1
4.907313959E0,-1.598129630E0,-8.794501305E0,3.046621680E-1
4.909801719E0,-1.636436820E0,-8.770559311E0,3.094505668E-1
4.912289480E0,-1.660378933E0,-8.746617317E0,3.381809890E-1
4.914777240E0,-1.641225219E0,-8.717886925E0,3.573346138E-1
4.917265001E0,-1.622071624E0,-8.674791336E0,3.860650361E-1
4.919752761E0,-1.617283225E0,-8.665214539E0,3.764882088E-1
4.922240521E0,-1.583764434E0,-8.650849342E0,3.812766075E-1
4.924728282E0,-1.545457244E0,-8.641272545E0,3.716998100E-1
4.927216042E0,-1.526303530E0,-8.650849342E0,3.525462151E-1
4.929703803E0,-1.511938334E0,-8.650849342E0,2.998737693E-1
4.932191563E0,-1.473631144E0,-8.679579735E0,2.232593149E-1
4.934679324E0,-1.459265947E0,-8.689156532E0,1.705868691E-1
4.937167084E0,-1.440112352E0,-8.698733330E0,1.370680481E-1
4.939654844E0,-1.406593442E0,-8.708310127E0,1.418564469E-1
4.942142605E0,-1.397016644E0,-8.722675323E0,1.418564469E-1
4.944630365E0,-1.382651448E0,-8.722675323E0,1.705868691E-1
4.947118126E0,-1.373074651E0,-8.741828918E0,1.705868691E-1
4.949605886E0,-1.358709455E0,-8.732252121E0,1.801636815E-1
4.952093646E0,-1.329979062E0,-8.737040520E0,1.849520802E-1
4.954581407E0,-1.296460271E0,-8.751405716E0,1.562216580E-1
4.957069167E0,-1.296460271E0,-8.775347710E0,1.322796494E-1
4.959556928E0,-1.301248670E0,-8.780136108E0,1.083376259E-1
4.962044688E0,-1.282094955E0,-8.784924507E0,8.918401599E-2
4.964532449E0,-1.286883354E0,-8.789712906E0,4.129998013E-2
4.967020209E0,-1.286883354E0,-8.794501305E0,1.735796221E-2
4.969507969E0,-1.320402265E0,-8.804078102E0,2.992752008E-3
4.971995730E0,-1.339555860E0,-8.784924507E0,1.256955881E-2
4.974483490E0,-1.377863050E0,-8.789712906E0,2.693476900E-2
4.976971251E0,-1.387439847E0,-8.813654900E0,7.003039867E-2
4.979459011E0,-1.416170359E0,-8.837596893E0,1.035492271E-1
4.981946771E0,-1.444900751E0,-8.837596893E0,1.322796494E-1
4.984434532E0,-1.473631144E0,-8.866327286E0,1.514332592E-1
4.986922292E0,-1.483207941E0,-8.871115685E0,1.657984704E-1
4.989410053E0,-1.511938334E0,-8.918999672E0,2.088941038E-1
4.991897813E0,-1.545457244E0,-8.952518463E0,2.615665495E-1
4.994385574E0,-1.555034041E0,-9.000402451E0,2.855085433E-1
4.996873334E0,-1.555034041E0,-9.053074837E0,2.950853705E-1
4.999361094E0,-1.569399238E0,-9.115324020E0,3.238157928E-1
5.001848855E0,-1.569399238E0,-9.163208008E0,3.238157928E-1
5.004336615E0,-1.555034041E0,-9.230246544E0,3.142389655E-1
5.006824376E0,-1.545457244E0,-9.311649323E0,2.759317458E-1
5.009312136E0,-1.531091928E0,-9.373898506E0,2.472013235E-1
5.011799896E0,-1.521515131E0,-9.440936089E0,1.993172914E-1
5.014287657E0,-1.535880446E0,-9.498396873E0,1.083376259E-1
5.016775417E0,-1.569399238E0,-9.541492462E0,1.256955881E-2
5.019263178E0,-1.602918029E0,-9.579799652E0,-1.023521200E-1
5.021750938E0,-1.631648421E0,-9.608530045E0,-2.172738016E-1
5.024238699E0,-1.674744129E0,-9.632472038E0,-3.130418658E-1
5.026726459E0,-1.717839718E0,-9.670779228E0,-4.231751561E-1
5.029214219E0,-1.732204914E0,-9.709086418E0,-5.141547918E-1
5.031701980E0,-1.732204914E0,-9.723451614E0,-5.764040351E-1
5.034189740E0,-1.736993313E0,-9.709086418E0,-6.147112846E-1
5.036677501E0,-1.703474522E0,-9.689932823E0,-6.147112846E-1
5.039165261E0,-1.674744129E0,-9.709086418E0,-5.620388389E-1
5.041653021E0,-1.641225219E0,-9.656414032E0,-5.285200477E-1
5.044140782E0,-1.626860023E0,-9.642048836E0,-4.519055784E-1
5.046628542E0,-1.612494826E0,-9.598953247E0,-3.800795078E-1
5.049116303E0,-1.578976035E0,-9.589376450E0,-3.274070919E-1
5.051604063E0,-1.555034041E0,-9.560646057E0,-2.699462473E-1
5.054091824E0,-1.507149935E0,-9.536704063E0,-2.172738016E-1
5.056579584E0,-1.468842745E0,-9.531915665E0,-1.789665818E-1
5.059067344E0,-1.430535555E0,-9.536704063E0,-1.262941360E-1
5.061555105E0,-1.406593442E0,-9.517550468E0,-8.798690885E-2
5.064042865E0,-1.397016644E0,-9.517550468E0,-3.531447425E-2
5.066530626E0,-1.358709455E0,-9.522338867E0,7.781155407E-3
5.069018386E0,-1.325190663E0,-9.546280861E0,6.524199992E-2
5.071506146E0,-1.315613866E0,-9.551069260E0,1.227028370E-1
5.073993907E0,-1.286883354E0,-9.565434456E0,1.418564469E-1
5.076481667E0,-1.262941360E0,-9.579799652E0,1.466448605E-1
5.078969428E0,-1.248576164E0,-9.603741646E0,1.562216580E-1
5.081457188E0,-1.234210968E0,-9.632472038E0,1.131260321E-1
5.083944949E0,-1.258152962E0,-9.656414032E0,3.651157767E-2
5.086432709E0,-1.306037068E0,-9.694721222E0,-6.404489279E-2
5.088920469E0,-1.349132657E0,-9.737816811E0,-1.789665818E-1
5.091408230E0,-1.406593442E0,-9.780912399E0,-2.938882709E-1
5.093895990E0,-1.449689150E0,-9.838373184E0,-4.040215313E-1
5.096383751E0,-1.507149935E0,-9.895833969E0,-5.189431906E-1
5.098871511E0,-1.535880446E0,-9.953294754E0,-6.434416771E-1
5.101359271E0,-1.578976035E0,-1.001554394E1,-7.679402232E-1
