"Time (s)","Acceleration x (m/s^2)","Acceleration y (m/s^2)","Acceleration z (m/s^2)"
3.103093700E-2,1.859097600E0,9.085396767E0,3.651756048E0
3.351859300E-2,1.849520802E0,9.094973564E0,3.632602453E0
3.600625000E-2,1.863885999E0,9.075819969E0,3.623025656E0
3.849390600E-2,1.844732404E0,9.075819969E0,3.594295263E0
4.098156200E-2,1.835155606E0,9.066243172E0,3.565564871E0
4.346921800E-2,1.849520802E0,9.056666374E0,3.541622877E0
4.595687500E-2,1.849520802E0,9.066243172E0,3.536834478E0
4.844453100E-2,1.849520802E0,9.075819969E0,3.517680883E0
5.093218700E-2,1.839944005E0,9.085396767E0,3.541622877E0
5.341984300E-2,1.839944005E0,9.080608368E0,3.589506865E0
5.590750000E-2,1.839944005E0,9.099761963E0,3.627814054E0
5.839515600E-2,1.816002011E0,9.104550362E0,3.613448858E0
6.088348900E-2,1.801636815E0,9.094973564E0,3.613448858E0
6.337083300E-2,1.801636815E0,9.099761963E0,3.651756048E0
6.585817700E-2,1.768117905E0,9.114127159E0,3.694851875E0
6.834552000E-2,1.744175911E0,9.128492355E0,3.733159065E0
7.083286400E-2,1.725022316E0,9.152434349E0,3.733159065E0
7.332020800E-2,1.725022316E0,9.162011147E0,3.733159065E0
7.580760400E-2,1.710657120E0,9.176376343E0,3.728370667E0
7.829505200E-2,1.729810715E0,9.171587944E0,3.728370667E0
8.078255200E-2,1.753752708E0,9.162011147E0,3.728370667E0
8.327010400E-2,1.777694821E0,9.162011147E0,3.742735863E0
8.575770800E-2,1.772906303E0,9.138069153E0,3.752312660E0
8.824536400E-2,1.792060018E0,9.147645950E0,3.747524261E0
9.073307300E-2,1.796848416E0,9.142857552E0,3.771466255E0
9.322083300E-2,1.792060018E0,9.142857552E0,3.757101059E0
9.570864500E-2,1.772906303E0,9.162011147E0,3.742735863E0
9.819651000E-2,1.748964310E0,9.185953140E0,3.709217072E0
1.006843750E-1,1.744175911E0,9.214683533E0,3.699640274E0
1.031722390E-1,1.720233917E0,9.252990723E0,3.733159065E0
1.056601040E-1,1.720233917E0,9.252990723E0,3.776254654E0
1.081479680E-1,1.701080322E0,9.248202324E0,3.828927040E0
1.106358330E-1,1.710657120E0,9.257779121E0,3.872022629E0
1.131236980E-1,1.734599113E0,9.252990723E0,3.881599426E0
1.156114060E-1,1.734599113E0,9.243413925E0,3.881599426E0
1.180990620E-1,1.734599113E0,9.224260330E0,3.905541420E0
1.205867180E-1,1.705868721E0,9.205106735E0,3.886387825E0
1.230743750E-1,1.667561531E0,9.214683533E0,3.843292236E0
1.255620310E-1,1.643619418E0,9.233837128E0,3.814561844E0
1.280496870E-1,1.619677424E0,9.243413925E0,3.809773445E0
1.305373430E-1,1.610100627E0,9.238625526E0,3.781043053E0
1.330250000E-1,1.600523829E0,9.252990723E0,3.776254654E0
1.355126560E-1,1.600523829E0,9.224260330E0,3.781043053E0
1.380003120E-1,1.600523829E0,9.209895134E0,3.824138641E0
1.404879680E-1,1.590947032E0,9.209895134E0,3.843292236E0
1.429756250E-1,1.571793437E0,9.224260330E0,3.876811028E0
1.454632810E-1,1.571793437E0,9.224260330E0,3.934272051E0
1.479509370E-1,1.557428241E0,9.243413925E0,3.929483652E0
1.504385930E-1,1.528697729E0,9.257779121E0,3.886387825E0
1.529262500E-1,1.543063045E0,9.252990723E0,3.828927040E0
1.554139060E-1,1.557428241E0,9.252990723E0,3.809773445E0
1.579015620E-1,1.571793437E0,9.252990723E0,3.804985046E0
1.603892180E-1,1.586158633E0,9.248202324E0,3.766677856E0
1.628768750E-1,1.614889026E0,9.252990723E0,3.704428673E0
1.653645310E-1,1.653196216E0,9.252990723E0,3.690063477E0
1.678521870E-1,1.681926727E0,9.267355919E0,3.699640274E0
1.703398430E-1,1.696291924E0,9.257779121E0,3.714005470E0
1.728275000E-1,1.701080322E0,9.252990723E0,3.709217072E0
1.753151560E-1,1.710657120E0,9.243413925E0,3.704428673E0
1.778028120E-1,1.734599113E0,9.224260330E0,3.704428673E0
1.802904680E-1,1.715445518E0,9.229048729E0,3.694851875E0
1.827781250E-1,1.691503525E0,9.229048729E0,3.685275078E0
1.852657810E-1,1.677138329E0,9.219471931E0,3.728370667E0
1.877534370E-1,1.657984734E0,9.224260330E0,3.737947464E0
1.902410930E-1,1.662773132E0,9.238625526E0,3.728370667E0
1.927287500E-1,1.667561531E0,9.238625526E0,3.728370667E0
1.952164060E-1,1.691503525E0,9.243413925E0,3.742735863E0
1.977040620E-1,1.705868721E0,9.229048729E0,3.752312660E0
2.001917180E-1,1.720233917E0,9.219471931E0,3.771466255E0
2.026793750E-1,1.725022316E0,9.219471931E0,3.776254654E0
2.051670310E-1,1.739387512E0,9.224260330E0,3.747524261E0
2.076546870E-1,1.739387512E0,9.214683533E0,3.709217072E0
2.101423430E-1,1.739387512E0,9.200318336E0,3.776254654E0
2.126300000E-1,1.744175911E0,9.243413925E0,3.661332846E0
2.151181250E-1,1.758541107E0,9.229048729E0,3.747524261E0
2.176055200E-1,1.739387512E0,9.238625526E0,3.651756048E0
2.200929160E-1,1.734599113E0,9.229048729E0,3.742735863E0
2.225803120E-1,1.701080322E0,9.252990723E0,3.685275078E0
2.250677080E-1,1.643619418E0,9.252990723E0,3.814561844E0
2.275551040E-1,1.605312228E0,9.276932716E0,3.733159065E0
2.300425520E-1,1.581370234E0,9.276932716E0,3.814561844E0
2.325300520E-1,1.571793437E0,9.276932716E0,3.728370667E0
2.350176040E-1,1.571793437E0,9.262567520E0,3.766677856E0
2.375052080E-1,1.543063045E0,9.233837128E0,3.661332846E0
2.399928640E-1,1.567005038E0,9.195529938E0,3.694851875E0
2.424805730E-1,1.567005038E0,9.181164742E0,3.651756048E0
2.449683330E-1,1.543063045E0,9.138069153E0,3.699640274E0
2.474561450E-1,1.509544134E0,9.138069153E0,3.704428673E0
2.499439580E-1,1.490390539E0,9.128492355E0,3.761889458E0
2.524317700E-1,1.480813742E0,9.133280754E0,3.766677856E0
2.549195830E-1,1.461660147E0,9.128492355E0,3.771466255E0
2.574073950E-1,1.476025343E0,9.147645950E0,3.752312660E0
2.598952080E-1,1.509544134E0,9.133280754E0,3.747524261E0
2.623830200E-1,1.538274646E0,9.128492355E0,3.771466255E0
2.648708330E-1,1.533486247E0,9.123703957E0,3.737947464E0
2.673586450E-1,1.552639842E0,9.109338760E0,3.757101059E0
2.698464060E-1,1.552639842E0,9.128492355E0,3.718793869E0
2.723340620E-1,1.562216640E0,9.114127159E0,3.785831451E0
2.748217180E-1,1.543063045E0,9.094973564E0,3.737947464E0
2.773093750E-1,1.533486247E0,9.066243172E0,3.790619850E0
2.797970310E-1,1.523909330E0,9.037512779E0,3.714005470E0
2.822846870E-1,1.543063045E0,8.999205589E0,3.790619850E0
2.847723430E-1,1.543063045E0,8.984840393E0,3.666121244E0
2.872600000E-1,1.562216640E0,8.951321602E0,3.714005470E0
2.897476560E-1,1.586158633E0,8.932168007E0,3.608660460E0
2.922353120E-1,1.600523829E0,8.884284019E0,3.690063477E0
2.947229680E-1,1.624465823E0,8.898649216E0,3.565564871E0
2.972106250E-1,1.648407817E0,8.903437614E0,3.642179251E0
2.996982810E-1,1.638831019E0,8.913014412E0,3.527257681E0
3.021859370E-1,1.629254222E0,8.903437614E0,3.646967649E0
3.046735930E-1,1.595735431E0,8.917802811E0,3.575141668E0
3.071612500E-1,1.581370234E0,8.908226013E0,3.709217072E0
3.096489060E-1,1.562216640E0,8.913014412E0,3.613448858E0
3.121365620E-1,1.552639842E0,8.884284019E0,3.718793869E0
3.146242180E-1,1.538274646E0,8.865130424E0,3.584718466E0
3.171118750E-1,1.514332533E0,8.836400032E0,3.651756048E0
3.195995310E-1,1.480813742E0,8.841188431E0,3.517680883E0
3.220871870E-1,1.461660147E0,8.817246437E0,3.589506865E0
3.245748430E-1,1.437718153E0,8.812458038E0,3.450643301E0
3.270625000E-1,1.428141356E0,8.778939247E0,3.541622877E0
3.295501560E-1,1.413776159E0,8.788516045E0,3.474585295E0
3.320378120E-1,1.418564558E0,8.783727646E0,3.584718466E0
3.345254680E-1,1.413776159E0,8.783727646E0,3.493738890E0
3.370131250E-1,1.408987641E0,8.769362450E0,3.560776472E0
3.395007810E-1,1.418564558E0,8.764574051E0,3.474585295E0
3.419884370E-1,1.428141356E0,8.735843658E0,3.551199675E0
3.444760930E-1,1.437718153E0,8.721478462E0,3.522469282E0
3.469637500E-1,1.418564558E0,8.692748070E0,3.575141668E0
3.494514060E-1,1.408987641E0,8.692748070E0,3.560776472E0
3.519390620E-1,1.399410844E0,8.692748070E0,3.560776472E0
3.544267180E-1,1.370680451E0,8.716690063E0,3.536834478E0
3.569143750E-1,1.375468850E0,8.716690063E0,3.555988073E0
3.594020310E-1,1.399410844E0,8.735843658E0,3.584718466E0
3.618896870E-1,1.428141356E0,8.764574051E0,3.589506865E0
3.643773430E-1,1.456871748E0,8.754997253E0,3.646967649E0
3.668650000E-1,1.490390539E0,8.754997253E0,3.603872061E0
3.693526560E-1,1.509544134E0,8.740632057E0,3.661332846E0
3.718403120E-1,1.519120932E0,8.731055260E0,3.594295263E0
3.743279680E-1,1.538274646E0,8.707113266E0,3.675698042E0
3.768156250E-1,1.543063045E0,8.721478462E0,3.594295263E0
3.793032810E-1,1.567005038E0,8.740632057E0,3.680486679E0
3.817909370E-1,1.547851443E0,8.764574051E0,3.579930067E0
3.842785930E-1,1.533486247E0,8.778939247E0,3.680486679E0
3.867662500E-1,1.509544134E0,8.812458038E0,3.584718466E0
3.892539060E-1,1.495178938E0,8.817246437E0,3.694851875E0
3.917415620E-1,1.471236944E0,8.841188431E0,3.627814054E0
3.942292180E-1,1.471236944E0,8.822034836E0,3.771466255E0
3.967168750E-1,1.456871748E0,8.822034836E0,3.694851875E0
3.992045310E-1,1.471236944E0,8.783727646E0,3.824138641E0
4.016921870E-1,1.456871748E0,8.769362450E0,3.714005470E0
4.041798430E-1,1.471236944E0,8.731055260E0,3.800196648E0
4.066675000E-1,1.476025343E0,8.735843658E0,3.637390852E0
4.091551560E-1,1.485602140E0,8.707113266E0,3.733159065E0
4.116428120E-1,1.523909330E0,8.716690063E0,3.536834478E0
4.141304680E-1,1.547851443E0,8.687959671E0,3.627814054E0
4.166181250E-1,1.562216640E0,8.707113266E0,3.508104086E0
4.191057810E-1,1.552639842E0,8.692748070E0,3.623025656E0
4.215934370E-1,1.567005038E0,8.721478462E0,3.503315687E0
4.240810930E-1,1.576581836E0,8.740632057E0,3.613448858E0
4.265687500E-1,1.590947032E0,8.783727646E0,3.527257681E0
4.290564060E-1,1.576581836E0,8.812458038E0,3.623025656E0
4.315440620E-1,1.586158633E0,8.841188431E0,3.527257681E0
4.340317180E-1,1.576581836E0,8.826823235E0,3.637390852E0
4.365193750E-1,1.581370234E0,8.831611633E0,3.570353270E0
4.390070310E-1,1.590947032E0,8.798092842E0,3.651756048E0
4.414946870E-1,1.600523829E0,8.778939247E0,3.603872061E0
4.439823430E-1,1.595735431E0,8.759785652E0,3.661332846E0
4.464700000E-1,1.590947032E0,8.750208855E0,3.627814054E0
4.489576560E-1,1.571793437E0,8.740632057E0,3.627814054E0
4.514453120E-1,1.576581836E0,8.740632057E0,3.579930067E0
4.539329680E-1,1.600523829E0,8.750208855E0,3.575141668E0
4.564206250E-1,1.624465823E0,8.764574051E0,3.560776472E0
4.589082810E-1,1.629254222E0,8.774150848E0,3.584718466E0
4.613959370E-1,1.657984734E0,8.788516045E0,3.656544447E0
4.638835930E-1,1.657984734E0,8.798092842E0,3.704428673E0
4.663712500E-1,1.662773132E0,8.826823235E0,3.814561844E0
4.688589060E-1,1.648407817E0,8.855553627E0,3.804985046E0
4.713465620E-1,1.643619418E0,8.884284019E0,3.857657433E0
4.738342180E-1,1.667561531E0,8.903437614E0,3.781043053E0
4.763218750E-1,1.681926727E0,8.903437614E0,3.833715439E0
4.788095310E-1,1.710657120E0,8.898649216E0,3.747524261E0
4.812971870E-1,1.753752708E0,8.874707222E0,3.814561844E0
4.837848430E-1,1.768117905E0,8.874707222E0,3.690063477E0
4.862725000E-1,1.777694821E0,8.850765228E0,3.776254654E0
4.887601560E-1,1.763329506E0,8.850765228E0,3.718793869E0
4.912478120E-1,1.744175911E0,8.845976830E0,3.848080635E0
4.937354680E-1,1.705868721E0,8.841188431E0,3.795408249E0
4.962231250E-1,1.701080322E0,8.826823235E0,3.963002443E0
4.987107810E-1,1.672349930E0,8.850765228E0,3.876811028E0
5.011984370E-1,1.681926727E0,8.855553627E0,4.015674591E0
5.036860930E-1,1.705868721E0,8.874707222E0,3.876811028E0
5.061737500E-1,1.691503525E0,8.860342026E0,3.982156038E0
5.086614060E-1,1.681926727E0,8.898649216E0,3.848080635E0
5.111490620E-1,1.691503525E0,8.908226013E0,3.939060450E0
5.136367180E-1,1.667561531E0,8.960898399E0,3.790619850E0
5.161243750E-1,1.657984734E0,8.941744804E0,3.924695253E0
5.186120310E-1,1.643619418E0,8.975263596E0,3.828927040E0
5.210996870E-1,1.638831019E0,8.994417191E0,3.972579241E0
5.235873430E-1,1.643619418E0,9.008782387E0,3.852869034E0
5.260750000E-1,1.667561531E0,9.003993988E0,3.986944437E0
5.285626560E-1,1.672349930E0,9.042301178E0,3.939060450E0
5.310503120E-1,1.662773132E0,9.051877975E0,4.092289448E0
5.335379680E-1,1.643619418E0,9.061454773E0,4.063559055E0
5.360256250E-1,1.605312228E0,9.061454773E0,4.226364613E0
5.385132810E-1,1.571793437E0,9.090185165E0,4.159327030E0
5.410009370E-1,1.547851443E0,9.094973564E0,4.207211018E0
5.434885930E-1,1.576581836E0,9.090185165E0,4.130596638E0
5.459762500E-1,1.595735431E0,9.080608368E0,4.154538631E0
5.484639060E-1,1.677138329E0,9.071031570E0,4.058770657E0
5.509515620E-1,1.744175911E0,9.032724380E0,4.058770657E0
5.534392180E-1,1.816002011E0,9.023147583E0,4.030039787E0
5.559268750E-1,1.883039594E0,9.018359184E0,4.044404984E0
5.584145310E-1,1.906981707E0,9.032724380E0,4.049193859E0
5.609021870E-1,1.926135302E0,9.051877975E0,4.025251389E0
5.633898430E-1,1.930923700E0,9.090185165E0,4.053982258E0
5.658775000E-1,1.916558504E0,9.128492355E0,4.025251389E0
5.683651560E-1,1.911770105E0,9.152434349E0,4.063559055E0
5.708528120E-1,1.873462796E0,9.195529938E0,4.044404984E0
5.733404680E-1,1.863885999E0,9.209895134E0,4.121019840E0
5.758281250E-1,1.835155606E0,9.219471931E0,4.049193859E0
5.783157810E-1,1.844732404E0,9.214683533E0,4.116231441E0
5.808034370E-1,1.835155606E0,9.214683533E0,4.053982258E0
5.832910930E-1,1.859097600E0,9.190741539E0,4.130596638E0
5.857787500E-1,1.873462796E0,9.185953140E0,4.015674591E0
5.882664060E-1,1.892616391E0,9.176376343E0,4.092289448E0
5.907540620E-1,1.892616391E0,9.195529938E0,3.953425646E0
5.932417180E-1,1.921346903E0,9.224260330E0,4.025251389E0
5.957293750E-1,1.916558504E0,9.305663109E0,3.915118217E0
5.982170310E-1,1.930923700E0,9.372700691E0,4.053982258E0
6.007046870E-1,1.892616391E0,9.492411613E0,3.982156038E0
6.031923430E-1,1.902193308E0,9.559449196E0,4.235941410E0
6.056800000E-1,1.892616391E0,9.655217171E0,4.231153011E0
6.081676560E-1,1.911770105E0,9.674370766E0,4.499303341E0
6.106553120E-1,1.935712099E0,9.727043152E0,4.460996151E0
6.131429680E-1,1.921346903E0,9.731831551E0,4.681262970E0
6.156306250E-1,1.940500498E0,9.722254753E0,4.609436989E0
6.181182810E-1,1.959654093E0,9.693524361E0,4.724358559E0
6.206059370E-1,1.983596087E0,9.679159164E0,4.518456936E0
6.230935930E-1,2.026691675E0,9.607333183E0,4.575918198E0
6.255812500E-1,2.050633669E0,9.564237595E0,4.379593372E0
6.280689060E-1,2.069787264E0,9.516353607E0,4.446630955E0
6.305565620E-1,2.041056871E0,9.506776810E0,4.264671803E0
6.330442180E-1,2.036268473E0,9.463681221E0,4.322132587E0
6.355318750E-1,2.026691675E0,9.468469620E0,4.226364613E0
6.380195310E-1,1.993172884E0,9.463681221E0,4.302978992E0
6.405071870E-1,1.974019289E0,9.482834816E0,4.188057423E0
6.429948430E-1,1.959654093E0,9.501988411E0,4.197634220E0
6.454825000E-1,1.940500498E0,9.535507202E0,4.116231441E0
6.479701560E-1,1.892616391E0,9.554660797E0,4.173692226E0
6.504578120E-1,1.835155606E0,9.573814392E0,4.140173435E0
6.529454680E-1,1.792060018E0,9.588179588E0,4.149750233E0
6.554331250E-1,1.763329506E0,9.612121582E0,4.111443043E0
6.579207810E-1,1.748964310E0,9.621698380E0,4.111443043E0
6.604084370E-1,1.763329506E0,9.588179588E0,4.111443043E0
6.628960930E-1,1.772906303E0,9.545084000E0,4.135385036E0
6.653837500E-1,1.787271619E0,9.501988411E0,4.168903828E0
6.678714060E-1,1.758541107E0,9.492411613E0,4.140173435E0
6.703590620E-1,1.739387512E0,9.454104424E0,4.178480625E0
6.728467180E-1,1.701080322E0,9.425373077E0,4.168903828E0
6.753343750E-1,1.681926727E0,9.396642685E0,4.279036999E0
6.778220310E-1,1.629254222E0,9.387065887E0,4.202422619E0
6.803096870E-1,1.624465823E0,9.367912292E0,4.235941410E0
6.827973430E-1,1.619677424E0,9.367912292E0,4.140173435E0
6.852850000E-1,1.643619418E0,9.320028305E0,4.226364613E0
6.877726560E-1,1.667561531E0,9.296086311E0,4.149750233E0
6.902603120E-1,1.691503525E0,9.248202324E0,4.240729809E0
6.927479680E-1,1.677138329E0,9.248202324E0,4.058770657E0
6.952356250E-1,1.696291924E0,9.219471931E0,4.164115429E0
6.977232810E-1,1.710657120E0,9.209895134E0,4.010886192E0
7.002109370E-1,1.691503525E0,9.181164742E0,4.125808239E0
7.026985930E-1,1.691503525E0,9.166799545E0,4.020462990E0
7.051862500E-1,1.696291924E0,9.123703957E0,4.178480625E0
7.076739060E-1,1.672349930E0,9.142857552E0,4.097077847E0
7.101615620E-1,1.653196216E0,9.114127159E0,4.111443043E0
7.126492180E-1,1.648407817E0,9.104550362E0,4.101866245E0
7.151370830E-1,1.638831019E0,9.094973564E0,4.087501049E0
7.176249480E-1,1.672349930E0,9.061454773E0,4.039616585E0
7.201128120E-1,1.677138329E0,9.013570786E0,4.001309395E0
7.226006770E-1,1.681926727E0,8.970475197E0,4.001309395E0
7.250885410E-1,1.662773132E0,8.917802811E0,3.996521235E0
7.275763540E-1,1.624465823E0,8.855553627E0,4.001309395E0
7.300640100E-1,1.595735431E0,8.822034836E0,3.991732836E0
7.325516660E-1,1.567005038E0,8.822034836E0,3.967790842E0
7.350393230E-1,1.543063045E0,8.826823235E0,3.948637247E0
7.375269790E-1,1.509544134E0,8.826823235E0,3.934272051E0
7.400146350E-1,1.490390539E0,8.841188431E0,3.872022629E0
7.425022910E-1,1.514332533E0,8.845976830E0,3.843292236E0
7.449899480E-1,1.552639842E0,8.860342026E0,3.824138641E0
7.474776040E-1,1.605312228E0,8.855553627E0,3.800196648E0
7.499652600E-1,1.648407817E0,8.817246437E0,3.809773445E0
7.524529160E-1,1.705868721E0,8.812458038E0,3.795408249E0
7.549405730E-1,1.734599113E0,8.778939247E0,3.781043053E0
7.574282290E-1,1.753752708E0,8.726266861E0,3.737947464E0
7.599158850E-1,1.753752708E0,8.687959671E0,3.709217072E0
7.624035410E-1,1.748964310E0,8.659229279E0,3.718793869E0
7.648911980E-1,1.734599113E0,8.640075684E0,3.723582268E0
7.673788540E-1,1.720233917E0,8.611345291E0,3.704428673E0
7.698665100E-1,1.701080322E0,8.596980095E0,3.714005470E0
7.723541660E-1,1.672349930E0,8.582614899E0,3.723582268E0
7.748418230E-1,1.648407817E0,8.563461304E0,3.742735863E0
7.773294790E-1,1.653196216E0,8.539519310E0,3.728370667E0
7.798171350E-1,1.634042621E0,8.515577316E0,3.742735863E0
7.823047910E-1,1.595735431E0,8.506000519E0,3.723582268E0
7.847924480E-1,1.562216640E0,8.467693329E0,3.723582268E0
7.872801040E-1,1.519120932E0,8.443750381E0,3.690063477E0
7.897677600E-1,1.485602140E0,8.410231590E0,3.656544447E0
7.922554160E-1,1.432929754E0,8.371924400E0,3.623025656E0
7.947430730E-1,1.370680451E0,8.347982407E0,3.589506865E0
7.972307290E-1,1.356315255E0,8.319252014E0,3.579930067E0
7.997183850E-1,1.341950059E0,8.300098419E0,3.546411276E0
8.022060410E-1,1.341950059E0,8.300098419E0,3.522469282E0
8.046936980E-1,1.356315255E0,8.314463615E0,3.512892485E0
8.071813540E-1,1.389834046E0,8.295310020E0,3.503315687E0
8.096690100E-1,1.394622445E0,8.300098419E0,3.484162092E0
8.121566660E-1,1.399410844E0,8.295310020E0,3.479373693E0
8.146443230E-1,1.404199243E0,8.300098419E0,3.493738890E0
8.171319790E-1,1.423352957E0,8.280944824E0,3.488950491E0
8.196196350E-1,1.418564558E0,8.266579628E0,3.493738890E0
8.221072910E-1,1.432929754E0,8.257002831E0,3.503315687E0
8.245949480E-1,1.432929754E0,8.218695641E0,3.512892485E0
8.270826040E-1,1.437718153E0,8.194753647E0,3.498527288E0
8.295702600E-1,1.452083349E0,8.161234856E0,3.445854902E0
8.320579160E-1,1.452083349E0,8.146869659E0,3.407547474E0
8.345455730E-1,1.456871748E0,8.127716064E0,3.378817081E0
8.370332290E-1,1.456871748E0,8.084620476E0,3.354875088E0
8.395208850E-1,1.466448545E0,8.070255280E0,3.350086689E0
8.420085410E-1,1.471236944E0,8.065466881E0,3.335721493E0
8.444961980E-1,1.471236944E0,8.051101685E0,3.326144695E0
8.469838540E-1,1.480813742E0,8.036736488E0,3.335721493E0
8.494715100E-1,1.495178938E0,8.036736488E0,3.354875088E0
8.519591660E-1,1.504755735E0,8.036736488E0,3.345298290E0
8.544468230E-1,1.519120932E0,8.055890083E0,3.369240284E0
8.569344790E-1,1.523909330E0,8.070255280E0,3.374028683E0
8.594221350E-1,1.509544134E0,8.089408875E0,3.417124271E0
8.619097910E-1,1.485602140E0,8.108562469E0,3.445854902E0
8.643974480E-1,1.490390539E0,8.127716064E0,3.445854902E0
8.668851040E-1,1.466448545E0,8.132504463E0,3.436278105E0
8.693727600E-1,1.456871748E0,8.142081261E0,3.417124271E0
8.718604160E-1,1.442506552E0,8.113350868E0,3.412335873E0
8.743480730E-1,1.432929754E0,8.098985672E0,3.412335873E0
8.768357290E-1,1.428141356E0,8.084620476E0,3.397970676E0
8.793233850E-1,1.428141356E0,8.070255280E0,3.374028683E0
8.818110410E-1,1.428141356E0,8.041524887E0,3.407547474E0
8.842986980E-1,1.442506552E0,8.022371292E0,3.455431700E0
8.867863540E-1,1.452083349E0,8.003217697E0,3.488950491E0
8.892740100E-1,1.423352957E0,8.012794495E0,3.522469282E0
8.917616660E-1,1.399410844E0,8.012794495E0,3.560776472E0
8.942493230E-1,1.356315255E0,8.046313286E0,3.589506865E0
8.967369790E-1,1.337161660E0,8.070255280E0,3.623025656E0
8.992246350E-1,1.318008065E0,8.127716064E0,3.627814054E0
9.017122910E-1,1.318008065E0,8.151658058E0,3.608660460E0
9.041999480E-1,1.318008065E0,8.175600052E0,3.637390852E0
9.066876040E-1,1.332373261E0,8.189965248E0,3.680486679E0
9.091752600E-1,1.365892053E0,8.166023254E0,3.685275078E0
9.116629160E-1,1.437718153E0,8.156446457E0,3.675698042E0
9.141505730E-1,1.490390539E0,8.151658058E0,3.646967649E0
9.166382290E-1,1.552639842E0,8.166023254E0,3.623025656E0
9.191258850E-1,1.610100627E0,8.185176849E0,3.570353270E0
9.216135410E-1,1.634042621E0,8.233060837E0,3.551199675E0
9.241011980E-1,1.648407817E0,8.271368027E0,3.560776472E0
9.265888540E-1,1.648407817E0,8.314463615E0,3.575141668E0
9.290765100E-1,1.614889026E0,8.362347603E0,3.613448858E0
9.315641660E-1,1.629254222E0,8.410231590E0,3.685275078E0
9.340518230E-1,1.638831019E0,8.462904930E0,3.742735863E0
9.365394790E-1,1.638831019E0,8.506000519E0,3.790619850E0
9.390271350E-1,1.653196216E0,8.549096107E0,3.833715439E0
9.415147910E-1,1.643619418E0,8.577826500E0,3.915118217E0
9.440024480E-1,1.662773132E0,8.611345291E0,3.958214045E0
9.464901040E-1,1.667561531E0,8.625710487E0,4.020462990E0
9.489777600E-1,1.686715126E0,8.649652481E0,4.077924252E0
9.514654160E-1,1.686715126E0,8.678382874E0,4.111443043E0
9.539530730E-1,1.686715126E0,8.707113266E0,4.135385036E0
9.564407290E-1,1.691503525E0,8.726266861E0,4.135385036E0
9.589283850E-1,1.710657120E0,8.750208855E0,4.149750233E0
9.614160410E-1,1.744175911E0,8.778939247E0,4.111443043E0
9.639036980E-1,1.806425214E0,8.817246437E0,4.082712650E0
9.663913540E-1,1.878251195E0,8.869918823E0,4.058770657E0
9.688790100E-1,1.959654093E0,8.913014412E0,4.101866245E0
9.713666660E-1,2.064998865E0,8.936956406E0,4.154538631E0
9.738543230E-1,2.160767078E0,9.003993988E0,4.173692226E0
9.763419790E-1,2.237381458E0,9.042301178E0,4.183269024E0
9.788296350E-1,2.290053844E0,9.075819969E0,4.216787815E0
9.813172910E-1,2.309207439E0,9.099761963E0,4.211999416E0
9.838049480E-1,2.299630642E0,9.109338760E0,4.207211018E0
9.862926040E-1,2.275688648E0,9.128492355E0,4.168903828E0
9.887802600E-1,2.223016262E0,9.162011147E0,4.092289448E0
9.912679160E-1,2.184709072E0,9.181164742E0,4.049193859E0
9.937555730E-1,2.165555477E0,9.166799545E0,4.020462990E0
9.962432290E-1,2.151190281E0,9.133280754E0,3.972579241E0
9.987308850E-1,2.136825085E0,9.128492355E0,3.905541420E0
1.001218541E0,2.132036686E0,9.104550362E0,3.833715439E0
1.003706198E0,2.141613483E0,9.066243172E0,3.814561844E0
1.006193854E0,2.132036686E0,9.056666374E0,3.795408249E0
1.008681510E0,2.127248287E0,9.051877975E0,3.742735863E0
1.011169166E0,2.122459888E0,9.075819969E0,3.718793869E0
1.013656823E0,2.098517895E0,9.080608368E0,3.747524261E0
1.016144479E0,2.074575663E0,9.104550362E0,3.828927040E0
1.018632135E0,2.036268473E0,9.128492355E0,3.886387825E0
1.021119791E0,2.021903276E0,9.147645950E0,3.900753021E0
1.023607448E0,2.021903276E0,9.147645950E0,3.900753021E0
1.026095104E0,2.036268473E0,9.104550362E0,3.876811028E0
1.028582760E0,2.079364061E0,9.061454773E0,3.824138641E0
1.031070416E0,2.117671490E0,9.023147583E0,3.761889458E0
1.033558073E0,2.155978680E0,9.023147583E0,3.704428673E0
1.036045729E0,2.208651066E0,9.027935982E0,3.637390852E0
1.038533385E0,2.242169857E0,9.051877975E0,3.651756048E0
1.041021041E0,2.261323452E0,9.104550362E0,3.718793869E0
1.043508698E0,2.280477047E0,9.152434349E0,3.800196648E0
1.045996354E0,2.270900249E0,9.209895134E0,3.872022629E0
1.048484010E0,2.270900249E0,9.257779121E0,3.948637247E0
1.050971666E0,2.285265446E0,9.305663109E0,3.943848848E0
1.053459323E0,2.309207439E0,9.320028305E0,3.919906616E0
1.055946979E0,2.366668463E0,9.305663109E0,3.891176224E0
1.058434635E0,2.409764051E0,9.243413925E0,3.929483652E0
1.060922291E0,2.433706045E0,9.171587944E0,3.958214045E0
1.063409948E0,2.419340849E0,9.114127159E0,3.967790842E0
1.065897604E0,2.400187254E0,9.090185165E0,3.953425646E0
1.068385260E0,2.357091665E0,9.094973564E0,3.953425646E0
1.070872916E0,2.304419041E0,9.118915558E0,3.953425646E0
1.073360573E0,2.251746655E0,9.123703957E0,3.972579241E0
1.075848229E0,2.179920673E0,9.142857552E0,4.039616585E0
1.078335885E0,2.127248287E0,9.152434349E0,4.101866245E0
1.080823541E0,2.098517895E0,9.171587944E0,4.178480625E0
1.083311198E0,2.079364061E0,9.195529938E0,4.221576214E0
1.085798854E0,2.064998865E0,9.214683533E0,4.231153011E0
1.088286510E0,2.069787264E0,9.233837128E0,4.202422619E0
1.090774166E0,2.093729496E0,9.238625526E0,4.173692226E0
1.093261823E0,2.117671490E0,9.257779121E0,4.173692226E0
1.095749479E0,2.155978680E0,9.286509514E0,4.154538631E0
1.098237135E0,2.194285870E0,9.329605103E0,4.125808239E0
1.100724791E0,2.237381458E0,9.387065887E0,4.130596638E0
1.103212448E0,2.261323452E0,9.439739227E0,4.197634220E0
1.105700104E0,2.266111851E0,9.478046417E0,4.307767391E0
1.108187760E0,2.266111851E0,9.521142006E0,4.432265759E0
1.110675416E0,2.242169857E0,9.545084000E0,4.542399406E0
1.113163073E0,2.203862667E0,9.573814392E0,4.628590584E0
1.115650729E0,2.155978680E0,9.588179588E0,4.676474571E0
1.118138437E0,2.112883091E0,9.569025993E0,4.700416565E0
1.120626145E0,2.103306293E0,9.559449196E0,4.666897774E0
1.123113854E0,2.084152699E0,9.559449196E0,4.628590584E0
1.125601562E0,2.112883091E0,9.530718803E0,4.575918198E0
1.128089270E0,2.160767078E0,9.521142006E0,4.484938145E0
1.130576979E0,2.227804661E0,9.540295601E0,4.360439777E0
1.133064687E0,2.304419041E0,9.569025993E0,4.293402195E0
1.135552395E0,2.366668463E0,9.592967987E0,4.307767391E0
1.138040104E0,2.400187254E0,9.631275177E0,4.374804974E0
1.140527812E0,2.433706045E0,9.712677956E0,4.451419353E0
1.143015520E0,2.409764051E0,9.760561943E0,4.537611008E0
1.145503229E0,2.371456861E0,9.794080734E0,4.642955780E0
1.147990937E0,2.323572636E0,9.827599525E0,4.719570160E0
1.150478645E0,2.280477047E0,9.841964722E0,4.690839767E0
1.152966354E0,2.218227863E0,9.846753120E0,4.585494995E0
1.155454062E0,2.189497471E0,9.837176323E0,4.427477360E0
1.157941770E0,2.179920673E0,9.798869133E0,4.293402195E0
1.160429479E0,2.218227863E0,9.765350342E0,4.178480625E0
1.162917187E0,2.251746655E0,9.779715538E0,4.111443043E0
1.165404895E0,2.285265446E0,9.803657532E0,4.159327030E0
1.167892604E0,2.299630642E0,9.865906715E0,4.259883404E0
1.170380312E0,2.294842243E0,9.923367500E0,4.413112164E0
1.172868020E0,2.299630642E0,1.001913548E1,4.532822132E0
1.175355729E0,2.323572636E0,1.011490345E1,4.580706596E0
1.177843437E0,2.366668463E0,1.018672943E1,4.532822132E0
1.180331145E0,2.414552450E0,1.022503662E1,4.480149746E0
1.182818854E0,2.467224836E0,1.024419022E1,4.417900562E0
1.185306562E0,2.519897223E0,1.023940182E1,4.360439777E0
1.187794270E0,2.567781210E0,1.022982502E1,4.298190594E0
1.190281927E0,2.606088638E0,1.024419022E1,4.250306606E0
1.192769583E0,2.630030632E0,1.026813221E1,4.211999416E0
1.195257239E0,2.620453835E0,1.030643940E1,4.211999416E0
1.197744895E0,2.620453835E0,1.037347698E1,4.283825397E0
1.200232552E0,2.601300240E0,1.044530392E1,4.398746967E0
1.202720208E0,2.562992811E0,1.052670670E1,4.590283394E0
1.205207864E0,2.539050817E0,1.060332108E1,4.753088951E0
1.207695520E0,2.534262419E0,1.066557026E1,4.872798920E0
1.210183177E0,2.553416014E0,1.066078186E1,4.973355293E0
1.212670833E0,2.500743628E0,1.064162827E1,4.968566895E0
1.215158489E0,2.424129248E0,1.064162827E1,4.935048103E0
1.217646145E0,2.309207439E0,1.062247467E1,4.882375717E0
1.220133802E0,2.175132275E0,1.064641666E1,4.877587318E0
1.222621458E0,2.136825085E0,1.067035866E1,4.906317711E0
1.225109114E0,2.122459888E0,1.072303104E1,4.978143692E0
1.227596770E0,2.165555477E0,1.077570343E1,5.097854137E0
1.230084427E0,2.208651066E0,1.084274101E1,5.207987309E0
1.232572083E0,2.232593060E0,1.091456699E1,5.337274075E0
1.235059739E0,2.208651066E0,1.097202778E1,5.514444828E0
1.237547395E0,2.146401882E0,1.107258415E1,5.610213280E0
1.240035052E0,2.079364061E0,1.117314053E1,5.638943672E0
1.242522708E0,2.074575663E0,1.125454330E1,5.686827660E0
1.245010364E0,2.112883091E0,1.133594608E1,5.725134850E0
1.247498020E0,2.184709072E0,1.142213821E1,5.686827660E0
1.249985677E0,2.285265446E0,1.150354099E1,5.619790077E0
1.252473333E0,2.400187254E0,1.158494377E1,5.552752495E0
1.254961666E0,2.476801634E0,1.167592335E1,5.485714436E0
1.257448906E0,2.500743628E0,1.175732613E1,5.442618847E0
1.259936145E0,2.519897223E0,1.181957531E1,5.476137638E0
1.262423385E0,2.500743628E0,1.189618969E1,5.509656429E0
1.264910677E0,2.443282843E0,1.197759247E1,5.495291233E0
1.267398020E0,2.395398855E0,1.207336044E1,5.490502834E0
1.269885416E0,2.328361034E0,1.219785881E1,5.447407246E0
1.272372864E0,2.261323452E0,1.233193398E1,5.394734859E0
1.274860364E0,2.179920673E0,1.244685650E1,5.418676853E0
1.277347916E0,2.141613483E0,1.255220127E1,5.471349239E0
1.279835520E0,2.122459888E0,1.262402725E1,5.586271286E0
1.282323177E0,2.170343876E0,1.264796925E1,5.638943672E0
1.284810885E0,2.256535053E0,1.259050846E1,5.672462463E0
1.287298645E0,2.366668463E0,1.253304768E1,5.753865242E0
1.289786458E0,2.462436438E0,1.245164490E1,5.892728806E0
1.292274323E0,2.515108824E0,1.241333771E1,5.878363609E0
1.294762239E0,2.543839216E0,1.241812611E1,5.830479622E0
1.297250208E0,2.567781210E0,1.246122169E1,5.840056419E0
1.299738177E0,2.543839216E0,1.253783607E1,5.931035995E0
1.302226145E0,2.543839216E0,1.262402725E1,6.112995625E0
1.304714114E0,2.572569609E0,1.273416042E1,6.314108372E0
1.307202083E0,2.658761024E0,1.282992840E1,6.462548733E0
1.309689895E0,2.802412987E0,1.291133118E1,6.496067524E0
1.312177552E0,2.979583979E0,1.294963837E1,6.390722752E0
1.314665208E0,3.156754971E0,1.294006157E1,6.180033207E0
1.317152864E0,3.290830135E0,1.293527317E1,5.931035995E0
1.319640520E0,3.343502760E0,1.293527317E1,5.662885666E0
1.322128177E0,3.324349165E0,1.295921516E1,5.476137638E0
1.324615833E0,3.295618534E0,1.298315716E1,5.366004467E0
1.327103489E0,3.295618534E0,1.299752235E1,5.332485676E0
1.329591145E0,3.286041737E0,1.300231075E1,5.385158062E0
1.332078802E0,3.271676540E0,1.299273396E1,5.500079632E0
1.334566458E0,3.242946148E0,1.297836876E1,5.615001678E0
1.337054114E0,3.228580952E0,1.293048477E1,5.686827660E0
1.339541770E0,3.209427357E0,1.289217758E1,5.658097267E0
1.342029427E0,3.199850559E0,1.282035160E1,5.547964096E0
1.344517083E0,3.180696964E0,1.271500683E1,5.375581264E0
1.347004739E0,3.113659382E0,1.261445045E1,5.222352505E0
1.349492395E0,3.013102770E0,1.251868248E1,5.150526524E0
1.351980052E0,2.902969599E0,1.241812611E1,5.069123745E0
1.354467708E0,2.797624588E0,1.233193398E1,5.035604954E0
1.356955364E0,2.764105797E0,1.225053120E1,5.073912144E0
1.359443020E0,2.740163803E0,1.218349361E1,5.121796131E0
1.361930677E0,2.764105797E0,1.212603283E1,5.136161327E0
1.364418333E0,2.811989784E0,1.206378365E1,5.083488941E0
1.366905989E0,2.855085611E0,1.197759247E1,5.054758549E0
1.369393645E0,2.850297213E0,1.190576649E1,5.045181751E0
1.371881302E0,2.821566820E0,1.185309410E1,5.016450882E0
1.374368958E0,2.744952202E0,1.182915211E1,4.973355293E0
1.376856614E0,2.658761024E0,1.180042171E1,5.006874084E0
1.379344270E0,2.582146645E0,1.182436371E1,5.069123745E0
1.381831927E0,2.524685621E0,1.183872890E1,5.011662483E0
1.384319583E0,2.510320425E0,1.184351730E1,4.896740913E0
1.386807239E0,2.577358246E0,1.183872890E1,4.403535366E0
1.389294895E0,2.251746655E0,1.149875259E1,6.984484673E0
1.391782552E0,1.911770105E0,1.163282776E1,6.773795128E0
1.394270208E0,1.830367208E0,1.244206810E1,4.049193859E0
1.396757864E0,2.309207439E0,1.234629917E1,3.608660460E0
1.399245520E0,3.080140591E0,1.161367416E1,4.475361347E0
1.401733177E0,3.678690910E0,1.116835213E1,4.336497784E0
1.404220833E0,3.942053080E0,1.095766258E1,4.226364613E0
1.406708489E0,3.731363297E0,1.091456699E1,4.695628166E0
1.409196145E0,3.271676540E0,1.112046814E1,5.169680119E0
1.411683802E0,2.773682594E0,1.147959900E1,5.543175697E0
1.414171458E0,2.337938070E0,1.184351730E1,5.696404457E0
1.416659114E0,2.050633669E0,1.213560963E1,5.567117691E0
1.419146770E0,1.935712099E0,1.220264721E1,5.308543682E0
1.421634427E0,1.954865694E0,1.203984165E1,5.093065739E0
1.424122083E0,2.060210466E0,1.171423054E1,4.968566895E0
1.426609739E0,2.218227863E0,1.134552288E1,4.901529312E0
1.429097395E0,2.395398855E0,1.103427696E1,4.791396141E0
1.431585052E0,2.529474020E0,1.082837582E1,4.686051369E0
1.434072708E0,2.591723442E0,1.073739624E1,4.753088951E0
1.436560364E0,2.596511841E0,1.076612663E1,4.781819344E0
1.439048020E0,2.529474020E0,1.085231781E1,4.695628166E0
1.441535677E0,2.457648039E0,1.091935539E1,4.609436989E0
1.444023333E0,2.390610456E0,1.090977859E1,4.542399406E0
1.446510989E0,2.328361034E0,1.088583660E1,4.403535366E0
1.448998645E0,2.285265446E0,1.078528023E1,4.235941410E0
1.451486302E0,2.294842243E0,1.066557026E1,4.130596638E0
1.453973958E0,2.280477047E0,1.052670670E1,4.073135853E0
1.456461614E0,2.246958256E0,1.047882271E1,3.958214045E0
1.458949270E0,2.146401882E0,1.046924591E1,3.915118217E0
1.461436927E0,1.988384485E0,1.049797630E1,4.058770657E0
1.463924583E0,1.916558504E0,1.056501389E1,4.006097794E0
1.466412239E0,1.940500498E0,1.061289787E1,3.881599426E0
1.468899895E0,2.069787264E0,1.056501389E1,3.804985046E0
1.471387552E0,2.218227863E0,1.043093872E1,3.666121244E0
1.473875208E0,2.400187254E0,1.022503662E1,3.522469282E0
1.476362864E0,2.534262419E0,9.999981880E0,3.465008497E0
1.478850520E0,2.625242233E0,9.808445930E0,3.460220098E0
1.481338177E0,2.668337822E0,9.698312759E0,3.503315687E0
1.483825833E0,2.687491417E0,9.660005569E0,3.536834478E0
1.486313489E0,2.754528999E0,9.650428772E0,3.551199675E0
1.488801145E0,2.874239206E0,9.631275177E0,3.570353270E0
1.491288802E0,2.970007181E0,9.612121582E0,3.551199675E0
1.493776458E0,3.008314371E0,9.583391190E0,3.455431700E0
1.496264114E0,3.003525972E0,9.554660797E0,3.297414303E0
1.498751770E0,2.941276789E0,9.501988411E0,3.182492495E0
1.501239427E0,2.845508814E0,9.444527626E0,3.158550501E0
1.503727083E0,2.744952202E0,9.358335495E0,3.192069530E0
1.506214739E0,2.687491417E0,9.248202324E0,3.268683910E0
1.508702395E0,2.634819031E0,9.171587944E0,3.244741917E0
1.511190052E0,2.639607430E0,9.142857552E0,3.053205729E0
1.513677708E0,2.677914619E0,9.142857552E0,2.818573952E0
1.516165364E0,2.701856613E0,9.085396767E0,2.627037764E0
1.518653020E0,2.697068214E0,9.032724380E0,2.488174200E0
1.521140677E0,2.620453835E0,8.941744804E0,2.416347980E0
1.523628333E0,2.495955229E0,8.869918823E0,2.430713177E0
1.526115989E0,2.347514868E0,8.812458038E0,2.516904593E0
1.528603645E0,2.170343876E0,8.759785652E0,2.684498549E0
1.531091302E0,2.012326479E0,8.740632057E0,2.842515945E0
1.533578958E0,1.935712099E0,8.731055260E0,2.933495522E0
1.536066614E0,1.921346903E0,8.750208855E0,3.024475336E0
1.538554270E0,1.935712099E0,8.740632057E0,3.081936121E0
1.541041927E0,2.002749681E0,8.687959671E0,3.048417330E0
1.543529583E0,2.103306293E0,8.582614899E0,2.967014551E0
1.546017239E0,2.223016262E0,8.448538780E0,2.828150749E0
1.548504895E0,2.337938070E0,8.285733223E0,2.679710150E0
1.550992552E0,2.419340849E0,8.161234856E0,2.560000181E0
1.553480208E0,2.467224836E0,8.089408875E0,2.516904593E0
1.555967864E0,2.510320425E0,8.060678482E0,2.526481390E0
1.558455520E0,2.539050817E0,8.118139267E0,2.560000181E0
1.560943177E0,2.553416014E0,8.242637634E0,2.478597403E0
1.563430833E0,2.649184227E0,8.367136002E0,2.392405987E0
1.565918489E0,2.778470993E0,8.424596786E0,2.459443808E0
1.568406145E0,2.907757998E0,8.400654793E0,2.679710150E0
1.570893802E0,3.056198359E0,8.324040413E0,2.856881142E0
1.573381458E0,3.156754971E0,8.285733223E0,2.890399933E0
1.575869114E0,3.195062160E0,8.223484039E0,2.928707123E0
1.578356770E0,3.137601376E0,8.132504463E0,3.014898539E0
1.580844427E0,2.965218782E0,8.036736488E0,3.077147722E0
1.583332083E0,2.735375404E0,7.964910507E0,3.120243311E0
1.585819739E0,2.491166830E0,7.893084526E0,3.244741917E0
1.588307395E0,2.333149672E0,7.816470146E0,3.350086689E0
1.590795052E0,2.285265446E0,7.763797760E0,3.340509892E0
1.593282708E0,2.361880064E0,7.663240910E0,3.297414303E0
1.595770364E0,2.529474020E0,7.548319340E0,3.177704096E0
1.598258020E0,2.711433411E0,7.447762966E0,2.947860956E0
1.600745677E0,2.879027605E0,7.361571789E0,2.684498549E0
1.603233333E0,2.970007181E0,7.328052998E0,2.483385801E0
1.605720989E0,2.922123194E0,7.351994991E0,2.277484417E0
1.608208645E0,2.740163803E0,7.447762966E0,2.220023632E0
1.610696302E0,2.515108824E0,7.586626530E0,2.291849613E0
1.613183958E0,2.280477047E0,7.754220963E0,2.349310398E0
1.615671614E0,2.136825085E0,7.940968513E0,2.320580006E0
1.618159270E0,2.084152699E0,8.070255280E0,2.191293001E0
1.620646927E0,2.093729496E0,8.098985672E0,2.018910646E0
1.623134583E0,2.093729496E0,8.046313286E0,1.856104851E0
1.625622291E0,2.060210466E0,7.988852501E0,1.654991984E0
1.628110000E0,1.983596087E0,7.897872925E0,1.439513803E0
1.630597708E0,1.906981707E0,7.806893349E0,1.267131209E0
1.633085416E0,1.830367208E0,7.691971302E0,1.133055925E0
1.635573125E0,1.801636815E0,7.562684536E0,1.061229944E0
1.638060833E0,1.806425214E0,7.390302181E0,1.195305228E0
1.640548541E0,1.940500498E0,7.208342552E0,1.137844324E0
1.643036250E0,2.103306293E0,7.016806602E0,1.051653147E0
1.645523958E0,2.251746655E0,6.782175064E0,1.147421122E0
1.648011666E0,2.409764051E0,6.528389454E0,1.329380512E0
1.650499375E0,2.529474020E0,6.288969517E0,1.496974587E0
1.652987083E0,2.606088638E0,6.097433090E0,1.607107878E0
1.655474791E0,2.644395828E0,5.968146324E0,1.568800688E0
1.657962500E0,2.706645012E0,5.896320343E0,1.410783410E0
1.660450208E0,2.773682594E0,5.853224754E0,1.233612418E0
1.662937916E0,2.874239206E0,5.786187172E0,1.104325533E0
1.665425625E0,3.013102770E0,5.695207119E0,1.022922635E0
1.667913333E0,3.204638958E0,5.580285549E0,1.080383539E0
1.670401041E0,3.372233152E0,5.474940777E0,1.214458823E0
1.672888750E0,3.506308317E0,5.412691593E0,1.372476101E0
1.675376458E0,3.621230125E0,5.427056789E0,1.477820992E0
1.677864166E0,3.635595322E0,5.494094372E0,1.607107878E0
1.680351875E0,3.568557739E0,5.661688328E0,1.405994892E0
1.682839583E0,3.468001127E0,5.925050735E0,1.032499433E0
1.685327291E0,3.386598349E0,6.145317078E0,8.505401611E-1
1.687815000E0,3.314772367E0,6.317699909E0,6.542156339E-1
1.690302708E0,3.281253338E0,6.442198277E0,4.722562730E-1
1.692790416E0,3.233369350E0,6.494870663E0,4.770447016E-1
1.695278125E0,3.175908566E0,6.470928669E0,6.637924314E-1
1.697765833E0,3.051409960E0,6.399102688E0,9.032126069E-1
1.700253541E0,2.898181200E0,6.365583897E0,9.558850527E-1
1.702741198E0,2.692279816E0,6.399102688E0,9.367313981E-1
1.705228854E0,2.467224836E0,6.442198277E0,9.080010056E-1
1.707716510E0,2.270900249E0,6.514024258E0,7.835025191E-1
1.710204166E0,2.122459888E0,6.595427036E0,5.009866953E-1
1.712691823E0,2.007538080E0,6.695983410E0,9.876082093E-2
1.715180104E0,1.978807688E0,6.772598267E0,-1.454477459E-1
1.717667187E0,1.983596087E0,6.801328659E0,-2.029085904E-1
1.720154270E0,2.055422068E0,6.791751862E0,-1.550245583E-1
1.722641354E0,2.189497471E0,6.724713802E0,1.256955881E-2
1.725128489E0,2.371456861E0,6.648099422E0,2.472013235E-1
1.727615677E0,2.596511841E0,6.514024258E0,4.770447016E-1
1.730102968E0,2.850297213E0,6.351218700E0,8.265981078E-1
1.732590364E0,3.089717388E0,6.164470673E0,1.195305228E0
1.735077864E0,3.281253338E0,5.953781128E0,1.420360208E0
1.737565468E0,3.377021551E0,5.781398773E0,1.496974587E0
1.740053177E0,3.333925962E0,5.661688328E0,1.506551385E0
1.742540989E0,3.180696964E0,5.594650745E0,1.458667397E0
1.745028906E0,2.979583979E0,5.575497150E0,1.396418095E0
1.747516875E0,2.725798607E0,5.599439144E0,1.243189216E0
1.750004895E0,2.529474020E0,5.618592739E0,1.224035621E0
1.752492968E0,2.438494444E0,5.604227543E0,1.338957310E0
1.754981093E0,2.424129248E0,5.589862347E0,1.410783410E0
1.757469218E0,2.457648039E0,5.580285549E0,1.458667397E0
1.759957343E0,2.491166830E0,5.618592739E0,1.410783410E0
1.762445208E0,2.438494444E0,5.690418720E0,1.362899303E0
1.764932864E0,2.299630642E0,5.795763969E0,1.310226917E0
1.767420520E0,2.112883091E0,5.901108742E0,1.200093627E0
1.769908177E0,1.887827992E0,6.092644691E0,9.319429994E-1
1.772395833E0,1.662773132E0,6.332065105E0,6.350619793E-1
1.774883489E0,1.480813742E0,6.566696644E0,3.621230125E-1
1.777371145E0,1.351526856E0,6.772598267E0,2.088941038E-1
1.779858802E0,1.294066072E0,6.944980621E0,7.960720360E-2
1.782346458E0,1.322796464E0,7.098209381E0,3.172317147E-2
1.784834114E0,1.432929754E0,7.222707748E0,4.608838260E-2
1.787321770E0,1.629254222E0,7.304111004E0,7.481880486E-2
1.789809427E0,1.887827992E0,7.347206593E0,1.514332592E-1
1.792297083E0,2.175132275E0,7.332841396E0,2.855085433E-1
1.794784739E0,2.505532026E0,7.280169010E0,4.483142793E-1
1.797272395E0,2.773682594E0,7.237073421E0,6.494272351E-1
1.799760052E0,2.979583979E0,7.203554153E0,8.888474107E-1
1.802247708E0,3.151966572E0,7.141304970E0,1.123479128E0
1.804735364E0,3.353079557E0,7.026383400E0,1.329380512E0
1.807223020E0,3.568557739E0,6.844424248E0,1.458667397E0
1.809710677E0,3.779247284E0,6.710348606E0,1.353322506E0
1.812198333E0,3.784035683E0,6.600215435E0,1.568800688E0
1.814685989E0,3.654748917E0,6.509235859E0,1.803432465E0
1.817173645E0,3.396175146E0,6.470928669E0,1.813009262E0
1.819661302E0,3.056198359E0,6.437409878E0,1.899200439E0
1.822148958E0,2.706645012E0,6.403891087E0,2.076371431E0
1.824636614E0,2.448071241E0,6.394314289E0,2.076371431E0
1.827124270E0,2.275688648E0,6.360795498E0,1.980603337E0
1.829611927E0,2.170343876E0,6.346430302E0,1.918354154E0
1.832099583E0,2.088941097E0,6.336853504E0,1.932719350E0
1.834587239E0,1.997961283E0,6.260239124E0,2.042852640E0
1.837074895E0,2.002749681E0,5.810129166E0,2.770689964E0
1.839562552E0,2.553416014E0,5.743091106E0,8.744821548E-1
1.842050208E0,2.500743628E0,5.996876717E0,3.764882088E-1
1.844537864E0,2.064998865E0,6.116586685E0,1.741183162E0
1.847025520E0,1.701080322E0,6.384737492E0,1.851316452E0
1.849513177E0,1.408987641E0,6.743867874E0,1.338957310E0
1.852000833E0,1.179144382E0,6.887519836E0,1.990180135E0
1.854488489E0,1.088164687E0,6.892308235E0,2.636614561E0
1.856976145E0,1.097741485E0,6.839635849E0,2.789843559E0
1.859463802E0,1.193509579E0,6.758233070E0,2.990956545E0
1.861951458E0,1.270123959E0,6.652887821E0,3.364451885E0
1.864439114E0,1.308431268E0,6.595427036E0,3.460220098E0
1.866926770E0,1.322796464E0,6.638522625E0,2.995744944E0
1.869414427E0,1.389834046E0,6.748656273E0,2.210446835E0
1.871902083E0,1.571793437E0,6.916250229E0,1.195305228E0
1.874389739E0,1.873462796E0,7.093420982E0,4.052186310E-1
1.876877395E0,2.299630642E0,7.246650219E0,1.562216580E-1
1.879365052E0,2.874239206E0,7.380725384E0,1.466448605E-1
1.881852708E0,3.535038710E0,7.495646954E0,1.705868691E-1
1.884340364E0,4.181473255E0,7.581838131E0,3.286041915E-1
1.886828020E0,4.703409195E0,7.653664112E0,6.302735806E-1
1.889315677E0,5.110423565E0,7.759009361E0,7.356184721E-1
1.891803333E0,5.354631901E0,7.878719330E0,6.542156339E-1
1.894290989E0,5.412093163E0,8.012794495E0,6.733692288E-1
1.896778645E0,5.321113110E0,8.122927666E0,7.499836683E-1
1.899266302E0,5.139153957E0,8.180388451E0,9.175778031E-1
1.901753958E0,4.909310818E0,8.180388451E0,1.075595140E0
1.904241614E0,4.674678802E0,8.108562469E0,1.262342811E0
1.906729270E0,4.440047264E0,7.936180115E0,1.449090600E0
1.909216927E0,4.210203648E0,7.696759701E0,1.564012289E0
1.911704583E0,3.894169092E0,7.447762966E0,1.688510776E0
1.914192239E0,3.520673513E0,7.213130951E0,1.836951256E0
1.916679895E0,3.089717388E0,7.016806602E0,1.937507749E0
1.919167552E0,2.649184227E0,6.911461830E0,2.042852640E0
1.921655208E0,2.266111851E0,6.882731438E0,2.014122248E0
1.924142864E0,2.007538080E0,6.940192223E0,1.841739655E0
1.926630520E0,1.902193308E0,7.059902191E0,1.650203466E0
1.929118177E0,1.940500498E0,7.213130951E0,1.473032594E0
1.931605833E0,2.050633669E0,7.385513783E0,1.257554412E0
1.934093489E0,2.213439465E0,7.586626530E0,9.846154451E-1
1.936581145E0,2.381033659E0,7.802104950E0,7.978677154E-1
1.939068802E0,2.519897223E0,7.974487305E0,7.404068708E-1
1.941556458E0,2.697068214E0,8.142081261E0,6.446388364E-1
1.944044114E0,2.917334795E0,8.252214432E0,4.914098978E-1
1.946531770E0,3.161543369E0,8.300098419E0,2.711433470E-1
1.949019427E0,3.477577925E0,8.314463615E0,8.439560980E-2
1.951507083E0,3.793612480E0,8.324040413E0,-1.137245819E-2
1.953994739E0,4.114435673E0,8.319252014E0,-3.052607179E-2
1.956482395E0,4.406527996E0,8.347982407E0,-6.584054790E-3
1.958970052E0,4.674678802E0,8.376712799E0,7.481880486E-2
1.961457708E0,4.933252811E0,8.391077995E0,2.519897223E-1
1.963945364E0,5.129577160E0,8.434173584E0,5.057750940E-1
1.966433020E0,5.249287128E0,8.477270126E0,6.733692288E-1
1.968920677E0,5.301959515E0,8.539519310E0,8.840589523E-1
1.971408333E0,5.278017521E0,8.549096107E0,1.166574836E0
1.973895989E0,5.172672749E0,8.577826500E0,1.300650120E0
1.976383645E0,4.976348400E0,8.616133690E0,1.338957310E0
1.978871302E0,4.708197594E0,8.649652481E0,1.511339784E0
1.981358958E0,4.406527996E0,8.697536469E0,1.616684675E0
1.983846614E0,4.080916882E0,8.774150848E0,1.535281897E0
1.986334270E0,3.803189516E0,8.874707222E0,1.367687702E0
1.988821927E0,3.669114113E0,8.946533203E0,1.209670424E0
1.991309583E0,3.611653328E0,9.037512779E0,1.104325533E0
1.993797239E0,3.659537315E0,9.128492355E0,1.037287831E0
1.996284895E0,3.740940094E0,9.205106735E0,9.846154451E-1
1.998772552E0,3.769670486E0,9.329605103E0,1.018134236E0
2.001260208E0,3.750516891E0,9.506776810E0,1.066018343E0
2.003747864E0,3.678690910E0,9.674370766E0,1.104325533E0
2.006235520E0,3.578134537E0,9.841964722E0,1.180940032E0
2.008723177E0,3.525461912E0,9.985616684E0,1.190516829E0
2.011210833E0,3.535038710E0,1.005744267E1,1.152209520E0
2.013698489E0,3.616441727E0,1.003350067E1,1.142632723E0
2.016186145E0,3.731363297E0,9.961674690E0,1.142632723E0
2.018673802E0,3.879803896E0,9.846753120E0,1.104325533E0
2.021161458E0,4.023456097E0,9.727043152E0,1.133055925E0
2.023649114E0,4.128800869E0,9.650428772E0,1.142632723E0
2.026136770E0,4.219780445E0,9.573814392E0,1.128267527E0
2.028624427E0,4.272452831E0,9.501988411E0,1.133055925E0
2.031112083E0,4.301183224E0,9.463681221E0,1.123479128E0
2.033599791E0,4.320336819E0,9.434949875E0,1.147421122E0
2.036087500E0,4.320336819E0,9.420584679E0,1.204882026E0
2.038575208E0,4.301183224E0,9.444527626E0,1.295861721E0
2.041062916E0,4.282029629E0,9.468469620E0,1.386841297E0
2.043550625E0,4.234145641E0,9.434949875E0,1.453878999E0
2.046038333E0,4.162319660E0,9.420584679E0,1.530493379E0
2.048526041E0,4.071340084E0,9.406219482E0,1.592742682E0
2.051013750E0,3.965995073E0,9.411007881E0,1.530493379E0
2.053501458E0,3.855861902E0,9.377489090E0,1.535281897E0
2.055989166E0,3.760093689E0,9.310451508E0,1.540070295E0
2.058476875E0,3.678690910E0,9.238625526E0,1.564012289E0
2.060964583E0,3.558980942E0,9.147645950E0,1.554435492E0
2.063452291E0,3.458424330E0,9.042301178E0,1.477820992E0
2.065940000E0,3.386598349E0,8.932168007E0,1.305438519E0
2.068427708E0,3.367444754E0,8.798092842E0,1.142632723E0
2.070915416E0,3.405751944E0,8.644864082E0,9.510966539E-1
2.073403125E0,3.539827108E0,8.534730911E0,7.308300734E-1
2.075890833E0,3.707421303E0,8.482058525E0,5.680243373E-1
2.078378541E0,3.846285105E0,8.496423721E0,4.435258508E-1
2.080866250E0,3.970783472E0,8.539519310E0,3.812766075E-1
2.083353958E0,4.018667698E0,8.649652481E0,3.286041915E-1
2.085841666E0,4.047398090E0,8.807669640E0,2.376245260E-1
2.088329375E0,4.080916882E0,8.956110001E0,1.466448605E-1
2.090817083E0,4.114435673E0,9.085396767E0,9.397241473E-2
2.093304791E0,4.152742863E0,9.147645950E0,1.179144308E-1
2.095792500E0,4.171896458E0,9.147645950E0,1.753752679E-1
2.098280208E0,4.162319660E0,9.109338760E0,2.232593149E-1
2.100767916E0,4.114435673E0,9.056666374E0,2.424129248E-1
2.103255625E0,4.066551685E0,8.965686798E0,2.615665495E-1
2.105743333E0,4.047398090E0,8.855553627E0,2.328361124E-1
2.108231041E0,4.037821293E0,8.745420456E0,2.280477136E-1
2.110718750E0,4.028244495E0,8.683171272E0,1.849520802E-1
2.113206406E0,4.013879299E0,8.640075684E0,1.466448605E-1
2.115694062E0,3.975571871E0,8.620922089E0,1.753752679E-1
2.118181718E0,3.937264681E0,8.644864082E0,2.328361124E-1
2.120669375E0,3.894169092E0,8.664017677E0,2.998737693E-1
2.123157031E0,3.889380693E0,8.697536469E0,3.190273643E-1
2.125644687E0,3.898957491E0,8.731055260E0,4.004302323E-1
2.128132343E0,3.918111086E0,8.750208855E0,4.578910768E-1
2.130620000E0,3.937264681E0,8.788516045E0,4.435258508E-1
2.133107656E0,3.965995073E0,8.831611633E0,3.908534348E-1
2.135595312E0,3.999513865E0,8.841188431E0,3.956418335E-1
2.138082968E0,4.037821293E0,8.826823235E0,4.387374520E-1
2.140570625E0,4.047398090E0,8.812458038E0,4.339490533E-1
2.143058281E0,4.042609692E0,8.778939247E0,4.961982965E-1
2.145545937E0,4.018667698E0,8.745420456E0,5.823895931E-1
2.148033593E0,3.965995073E0,8.697536469E0,5.728127360E-1
2.150521250E0,3.937264681E0,8.664017677E0,5.823895931E-1
2.153008906E0,3.855861902E0,8.640075684E0,5.967547894E-1
2.155496562E0,3.784035683E0,8.640075684E0,5.967547894E-1
2.157984218E0,3.716998100E0,8.664017677E0,5.584475398E-1
2.160471875E0,3.673902512E0,8.683171272E0,4.770447016E-1
2.162959531E0,3.654748917E0,8.716690063E0,3.525462151E-1
2.165447187E0,3.712209702E0,8.735843658E0,2.088941038E-1
2.167934843E0,3.836708307E0,8.750208855E0,9.876082093E-2
2.170422500E0,3.970783472E0,8.769362450E0,9.876082093E-2
2.172910156E0,4.095282078E0,8.807669640E0,1.993172914E-1
2.175397812E0,4.171896458E0,8.845976830E0,3.429693878E-1
2.177885468E0,4.200626850E0,8.913014412E0,4.674678743E-1
2.180373125E0,4.162319660E0,9.008782387E0,5.776011348E-1
2.182860781E0,4.100070477E0,9.085396767E0,5.967547894E-1
2.185348437E0,4.013879299E0,9.157222748E0,5.009866953E-1
2.187836093E0,3.946841478E0,9.157222748E0,3.669114113E-1
2.190323750E0,3.927687883E0,9.152434349E0,2.232593149E-1
2.192811406E0,3.942053080E0,9.128492355E0,1.370680481E-1
2.195299062E0,3.975571871E0,9.094973564E0,8.439560980E-2
2.197786718E0,4.013879299E0,9.071031570E0,1.083376259E-1
2.200274375E0,4.080916882E0,9.032724380E0,1.657984704E-1
2.202762031E0,4.100070477E0,9.018359184E0,2.472013235E-1
2.205249687E0,4.109647274E0,9.037512779E0,2.902969420E-1
2.207737343E0,4.100070477E0,9.066243172E0,3.333925903E-1
2.210225000E0,4.100070477E0,9.133280754E0,3.525462151E-1
2.212712656E0,4.071340084E0,9.176376343E0,3.573346138E-1
2.215200312E0,4.037821293E0,9.214683533E0,3.525462151E-1
2.217687968E0,4.009090900E0,9.286509514E0,4.147954583E-1
2.220175625E0,3.989937067E0,9.348758698E0,4.866214991E-1
2.222663281E0,3.980360270E0,9.391854286E0,5.297171474E-1
2.225150937E0,3.970783472E0,9.377489090E0,5.680243373E-1
2.227638593E0,3.961206675E0,9.334393501E0,5.919663906E-1
2.230126250E0,3.932476282E0,9.291297913E0,5.728127360E-1
2.232613906E0,3.894169092E0,9.267355919E0,5.919663906E-1
2.235101562E0,3.870227098E0,9.248202324E0,6.637924314E-1
2.237589218E0,3.865438700E0,9.257779121E0,6.685808301E-1
2.240076875E0,3.918111086E0,9.272144318E0,6.254851818E-1
2.242564531E0,3.946841478E0,9.291297913E0,5.871779919E-1
2.245052187E0,3.994725466E0,9.305663109E0,5.776011348E-1
2.247539843E0,4.004302502E0,9.281721115E0,6.302735806E-1
2.250027500E0,4.004302502E0,9.229048729E0,6.925228238E-1
2.252515156E0,4.013879299E0,9.181164742E0,7.835025191E-1
2.255002812E0,3.999513865E0,9.128492355E0,8.601169586E-1
2.257490468E0,4.018667698E0,9.123703957E0,8.218097091E-1
2.259978125E0,4.028244495E0,9.138069153E0,7.116764784E-1
2.262465781E0,4.061763287E0,9.147645950E0,5.632359385E-1
2.264953437E0,4.114435673E0,9.152434349E0,4.483142793E-1
2.267441093E0,4.191050053E0,9.147645950E0,3.908534348E-1
2.269928750E0,4.296394825E0,9.118915558E0,3.477577865E-1
2.272416406E0,4.363432407E0,9.085396767E0,3.573346138E-1
2.274904062E0,4.440047264E0,9.051877975E0,4.004302323E-1
2.277391718E0,4.507084846E0,9.032724380E0,4.770447016E-1
2.279879375E0,4.559757233E0,8.999205589E0,4.961982965E-1
2.282367031E0,4.588487625E0,8.984840393E0,4.722562730E-1
2.284854687E0,4.569334030E0,8.984840393E0,4.387374520E-1
2.287342343E0,4.487931252E0,9.023147583E0,4.100070298E-1
2.289830000E0,4.396951199E0,9.099761963E0,3.669114113E-1
2.292317656E0,4.329913616E0,9.157222748E0,3.669114113E-1
2.294805312E0,4.282029629E0,9.205106735E0,3.477577865E-1
2.297292968E0,4.238934040E0,9.229048729E0,3.716998100E-1
2.299780625E0,4.195838451E0,9.238625526E0,4.052186310E-1
2.302268281E0,4.186261654E0,9.200318336E0,4.435258508E-1
2.304755937E0,4.210203648E0,9.152434349E0,4.914098978E-1
2.307243593E0,4.238934040E0,9.114127159E0,5.632359385E-1
2.309731250E0,4.205415249E0,9.090185165E0,6.398503780E-1
2.312218906E0,4.181473255E0,9.109338760E0,6.925228238E-1
2.314706562E0,4.119224072E0,9.166799545E0,7.116764784E-1
2.317194218E0,4.042609692E0,9.267355919E0,6.685808301E-1
2.319681875E0,3.994725466E0,9.377489090E0,5.728127360E-1
2.322169531E0,3.994725466E0,9.439739227E0,5.057750940E-1
2.324657187E0,4.042609692E0,9.468469620E0,4.722562730E-1
2.327144843E0,4.104858875E0,9.473258018E0,4.866214991E-1
2.329632500E0,4.143166065E0,9.439739227E0,4.961982965E-1
2.332120156E0,4.181473255E0,9.387065887E0,4.722562730E-1
2.334607812E0,4.195838451E0,9.286509514E0,4.435258508E-1
2.337095468E0,4.258087635E0,9.190741539E0,4.914098978E-1
2.339583125E0,4.315548420E0,9.104550362E0,5.584475398E-1
2.342070781E0,4.401739597E0,9.018359184E0,6.398503780E-1
2.344558437E0,4.492719650E0,8.965686798E0,6.542156339E-1
2.347046093E0,4.593276024E0,8.965686798E0,5.536591411E-1
2.349533750E0,4.674678802E0,8.999205589E0,4.147954583E-1
2.352021406E0,4.717774391E0,9.013570786E0,3.142389655E-1
2.354509062E0,4.760869980E0,9.032724380E0,2.472013235E-1
2.356996718E0,4.746504784E0,9.018359184E0,2.424129248E-1
2.359484375E0,4.732139587E0,8.965686798E0,2.807201445E-1
2.361972031E0,4.689043999E0,8.889072418E0,3.621230125E-1
2.364459739E0,4.602852821E0,8.793304443E0,4.578910768E-1
2.366947448E0,4.492719650E0,8.745420456E0,4.147954583E-1
2.369435156E0,4.377797604E0,8.721478462E0,3.238157928E-1
2.371922864E0,4.262876034E0,8.702324867E0,2.088941038E-1
2.374410573E0,4.171896458E0,8.673594475E0,4.608838260E-2
2.376898281E0,4.090493679E0,8.668806076E0,-6.404489279E-2
2.379385989E0,4.052186489E0,8.659229279E0,-7.841010392E-2
2.381873698E0,4.037821293E0,8.659229279E0,-3.052607179E-2
2.384361406E0,3.980360270E0,8.673594475E0,5.566519126E-2
2.386849114E0,3.932476282E0,8.683171272E0,1.801636815E-1
2.389336823E0,3.889380693E0,8.654440880E0,2.759317458E-1
2.391824531E0,3.875015497E0,8.601768494E0,3.142389655E-1
2.394312239E0,3.898957491E0,8.553884506E0,3.429693878E-1
2.396799948E0,3.951629877E0,8.534730911E0,2.807201445E-1
2.399287656E0,3.999513865E0,8.553884506E0,1.466448605E-1
2.401775364E0,4.076128483E0,8.582614899E0,4.608838260E-2
2.404263073E0,4.138377666E0,8.630498886E0,-2.094926499E-2
2.406750781E0,4.229357243E0,8.702324867E0,-2.094926499E-2
2.409238489E0,4.320336819E0,8.783727646E0,5.087678507E-2
2.411726198E0,4.373009205E0,8.855553627E0,1.035492271E-1
2.414213906E0,4.411316395E0,8.917802811E0,1.322796494E-1
2.416701614E0,4.411316395E0,8.956110001E0,1.179144308E-1
2.419189323E0,4.387374401E0,8.994417191E0,9.876082093E-2
2.421677031E0,4.329913616E0,8.999205589E0,7.003039867E-2
2.424164739E0,4.282029629E0,8.999205589E0,7.003039867E-2
2.426652448E0,4.219780445E0,8.994417191E0,9.876082093E-2
2.429140156E0,4.167108059E0,8.951321602E0,1.035492271E-1
2.431627864E0,4.128800869E0,8.936956406E0,8.918401599E-2
2.434115573E0,4.114435673E0,8.922591209E0,1.035492271E-1
2.436603281E0,4.138377666E0,8.917802811E0,1.514332592E-1
2.439090989E0,4.181473255E0,8.922591209E0,1.466448605E-1
2.441578698E0,4.210203648E0,8.903437614E0,1.418564469E-1
2.444066354E0,4.243722439E0,8.869918823E0,1.322796494E-1
2.446554010E0,4.248510838E0,8.855553627E0,1.418564469E-1
2.449041666E0,4.234145641E0,8.836400032E0,8.918401599E-2
2.451529323E0,4.234145641E0,8.798092842E0,6.045359373E-2
2.454016979E0,4.243722439E0,8.754997253E0,1.274912357E-1
2.456504635E0,4.253299236E0,8.740632057E0,1.418564469E-1
2.458992291E0,4.286818027E0,8.740632057E0,6.045359373E-2
2.461479948E0,4.315548420E0,8.759785652E0,-5.446808785E-2
2.463967604E0,4.320336819E0,8.802881241E0,-1.215057373E-1
2.466455260E0,4.301183224E0,8.860342026E0,-1.550245583E-1
2.468942916E0,4.277241230E0,8.922591209E0,-2.220622003E-1
2.471430573E0,4.219780445E0,8.984840393E0,-2.938882709E-1
2.473918229E0,4.171896458E0,9.003993988E0,-2.938882709E-1
2.476405885E0,4.143166065E0,9.008782387E0,-2.603694201E-1
2.478893541E0,4.157531261E0,8.951321602E0,-1.310825497E-1
2.481381198E0,4.224568844E0,8.879495621E0,-1.795651275E-3
2.483868854E0,4.291606426E0,8.836400032E0,8.439560980E-2
2.486356510E0,4.363432407E0,8.817246437E0,1.179144308E-1
2.488844166E0,4.401739597E0,8.831611633E0,7.960720360E-2
2.491331823E0,4.420893669E0,8.879495621E0,3.172317147E-2
2.493819479E0,4.463989258E0,8.936956406E0,-5.925649032E-2
2.496307135E0,4.502296448E0,8.980051994E0,-1.502361596E-1
2.498794791E0,4.569334030E0,9.051877975E0,-1.454477459E-1
2.501282448E0,4.645948410E0,9.104550362E0,-5.446808785E-2
2.503770104E0,4.674678802E0,9.162011147E0,6.524199992E-2
2.506257760E0,4.689043999E0,9.205106735E0,1.849520802E-1
2.508745416E0,4.669890404E0,9.224260330E0,2.807201445E-1
2.511233073E0,4.641160011E0,9.209895134E0,3.142389655E-1
2.513720729E0,4.607641220E0,9.185953140E0,2.950853705E-1
2.516208385E0,4.535815239E0,9.090185165E0,2.663549483E-1
2.518696041E0,4.435258865E0,8.984840393E0,2.280477136E-1
2.521183698E0,4.373009205E0,8.879495621E0,1.466448605E-1
2.523671354E0,4.282029629E0,8.774150848E0,7.960720360E-2
2.526159010E0,4.219780445E0,8.716690063E0,2.992752008E-3
2.528646666E0,4.210203648E0,8.692748070E0,-7.841010392E-2
2.531134323E0,4.210203648E0,8.702324867E0,-9.277531505E-2
2.533621979E0,4.200626850E0,8.740632057E0,-1.071405262E-1
2.536109635E0,4.205415249E0,8.793304443E0,-1.406593472E-1
2.538597291E0,4.224568844E0,8.831611633E0,-1.454477459E-1
2.541084948E0,4.253299236E0,8.869918823E0,-1.502361596E-1
2.543572604E0,4.248510838E0,8.893860817E0,-1.454477459E-1
2.546060260E0,4.282029629E0,8.903437614E0,-1.502361596E-1
2.548547916E0,4.339490414E0,8.889072418E0,-1.598129570E-1
2.551035573E0,4.411316395E0,8.845976830E0,-1.693897694E-1
2.553523229E0,4.478354454E0,8.817246437E0,-1.454477459E-1
2.556010885E0,4.545392036E0,8.759785652E0,-5.925649032E-2
2.558498541E0,4.574122429E0,8.716690063E0,4.129998013E-2
2.560986198E0,4.569334030E0,8.716690063E0,1.418564469E-1
2.563473854E0,4.526238441E0,8.735843658E0,1.993172914E-1
2.565961510E0,4.435258865E0,8.764574051E0,2.567781210E-1
2.568449166E0,4.339490414E0,8.802881241E0,3.142389655E-1
2.570936823E0,4.267664433E0,8.836400032E0,3.190273643E-1
2.573424479E0,4.243722439E0,8.850765228E0,3.573346138E-1
2.575912135E0,4.258087635E0,8.850765228E0,3.812766075E-1
2.578399791E0,4.258087635E0,8.869918823E0,3.812766075E-1
2.580887448E0,4.282029629E0,8.889072418E0,3.669114113E-1
2.583375104E0,4.286818027E0,8.893860817E0,4.147954583E-1
2.585862760E0,4.258087635E0,8.893860817E0,4.387374520E-1
2.588350416E0,4.253299236E0,8.855553627E0,4.818331003E-1
2.590838073E0,4.238934040E0,8.774150848E0,5.536591411E-1
2.593325729E0,4.258087635E0,8.668806076E0,5.728127360E-1
2.595813385E0,4.262876034E0,8.568249702E0,5.871779919E-1
2.598301041E0,4.277241230E0,8.491635323E0,5.584475398E-1
2.600788698E0,4.253299236E0,8.434173584E0,5.153518915E-1
2.603276354E0,4.219780445E0,8.376712799E0,4.866214991E-1
2.605764010E0,4.186261654E0,8.314463615E0,4.483142793E-1
2.608251666E0,4.205415249E0,8.276156425E0,4.483142793E-1
2.610739323E0,4.229357243E0,8.247426033E0,4.626794755E-1
2.613226979E0,4.229357243E0,8.242637634E0,4.626794755E-1
2.615714635E0,4.262876034E0,8.233060837E0,4.866214991E-1
2.618202291E0,4.282029629E0,8.252214432E0,5.201402903E-1
2.620689948E0,4.286818027E0,8.276156425E0,5.105634928E-1
2.623177604E0,4.286818027E0,8.304886818E0,4.435258508E-1
2.625665260E0,4.310760021E0,8.314463615E0,4.195838571E-1
2.628152916E0,4.325125217E0,8.333617210E0,4.195838571E-1
2.630640573E0,4.349067211E0,8.371924400E0,4.722562730E-1
2.633128229E0,4.353855610E0,8.391077995E0,5.392939448E-1
2.635615885E0,4.373009205E0,8.386289597E0,5.823895931E-1
2.638103541E0,4.401739597E0,8.352770805E0,6.685808301E-1
2.640591198E0,4.430470467E0,8.285733223E0,7.978677154E-1
2.643078854E0,4.440047264E0,8.209118843E0,8.984242082E-1
2.645566510E0,4.420893669E0,8.089408875E0,9.510966539E-1
2.648054166E0,4.406527996E0,7.974487305E0,9.989806414E-1
2.650541823E0,4.363432407E0,7.873930931E0,1.066018343E0
2.653029479E0,4.291606426E0,7.778162956E0,1.099537134E0
2.655517135E0,4.229357243E0,7.725490570E0,1.113902330E0
2.658004791E0,4.167108059E0,7.696759701E0,1.109113932E0
2.660492448E0,4.138377666E0,7.677606106E0,1.085171938E0
2.662980104E0,4.109647274E0,7.672817707E0,1.075595140E0
2.665467760E0,4.100070477E0,7.663240910E0,1.104325533E0
2.667955416E0,4.100070477E0,7.596203327E0,1.209670424E0
2.670443073E0,4.090493679E0,7.519588947E0,1.305438519E0
2.672930729E0,4.042609692E0,7.442974567E0,1.276708007E0
2.675418385E0,3.965995073E0,7.361571789E0,1.204882026E0
2.677906093E0,3.841496706E0,7.289745808E0,1.161786318E0
2.680393802E0,3.745728493E0,7.213130951E0,1.142632723E0
2.682881510E0,3.649960518E0,7.184400558E0,1.080383539E0
2.685369218E0,3.573346138E0,7.165246964E0,9.606734514E-1
2.687856927E0,3.515885115E0,7.126939774E0,9.510966539E-1
2.690344635E0,3.511096716E0,7.074267387E0,1.013345838E0
2.692832343E0,3.506308317E0,7.002441406E0,1.051653147E0
2.695320052E0,3.501519918E0,6.930615425E0,1.085171938E0
2.697807760E0,3.458424330E0,6.834847450E0,1.113902330E0
2.700295468E0,3.400963545E0,6.782175064E0,1.094748735E0
2.702783177E0,3.300406933E0,6.767809868E0,1.013345838E0
2.705270885E0,3.214215755E0,6.782175064E0,8.984242082E-1
2.707758593E0,3.128024578E0,6.825270653E0,8.601169586E-1
2.710246302E0,3.104082584E0,6.892308235E0,8.265981078E-1
2.712734010E0,3.080140591E0,6.925827026E0,8.170213103E-1
2.715221718E0,3.065775394E0,6.930615425E0,8.840589523E-1
2.717709427E0,3.099294186E0,6.882731438E0,9.702502489E-1
2.720197135E0,3.137601376E0,6.810905457E0,1.075595140E0
2.722684843E0,3.180696964E0,6.705560207E0,1.200093627E0
2.725172552E0,3.209427357E0,6.614580631E0,1.267131209E0
2.727660260E0,3.242946148E0,6.561908245E0,1.315015316E0
2.730147968E0,3.242946148E0,6.542754650E0,1.334168911E0
2.732635677E0,3.223792553E0,6.576273441E0,1.271919608E0
2.735123385E0,3.204638958E0,6.624157429E0,1.171363235E0
2.737611093E0,3.180696964E0,6.657676220E0,1.161786318E0
2.740098802E0,3.190273762E0,6.691195011E0,1.204882026E0
2.742586510E0,3.209427357E0,6.695983410E0,1.267131209E0
2.745074218E0,3.223792553E0,6.691195011E0,1.334168911E0
2.747561927E0,3.199850559E0,6.700771809E0,1.377264500E0
2.750049635E0,3.151966572E0,6.763021469E0,1.343745708E0
2.752537343E0,3.094505787E0,6.863577843E0,1.271919608E0
2.755025052E0,3.060986757E0,6.964134216E0,1.128267527E0
2.757512760E0,3.046621561E0,7.069478989E0,9.319429994E-1
2.760000416E0,3.032256365E0,7.146093369E0,7.739257216E-1
2.762488073E0,3.022679567E0,7.174823761E0,7.356184721E-1
2.764975729E0,3.046621561E0,7.208342552E0,7.164648771E-1
2.767463385E0,3.056198359E0,7.227496147E0,7.739257216E-1
2.769951041E0,3.032256365E0,7.280169010E0,9.319429994E-1
2.772438698E0,3.003525972E0,7.375936985E0,1.027711034E0
2.774926354E0,2.989160776E0,7.481281757E0,1.104325533E0
2.777414010E0,2.960430384E0,7.596203327E0,1.123479128E0
2.779901666E0,2.993949175E0,7.730278969E0,1.104325533E0
2.782389323E0,3.060986757E0,7.835623741E0,1.046864748E0
2.784876979E0,3.151966572E0,7.921814919E0,9.894038439E-1
2.787364635E0,3.271676540E0,7.902661324E0,9.798270464E-1
2.789852291E0,3.434482336E0,7.845200539E0,9.846154451E-1
2.792339948E0,3.582922935E0,7.749432564E0,1.037287831E0
2.794827604E0,3.707421303E0,7.677606106E0,1.185728431E0
2.797315260E0,3.803189516E0,7.624933720E0,1.334168911E0
2.799802916E0,3.841496706E0,7.658452511E0,1.386841297E0
2.802290573E0,3.860650301E0,7.735067368E0,1.410783410E0
2.804778229E0,3.822343111E0,7.849988937E0,1.405994892E0
2.807265885E0,3.764882088E0,7.974487305E0,1.439513803E0
2.809753541E0,3.716998100E0,8.051101685E0,1.473032594E0
2.812241198E0,3.626018524E0,8.089408875E0,1.549647093E0
2.814728854E0,3.539827108E0,8.094197273E0,1.640626669E0
2.817216510E0,3.477577925E0,8.055890083E0,1.712452769E0
2.819704166E0,3.429693937E0,7.998429298E0,1.798644066E0
2.822191823E0,3.415328741E0,7.945756912E0,1.836951256E0
2.824679479E0,3.396175146E0,7.902661324E0,1.880046844E0
2.827167135E0,3.353079557E0,7.902661324E0,2.033275843E0
2.829654791E0,3.247734547E0,7.950545311E0,2.167351007E0
2.832142448E0,3.128024578E0,8.055890083E0,2.253542423E0
2.834630104E0,2.955641985E0,8.218695641E0,2.224812031E0
2.837117760E0,2.821566820E0,8.424596786E0,2.028487444E0
2.839605416E0,2.759317398E0,8.577826500E0,1.827374458E0
2.842093073E0,2.797624588E0,8.616133690E0,1.688510776E0
2.844580729E0,2.993949175E0,8.529942513E0,1.607107878E0
2.847068385E0,3.290830135E0,8.352770805E0,1.535281897E0
2.849556041E0,3.606864929E0,8.132504463E0,1.511339784E0
2.852043698E0,3.855861902E0,7.931391716E0,1.611896276E0
2.854531354E0,3.975571871E0,7.806893349E0,1.803432465E0
2.857019010E0,3.927687883E0,7.826046944E0,1.980603337E0
2.859506666E0,3.736151695E0,7.979275703E0,2.081159830E0
2.861994323E0,3.487154722E0,8.247426033E0,2.042852640E0
2.864481979E0,3.281253338E0,8.558672905E0,1.908777356E0
2.866969635E0,3.137601376E0,8.841188431E0,1.717241168E0
2.869457291E0,3.108870983E0,9.008782387E0,1.626261473E0
2.871944948E0,3.156754971E0,9.061454773E0,1.602319479E0
2.874432604E0,3.190273762E0,8.970475197E0,1.731606364E0
2.876920260E0,3.242946148E0,8.778939247E0,1.856104851E0
2.879407916E0,3.271676540E0,8.553884506E0,2.014122248E0
2.881895573E0,3.238157749E0,8.371924400E0,2.200869799E0
2.884383229E0,3.175908566E0,8.242637634E0,2.287061214E0
2.886870885E0,3.080140591E0,8.209118843E0,2.205658197E0
2.889358541E0,2.946065187E0,8.237849236E0,2.100313425E0
2.891846198E0,2.826355219E0,8.285733223E0,2.018910646E0
2.894333854E0,2.744952202E0,8.324040413E0,1.956661344E0
2.896821510E0,2.687491417E0,8.300098419E0,1.985391736E0
2.899309166E0,2.682703018E0,8.218695641E0,2.090736628E0
2.901796823E0,2.711433411E0,8.098985672E0,2.200869799E0
2.904284479E0,2.768894196E0,7.974487305E0,2.267907619E0
2.906772135E0,2.821566820E0,7.888296127E0,2.282272816E0
2.909259791E0,2.869450808E0,7.883507729E0,2.248754025E0
2.911747448E0,2.893392801E0,7.940968513E0,2.200869799E0
2.914235104E0,2.946065187E0,8.070255280E0,2.076371431E0
2.916722760E0,3.022679567E0,8.156446457E0,1.951872945E0
2.919210416E0,3.089717388E0,8.223484039E0,1.884835243E0
2.921698073E0,3.214215755E0,8.237849236E0,1.894412041E0
2.924185729E0,3.357867956E0,8.166023254E0,2.038064241E0
2.926673385E0,3.506308317E0,8.070255280E0,2.220023632E0
2.929161041E0,3.621230125E0,8.012794495E0,2.354098797E0
2.931648698E0,3.688267708E0,8.017582893E0,2.536058187E0
2.934136354E0,3.630806923E0,8.070255280E0,2.746747971E0
2.936624010E0,3.511096716E0,8.189965248E0,2.847304344E0
2.939111666E0,3.400963545E0,8.338405609E0,2.765901566E0
2.941599323E0,3.286041737E0,8.477270126E0,2.560000181E0
2.944086979E0,3.180696964E0,8.592191696E0,2.330156803E0
2.946574635E0,3.123236179E0,8.649652481E0,2.181716204E0
2.949062291E0,3.084928989E0,8.625710487E0,2.143409014E0
2.951549948E0,3.075352192E0,8.582614899E0,2.176927805E0
2.954037604E0,3.070563793E0,8.534730911E0,2.172139406E0
2.956525260E0,3.080140591E0,8.491635323E0,2.220023632E0
2.959012916E0,3.046621561E0,8.491635323E0,2.368463993E0
2.961500573E0,3.008314371E0,8.544307709E0,2.483385801E0
2.963988229E0,2.926911592E0,8.635287285E0,2.564788580E0
2.966475885E0,2.811989784E0,8.711901665E0,2.650979757E0
2.968963541E0,2.721010208E0,8.774150848E0,2.665344954E0
2.971451198E0,2.639607430E0,8.778939247E0,2.631826162E0
2.973938854E0,2.586935043E0,8.769362450E0,2.622249365E0
2.976426510E0,2.543839216E0,8.697536469E0,2.583942175E0
2.978914218E0,2.519897223E0,8.630498886E0,2.502539396E0
2.981401927E0,2.534262419E0,8.587403297E0,2.445078373E0
2.983889635E0,2.582146645E0,8.596980095E0,2.363675594E0
2.986377343E0,2.663549423E0,8.635287285E0,2.320580006E0
2.988865052E0,2.768894196E0,8.692748070E0,2.387617588E0
2.991352760E0,2.883816004E0,8.759785652E0,2.650979757E0
2.993840468E0,3.027467966E0,8.783727646E0,2.971802950E0
2.996328177E0,3.190273762E0,8.812458038E0,3.182492495E0
2.998815885E0,3.391386747E0,8.802881241E0,3.292625904E0
3.001303593E0,3.578134537E0,8.759785652E0,3.354875088E0
3.003791302E0,3.731363297E0,8.716690063E0,3.321356297E0
3.006279010E0,3.836708307E0,8.668806076E0,3.201646328E0
3.008766718E0,3.879803896E0,8.644864082E0,3.024475336E0
3.011254427E0,3.903745890E0,8.635287285E0,2.789843559E0
3.013742135E0,3.932476282E0,8.644864082E0,2.579153776E0
3.016229843E0,3.946841478E0,8.649652481E0,2.492962599E0
3.018717552E0,3.961206675E0,8.664017677E0,2.497750998E0
3.021205260E0,3.975571871E0,8.702324867E0,2.502539396E0
3.023692968E0,3.965995073E0,8.754997253E0,2.603095770E0
3.026180677E0,3.875015497E0,8.855553627E0,2.804208755E0
3.028668385E0,3.764882088E0,8.946533203E0,2.928707123E0
3.031156093E0,3.645172119E0,9.023147583E0,2.967014551E0
3.033643802E0,3.496731520E0,9.027935982E0,2.976591349E0
3.036131510E0,3.357867956E0,8.989628792E0,2.962226152E0
3.038619218E0,3.204638958E0,8.956110001E0,2.914341927E0
3.041106927E0,3.080140591E0,8.869918823E0,2.837727547E0
3.043594635E0,3.003525972E0,8.817246437E0,2.765901566E0
3.046082343E0,2.955641985E0,8.793304443E0,2.737171173E0
3.048570052E0,2.946065187E0,8.836400032E0,2.718017578E0
3.051057760E0,2.950853586E0,8.879495621E0,2.708440781E0
3.053545468E0,2.955641985E0,8.898649216E0,2.756324768E0
3.056033177E0,2.946065187E0,8.889072418E0,2.852092743E0
3.058520885E0,2.922123194E0,8.798092842E0,2.981379747E0
3.061008593E0,2.898181200E0,8.764574051E0,3.086724520E0
3.063496302E0,2.883816004E0,8.721478462E0,3.105878115E0
3.065983958E0,2.893392801E0,8.750208855E0,3.057994127E0
3.068471614E0,2.946065187E0,8.759785652E0,2.986168146E0
3.070959270E0,2.989160776E0,8.807669640E0,2.923918724E0
3.073446927E0,3.094505787E0,8.841188431E0,2.842515945E0
3.075934583E0,3.185485363E0,8.865130424E0,2.847304344E0
3.078422239E0,3.309983969E0,8.898649216E0,2.933495522E0
3.080909895E0,3.396175146E0,8.893860817E0,3.081936121E0
3.083397552E0,3.477577925E0,8.879495621E0,3.192069530E0
3.085885208E0,3.496731520E0,8.946533203E0,3.216011524E0
3.088372864E0,3.468001127E0,9.013570786E0,3.278260708E0
3.090860520E0,3.410540342E0,9.104550362E0,3.417124271E0
3.093348177E0,3.348291159E0,9.205106735E0,3.460220098E0
3.095835833E0,3.252522945E0,9.310451508E0,3.407547474E0
3.098323489E0,3.175908566E0,9.449316025E0,3.263895512E0
3.100811145E0,3.094505787E0,9.569025993E0,3.105878115E0
3.103298802E0,3.089717388E0,9.597756386E0,3.024475336E0
3.105786458E0,3.132812977E0,9.573814392E0,2.986168146E0
3.108274114E0,3.214215755E0,9.482834816E0,2.976591349E0
3.110761770E0,3.309983969E0,9.401431084E0,2.976591349E0
3.113249427E0,3.381809950E0,9.363123894E0,3.005321741E0
3.115737083E0,3.381809950E0,9.367912292E0,3.077147722E0
3.118224739E0,3.343502760E0,9.434949875E0,3.148973703E0
3.120712395E0,3.300406933E0,9.516353607E0,3.153762102E0
3.123200052E0,3.266888142E0,9.564237595E0,3.182492495E0
3.125687708E0,3.219004154E0,9.592967987E0,3.292625904E0
3.128175364E0,3.151966572E0,9.578602791E0,3.359663486E0
3.130663020E0,3.094505787E0,9.540295601E0,3.374028683E0
3.133150677E0,3.041833162E0,9.463681221E0,3.388393879E0
3.135638333E0,3.017891169E0,9.372700691E0,3.383605480E0
3.138125989E0,2.974795580E0,9.291297913E0,3.302202702E0
3.140613645E0,2.922123194E0,9.257779121E0,3.216011524E0
3.143101302E0,2.840720415E0,9.272144318E0,3.129820108E0
3.145588958E0,2.792836189E0,9.315239906E0,3.091512918E0
3.148076614E0,2.759317398E0,9.329605103E0,3.101089716E0
3.150564270E0,2.759317398E0,9.320028305E0,3.091512918E0
3.153051927E0,2.773682594E0,9.310451508E0,3.062782526E0
3.155539583E0,2.783259392E0,9.243413925E0,2.995744944E0
3.158027239E0,2.778470993E0,9.142857552E0,2.933495522E0
3.160514895E0,2.735375404E0,9.008782387E0,2.947860956E0
3.163002552E0,2.687491417E0,8.908226013E0,2.938283920E0
3.165490208E0,2.591723442E0,8.889072418E0,2.904765129E0
3.167977864E0,2.505532026E0,8.898649216E0,2.832939148E0
3.170465520E0,2.424129248E0,8.999205589E0,2.737171173E0
3.172953177E0,2.347514868E0,9.104550362E0,2.660556555E0
3.175440833E0,2.323572636E0,9.176376343E0,2.593518972E0
3.177928489E0,2.337938070E0,9.272144318E0,2.603095770E0
3.180416145E0,2.381033659E0,9.348758698E0,2.660556555E0
3.182903802E0,2.433706045E0,9.391854286E0,2.732382774E0
3.185391458E0,2.510320425E0,9.420584679E0,2.861669540E0
3.187879114E0,2.591723442E0,9.454104424E0,2.971802950E0
3.190366770E0,2.644395828E0,9.478046417E0,3.048417330E0
3.192854427E0,2.658761024E0,9.473258018E0,3.125031710E0
3.195342083E0,2.653972626E0,9.463681221E0,3.182492495E0
3.197829739E0,2.653972626E0,9.454104424E0,3.148973703E0
3.200317395E0,2.639607430E0,9.425373077E0,3.158550501E0
3.202805052E0,2.634819031E0,9.358335495E0,3.148973703E0
3.205292708E0,2.658761024E0,9.300874710E0,3.072359324E0
3.207780364E0,2.668337822E0,9.281721115E0,2.995744944E0
3.210268020E0,2.716221809E0,9.262567520E0,2.962226152E0
3.212755677E0,2.754528999E0,9.243413925E0,2.967014551E0
3.215243333E0,2.783259392E0,9.272144318E0,2.971802950E0
3.217730989E0,2.792836189E0,9.300874710E0,3.043628931E0
3.220218645E0,2.802412987E0,9.320028305E0,3.168127298E0
3.222706302E0,2.802412987E0,9.343970299E0,3.211223125E0
3.225193958E0,2.807201385E0,9.406219482E0,3.091512918E0
3.227681614E0,2.754528999E0,9.497200012E0,2.923918724E0
3.230169270E0,2.682703018E0,9.569025993E0,2.808997154E0
3.232656927E0,2.548627615E0,9.640851974E0,2.698863983E0
3.235144583E0,2.371456861E0,9.717466354E0,2.665344954E0
3.237632239E0,2.218227863E0,9.755773544E0,2.756324768E0
3.240119895E0,2.055422068E0,9.760561943E0,2.909553528E0
3.242607552E0,1.954865694E0,9.722254753E0,3.067570925E0
3.245095208E0,1.887827992E0,9.674370766E0,3.225588322E0
3.247582864E0,1.820790410E0,9.592967987E0,3.321356297E0
3.250070520E0,1.820790410E0,9.511565208E0,3.350086689E0
3.252558177E0,1.816002011E0,9.454104424E0,3.287837505E0
3.255045833E0,1.883039594E0,9.415796280E0,3.101089716E0
3.257533489E0,1.983596087E0,9.411007881E0,2.890399933E0
3.260021145E0,2.088941097E0,9.415796280E0,2.770689964E0
3.262508802E0,2.189497471E0,9.444527626E0,2.785055161E0
3.264996458E0,2.290053844E0,9.521142006E0,2.890399933E0
3.267484114E0,2.381033659E0,9.602544785E0,3.062782526E0
3.269971770E0,2.448071241E0,9.679159164E0,3.297414303E0
3.272459427E0,2.486378431E0,9.741408348E0,3.527257681E0
3.274947135E0,2.534262419E0,9.832387924E0,3.685275078E0
3.277434843E0,2.591723442E0,9.875483513E0,3.709217072E0
3.279922552E0,2.653972626E0,9.856329918E0,3.666121244E0
3.282410260E0,2.721010208E0,9.803657532E0,3.551199675E0
3.284897968E0,2.797624588E0,9.731831551E0,3.354875088E0
3.287385677E0,2.893392801E0,9.693524361E0,3.125031710E0
3.289873385E0,3.003525972E0,9.688735962E0,2.952649355E0
3.292361093E0,3.080140591E0,9.722254753E0,2.880823135E0
3.294848802E0,3.137601376E0,9.741408348E0,2.947860956E0
3.297336510E0,3.151966572E0,9.774927139E0,3.086724520E0
3.299824218E0,3.104082584E0,9.827599525E0,3.283049107E0
3.302311927E0,3.051409960E0,9.837176323E0,3.445854902E0
3.304799635E0,2.965218782E0,9.837176323E0,3.532046080E0
3.307287343E0,2.850297213E0,9.841964722E0,3.575141668E0
3.309775052E0,2.740163803E0,9.837176323E0,3.493738890E0
3.312262760E0,2.644395828E0,9.856329918E0,3.302202702E0
3.314750468E0,2.519897223E0,9.923367500E0,3.129820108E0
3.317238177E0,2.433706045E0,9.966463089E0,3.057994127E0
3.319725885E0,2.357091665E0,9.995193481E0,3.105878115E0
3.322213593E0,2.290053844E0,9.995193481E0,3.206434727E0
3.324701302E0,2.256535053E0,9.952097893E0,3.350086689E0
3.327189010E0,2.218227863E0,9.870695114E0,3.484162092E0
3.329676718E0,2.160767078E0,9.765350342E0,3.642179251E0
3.332164427E0,2.112883091E0,9.636063576E0,3.690063477E0
3.334652135E0,2.050633669E0,9.573814392E0,3.589506865E0
3.337139843E0,2.021903276E0,9.549872398E0,3.383605480E0
3.339627552E0,2.002749681E0,9.573814392E0,3.158550501E0
3.342115260E0,2.021903276E0,9.645640373E0,3.024475336E0
3.344602968E0,2.064998865E0,9.727043152E0,2.962226152E0
3.347090677E0,2.127248287E0,9.818022728E0,2.967014551E0
3.349578385E0,2.213439465E0,9.904213905E0,3.072359324E0
3.352066093E0,2.304419041E0,9.942521095E0,3.244741917E0
3.354553802E0,2.419340849E0,9.932944298E0,3.488950491E0
3.357041510E0,2.515108824E0,9.870695114E0,3.680486679E0
3.359529218E0,2.562992811E0,9.798869133E0,3.833715439E0
3.362016875E0,2.620453835E0,9.741408348E0,3.939060450E0
3.364504531E0,2.644395828E0,9.741408348E0,3.838503838E0
3.366992187E0,2.711433411E0,9.770138741E0,3.709217072E0
3.369479843E0,2.759317398E0,9.856329918E0,3.670909643E0
3.371967500E0,2.802412987E0,9.942521095E0,3.608660460E0
3.374455156E0,2.859874010E0,1.002871227E1,3.541622877E0
3.376942812E0,2.917334795E0,1.008138466E1,3.555988073E0
3.379430468E0,2.960430384E0,1.013405704E1,3.618237257E0
3.381918125E0,2.984372377E0,1.016757584E1,3.723582268E0
3.384405781E0,2.998737574E0,1.015321064E1,3.848080635E0
3.386893437E0,3.027467966E0,1.014363384E1,3.910329819E0
3.389381093E0,3.037044764E0,1.013405704E1,3.876811028E0
3.391868750E0,3.013102770E0,1.009574986E1,3.852869034E0
3.394356406E0,2.931699991E0,1.004307747E1,3.881599426E0
3.396844062E0,2.764105797E0,9.985616684E0,3.915118217E0
3.399331718E0,2.572569609E0,9.947309494E0,3.963002443E0
3.401819375E0,2.361880064E0,9.952097893E0,3.967790842E0
3.404307031E0,2.160767078E0,1.000477028E1,3.895964622E0
3.406794687E0,1.978807688E0,1.004786587E1,3.819350243E0
3.409282343E0,1.854309201E0,1.007659626E1,3.848080635E0
3.411770000E0,1.792060018E0,1.005744267E1,3.886387825E0
3.414257656E0,1.768117905E0,1.004786587E1,3.929483652E0
3.416745312E0,1.792060018E0,1.003350067E1,3.977367640E0
3.419232968E0,1.825578809E0,1.001434708E1,4.006097794E0
3.421720625E0,1.849520802E0,9.956886292E0,4.087501049E0
3.424208281E0,1.887827992E0,9.904213905E0,4.154538631E0
3.426695937E0,1.906981707E0,9.865906715E0,4.116231441E0
3.429183593E0,1.916558504E0,9.837176323E0,4.049193859E0
3.431671250E0,1.926135302E0,9.789292336E0,3.996521235E0
3.434158906E0,1.911770105E0,9.770138741E0,3.963002443E0
3.436646562E0,1.940500498E0,9.760561943E0,3.943848848E0
3.439134218E0,1.950077295E0,9.789292336E0,3.900753021E0
3.441621875E0,1.954865694E0,9.798869133E0,3.876811028E0
3.444109531E0,1.983596087E0,9.794080734E0,3.886387825E0
3.446597187E0,2.045845270E0,9.774927139E0,3.891176224E0
3.449084843E0,2.122459888E0,9.731831551E0,3.876811028E0
3.451572500E0,2.223016262E0,9.645640373E0,3.872022629E0
3.454060156E0,2.299630642E0,9.569025993E0,3.867234230E0
3.456547812E0,2.347514868E0,9.487623215E0,3.833715439E0
3.459035468E0,2.352303267E0,9.454104424E0,3.848080635E0
3.461523125E0,2.328361034E0,9.420584679E0,3.872022629E0
3.464010781E0,2.290053844E0,9.415796280E0,3.900753021E0
3.466498437E0,2.266111851E0,9.396642685E0,3.929483652E0
3.468986093E0,2.304419041E0,9.377489090E0,3.895964622E0
3.471473750E0,2.323572636E0,9.382277489E0,3.833715439E0
3.473961406E0,2.376245260E0,9.363123894E0,3.766677856E0
3.476449062E0,2.419340849E0,9.343970299E0,3.646967649E0
3.478936718E0,2.443282843E0,9.339181900E0,3.555988073E0
3.481424375E0,2.438494444E0,9.358335495E0,3.474585295E0
3.483912031E0,2.433706045E0,9.391854286E0,3.479373693E0
3.486399687E0,2.424129248E0,9.425373077E0,3.541622877E0
3.488887343E0,2.409764051E0,9.468469620E0,3.637390852E0
3.491375000E0,2.390610456E0,9.506776810E0,3.737947464E0
3.493862656E0,2.371456861E0,9.525930405E0,3.891176224E0
3.496350312E0,2.352303267E0,9.549872398E0,3.991732836E0
3.498837968E0,2.294842243E0,9.559449196E0,4.039616585E0
3.501325625E0,2.270900249E0,9.530718803E0,4.092289448E0
3.503813281E0,2.223016262E0,9.482834816E0,4.149750233E0
3.506300937E0,2.170343876E0,9.420584679E0,4.121019840E0
3.508788593E0,2.117671490E0,9.367912292E0,4.001309395E0
3.511276250E0,2.108094692E0,9.286509514E0,3.905541420E0
3.513763906E0,2.108094692E0,9.185953140E0,3.867234230E0
3.516251562E0,2.103306293E0,9.118915558E0,3.843292236E0
3.518739218E0,2.108094692E0,9.085396767E0,3.790619850E0
3.521226875E0,2.132036686E0,9.056666374E0,3.723582268E0
3.523714531E0,2.122459888E0,9.037512779E0,3.704428673E0
3.526202187E0,2.108094692E0,9.032724380E0,3.757101059E0
3.528689843E0,2.074575663E0,9.037512779E0,3.771466255E0
3.531177500E0,2.031480074E0,9.090185165E0,3.704428673E0
3.533665156E0,2.041056871E0,9.114127159E0,3.675698042E0
3.536152812E0,2.055422068E0,9.123703957E0,3.632602453E0
3.538640468E0,2.088941097E0,9.162011147E0,3.594295263E0
3.541128125E0,2.141613483E0,9.176376343E0,3.560776472E0
3.543615781E0,2.194285870E0,9.176376343E0,3.584718466E0
3.546103437E0,2.256535053E0,9.166799545E0,3.670909643E0
3.548591093E0,2.304419041E0,9.157222748E0,3.737947464E0
3.551078750E0,2.352303267E0,9.181164742E0,3.809773445E0
3.553566406E0,2.395398855E0,9.214683533E0,3.891176224E0
3.556054062E0,2.400187254E0,9.252990723E0,4.006097794E0
3.558541770E0,2.390610456E0,9.291297913E0,4.173692226E0
3.561029479E0,2.385822058E0,9.310451508E0,4.259883404E0
3.563517187E0,2.361880064E0,9.334393501E0,4.336497784E0
3.566004895E0,2.323572636E0,9.320028305E0,4.374804974E0
3.568492604E0,2.285265446E0,9.324816704E0,4.365228176E0
3.570980312E0,2.261323452E0,9.324816704E0,4.298190594E0
3.573468020E0,2.275688648E0,9.363123894E0,4.149750233E0
3.575955729E0,2.318784237E0,9.401431084E0,4.001309395E0
3.578443437E0,2.357091665E0,9.434949875E0,3.939060450E0
3.580931145E0,2.385822058E0,9.449316025E0,3.977367640E0
3.583418854E0,2.443282843E0,9.492411613E0,4.049193859E0
3.585906562E0,2.438494444E0,9.535507202E0,4.140173435E0
3.588394270E0,2.390610456E0,9.569025993E0,4.221576214E0
3.590881979E0,2.323572636E0,9.612121582E0,4.269460201E0
3.593369687E0,2.256535053E0,9.640851974E0,4.235941410E0
3.595857395E0,2.203862667E0,9.631275177E0,4.192845821E0
3.598345104E0,2.175132275E0,9.621698380E0,4.140173435E0
3.600832812E0,2.155978680E0,9.588179588E0,4.125808239E0
3.603320520E0,2.155978680E0,9.525930405E0,4.159327030E0
3.605808229E0,2.160767078E0,9.497200012E0,4.183269024E0
3.608295937E0,2.112883091E0,9.473258018E0,4.283825397E0
3.610783645E0,2.031480074E0,9.434949875E0,4.460996151E0
3.613271354E0,1.964442492E0,9.425373077E0,4.580706596E0
3.615759062E0,1.892616391E0,9.439739227E0,4.590283394E0
3.618246770E0,1.854309201E0,9.449316025E0,4.484938145E0
3.620734479E0,1.897404790E0,9.458892822E0,4.355651379E0
3.623222187E0,1.964442492E0,9.463681221E0,4.197634220E0
3.625709895E0,2.069787264E0,9.444527626E0,4.087501049E0
3.628197604E0,2.199074268E0,9.434949875E0,4.049193859E0
3.630685312E0,2.299630642E0,9.430161476E0,4.053982258E0
3.633173020E0,2.395398855E0,9.439739227E0,4.140173435E0
3.635660729E0,2.467224836E0,9.478046417E0,4.288613796E0
3.638148437E0,2.500743628E0,9.497200012E0,4.441842556E0
3.640636145E0,2.519897223E0,9.506776810E0,4.508880138E0
3.643123854E0,2.505532026E0,9.525930405E0,4.504091740E0
3.645611562E0,2.462436438E0,9.525930405E0,4.484938145E0
3.648099218E0,2.419340849E0,9.501988411E0,4.508880138E0
3.650586875E0,2.371456861E0,9.458892822E0,4.508880138E0
3.653074531E0,2.342726469E0,9.434949875E0,4.427477360E0
3.655562187E0,2.357091665E0,9.420584679E0,4.293402195E0
3.658049843E0,2.376245260E0,9.406219482E0,4.197634220E0
3.660537500E0,2.400187254E0,9.363123894E0,4.173692226E0
3.663025156E0,2.419340849E0,9.343970299E0,4.183269024E0
3.665512812E0,2.433706045E0,9.339181900E0,4.207211018E0
3.668000468E0,2.424129248E0,9.329605103E0,4.264671803E0
3.670488125E0,2.390610456E0,9.343970299E0,4.331709385E0
3.672975781E0,2.328361034E0,9.315239906E0,4.427477360E0
3.675463437E0,2.261323452E0,9.300874710E0,4.513668537E0
3.677951093E0,2.199074268E0,9.267355919E0,4.566341400E0
3.680438750E0,2.108094692E0,9.248202324E0,4.595071793E0
3.682926406E0,2.026691675E0,9.229048729E0,4.595071793E0
3.685414062E0,1.926135302E0,9.238625526E0,4.599860191E0
3.687901718E0,1.844732404E0,9.219471931E0,4.609436989E0
3.690389375E0,1.772906303E0,9.214683533E0,4.623802185E0
3.692877031E0,1.748964310E0,9.195529938E0,4.619013786E0
3.695364687E0,1.753752708E0,9.166799545E0,4.566341400E0
3.697852343E0,1.796848416E0,9.118915558E0,4.484938145E0
3.700340000E0,1.892616391E0,9.042301178E0,4.441842556E0
3.702827656E0,1.988384485E0,8.936956406E0,4.446630955E0
3.705315312E0,2.108094692E0,8.874707222E0,4.475361347E0
3.707802968E0,2.232593060E0,8.812458038E0,4.513668537E0
3.710290625E0,2.275688648E0,8.788516045E0,4.556764603E0
3.712778281E0,2.280477047E0,8.774150848E0,4.633378983E0
3.715265937E0,2.261323452E0,8.769362450E0,4.743512154E0
3.717753593E0,2.194285870E0,8.778939247E0,4.863222122E0
3.720241250E0,2.122459888E0,8.798092842E0,4.911106110E0
3.722728906E0,2.064998865E0,8.807669640E0,4.891952515E0
3.725216562E0,2.036268473E0,8.778939247E0,4.911106110E0
3.727704218E0,2.026691675E0,8.711901665E0,4.911106110E0
3.730191875E0,2.064998865E0,8.640075684E0,4.868010521E0
3.732679531E0,2.098517895E0,8.587403297E0,4.767454147E0
3.735167187E0,2.179920673E0,8.515577316E0,4.652532578E0
3.737654843E0,2.261323452E0,8.462904930E0,4.590283394E0
3.740142500E0,2.285265446E0,8.448538780E0,4.595071793E0
3.742630156E0,2.309207439E0,8.462904930E0,4.604648590E0
3.745117812E0,2.299630642E0,8.501212120E0,4.623802185E0
3.747605468E0,2.251746655E0,8.544307709E0,4.676474571E0
3.750093125E0,2.175132275E0,8.611345291E0,4.709993362E0
3.752580781E0,2.079364061E0,8.683171272E0,4.738723755E0
3.755068437E0,1.969230890E0,8.735843658E0,4.810549736E0
3.757556093E0,1.883039594E0,8.778939247E0,4.863222122E0
3.760043750E0,1.796848416E0,8.793304443E0,4.915894508E0
3.762531406E0,1.734599113E0,8.817246437E0,4.911106110E0
3.765019062E0,1.686715126E0,8.788516045E0,4.872798920E0
3.767506718E0,1.629254222E0,8.735843658E0,4.848856926E0
3.769994375E0,1.590947032E0,8.668806076E0,4.863222122E0
3.772482031E0,1.528697729E0,8.606556892E0,4.925471306E0
3.774969843E0,1.499967337E0,8.529942513E0,5.011662483E0
3.777457656E0,1.490390539E0,8.482058525E0,5.021239281E0
3.779945468E0,1.504755735E0,8.415019989E0,4.982932091E0
3.782433281E0,1.504755735E0,8.419808388E0,4.891952515E0
3.784921093E0,1.547851443E0,8.395866394E0,4.810549736E0
3.787408906E0,1.586158633E0,8.434173584E0,4.781819344E0
3.789896562E0,1.634042621E0,8.462904930E0,4.772242546E0
3.792384218E0,1.686715126E0,8.496423721E0,4.767454147E0
3.794871875E0,1.753752708E0,8.525154114E0,4.805761337E0
3.797359531E0,1.820790410E0,8.539519310E0,4.848856926E0
3.799847187E0,1.887827992E0,8.568249702E0,4.896740913E0
3.802334843E0,1.959654093E0,8.601768494E0,4.935048103E0
3.804822500E0,2.017114878E0,8.635287285E0,4.944624901E0
3.807310156E0,2.064998865E0,8.683171272E0,4.891952515E0
3.809797812E0,2.098517895E0,8.716690063E0,4.848856926E0
3.812285468E0,2.103306293E0,8.740632057E0,4.858433723E0
3.814773125E0,2.069787264E0,8.769362450E0,4.930259705E0
3.817260781E0,2.026691675E0,8.769362450E0,4.963778496E0
3.819748437E0,1.997961283E0,8.802881241E0,4.944624901E0
3.822236093E0,1.974019289E0,8.822034836E0,4.915894508E0
3.824723750E0,1.964442492E0,8.807669640E0,4.901529312E0
3.827211406E0,1.983596087E0,8.764574051E0,4.877587318E0
3.829699062E0,2.007538080E0,8.745420456E0,4.829703331E0
3.832186718E0,2.031480074E0,8.711901665E0,4.800972939E0
3.834674375E0,2.026691675E0,8.692748070E0,4.834491730E0
3.837162031E0,1.993172884E0,8.692748070E0,4.868010521E0
3.839649687E0,1.945288897E0,8.711901665E0,4.925471306E0
3.842137343E0,1.863885999E0,8.750208855E0,4.963778496E0
3.844625000E0,1.796848416E0,8.788516045E0,4.963778496E0
3.847112656E0,1.729810715E0,8.850765228E0,4.949413300E0
3.849600312E0,1.657984734E0,8.936956406E0,4.853645325E0
3.852087968E0,1.590947032E0,9.032724380E0,4.762665749E0
3.854575625E0,1.547851443E0,9.085396767E0,4.748300552E0
3.857063281E0,1.543063045E0,9.109338760E0,4.724358559E0
3.859550937E0,1.552639842E0,9.114127159E0,4.686051369E0
3.862038593E0,1.547851443E0,9.109338760E0,4.705204964E0
3.864526250E0,1.552639842E0,9.066243172E0,4.820126534E0
3.867013906E0,1.533486247E0,9.037512779E0,4.963778496E0
3.869501562E0,1.471236944E0,9.027935982E0,5.059546947E0
3.871989218E0,1.399410844E0,9.061454773E0,5.064335346E0
3.874476875E0,1.361103654E0,9.061454773E0,4.997297287E0
3.876964531E0,1.385045648E0,9.042301178E0,4.891952515E0
3.879452187E0,1.447294950E0,9.023147583E0,4.800972939E0
3.881939843E0,1.538274646E0,8.989628792E0,4.748300552E0
3.884427500E0,1.643619418E0,8.922591209E0,4.700416565E0
3.886915156E0,1.739387512E0,8.865130424E0,4.681262970E0
3.889402812E0,1.830367208E0,8.841188431E0,4.676474571E0
3.891890468E0,1.887827992E0,8.860342026E0,4.676474571E0
3.894378125E0,1.921346903E0,8.903437614E0,4.729146957E0
3.896865781E0,1.897404790E0,8.956110001E0,4.800972939E0
3.899353437E0,1.897404790E0,9.051877975E0,4.863222122E0
3.901841093E0,1.863885999E0,9.128492355E0,4.968566895E0
3.904328750E0,1.835155606E0,9.166799545E0,5.069123745E0
3.906816406E0,1.792060018E0,9.209895134E0,5.107430935E0
3.909304062E0,1.768117905E0,9.238625526E0,5.097854137E0
3.911791718E0,1.753752708E0,9.257779121E0,5.021239281E0
3.914279375E0,1.739387512E0,9.262567520E0,4.954201698E0
3.916767031E0,1.739387512E0,9.229048729E0,4.868010521E0
3.919254687E0,1.748964310E0,9.181164742E0,4.834491730E0
3.921742343E0,1.763329506E0,9.104550362E0,4.820126534E0
3.924230000E0,1.787271619E0,9.042301178E0,4.781819344E0
3.926717656E0,1.811213613E0,8.965686798E0,4.743512154E0
3.929205312E0,1.806425214E0,8.917802811E0,4.733935356E0
3.931692968E0,1.792060018E0,8.869918823E0,4.738723755E0
3.934180625E0,1.763329506E0,8.845976830E0,4.757877350E0
3.936668281E0,1.681926727E0,8.845976830E0,4.786607742E0
3.939155937E0,1.610100627E0,8.841188431E0,4.767454147E0
3.941643593E0,1.552639842E0,8.865130424E0,4.743512154E0
3.944131250E0,1.490390539E0,8.889072418E0,4.767454147E0
3.946618906E0,1.437718153E0,8.893860817E0,4.834491730E0
3.949106562E0,1.418564558E0,8.903437614E0,4.911106110E0
3.951594218E0,1.418564558E0,8.889072418E0,4.925471306E0
3.954081875E0,1.408987641E0,8.898649216E0,4.925471306E0
3.956569531E0,1.423352957E0,8.879495621E0,4.920682907E0
3.959057187E0,1.461660147E0,8.884284019E0,4.877587318E0
3.961544843E0,1.528697729E0,8.855553627E0,4.820126534E0
3.964032500E0,1.590947032E0,8.845976830E0,4.796184540E0
3.966520156E0,1.662773132E0,8.826823235E0,4.781819344E0
3.969007812E0,1.739387512E0,8.788516045E0,4.772242546E0
3.971495468E0,1.782483220E0,8.750208855E0,4.791396141E0
3.973983125E0,1.820790410E0,8.721478462E0,4.815338135E0
3.976470781E0,1.816002011E0,8.697536469E0,4.844068527E0
3.978958437E0,1.782483220E0,8.707113266E0,4.877587318E0
3.981446145E0,1.734599113E0,8.716690063E0,4.872798920E0
3.983933854E0,1.691503525E0,8.711901665E0,4.872798920E0
3.986421562E0,1.667561531E0,8.711901665E0,4.891952515E0
3.988909270E0,1.653196216E0,8.707113266E0,4.882375717E0
3.991396979E0,1.672349930E0,8.702324867E0,4.891952515E0
3.993884687E0,1.662773132E0,8.707113266E0,4.858433723E0
3.996372395E0,1.672349930E0,8.711901665E0,4.824914932E0
3.998860104E0,1.701080322E0,8.707113266E0,4.800972939E0
4.001347812E0,1.691503525E0,8.692748070E0,4.781819344E0
4.003835520E0,1.657984734E0,8.692748070E0,4.753088951E0
4.006323229E0,1.634042621E0,8.697536469E0,4.709993362E0
4.008810937E0,1.590947032E0,8.692748070E0,4.647744179E0
4.011298645E0,1.533486247E0,8.683171272E0,4.619013786E0
4.013786354E0,1.490390539E0,8.664017677E0,4.595071793E0
4.016274062E0,1.456871748E0,8.625710487E0,4.566341400E0
4.018761770E0,1.442506552E0,8.587403297E0,4.590283394E0
4.021249479E0,1.447294950E0,8.549096107E0,4.585494995E0
4.023737187E0,1.480813742E0,8.525154114E0,4.590283394E0
4.026224895E0,1.485602140E0,8.477270126E0,4.556764603E0
4.028712604E0,1.509544134E0,8.453327179E0,4.523245335E0
4.031200312E0,1.499967337E0,8.429385185E0,4.475361347E0
4.033688020E0,1.509544134E0,8.424596786E0,4.460996151E0
4.036175729E0,1.523909330E0,8.415019989E0,4.437054157E0
4.038663437E0,1.509544134E0,8.415019989E0,4.451419353E0
4.041151145E0,1.495178938E0,8.424596786E0,4.480149746E0
4.043638854E0,1.504755735E0,8.438961983E0,4.499303341E0
4.046126562E0,1.519120932E0,8.472481728E0,4.528033733E0
4.048614270E0,1.528697729E0,8.482058525E0,4.556764603E0
4.051101979E0,1.552639842E0,8.477270126E0,4.604648590E0
4.053589687E0,1.581370234E0,8.486846924E0,4.638167381E0
4.056077395E0,1.600523829E0,8.501212120E0,4.614225388E0
4.058565104E0,1.624465823E0,8.501212120E0,4.571129799E0
4.061052812E0,1.662773132E0,8.529942513E0,4.504091740E0
4.063540520E0,1.677138329E0,8.544307709E0,4.480149746E0
4.066028229E0,1.681926727E0,8.563461304E0,4.465784550E0
4.068515937E0,1.657984734E0,8.582614899E0,4.475361347E0
4.071003645E0,1.624465823E0,8.601768494E0,4.494514942E0
4.073491302E0,1.629254222E0,8.625710487E0,4.513668537E0
4.075978958E0,1.610100627E0,8.640075684E0,4.523245335E0
4.078466614E0,1.595735431E0,8.620922089E0,4.547187805E0
4.080954270E0,1.610100627E0,8.601768494E0,4.571129799E0
4.083441927E0,1.614889026E0,8.596980095E0,4.604648590E0
4.085929583E0,1.600523829E0,8.582614899E0,4.633378983E0
4.088417239E0,1.586158633E0,8.573038101E0,4.638167381E0
4.090904895E0,1.562216640E0,8.553884506E0,4.604648590E0
4.093392552E0,1.552639842E0,8.577826500E0,4.590283394E0
4.095880208E0,1.552639842E0,8.592191696E0,4.595071793E0
4.098367864E0,1.509544134E0,8.630498886E0,4.604648590E0
4.100855520E0,1.485602140E0,8.664017677E0,4.628590584E0
4.103343177E0,1.432929754E0,8.711901665E0,4.638167381E0
4.105830833E0,1.404199243E0,8.764574051E0,4.666897774E0
4.108318489E0,1.351526856E0,8.793304443E0,4.700416565E0
4.110806145E0,1.337161660E0,8.807669640E0,4.700416565E0
4.113293802E0,1.322796464E0,8.817246437E0,4.676474571E0
4.115781458E0,1.346738458E0,8.798092842E0,4.666897774E0
4.118269114E0,1.385045648E0,8.778939247E0,4.633378983E0
4.120756770E0,1.404199243E0,8.735843658E0,4.580706596E0
4.123244427E0,1.456871748E0,8.726266861E0,4.523245335E0
4.125732083E0,1.490390539E0,8.716690063E0,4.480149746E0
4.128219739E0,1.499967337E0,8.716690063E0,4.489726543E0
4.130707395E0,1.499967337E0,8.716690063E0,4.542399406E0
4.133195052E0,1.485602140E0,8.740632057E0,4.551976204E0
4.135682708E0,1.471236944E0,8.778939247E0,4.547187805E0
4.138170364E0,1.466448545E0,8.817246437E0,4.537611008E0
4.140658020E0,1.476025343E0,8.831611633E0,4.518456936E0
4.143145677E0,1.519120932E0,8.836400032E0,4.484938145E0
4.145633333E0,1.557428241E0,8.831611633E0,4.451419353E0
4.148120989E0,1.610100627E0,8.850765228E0,4.393958569E0
4.150608645E0,1.657984734E0,8.855553627E0,4.350862980E0
4.153096302E0,1.691503525E0,8.865130424E0,4.298190594E0
4.155583958E0,1.701080322E0,8.889072418E0,4.307767391E0
4.158071614E0,1.691503525E0,8.917802811E0,4.341286182E0
4.160559270E0,1.681926727E0,8.946533203E0,4.413112164E0
4.163046927E0,1.677138329E0,8.994417191E0,4.489726543E0
4.165534583E0,1.634042621E0,9.032724380E0,4.528033733E0
4.168022239E0,1.614889026E0,9.042301178E0,4.484938145E0
4.170509895E0,1.595735431E0,9.051877975E0,4.494514942E0
4.172997552E0,1.581370234E0,9.037512779E0,4.446630955E0
4.175485208E0,1.614889026E0,9.003993988E0,4.403535366E0
4.177972864E0,1.634042621E0,8.994417191E0,4.365228176E0
4.180460520E0,1.677138329E0,8.960898399E0,4.346074581E0
4.182948177E0,1.715445518E0,8.927379608E0,4.341286182E0
4.185435833E0,1.748964310E0,8.927379608E0,4.360439777E0
4.187923489E0,1.782483220E0,8.946533203E0,4.346074581E0
4.190411145E0,1.782483220E0,8.970475197E0,4.350862980E0
4.192898802E0,1.777694821E0,9.003993988E0,4.408323765E0
4.195386458E0,1.753752708E0,9.027935982E0,4.427477360E0
4.197874114E0,1.720233917E0,9.080608368E0,4.417900562E0
4.200361770E0,1.691503525E0,9.133280754E0,4.389170170E0
4.202849427E0,1.648407817E0,9.171587944E0,4.379593372E0
4.205337083E0,1.634042621E0,9.181164742E0,4.417900562E0
4.207824739E0,1.629254222E0,9.181164742E0,4.427477360E0
4.210312395E0,1.619677424E0,9.171587944E0,4.427477360E0
4.212800052E0,1.643619418E0,9.152434349E0,4.398746967E0
4.215287708E0,1.657984734E0,9.152434349E0,4.360439777E0
4.217775364E0,1.686715126E0,9.142857552E0,4.341286182E0
4.220263020E0,1.691503525E0,9.123703957E0,4.341286182E0
4.222750677E0,1.657984734E0,9.123703957E0,4.365228176E0
4.225238333E0,1.634042621E0,9.114127159E0,4.427477360E0
4.227725989E0,1.586158633E0,9.142857552E0,4.432265759E0
4.230213645E0,1.557428241E0,9.181164742E0,4.408323765E0
4.232701302E0,1.523909330E0,9.195529938E0,4.446630955E0
4.235189166E0,1.519120932E0,9.214683533E0,4.494514942E0
4.237677031E0,1.509544134E0,9.224260330E0,4.561553001E0
4.240164895E0,1.523909330E0,9.209895134E0,4.566341400E0
4.242652760E0,1.581370234E0,9.200318336E0,4.518456936E0
4.245140625E0,1.624465823E0,9.190741539E0,4.465784550E0
4.247628437E0,1.667561531E0,9.152434349E0,4.441842556E0
4.250116145E0,1.720233917E0,9.133280754E0,4.432265759E0
4.252603802E0,1.763329506E0,9.109338760E0,4.441842556E0
4.255091458E0,1.796848416E0,9.080608368E0,4.432265759E0
4.257579114E0,1.816002011E0,9.071031570E0,4.417900562E0
4.260066770E0,1.820790410E0,9.080608368E0,4.408323765E0
4.262554427E0,1.825578809E0,9.061454773E0,4.413112164E0
4.265042083E0,1.820790410E0,9.042301178E0,4.446630955E0
4.267529739E0,1.830367208E0,9.023147583E0,4.475361347E0
4.270017395E0,1.854309201E0,9.023147583E0,4.484938145E0
4.272505052E0,1.868674397E0,8.989628792E0,4.441842556E0
4.274992708E0,1.892616391E0,8.980051994E0,4.427477360E0
4.277480364E0,1.916558504E0,8.970475197E0,4.413112164E0
4.279968020E0,1.897404790E0,8.970475197E0,4.403535366E0
4.282455677E0,1.887827992E0,8.951321602E0,4.432265759E0
4.284943333E0,1.868674397E0,8.946533203E0,4.480149746E0
4.287430989E0,1.854309201E0,8.927379608E0,4.518456936E0
4.289918645E0,1.830367208E0,8.922591209E0,4.537611008E0
4.292406302E0,1.811213613E0,8.898649216E0,4.523245335E0
4.294893958E0,1.835155606E0,8.869918823E0,4.456207752E0
4.297381614E0,1.849520802E0,8.841188431E0,4.398746967E0
4.299869270E0,1.873462796E0,8.812458038E0,4.355651379E0
4.302356927E0,1.892616391E0,8.778939247E0,4.326920986E0
4.304844583E0,1.897404790E0,8.754997253E0,4.293402195E0
4.307332239E0,1.892616391E0,8.731055260E0,4.279036999E0
4.309819895E0,1.878251195E0,8.740632057E0,4.298190594E0
4.312307552E0,1.859097600E0,8.740632057E0,4.317344189E0
4.314795208E0,1.816002011E0,8.759785652E0,4.331709385E0
4.317282864E0,1.777694821E0,8.764574051E0,4.326920986E0
4.319770520E0,1.768117905E0,8.769362450E0,4.317344189E0
4.322258177E0,1.772906303E0,8.745420456E0,4.312555790E0
4.324745833E0,1.768117905E0,8.711901665E0,4.293402195E0
4.327233489E0,1.753752708E0,8.692748070E0,4.255095005E0
4.329721145E0,1.739387512E0,8.692748070E0,4.264671803E0
4.332208802E0,1.696291924E0,8.673594475E0,4.259883404E0
4.334696458E0,1.681926727E0,8.654440880E0,4.255095005E0
4.337184114E0,1.643619418E0,8.644864082E0,4.207211018E0
4.339671770E0,1.634042621E0,8.606556892E0,4.168903828E0
4.342159427E0,1.624465823E0,8.577826500E0,4.125808239E0
4.344647083E0,1.624465823E0,8.558672905E0,4.149750233E0
4.347134739E0,1.634042621E0,8.506000519E0,4.159327030E0
4.349622395E0,1.629254222E0,8.491635323E0,4.092289448E0
4.352110052E0,1.614889026E0,8.482058525E0,4.073135853E0
4.354597708E0,1.624465823E0,8.448538780E0,4.053982258E0
4.357085364E0,1.610100627E0,8.424596786E0,4.058770657E0
4.359573020E0,1.590947032E0,8.424596786E0,4.053982258E0
4.362060677E0,1.576581836E0,8.419808388E0,4.044404984E0
4.364548333E0,1.567005038E0,8.448538780E0,4.049193859E0
4.367035989E0,1.533486247E0,8.453327179E0,4.063559055E0
4.369523645E0,1.523909330E0,8.462904930E0,4.087501049E0
4.372011302E0,1.528697729E0,8.443750381E0,4.101866245E0
4.374498958E0,1.543063045E0,8.434173584E0,4.121019840E0
4.376986614E0,1.581370234E0,8.424596786E0,4.097077847E0
4.379474270E0,1.634042621E0,8.391077995E0,4.097077847E0
4.381961927E0,1.662773132E0,8.357559204E0,4.135385036E0
4.384449583E0,1.696291924E0,8.324040413E0,4.154538631E0
4.386937239E0,1.725022316E0,8.304886818E0,4.159327030E0
4.389424895E0,1.725022316E0,8.285733223E0,4.154538631E0
4.391912552E0,1.729810715E0,8.290521622E0,4.140173435E0
4.394400208E0,1.734599113E0,8.319252014E0,4.144961834E0
4.396887864E0,1.720233917E0,8.333617210E0,4.159327030E0
4.399375520E0,1.705868721E0,8.343194008E0,4.154538631E0
4.401863177E0,1.696291924E0,8.376712799E0,4.140173435E0
4.404350833E0,1.720233917E0,8.400654793E0,4.130596638E0
4.406838489E0,1.758541107E0,8.415019989E0,4.140173435E0
4.409326145E0,1.772906303E0,8.381501198E0,4.149750233E0
4.411813802E0,1.811213613E0,8.386289597E0,4.192845821E0
4.414301458E0,1.811213613E0,8.386289597E0,4.240729809E0
4.416789114E0,1.787271619E0,8.395866394E0,4.231153011E0
4.419276770E0,1.739387512E0,8.415019989E0,4.202422619E0
4.421764427E0,1.715445518E0,8.419808388E0,4.164115429E0
4.424252083E0,1.686715126E0,8.429385185E0,4.164115429E0
4.426739739E0,1.657984734E0,8.443750381E0,4.183269024E0
4.429227395E0,1.653196216E0,8.453327179E0,4.149750233E0
4.431715104E0,1.648407817E0,8.462904930E0,4.087501049E0
4.434202812E0,1.648407817E0,8.453327179E0,4.092289448E0
4.436690520E0,1.643619418E0,8.458115578E0,4.101866245E0
4.439178229E0,1.638831019E0,8.462904930E0,4.101866245E0
4.441665937E0,1.614889026E0,8.486846924E0,4.077924252E0
4.444153645E0,1.614889026E0,8.486846924E0,4.101866245E0
4.446641354E0,1.619677424E0,8.501212120E0,4.101866245E0
4.449129062E0,1.614889026E0,8.501212120E0,4.063559055E0
4.451616770E0,1.605312228E0,8.501212120E0,4.077924252E0
4.454104479E0,1.595735431E0,8.515577316E0,4.068347454E0
4.456592187E0,1.624465823E0,8.534730911E0,4.020462990E0
4.459079895E0,1.619677424E0,8.549096107E0,3.991732836E0
4.461567604E0,1.605312228E0,8.568249702E0,4.020462990E0
4.464055312E0,1.605312228E0,8.587403297E0,4.010886192E0
4.466543020E0,1.619677424E0,8.616133690E0,3.991732836E0
4.469030729E0,1.653196216E0,8.640075684E0,4.010886192E0
4.471518437E0,1.681926727E0,8.640075684E0,4.039616585E0
4.474006145E0,1.710657120E0,8.649652481E0,4.068347454E0
4.476493854E0,1.734599113E0,8.687959671E0,4.101866245E0
4.478981562E0,1.748964310E0,8.692748070E0,4.116231441E0
4.481469270E0,1.744175911E0,8.697536469E0,4.116231441E0
4.483956979E0,1.763329506E0,8.692748070E0,4.073135853E0
4.486444687E0,1.796848416E0,8.697536469E0,4.044404984E0
4.488932395E0,1.830367208E0,8.702324867E0,4.034828186E0
4.491420104E0,1.878251195E0,8.716690063E0,4.010886192E0
4.493907812E0,1.906981707E0,8.716690063E0,3.982156038E0
4.496395520E0,1.964442492E0,8.702324867E0,3.977367640E0
4.498883229E0,1.997961283E0,8.702324867E0,3.986944437E0
4.501370937E0,2.007538080E0,8.707113266E0,3.972579241E0
4.503858645E0,2.002749681E0,8.740632057E0,3.963002443E0
4.506346354E0,1.988384485E0,8.793304443E0,3.996521235E0
4.508834062E0,1.950077295E0,8.831611633E0,4.010886192E0
4.511321770E0,1.897404790E0,8.879495621E0,4.073135853E0
4.513809479E0,1.854309201E0,8.927379608E0,4.097077847E0
4.516297187E0,1.792060018E0,8.975263596E0,4.111443043E0
4.518784895E0,1.753752708E0,9.008782387E0,4.101866245E0
4.521272604E0,1.739387512E0,9.018359184E0,4.101866245E0
4.523760312E0,1.758541107E0,9.003993988E0,4.135385036E0
4.526247968E0,1.772906303E0,8.989628792E0,4.159327030E0
4.528735625E0,1.772906303E0,8.946533203E0,4.154538631E0
4.531223281E0,1.777694821E0,8.917802811E0,4.168903828E0
4.533710937E0,1.729810715E0,8.927379608E0,4.164115429E0
4.536198593E0,1.691503525E0,8.941744804E0,4.154538631E0
4.538686250E0,1.643619418E0,8.965686798E0,4.159327030E0
4.541173906E0,1.634042621E0,8.989628792E0,4.154538631E0
4.543661562E0,1.629254222E0,9.032724380E0,4.149750233E0
4.546149218E0,1.634042621E0,9.061454773E0,4.149750233E0
4.548636875E0,1.667561531E0,9.104550362E0,4.154538631E0
4.551124531E0,1.696291924E0,9.133280754E0,4.159327030E0
4.553612187E0,1.696291924E0,9.147645950E0,4.183269024E0
4.556099843E0,1.715445518E0,9.171587944E0,4.216787815E0
4.558587500E0,1.753752708E0,9.185953140E0,4.221576214E0
4.561075156E0,1.763329506E0,9.166799545E0,4.235941410E0
4.563562812E0,1.772906303E0,9.162011147E0,4.240729809E0
4.566050468E0,1.787271619E0,9.162011147E0,4.255095005E0
4.568538125E0,1.792060018E0,9.162011147E0,4.264671803E0
4.571025781E0,1.772906303E0,9.171587944E0,4.255095005E0
4.573513437E0,1.763329506E0,9.185953140E0,4.274248600E0
4.576001093E0,1.758541107E0,9.190741539E0,4.293402195E0
4.578488750E0,1.782483220E0,9.176376343E0,4.307767391E0
4.580976406E0,1.839944005E0,9.166799545E0,4.302978992E0
4.583464062E0,1.863885999E0,9.166799545E0,4.259883404E0
4.585951718E0,1.911770105E0,9.152434349E0,4.245518208E0
4.588439375E0,1.935712099E0,9.142857552E0,4.255095005E0
4.590927031E0,1.940500498E0,9.128492355E0,4.264671803E0
4.593414687E0,1.945288897E0,9.138069153E0,4.288613796E0
4.595902343E0,1.935712099E0,9.123703957E0,4.283825397E0
4.598390000E0,1.916558504E0,9.123703957E0,4.274248600E0
4.600877656E0,1.911770105E0,9.114127159E0,4.274248600E0
4.603365312E0,1.911770105E0,9.104550362E0,4.269460201E0
4.605852968E0,1.930923700E0,9.094973564E0,4.283825397E0
4.608340625E0,1.974019289E0,9.071031570E0,4.279036999E0
4.610828281E0,2.002749681E0,9.061454773E0,4.255095005E0
4.613315937E0,2.041056871E0,9.066243172E0,4.202422619E0
4.615803593E0,2.074575663E0,9.056666374E0,4.192845821E0
4.618291250E0,2.112883091E0,9.032724380E0,4.221576214E0
4.620778906E0,2.160767078E0,9.023147583E0,4.231153011E0
4.623266562E0,2.179920673E0,9.018359184E0,4.250306606E0
4.625754218E0,2.194285870E0,8.994417191E0,4.274248600E0
4.628241875E0,2.227804661E0,8.984840393E0,4.322132587E0
4.630729531E0,2.227804661E0,8.989628792E0,4.322132587E0
4.633217187E0,2.227804661E0,9.013570786E0,4.288613796E0
4.635704843E0,2.227804661E0,9.018359184E0,4.279036999E0
4.638192500E0,2.218227863E0,9.018359184E0,4.250306606E0
4.640680156E0,2.189497471E0,8.994417191E0,4.250306606E0
4.643167812E0,2.165555477E0,8.980051994E0,4.264671803E0
4.645655468E0,2.127248287E0,8.932168007E0,4.293402195E0
4.648143125E0,2.127248287E0,8.893860817E0,4.279036999E0
4.650630781E0,2.136825085E0,8.850765228E0,4.255095005E0
4.653118437E0,2.146401882E0,8.822034836E0,4.221576214E0
4.655606093E0,2.160767078E0,8.798092842E0,4.202422619E0
4.658093750E0,2.170343876E0,8.793304443E0,4.188057423E0
4.660581406E0,2.175132275E0,8.812458038E0,4.173692226E0
4.663069062E0,2.179920673E0,8.841188431E0,4.149750233E0
4.665556718E0,2.184709072E0,8.869918823E0,4.178480625E0
4.668044375E0,2.175132275E0,8.889072418E0,4.221576214E0
4.670532031E0,2.175132275E0,8.913014412E0,4.231153011E0
4.673019687E0,2.165555477E0,8.927379608E0,4.264671803E0
4.675507343E0,2.151190281E0,8.946533203E0,4.274248600E0
4.677995000E0,2.122459888E0,8.965686798E0,4.274248600E0
4.680482656E0,2.112883091E0,8.975263596E0,4.240729809E0
4.682970312E0,2.069787264E0,8.994417191E0,4.211999416E0
4.685457968E0,2.041056871E0,8.994417191E0,4.221576214E0
4.687945625E0,1.993172884E0,8.984840393E0,4.240729809E0
4.690433281E0,1.954865694E0,8.999205589E0,4.269460201E0
4.692920937E0,1.883039594E0,8.999205589E0,4.298190594E0
4.695408593E0,1.835155606E0,8.994417191E0,4.346074581E0
4.697896250E0,1.796848416E0,8.956110001E0,4.317344189E0
4.700383958E0,1.772906303E0,8.922591209E0,4.264671803E0
4.702871666E0,1.772906303E0,8.884284019E0,4.231153011E0
4.705359375E0,1.787271619E0,8.841188431E0,4.178480625E0
4.707847083E0,1.796848416E0,8.812458038E0,4.125808239E0
4.710334791E0,1.816002011E0,8.793304443E0,4.111443043E0
4.712822500E0,1.830367208E0,8.783727646E0,4.111443043E0
4.715310208E0,1.830367208E0,8.778939247E0,4.125808239E0
4.717797916E0,1.844732404E0,8.783727646E0,4.140173435E0
4.720285625E0,1.839944005E0,8.769362450E0,4.173692226E0
4.722773333E0,1.835155606E0,8.764574051E0,4.202422619E0
4.725261041E0,1.830367208E0,8.764574051E0,4.178480625E0
4.727748750E0,1.816002011E0,8.774150848E0,4.178480625E0
4.730236458E0,1.796848416E0,8.764574051E0,4.178480625E0
4.732724166E0,1.806425214E0,8.774150848E0,4.173692226E0
4.735211875E0,1.825578809E0,8.750208855E0,4.130596638E0
4.737699583E0,1.835155606E0,8.731055260E0,4.082712650E0
4.740187291E0,1.878251195E0,8.711901665E0,4.049193859E0
4.742675000E0,1.921346903E0,8.687959671E0,4.049193859E0
4.745162708E0,1.935712099E0,8.673594475E0,4.053982258E0
4.747650416E0,1.950077295E0,8.649652481E0,4.077924252E0
4.750138125E0,1.964442492E0,8.620922089E0,4.073135853E0
4.752625833E0,1.954865694E0,8.611345291E0,4.097077847E0
4.755113541E0,1.935712099E0,8.606556892E0,4.092289448E0
4.757601250E0,1.911770105E0,8.601768494E0,4.116231441E0
4.760088958E0,1.887827992E0,8.611345291E0,4.144961834E0
4.762576666E0,1.863885999E0,8.630498886E0,4.111443043E0
4.765064375E0,1.816002011E0,8.654440880E0,4.087501049E0
4.767552083E0,1.792060018E0,8.683171272E0,4.077924252E0
4.770039791E0,1.772906303E0,8.707113266E0,4.087501049E0
4.772527500E0,1.739387512E0,8.716690063E0,4.101866245E0
4.775015208E0,1.739387512E0,8.745420456E0,4.092289448E0
4.777502916E0,1.720233917E0,8.745420456E0,4.092289448E0
4.779990625E0,1.691503525E0,8.740632057E0,4.125808239E0
4.782478333E0,1.686715126E0,8.731055260E0,4.092289448E0
4.784966041E0,1.672349930E0,8.731055260E0,4.063559055E0
4.787453750E0,1.643619418E0,8.716690063E0,4.068347454E0
4.789941458E0,1.614889026E0,8.668806076E0,4.049193859E0
4.792429166E0,1.605312228E0,8.659229279E0,4.015674591E0
4.794916875E0,1.595735431E0,8.644864082E0,3.996521235E0
4.797404531E0,1.590947032E0,8.625710487E0,3.986944437E0
4.799892187E0,1.586158633E0,8.625710487E0,3.977367640E0
4.802379843E0,1.567005038E0,8.625710487E0,3.982156038E0
4.804867500E0,1.547851443E0,8.620922089E0,3.953425646E0
4.807355156E0,1.538274646E0,8.630498886E0,3.948637247E0
4.809842812E0,1.538274646E0,8.640075684E0,3.924695253E0
4.812330468E0,1.533486247E0,8.659229279E0,3.929483652E0
4.814818125E0,1.552639842E0,8.673594475E0,3.934272051E0
4.817305781E0,1.567005038E0,8.673594475E0,3.915118217E0
4.819793437E0,1.605312228E0,8.678382874E0,3.891176224E0
4.822281093E0,1.638831019E0,8.649652481E0,3.895964622E0
4.824768750E0,1.657984734E0,8.635287285E0,3.862445831E0
4.827256406E0,1.677138329E0,8.611345291E0,3.838503838E0
4.829744062E0,1.677138329E0,8.596980095E0,3.819350243E0
4.832231718E0,1.681926727E0,8.616133690E0,3.771466255E0
4.834719375E0,1.662773132E0,8.644864082E0,3.718793869E0
4.837207031E0,1.643619418E0,8.668806076E0,3.718793869E0
4.839694687E0,1.619677424E0,8.678382874E0,3.733159065E0
4.842182343E0,1.595735431E0,8.692748070E0,3.771466255E0
4.844670000E0,1.581370234E0,8.711901665E0,3.804985046E0
4.847157656E0,1.562216640E0,8.707113266E0,3.824138641E0
4.849645312E0,1.552639842E0,8.692748070E0,3.843292236E0
4.852132968E0,1.567005038E0,8.678382874E0,3.828927040E0
4.854620625E0,1.567005038E0,8.683171272E0,3.819350243E0
4.857108281E0,1.590947032E0,8.654440880E0,3.781043053E0
4.859595937E0,1.600523829E0,8.635287285E0,3.742735863E0
4.862083593E0,1.600523829E0,8.649652481E0,3.723582268E0
4.864571250E0,1.605312228E0,8.654440880E0,3.728370667E0
4.867058906E0,1.614889026E0,8.659229279E0,3.733159065E0
4.869546562E0,1.614889026E0,8.668806076E0,3.766677856E0
4.872034218E0,1.605312228E0,8.654440880E0,3.776254654E0
4.874521875E0,1.610100627E0,8.673594475E0,3.771466255E0
4.877009531E0,1.605312228E0,8.683171272E0,3.814561844E0
4.879497187E0,1.610100627E0,8.683171272E0,3.833715439E0
4.881984843E0,1.624465823E0,8.697536469E0,3.800196648E0
4.884472500E0,1.634042621E0,8.707113266E0,3.776254654E0
4.886960156E0,1.629254222E0,8.745420456E0,3.752312660E0
4.889447812E0,1.624465823E0,8.793304443E0,3.723582268E0
4.891935468E0,1.614889026E0,8.807669640E0,3.718793869E0
4.894423125E0,1.619677424E0,8.802881241E0,3.723582268E0
4.896910781E0,1.638831019E0,8.798092842E0,3.733159065E0
4.899398437E0,1.681926727E0,8.793304443E0,3.752312660E0
4.901886093E0,1.691503525E0,8.788516045E0,3.785831451E0
4.904373750E0,1.705868721E0,8.778939247E0,3.790619850E0
4.906861406E0,1.710657120E0,8.783727646E0,3.766677856E0
4.909349062E0,1.705868721E0,8.802881241E0,3.757101059E0
4.911836718E0,1.705868721E0,8.836400032E0,3.761889458E0
4.914324375E0,1.710657120E0,8.850765228E0,3.781043053E0
4.916812031E0,1.725022316E0,8.860342026E0,3.790619850E0
4.919299687E0,1.763329506E0,8.874707222E0,3.804985046E0
4.921787343E0,1.777694821E0,8.874707222E0,3.828927040E0
4.924275000E0,1.806425214E0,8.879495621E0,3.838503838E0
4.926762656E0,1.839944005E0,8.879495621E0,3.867234230E0
4.929250312E0,1.859097600E0,8.903437614E0,3.895964622E0
4.931737968E0,1.878251195E0,8.908226013E0,3.915118217E0
4.934225625E0,1.887827992E0,8.913014412E0,3.910329819E0
4.936713281E0,1.878251195E0,8.936956406E0,3.915118217E0
4.939200937E0,1.868674397E0,8.965686798E0,3.929483652E0
4.941688593E0,1.863885999E0,8.970475197E0,3.919906616E0
4.944176250E0,1.859097600E0,8.984840393E0,3.924695253E0
4.946663906E0,1.878251195E0,8.994417191E0,3.886387825E0
4.949151562E0,1.892616391E0,8.994417191E0,3.857657433E0
4.951639218E0,1.930923700E0,8.980051994E0,3.886387825E0
4.954126875E0,1.964442492E0,8.941744804E0,3.891176224E0
4.956614531E0,1.988384485E0,8.917802811E0,3.891176224E0
4.959102187E0,2.002749681E0,8.932168007E0,3.881599426E0
4.961589843E0,1.993172884E0,8.936956406E0,3.881599426E0
4.964077500E0,1.959654093E0,8.956110001E0,3.872022629E0
4.966565156E0,1.921346903E0,8.989628792E0,3.876811028E0
4.969052864E0,1.859097600E0,9.008782387E0,3.900753021E0
4.971540573E0,1.820790410E0,9.023147583E0,3.948637247E0
4.974028281E0,1.792060018E0,9.032724380E0,4.001309395E0
4.976515989E0,1.768117905E0,9.027935982E0,4.006097794E0
4.979003698E0,1.772906303E0,9.032724380E0,4.015674591E0
4.981491406E0,1.811213613E0,9.018359184E0,4.001309395E0
4.983979114E0,1.854309201E0,8.984840393E0,3.958214045E0
4.986466823E0,1.897404790E0,8.970475197E0,3.958214045E0
4.988954531E0,1.935712099E0,8.960898399E0,3.948637247E0
4.991442239E0,1.964442492E0,8.956110001E0,3.948637247E0
4.993929948E0,1.940500498E0,8.956110001E0,3.953425646E0
4.996417656E0,1.926135302E0,8.984840393E0,3.991732836E0
4.998905364E0,1.926135302E0,8.999205589E0,4.049193859E0
5.001393073E0,1.906981707E0,9.023147583E0,4.087501049E0
5.003880781E0,1.892616391E0,9.056666374E0,4.135385036E0
5.006368489E0,1.906981707E0,9.066243172E0,4.188057423E0
5.008856198E0,1.902193308E0,9.071031570E0,4.231153011E0
5.011343906E0,1.930923700E0,9.066243172E0,4.279036999E0
5.013831614E0,1.974019289E0,9.056666374E0,4.279036999E0
5.016319323E0,1.997961283E0,9.051877975E0,4.245518208E0
5.018807031E0,2.021903276E0,9.023147583E0,4.178480625E0
5.021294739E0,2.050633669E0,8.989628792E0,4.154538631E0
5.023782448E0,2.069787264E0,8.989628792E0,4.149750233E0
5.026270156E0,2.098517895E0,8.970475197E0,4.149750233E0
5.028757864E0,2.084152699E0,8.980051994E0,4.173692226E0
5.031245573E0,2.055422068E0,8.989628792E0,4.216787815E0
5.033733281E0,2.041056871E0,8.989628792E0,4.283825397E0
5.036220989E0,1.993172884E0,8.999205589E0,4.331709385E0
5.038708698E0,1.978807688E0,9.008782387E0,4.326920986E0
5.041196406E0,1.983596087E0,9.018359184E0,4.302978992E0
5.043684114E0,2.002749681E0,9.018359184E0,4.293402195E0
5.046171823E0,2.031480074E0,9.027935982E0,4.274248600E0
5.048659531E0,2.036268473E0,9.018359184E0,4.274248600E0
5.051147239E0,2.045845270E0,9.008782387E0,4.259883404E0
5.053634948E0,2.026691675E0,8.994417191E0,4.264671803E0
5.056122656E0,2.017114878E0,8.999205589E0,4.279036999E0
5.058610364E0,1.978807688E0,9.008782387E0,4.298190594E0
5.061098073E0,1.945288897E0,9.008782387E0,4.326920986E0
5.063585781E0,1.916558504E0,9.018359184E0,4.336497784E0
5.066073437E0,1.911770105E0,9.018359184E0,4.370016575E0
5.068561093E0,1.887827992E0,9.008782387E0,4.370016575E0
5.071048750E0,1.873462796E0,9.018359184E0,4.346074581E0
5.073536406E0,1.868674397E0,9.003993988E0,4.322132587E0
5.076024062E0,1.868674397E0,9.008782387E0,4.307767391E0
5.078511718E0,1.873462796E0,8.994417191E0,4.317344189E0
5.080999375E0,1.873462796E0,8.980051994E0,4.307767391E0
5.083487031E0,1.859097600E0,8.999205589E0,4.269460201E0
5.085974687E0,1.863885999E0,9.013570786E0,4.283825397E0
5.088462343E0,1.863885999E0,9.008782387E0,4.312555790E0
5.090950000E0,1.859097600E0,9.008782387E0,4.312555790E0
5.093437656E0,1.849520802E0,9.013570786E0,4.322132587E0
5.095925312E0,1.878251195E0,8.989628792E0,4.307767391E0
5.098412968E0,1.883039594E0,8.965686798E0,4.288613796E0
5.100900625E0,1.878251195E0,8.965686798E0,4.288613796E0
5.103388281E0,1.878251195E0,8.960898399E0,4.274248600E0
5.105875937E0,1.859097600E0,8.956110001E0,4.226364613E0
5.108363593E0,1.849520802E0,8.956110001E0,4.164115429E0
5.110851250E0,1.844732404E0,8.951321602E0,4.149750233E0
5.113338906E0,1.863885999E0,8.936956406E0,4.125808239E0
5.115826562E0,1.902193308E0,8.922591209E0,4.130596638E0
5.118314218E0,1.945288897E0,8.908226013E0,4.144961834E0
5.120801875E0,1.954865694E0,8.889072418E0,4.149750233E0
5.123289531E0,1.969230890E0,8.874707222E0,4.149750233E0
5.125777187E0,1.940500498E0,8.893860817E0,4.164115429E0
5.128264843E0,1.921346903E0,8.889072418E0,4.140173435E0
5.130752500E0,1.911770105E0,8.903437614E0,4.116231441E0
5.133240156E0,1.906981707E0,8.913014412E0,4.121019840E0
5.135727812E0,1.902193308E0,8.908226013E0,4.116231441E0
5.138215468E0,1.897404790E0,8.908226013E0,4.111443043E0
5.140703125E0,1.863885999E0,8.893860817E0,4.101866245E0
5.143190781E0,1.859097600E0,8.884284019E0,4.144961834E0
5.145678437E0,1.830367208E0,8.884284019E0,4.178480625E0
5.148166093E0,1.811213613E0,8.874707222E0,4.178480625E0
5.150653750E0,1.796848416E0,8.874707222E0,4.188057423E0
5.153141406E0,1.782483220E0,8.845976830E0,4.202422619E0
5.155629062E0,1.777694821E0,8.841188431E0,4.183269024E0
5.158116718E0,1.777694821E0,8.826823235E0,4.178480625E0
5.160604375E0,1.763329506E0,8.817246437E0,4.183269024E0
5.163092031E0,1.758541107E0,8.817246437E0,4.183269024E0
5.165579687E0,1.753752708E0,8.845976830E0,4.154538631E0
5.168067343E0,1.739387512E0,8.836400032E0,4.135385036E0
5.170555000E0,1.715445518E0,8.822034836E0,4.144961834E0
5.173042656E0,1.681926727E0,8.807669640E0,4.164115429E0
5.175530312E0,1.648407817E0,8.812458038E0,4.144961834E0
5.178017968E0,1.590947032E0,8.822034836E0,4.111443043E0
5.180505625E0,1.547851443E0,8.812458038E0,4.068347454E0
5.182993281E0,1.538274646E0,8.826823235E0,4.044404984E0
5.185480937E0,1.528697729E0,8.817246437E0,4.010886192E0
5.187968593E0,1.533486247E0,8.783727646E0,3.963002443E0
5.190456250E0,1.543063045E0,8.764574051E0,3.934272051E0
5.192943906E0,1.562216640E0,8.735843658E0,3.910329819E0
5.195431562E0,1.581370234E0,8.697536469E0,3.910329819E0
5.197919218E0,1.610100627E0,8.673594475E0,3.895964622E0
5.200406875E0,1.653196216E0,8.630498886E0,3.867234230E0
5.202894531E0,1.662773132E0,8.630498886E0,3.819350243E0
5.205382187E0,1.686715126E0,8.620922089E0,3.776254654E0
5.207869843E0,1.720233917E0,8.630498886E0,3.761889458E0
5.210357500E0,1.705868721E0,8.640075684E0,3.737947464E0
5.212845156E0,1.691503525E0,8.659229279E0,3.737947464E0
5.215332812E0,1.672349930E0,8.668806076E0,3.747524261E0
5.217820468E0,1.648407817E0,8.664017677E0,3.761889458E0
5.220308125E0,1.634042621E0,8.654440880E0,3.785831451E0
5.222795781E0,1.643619418E0,8.635287285E0,3.800196648E0
5.225283437E0,1.672349930E0,8.616133690E0,3.771466255E0
5.227771093E0,1.696291924E0,8.582614899E0,3.752312660E0
5.230258802E0,1.701080322E0,8.539519310E0,3.704428673E0
5.232746510E0,1.701080322E0,8.520365715E0,3.690063477E0
5.235234218E0,1.686715126E0,8.515577316E0,3.656544447E0
5.237721927E0,1.672349930E0,8.496423721E0,3.632602453E0
5.240209635E0,1.653196216E0,8.506000519E0,3.603872061E0
5.242697343E0,1.657984734E0,8.491635323E0,3.623025656E0
5.245185052E0,1.667561531E0,8.477270126E0,3.608660460E0
5.247672760E0,1.667561531E0,8.482058525E0,3.613448858E0
5.250160468E0,1.653196216E0,8.486846924E0,3.594295263E0
5.252648177E0,1.624465823E0,8.482058525E0,3.589506865E0
5.255135885E0,1.605312228E0,8.496423721E0,3.555988073E0
5.257623593E0,1.581370234E0,8.515577316E0,3.512892485E0
5.260111302E0,1.567005038E0,8.525154114E0,3.469796896E0
5.262599010E0,1.576581836E0,8.539519310E0,3.455431700E0
5.265086718E0,1.576581836E0,8.539519310E0,3.508104086E0
5.267574427E0,1.576581836E0,8.529942513E0,3.541622877E0
5.270062135E0,1.557428241E0,8.534730911E0,3.613448858E0
5.272549843E0,1.538274646E0,8.549096107E0,3.699640274E0
5.275037552E0,1.519120932E0,8.544307709E0,3.790619850E0
5.277525260E0,1.476025343E0,8.549096107E0,3.852869034E0
5.280012968E0,1.476025343E0,8.553884506E0,3.872022629E0
5.282500677E0,1.471236944E0,8.539519310E0,3.895964622E0
5.284988385E0,1.466448545E0,8.544307709E0,3.881599426E0
5.287476093E0,1.485602140E0,8.568249702E0,3.843292236E0
5.289963802E0,1.519120932E0,8.573038101E0,3.828927040E0
5.292451510E0,1.547851443E0,8.568249702E0,3.819350243E0
5.294939218E0,1.557428241E0,8.577826500E0,3.819350243E0
5.297426927E0,1.581370234E0,8.596980095E0,3.828927040E0
5.299914635E0,1.610100627E0,8.601768494E0,3.857657433E0
5.302402343E0,1.657984734E0,8.620922089E0,3.900753021E0
5.304890052E0,1.691503525E0,8.644864082E0,3.924695253E0
5.307377760E0,1.720233917E0,8.673594475E0,3.972579241E0
5.309865468E0,1.701080322E0,8.721478462E0,4.063559055E0
5.312353177E0,1.681926727E0,8.759785652E0,4.130596638E0
5.314840885E0,1.634042621E0,8.788516045E0,4.183269024E0
5.317328593E0,1.610100627E0,8.826823235E0,4.207211018E0
5.319816302E0,1.595735431E0,8.850765228E0,4.207211018E0
5.322304010E0,1.586158633E0,8.831611633E0,4.226364613E0
