"Time (s)","Gyroscope x (rad/s)","Gyroscope y (rad/s)","Gyroscope z (rad/s)"
6.088348900E-2,4.527370445E-3,-8.655266836E-3,-5.060002208E-2
6.337083300E-2,1.331579522E-3,-8.655266836E-3,-5.379581451E-2
6.585817700E-2,-2.929474926E-3,-8.655266836E-3,-5.592634156E-2
6.834552000E-2,-6.125265732E-3,-8.655266836E-3,-5.699160323E-2
7.083286400E-2,-1.038632076E-2,-7.590003312E-3,-5.699160323E-2
7.332020800E-2,-1.464737486E-2,-7.590003312E-3,-5.699160323E-2
7.580760400E-2,-1.784316637E-2,-5.459476262E-3,-5.699160323E-2
7.829505200E-2,-2.210422046E-2,-3.328948980E-3,-5.592634156E-2
8.078255200E-2,-2.530001104E-2,-1.331579551E-4,-5.592634156E-2
8.327010400E-2,-2.849580161E-2,1.997369342E-3,-5.486107618E-2
8.575770800E-2,-3.062633052E-2,5.193160381E-3,-5.486107618E-2
8.824536400E-2,-3.275685757E-2,8.388951421E-3,-5.486107618E-2
9.073307300E-2,-3.382211924E-2,1.051947847E-2,-5.486107618E-2
9.322083300E-2,-3.488738462E-2,1.265000552E-2,-5.486107618E-2
9.570864500E-2,-3.595264629E-2,1.584579609E-2,-5.379581451E-2
9.819651000E-2,-3.701791167E-2,1.797632314E-2,-5.273054913E-2
1.006843750E-1,-3.808317333E-2,2.010685205E-2,-5.060002208E-2
1.031722390E-1,-3.808317333E-2,2.330264263E-2,-4.740423337E-2
1.056601040E-1,-3.808317333E-2,2.649843320E-2,-4.420844093E-2
1.081479680E-1,-3.701791167E-2,2.969422378E-2,-4.101264849E-2
1.106358330E-1,-3.595264629E-2,3.289001435E-2,-3.781685978E-2
1.131236980E-1,-3.488738462E-2,3.502054140E-2,-3.462106735E-2
1.156114060E-1,-3.382211924E-2,3.715106845E-2,-3.142527863E-2
1.180990620E-1,-3.275685757E-2,3.715106845E-2,-2.929474972E-2
1.205867180E-1,-3.062633052E-2,3.821633384E-2,-2.716422267E-2
1.230743750E-1,-2.956106514E-2,3.928159550E-2,-2.609895915E-2
1.255620310E-1,-2.849580161E-2,4.034686089E-2,-2.503369562E-2
1.280496870E-1,-2.530001104E-2,4.141212255E-2,-2.503369562E-2
1.305373430E-1,-2.423474751E-2,4.141212255E-2,-2.396843210E-2
1.330250000E-1,-2.210422046E-2,4.247738793E-2,-2.290316857E-2
1.355126560E-1,-1.997369342E-2,4.247738793E-2,-2.290316857E-2
1.380003120E-1,-1.784316637E-2,4.141212255E-2,-2.290316857E-2
1.404879680E-1,-1.677790284E-2,4.034686089E-2,-2.396843210E-2
1.429756250E-1,-1.571263932E-2,3.821633384E-2,-2.396843210E-2
1.454632810E-1,-1.464737486E-2,3.715106845E-2,-2.503369562E-2
1.479509370E-1,-1.251684781E-2,3.395527974E-2,-2.396843210E-2
1.504385930E-1,-1.038632076E-2,3.182475269E-2,-2.396843210E-2
1.529262500E-1,-9.321057238E-3,2.969422378E-2,-2.183790505E-2
1.554139060E-1,-8.255792782E-3,2.862896025E-2,-2.077264152E-2
1.579015620E-1,-7.190529723E-3,2.649843320E-2,-1.970737800E-2
1.603892180E-1,-6.125265732E-3,2.436790615E-2,-1.864211448E-2
1.628768750E-1,-6.125265732E-3,2.330264263E-2,-1.864211448E-2
1.653645310E-1,-6.125265732E-3,2.117211558E-2,-1.864211448E-2
1.678521870E-1,-6.125265732E-3,1.904158667E-2,-1.864211448E-2
1.703398430E-1,-7.190529723E-3,1.584579609E-2,-1.970737800E-2
1.728275000E-1,-8.255792782E-3,1.371526904E-2,-2.290316857E-2
1.753151560E-1,-9.321057238E-3,1.158474199E-2,-2.609895915E-2
1.778028120E-1,-1.038632076E-2,8.388951421E-3,-2.822948620E-2
1.802904680E-1,-1.145158429E-2,7.323687430E-3,-3.142527863E-2
1.827781250E-1,-1.358211134E-2,5.193160381E-3,-3.355580568E-2
1.852657810E-1,-1.571263932E-2,4.127896391E-3,-3.568633273E-2
1.877534370E-1,-1.677790284E-2,5.193160381E-3,-3.781685978E-2
1.902410930E-1,-1.890842989E-2,7.323687430E-3,-3.888212144E-2
1.927287500E-1,-1.890842989E-2,9.454214945E-3,-3.994738683E-2
1.952164060E-1,-2.103895694E-2,1.158474199E-2,-3.888212144E-2
1.977040620E-1,-2.210422046E-2,1.478053257E-2,-3.781685978E-2
2.001917180E-1,-2.210422046E-2,1.797632314E-2,-3.675159439E-2
2.026793750E-1,-2.210422046E-2,2.117211558E-2,-3.462106735E-2
2.051670310E-1,-2.316948399E-2,2.436790615E-2,-3.249054030E-2
2.076546870E-1,-2.316948399E-2,2.862896025E-2,-3.036001325E-2
2.101423430E-1,-2.316948399E-2,3.395527974E-2,-2.822948620E-2
2.126300000E-1,-2.210422046E-2,3.821633384E-2,-2.716422267E-2
2.151181250E-1,-2.210422046E-2,4.247738793E-2,-2.503369562E-2
2.176055200E-1,-2.210422046E-2,4.567318037E-2,-2.290316857E-2
2.200929160E-1,-2.103895694E-2,4.886896908E-2,-2.183790505E-2
2.225803120E-1,-2.103895694E-2,5.099949613E-2,-1.970737800E-2
2.250677080E-1,-2.210422046E-2,5.313002318E-2,-1.757685095E-2
2.275551040E-1,-2.210422046E-2,5.313002318E-2,-1.544632297E-2
2.300425520E-1,-2.103895694E-2,5.419528857E-2,-1.438105945E-2
2.325300520E-1,-1.997369342E-2,5.419528857E-2,-1.331579592E-2
2.350176040E-1,-1.997369342E-2,5.313002318E-2,-1.225053146E-2
2.375052080E-1,-1.890842989E-2,5.099949613E-2,-1.225053146E-2
2.399928640E-1,-1.784316637E-2,4.993423447E-2,-1.331579592E-2
2.424805730E-1,-1.677790284E-2,4.780370742E-2,-1.438105945E-2
2.449683330E-1,-1.677790284E-2,4.567318037E-2,-1.544632297E-2
2.474561450E-1,-1.571263932E-2,4.247738793E-2,-1.864211448E-2
2.499439580E-1,-1.571263932E-2,4.034686089E-2,-1.970737800E-2
2.524317700E-1,-1.677790284E-2,3.821633384E-2,-2.183790505E-2
2.549195830E-1,-1.571263932E-2,3.715106845E-2,-2.396843210E-2
2.574073950E-1,-1.677790284E-2,3.395527974E-2,-2.503369562E-2
2.598952080E-1,-1.784316637E-2,3.075948730E-2,-2.609895915E-2
2.623830200E-1,-1.890842989E-2,2.756369673E-2,-2.609895915E-2
2.648708330E-1,-1.997369342E-2,2.330264263E-2,-2.716422267E-2
2.673586450E-1,-2.210422046E-2,1.904158667E-2,-2.609895915E-2
2.698464060E-1,-2.423474751E-2,1.371526904E-2,-2.503369562E-2
2.723340620E-1,-2.636527456E-2,8.388951421E-3,-2.396843210E-2
2.748217180E-1,-2.849580161E-2,4.127896391E-3,-2.290316857E-2
2.773093750E-1,-3.062633052E-2,9.321057005E-4,-2.077264152E-2
2.797970310E-1,-3.169159219E-2,-2.263685223E-3,-1.757685095E-2
2.822846870E-1,-3.275685757E-2,-4.394212738E-3,-1.544632297E-2
2.847723430E-1,-3.382211924E-2,-4.394212738E-3,-1.331579592E-2
2.872600000E-1,-3.488738462E-2,-2.263685223E-3,-1.012000442E-2
2.897476560E-1,-3.595264629E-2,9.321057005E-4,-5.858949851E-3
2.922353120E-1,-3.595264629E-2,4.127896391E-3,-2.663159044E-3
2.947229680E-1,-3.595264629E-2,6.258423906E-3,5.326318205E-4
2.972106250E-1,-3.701791167E-2,9.454214945E-3,3.728422802E-3
2.996982810E-1,-3.701791167E-2,1.265000552E-2,6.924213842E-3
3.021859370E-1,-3.808317333E-2,1.584579609E-2,1.012000442E-2
3.046735930E-1,-3.808317333E-2,1.797632314E-2,1.225053146E-2
3.071612500E-1,-3.914843872E-2,1.797632314E-2,1.544632297E-2
3.096489060E-1,-3.914843872E-2,1.797632314E-2,1.970737800E-2
3.121365620E-1,-3.914843872E-2,1.797632314E-2,2.290316857E-2
3.146242180E-1,-3.914843872E-2,1.691105962E-2,2.609895915E-2
3.171118750E-1,-3.914843872E-2,1.584579609E-2,2.929474972E-2
3.195995310E-1,-3.914843872E-2,1.478053257E-2,3.142527863E-2
3.220871870E-1,-3.914843872E-2,1.478053257E-2,3.249054030E-2
3.245748430E-1,-3.914843872E-2,1.371526904E-2,3.249054030E-2
3.270625000E-1,-3.808317333E-2,1.478053257E-2,3.249054030E-2
3.295501560E-1,-3.808317333E-2,1.478053257E-2,3.355580568E-2
3.320378120E-1,-3.808317333E-2,1.478053257E-2,3.249054030E-2
3.345254680E-1,-3.701791167E-2,1.371526904E-2,3.142527863E-2
3.370131250E-1,-3.701791167E-2,1.158474199E-2,3.036001325E-2
3.395007810E-1,-3.595264629E-2,9.454214945E-3,2.822948620E-2
3.419884370E-1,-3.595264629E-2,6.258423906E-3,2.609895915E-2
3.444760930E-1,-3.595264629E-2,3.062632866E-3,2.503369562E-2
3.469637500E-1,-3.595264629E-2,1.997369342E-3,2.183790505E-2
3.494514060E-1,-3.488738462E-2,-1.198421582E-3,2.077264152E-2
3.519390620E-1,-3.488738462E-2,-3.328948980E-3,1.970737800E-2
3.544267180E-1,-3.488738462E-2,-4.394212738E-3,1.864211448E-2
3.569143750E-1,-3.382211924E-2,-3.328948980E-3,1.864211448E-2
3.594020310E-1,-3.382211924E-2,-2.263685223E-3,1.970737800E-2
3.618896870E-1,-3.275685757E-2,-2.263685223E-3,1.970737800E-2
3.643773430E-1,-3.169159219E-2,-1.198421582E-3,2.077264152E-2
3.668650000E-1,-3.062633052E-2,-1.198421582E-3,2.183790505E-2
3.693526560E-1,-2.956106514E-2,-1.331579551E-4,2.077264152E-2
3.718403120E-1,-2.849580161E-2,9.321057005E-4,2.183790505E-2
3.743279680E-1,-2.636527456E-2,1.997369342E-3,2.183790505E-2
3.768156250E-1,-2.530001104E-2,3.062632866E-3,2.290316857E-2
3.793032810E-1,-2.530001104E-2,1.997369342E-3,2.077264152E-2
3.817909370E-1,-2.530001104E-2,9.321057005E-4,2.077264152E-2
3.842785930E-1,-2.530001104E-2,-1.331579551E-4,2.077264152E-2
3.867662500E-1,-2.636527456E-2,-1.198421582E-3,2.183790505E-2
3.892539060E-1,-2.636527456E-2,-3.328948980E-3,2.290316857E-2
3.917415620E-1,-2.849580161E-2,-5.459476262E-3,2.396843210E-2
3.942292180E-1,-3.062633052E-2,-9.720530361E-3,2.609895915E-2
3.967168750E-1,-3.169159219E-2,-1.291632187E-2,2.822948620E-2
3.992045310E-1,-3.382211924E-2,-1.611211337E-2,2.929474972E-2
4.016921870E-1,-3.488738462E-2,-2.037316747E-2,3.036001325E-2
4.041798430E-1,-3.701791167E-2,-2.356895804E-2,3.142527863E-2
4.066675000E-1,-3.701791167E-2,-2.569948509E-2,3.249054030E-2
4.091551560E-1,-3.808317333E-2,-2.676474862E-2,3.249054030E-2
4.116428120E-1,-3.808317333E-2,-2.783001214E-2,3.249054030E-2
4.141304680E-1,-3.808317333E-2,-2.783001214E-2,3.142527863E-2
4.166181250E-1,-3.914843872E-2,-2.783001214E-2,2.929474972E-2
4.191057810E-1,-3.914843872E-2,-2.889527567E-2,2.822948620E-2
4.215934370E-1,-4.021370411E-2,-2.889527567E-2,2.609895915E-2
4.240810930E-1,-4.127896577E-2,-2.996053919E-2,2.503369562E-2
4.265687500E-1,-4.234423116E-2,-3.209106624E-2,2.503369562E-2
4.290564060E-1,-4.340949282E-2,-3.528685868E-2,2.396843210E-2
4.315440620E-1,-4.660528526E-2,-3.848264739E-2,2.290316857E-2
4.340317180E-1,-4.873581231E-2,-4.167843983E-2,2.183790505E-2
4.365193750E-1,-5.086633936E-2,-4.593949392E-2,2.183790505E-2
4.390070310E-1,-5.299686641E-2,-5.020054802E-2,2.183790505E-2
4.414946870E-1,-5.619265884E-2,-5.339634046E-2,2.077264152E-2
4.439823430E-1,-5.832318589E-2,-5.659212917E-2,1.970737800E-2
4.464700000E-1,-6.045371294E-2,-5.765739456E-2,1.970737800E-2
4.489576560E-1,-6.258423626E-2,-5.872265995E-2,1.864211448E-2
4.514453120E-1,-6.364950538E-2,-5.872265995E-2,1.757685095E-2
4.539329680E-1,-6.471476704E-2,-5.659212917E-2,1.651158556E-2
4.564206250E-1,-6.684529036E-2,-5.339634046E-2,1.544632297E-2
4.589082810E-1,-6.791055948E-2,-5.020054802E-2,1.331579592E-2
4.613959370E-1,-6.791055948E-2,-4.913528636E-2,1.331579592E-2
4.638835930E-1,-7.004108280E-2,-4.593949392E-2,1.331579592E-2
4.663712500E-1,-7.110634446E-2,-4.487423226E-2,1.225053146E-2
4.688589060E-1,-7.323687524E-2,-4.274370521E-2,1.331579592E-2
4.713465620E-1,-7.323687524E-2,-4.167843983E-2,1.438105945E-2
4.738342180E-1,-7.536740601E-2,-3.848264739E-2,1.651158556E-2
4.763218750E-1,-7.643266767E-2,-3.635212034E-2,1.970737800E-2
4.788095310E-1,-7.749792933E-2,-3.528685868E-2,2.183790505E-2
4.812971870E-1,-7.856319100E-2,-3.315633163E-2,2.503369562E-2
4.837848430E-1,-7.856319100E-2,-3.102580272E-2,2.716422267E-2
4.862725000E-1,-7.962846011E-2,-2.889527567E-2,2.929474972E-2
4.887601560E-1,-7.856319100E-2,-2.676474862E-2,3.249054030E-2
4.912478120E-1,-7.856319100E-2,-2.250369452E-2,3.462106735E-2
4.937354680E-1,-7.749792933E-2,-1.930790395E-2,3.675159439E-2
4.962231250E-1,-7.536740601E-2,-1.398158539E-2,3.994738683E-2
4.987107810E-1,-7.430213690E-2,-9.720530361E-3,4.314317927E-2
5.011984370E-1,-7.217161357E-2,-4.394212738E-3,4.740423337E-2
5.036860930E-1,-7.004108280E-2,9.321057005E-4,4.953476042E-2
5.061737500E-1,-6.791055948E-2,4.127896391E-3,5.273054913E-2
5.086614060E-1,-6.578002870E-2,6.258423906E-3,5.592634156E-2
5.111490620E-1,-6.258423626E-2,8.388951421E-3,5.805686861E-2
5.136367180E-1,-6.151897460E-2,9.454214945E-3,6.125266105E-2
5.161243750E-1,-5.938844755E-2,1.051947847E-2,6.338318437E-2
5.186120310E-1,-5.832318589E-2,1.051947847E-2,6.444845349E-2
5.210996870E-1,-5.725792050E-2,1.051947847E-2,6.551371515E-2
5.235873430E-1,-5.725792050E-2,9.454214945E-3,6.551371515E-2
5.260750000E-1,-5.619265884E-2,9.454214945E-3,6.444845349E-2
5.285626560E-1,-5.619265884E-2,6.258423906E-3,6.444845349E-2
5.310503120E-1,-5.725792050E-2,4.127896391E-3,6.231792271E-2
5.335379680E-1,-5.832318589E-2,1.997369342E-3,6.125266105E-2
5.360256250E-1,-5.832318589E-2,-1.198421582E-3,5.912213027E-2
5.385132810E-1,-5.832318589E-2,-3.328948980E-3,5.912213027E-2
5.410009370E-1,-5.938844755E-2,-5.459476262E-3,5.912213027E-2
5.434885930E-1,-5.938844755E-2,-5.459476262E-3,6.018739566E-2
5.459762500E-1,-5.725792050E-2,-4.394212738E-3,6.018739566E-2
5.484639060E-1,-5.619265884E-2,-2.263685223E-3,6.125266105E-2
5.509515620E-1,-5.512739345E-2,-1.331579551E-4,6.231792271E-2
5.534392180E-1,-5.193160102E-2,3.062632866E-3,6.231792271E-2
5.559268750E-1,-5.086633936E-2,6.258423906E-3,6.125266105E-2
5.584145310E-1,-4.767054692E-2,8.388951421E-3,5.912213027E-2
5.609021870E-1,-4.447475821E-2,1.158474199E-2,5.805686861E-2
5.633898430E-1,-4.234423116E-2,1.371526904E-2,5.699160323E-2
5.658775000E-1,-3.914843872E-2,1.584579609E-2,5.699160323E-2
5.683651560E-1,-3.701791167E-2,1.797632314E-2,5.699160323E-2
5.708528120E-1,-3.382211924E-2,2.010685205E-2,5.805686861E-2
5.733404680E-1,-3.169159219E-2,2.223737910E-2,6.018739566E-2
5.758281250E-1,-3.062633052E-2,2.436790615E-2,6.231792271E-2
5.783157810E-1,-2.743053809E-2,2.649843320E-2,6.551371515E-2
5.808034370E-1,-2.530001104E-2,2.862896025E-2,6.870950758E-2
5.832910930E-1,-2.316948399E-2,3.182475269E-2,6.977476925E-2
5.857787500E-1,-2.210422046E-2,3.608580679E-2,7.084003091E-2
5.882664060E-1,-2.210422046E-2,4.034686089E-2,7.190529257E-2
5.907540620E-1,-2.210422046E-2,4.567318037E-2,7.190529257E-2
5.932417180E-1,-2.423474751E-2,4.993423447E-2,7.084003091E-2
5.957293750E-1,-2.636527456E-2,5.632581562E-2,6.870950758E-2
5.982170310E-1,-3.062633052E-2,6.165213138E-2,6.764423847E-2
6.007046870E-1,-3.595264629E-2,6.591318548E-2,6.551371515E-2
6.031923430E-1,-4.340949282E-2,7.017423958E-2,6.444845349E-2
6.056800000E-1,-5.086633936E-2,7.230477035E-2,6.338318437E-2
6.081676560E-1,-6.045371294E-2,7.123950869E-2,6.231792271E-2
6.106553120E-1,-7.004108280E-2,6.910897791E-2,6.231792271E-2
6.131429680E-1,-8.069372177E-2,6.378266215E-2,6.125266105E-2
6.156306250E-1,-9.134636074E-2,5.739107728E-2,6.018739566E-2
6.181182810E-1,-1.009337306E-1,4.993423447E-2,6.018739566E-2
6.206059370E-1,-1.105211005E-1,4.141212255E-2,6.018739566E-2
6.230935930E-1,-1.179779470E-1,3.182475269E-2,5.912213027E-2
6.255812500E-1,-1.254348010E-1,2.223737910E-2,5.805686861E-2
6.280689060E-1,-1.307611167E-1,1.371526904E-2,5.592634156E-2
6.305565620E-1,-1.350221634E-1,5.193160381E-3,5.486107618E-2
6.330442180E-1,-1.382179558E-1,-3.328948980E-3,5.273054913E-2
6.355318750E-1,-1.403484792E-1,-1.078579482E-2,5.060002208E-2
6.380195310E-1,-1.414137483E-1,-1.717737690E-2,4.953476042E-2
6.405071870E-1,-1.424790174E-1,-2.250369452E-2,4.953476042E-2
6.429948430E-1,-1.414137483E-1,-2.783001214E-2,4.953476042E-2
6.454825000E-1,-1.403484792E-1,-2.996053919E-2,5.060002208E-2
6.479701560E-1,-1.382179558E-1,-2.996053919E-2,5.273054913E-2
6.504578120E-1,-1.350221634E-1,-2.783001214E-2,5.486107618E-2
6.529454680E-1,-1.286305785E-1,-2.250369452E-2,5.592634156E-2
6.554331250E-1,-1.222390011E-1,-1.504684892E-2,5.805686861E-2
6.579207810E-1,-1.147821546E-1,-5.459476262E-3,5.912213027E-2
6.604084370E-1,-1.073253155E-1,7.323687430E-3,6.018739566E-2
6.628960930E-1,-9.880319983E-2,1.904158667E-2,6.018739566E-2
6.653837500E-1,-9.028109163E-2,3.182475269E-2,5.912213027E-2
6.678714060E-1,-7.962846011E-2,4.354264960E-2,5.699160323E-2
6.703590620E-1,-7.110634446E-2,5.526055023E-2,5.273054913E-2
6.728467180E-1,-6.258423626E-2,6.697845459E-2,4.953476042E-2
6.753343750E-1,-5.406212807E-2,7.869634777E-2,4.420844093E-2
6.778220310E-1,-4.447475821E-2,8.721846342E-2,3.994738683E-2
6.803096870E-1,-3.701791167E-2,9.467530251E-2,3.462106735E-2
6.827973430E-1,-2.956106514E-2,1.000016257E-1,3.036001325E-2
6.852850000E-1,-2.210422046E-2,1.042626798E-1,2.609895915E-2
6.877726560E-1,-1.571263932E-2,1.053279415E-1,2.183790505E-2
6.902603120E-1,-8.255792782E-3,1.042626798E-1,1.864211448E-2
6.927479680E-1,-2.929474926E-3,1.010668874E-1,1.438105945E-2
6.952356250E-1,1.331579522E-3,9.680583328E-2,1.118526794E-2
6.977232810E-1,5.592633970E-3,9.254477918E-2,6.924213842E-3
7.002109370E-1,9.853689000E-3,8.721846342E-2,3.728422802E-3
7.026985930E-1,1.411474310E-2,8.082687855E-2,5.326318205E-4
7.051862500E-1,1.731053367E-2,7.550056279E-2,-2.663159044E-3
7.076739060E-1,2.050632425E-2,7.017423958E-2,-4.793686327E-3
7.101615620E-1,2.157158963E-2,6.484792382E-2,-7.989477366E-3
7.126492180E-1,2.370211668E-2,5.952160433E-2,-1.012000442E-2
7.151370830E-1,2.476738021E-2,5.313002318E-2,-1.118526794E-2
7.176249480E-1,2.689790726E-2,4.673844203E-2,-1.438105945E-2
7.201128120E-1,2.796317078E-2,3.928159550E-2,-1.544632297E-2
7.226006770E-1,2.902843431E-2,3.182475269E-2,-1.864211448E-2
7.250885410E-1,3.009369783E-2,2.436790615E-2,-2.183790505E-2
7.275763540E-1,2.902843431E-2,1.797632314E-2,-2.503369562E-2
7.300640100E-1,2.902843431E-2,1.158474199E-2,-2.822948620E-2
7.325516660E-1,2.796317078E-2,6.258423906E-3,-3.142527863E-2
7.350393230E-1,2.583264373E-2,1.997369342E-3,-3.249054030E-2
7.375269790E-1,2.370211668E-2,-1.331579551E-4,-3.249054030E-2
7.400146350E-1,2.157158963E-2,-2.263685223E-3,-3.142527863E-2
7.425022910E-1,1.944106072E-2,-2.263685223E-3,-2.929474972E-2
7.449899480E-1,1.731053367E-2,-1.331579551E-4,-2.822948620E-2
7.474776040E-1,1.731053367E-2,9.321057005E-4,-2.609895915E-2
7.499652600E-1,1.731053367E-2,4.127896391E-3,-2.290316857E-2
7.524529160E-1,1.837579720E-2,7.323687430E-3,-2.077264152E-2
7.549405730E-1,2.050632425E-2,1.051947847E-2,-1.864211448E-2
7.574282290E-1,2.157158963E-2,1.478053257E-2,-1.651158556E-2
7.599158850E-1,2.476738021E-2,1.797632314E-2,-1.544632297E-2
7.624035410E-1,2.689790726E-2,2.223737910E-2,-1.331579592E-2
7.648911980E-1,3.009369783E-2,2.649843320E-2,-1.118526794E-2
7.673788540E-1,3.328948840E-2,3.182475269E-2,-9.054740891E-3
7.698665100E-1,3.648528084E-2,3.608580679E-2,-5.858949851E-3
7.723541660E-1,3.861580789E-2,3.928159550E-2,-1.597895520E-3
7.748418230E-1,3.968106955E-2,4.141212255E-2,2.663159044E-3
7.773294790E-1,4.181159660E-2,4.141212255E-2,7.989477366E-3
7.798171350E-1,4.181159660E-2,3.821633384E-2,1.331579592E-2
7.823047910E-1,4.074633494E-2,3.502054140E-2,1.757685095E-2
7.847924480E-1,3.968106955E-2,2.969422378E-2,2.077264152E-2
7.872801040E-1,3.755054250E-2,2.330264263E-2,2.396843210E-2
7.897677600E-1,3.542001545E-2,1.584579609E-2,2.503369562E-2
7.922554160E-1,3.435475379E-2,1.051947847E-2,2.503369562E-2
7.947430730E-1,3.222422674E-2,6.258423906E-3,2.609895915E-2
7.972307290E-1,3.009369783E-2,1.997369342E-3,2.503369562E-2
7.997183850E-1,2.902843431E-2,-1.331579551E-4,2.503369562E-2
8.022060410E-1,2.689790726E-2,-2.263685223E-3,2.503369562E-2
8.046936980E-1,2.476738021E-2,-5.459476262E-3,2.290316857E-2
8.071813540E-1,2.157158963E-2,-8.655266836E-3,2.077264152E-2
8.096690100E-1,1.837579720E-2,-1.185105834E-2,1.757685095E-2
8.121566660E-1,1.518000662E-2,-1.717737690E-2,1.438105945E-2
8.146443230E-1,1.198421605E-2,-2.250369452E-2,1.225053146E-2
8.171319790E-1,8.788425475E-3,-2.996053919E-2,9.054740891E-3
8.196196350E-1,5.592633970E-3,-3.635212034E-2,5.858949851E-3
8.221072910E-1,2.396843163E-3,-4.380896688E-2,3.728422802E-3
8.245949480E-1,2.663159103E-4,-5.020054802E-2,5.326318205E-4
8.270826040E-1,-2.929474926E-3,-5.552686751E-2,-1.597895520E-3
8.295702600E-1,-5.060002208E-3,-6.191844866E-2,-3.728422802E-3
8.320579160E-1,-6.125265732E-3,-6.724476814E-2,-3.728422802E-3
8.345455730E-1,-7.190529723E-3,-7.150582224E-2,-4.793686327E-3
8.370332290E-1,-7.190529723E-3,-7.576687634E-2,-5.858949851E-3
8.395208850E-1,-7.190529723E-3,-7.789740711E-2,-5.858949851E-3
8.420085410E-1,-7.190529723E-3,-7.789740711E-2,-5.858949851E-3
8.444961980E-1,-5.060002208E-3,-7.896266878E-2,-4.793686327E-3
8.469838540E-1,-2.929474926E-3,-7.683213800E-2,-3.728422802E-3
8.494715100E-1,-1.864211401E-3,-7.470161468E-2,-1.597895520E-3
8.519591660E-1,-7.989477599E-4,-7.044056058E-2,-5.326318205E-4
8.544468230E-1,1.331579522E-3,-6.831002980E-2,1.597895520E-3
8.569344790E-1,2.396843163E-3,-6.617950648E-2,3.728422802E-3
8.594221350E-1,4.527370445E-3,-6.404897571E-2,4.793686327E-3
8.619097910E-1,5.592633970E-3,-6.191844866E-2,6.924213842E-3
8.643974480E-1,6.657897960E-3,-6.085318699E-2,9.054740891E-3
8.668851040E-1,6.657897960E-3,-6.085318699E-2,1.118526794E-2
8.693727600E-1,6.657897960E-3,-6.191844866E-2,1.331579592E-2
8.718604160E-1,6.657897960E-3,-6.191844866E-2,1.438105945E-2
8.743480730E-1,7.723161485E-3,-6.191844866E-2,1.651158556E-2
8.768357290E-1,6.657897960E-3,-6.298371404E-2,1.757685095E-2
8.793233850E-1,5.592633970E-3,-6.298371404E-2,1.864211448E-2
8.818110410E-1,3.462106921E-3,-6.511423737E-2,1.864211448E-2
8.842986980E-1,2.396843163E-3,-6.617950648E-2,1.970737800E-2
8.867863540E-1,2.663159103E-4,-6.724476814E-2,1.864211448E-2
8.892740100E-1,-7.989477599E-4,-6.831002980E-2,1.864211448E-2
8.917616660E-1,-2.929474926E-3,-6.937529147E-2,1.864211448E-2
8.942493230E-1,-3.994738683E-3,-7.044056058E-2,1.864211448E-2
8.967369790E-1,-5.060002208E-3,-7.257108390E-2,1.970737800E-2
8.992246350E-1,-7.190529723E-3,-7.363634557E-2,2.077264152E-2
9.017122910E-1,-7.190529723E-3,-7.363634557E-2,2.396843210E-2
9.041999480E-1,-8.255792782E-3,-7.363634557E-2,2.822948620E-2
9.066876040E-1,-7.190529723E-3,-7.363634557E-2,3.142527863E-2
9.091752600E-1,-6.125265732E-3,-7.363634557E-2,3.568633273E-2
9.116629160E-1,-3.994738683E-3,-7.363634557E-2,3.888212144E-2
9.141505730E-1,-1.864211401E-3,-7.363634557E-2,4.207791388E-2
9.166382290E-1,2.663159103E-4,-7.257108390E-2,4.420844093E-2
9.191258850E-1,1.331579522E-3,-7.257108390E-2,4.633896798E-2
9.216135410E-1,1.331579522E-3,-7.257108390E-2,4.846949503E-2
9.241011980E-1,2.396843163E-3,-7.150582224E-2,4.953476042E-2
9.265888540E-1,3.462106921E-3,-7.257108390E-2,5.166528746E-2
9.290765100E-1,4.527370445E-3,-7.150582224E-2,5.273054913E-2
9.315641660E-1,5.592633970E-3,-7.150582224E-2,5.486107618E-2
9.340518230E-1,6.657897960E-3,-7.150582224E-2,5.805686861E-2
9.365394790E-1,6.657897960E-3,-7.150582224E-2,6.231792271E-2
9.390271350E-1,6.657897960E-3,-7.044056058E-2,6.764423847E-2
9.415147910E-1,6.657897960E-3,-6.937529147E-2,7.190529257E-2
9.440024480E-1,4.527370445E-3,-6.937529147E-2,7.723161578E-2
9.464901040E-1,2.396843163E-3,-6.937529147E-2,8.255793154E-2
9.489777600E-1,2.663159103E-4,-6.937529147E-2,8.894951642E-2
9.514654160E-1,-1.864211401E-3,-6.937529147E-2,9.427583218E-2
9.539530730E-1,-6.125265732E-3,-6.831002980E-2,9.960214794E-2
9.564407290E-1,-9.321057238E-3,-6.724476814E-2,1.059937328E-1
9.589283850E-1,-1.251684781E-2,-6.511423737E-2,1.123853177E-1
9.614160410E-1,-1.571263932E-2,-6.085318699E-2,1.209074259E-1
9.639036980E-1,-1.784316637E-2,-5.552686751E-2,1.272990108E-1
9.663913540E-1,-2.103895694E-2,-4.807002097E-2,1.347558498E-1
9.688790100E-1,-2.316948399E-2,-4.061317816E-2,1.422126889E-1
9.713666660E-1,-2.636527456E-2,-3.209106624E-2,1.486042738E-1
9.738543230E-1,-2.849580161E-2,-2.676474862E-2,1.549958587E-1
9.763419790E-1,-3.062633052E-2,-2.356895804E-2,1.613874435E-1
9.788296350E-1,-3.275685757E-2,-2.250369452E-2,1.677790284E-1
9.813172910E-1,-3.595264629E-2,-2.356895804E-2,1.731053442E-1
9.838049480E-1,-3.701791167E-2,-2.569948509E-2,1.784316599E-1
9.862926040E-1,-3.808317333E-2,-2.889527567E-2,1.848232448E-1
9.887802600E-1,-3.808317333E-2,-3.209106624E-2,1.901495606E-1
9.912679160E-1,-3.701791167E-2,-3.528685868E-2,1.965411454E-1
9.937555730E-1,-3.488738462E-2,-3.741738573E-2,2.029327303E-1
9.962432290E-1,-3.275685757E-2,-3.954791278E-2,2.071937770E-1
9.987308850E-1,-2.956106514E-2,-4.167843983E-2,2.114548385E-1
1.001218541E0,-2.636527456E-2,-4.274370521E-2,2.146506310E-1
1.003706198E0,-2.210422046E-2,-4.380896688E-2,2.146506310E-1
1.006193854E0,-1.784316637E-2,-4.593949392E-2,2.135853618E-1
1.008681510E0,-1.464737486E-2,-4.807002097E-2,2.093243003E-1
1.011169166E0,-1.358211134E-2,-5.126581341E-2,2.050632536E-1
1.013656823E0,-1.358211134E-2,-5.446160212E-2,1.997369379E-1
1.016144479E0,-1.464737486E-2,-5.872265995E-2,1.922800839E-1
1.018632135E0,-1.677790284E-2,-6.511423737E-2,1.848232448E-1
1.021119791E0,-1.890842989E-2,-7.363634557E-2,1.763011366E-1
1.023607448E0,-2.210422046E-2,-8.322372288E-2,1.677790284E-1
1.026095104E0,-2.530001104E-2,-9.281109273E-2,1.581916511E-1
1.028582760E0,-2.849580161E-2,-1.023984700E-1,1.475390196E-1
1.031070416E0,-3.169159219E-2,-1.119858399E-1,1.368863732E-1
1.033558073E0,-3.701791167E-2,-1.215732098E-1,1.251684725E-1
1.036045729E0,-4.234423116E-2,-1.300953180E-1,1.134505793E-1
1.038533385E0,-4.980107397E-2,-1.364869028E-1,1.017326787E-1
1.041021041E0,-5.619265884E-2,-1.428784877E-1,8.894951642E-2
1.043508698E0,-6.364950538E-2,-1.492700726E-1,7.829687744E-2
1.045996354E0,-7.110634446E-2,-1.535311192E-1,6.764423847E-2
1.048484010E0,-7.749792933E-2,-1.567269117E-1,5.805686861E-2
1.050971666E0,-8.282424510E-2,-1.599227041E-1,4.953476042E-2
1.053459323E0,-8.815056831E-2,-1.609879732E-1,4.207791388E-2
1.055946979E0,-9.241162241E-2,-1.609879732E-1,3.568633273E-2
1.058434635E0,-9.667267650E-2,-1.609879732E-1,2.716422267E-2
1.060922291E0,-9.773793817E-2,-1.599227041E-1,1.970737800E-2
1.063409948E0,-9.880319983E-2,-1.577921808E-1,1.225053146E-2
1.065897604E0,-9.880319983E-2,-1.535311192E-1,4.793686327E-3
1.068385260E0,-9.667267650E-2,-1.471395344E-1,-2.663159044E-3
1.070872916E0,-9.454214573E-2,-1.396826953E-1,-9.054740891E-3
1.073360573E0,-9.241162241E-2,-1.290300637E-1,-1.438105945E-2
1.075848229E0,-8.921582997E-2,-1.183774248E-1,-1.651158556E-2
1.078335885E0,-8.495477587E-2,-1.066595241E-1,-1.757685095E-2
1.080823541E0,-7.856319100E-2,-9.600688517E-2,-1.864211448E-2
1.083311198E0,-7.217161357E-2,-8.428898454E-2,-1.757685095E-2
1.085798854E0,-6.578002870E-2,-7.363634557E-2,-1.651158556E-2
1.088286510E0,-5.938844755E-2,-6.404897571E-2,-1.438105945E-2
1.090774166E0,-5.193160102E-2,-5.446160212E-2,-1.331579592E-2
1.093261823E0,-4.660528526E-2,-4.487423226E-2,-1.331579592E-2
1.095749479E0,-4.234423116E-2,-3.741738573E-2,-1.331579592E-2
1.098237135E0,-3.914843872E-2,-3.102580272E-2,-1.544632297E-2
1.100724791E0,-3.701791167E-2,-2.783001214E-2,-1.864211448E-2
1.103212448E0,-3.701791167E-2,-2.569948509E-2,-2.183790505E-2
1.105700104E0,-3.808317333E-2,-2.569948509E-2,-2.503369562E-2
1.108187760E0,-4.021370411E-2,-2.676474862E-2,-2.929474972E-2
1.110675416E0,-4.234423116E-2,-2.889527567E-2,-3.355580568E-2
1.113163073E0,-4.447475821E-2,-3.315633163E-2,-3.781685978E-2
1.115650729E0,-4.767054692E-2,-3.635212034E-2,-4.101264849E-2
1.118138437E0,-4.980107397E-2,-3.848264739E-2,-4.420844093E-2
1.120626145E0,-5.086633936E-2,-3.848264739E-2,-4.633896798E-2
1.123113854E0,-5.086633936E-2,-3.635212034E-2,-4.740423337E-2
1.125601562E0,-5.086633936E-2,-3.315633163E-2,-4.846949503E-2
1.128089270E0,-4.873581231E-2,-2.783001214E-2,-4.846949503E-2
1.130576979E0,-4.767054692E-2,-2.037316747E-2,-4.953476042E-2
1.133064687E0,-4.767054692E-2,-1.185105834E-2,-4.953476042E-2
1.135552395E0,-4.767054692E-2,-3.328948980E-3,-4.953476042E-2
1.138040104E0,-4.767054692E-2,5.193160381E-3,-5.166528746E-2
1.140527812E0,-4.980107397E-2,1.265000552E-2,-5.166528746E-2
1.143015520E0,-5.086633936E-2,1.797632314E-2,-5.166528746E-2
1.145503229E0,-5.086633936E-2,2.010685205E-2,-5.060002208E-2
1.147990937E0,-5.193160102E-2,2.117211558E-2,-5.060002208E-2
1.150478645E0,-5.086633936E-2,2.223737910E-2,-4.846949503E-2
1.152966354E0,-4.873581231E-2,2.330264263E-2,-4.633896798E-2
1.155454062E0,-4.660528526E-2,2.543316968E-2,-4.314317927E-2
1.157941770E0,-4.447475821E-2,3.075948730E-2,-4.207791388E-2
1.160429479E0,-4.234423116E-2,3.715106845E-2,-3.994738683E-2
1.162917187E0,-4.021370411E-2,4.460791498E-2,-3.888212144E-2
1.165404895E0,-3.914843872E-2,5.206476152E-2,-3.994738683E-2
1.167892604E0,-3.914843872E-2,5.952160433E-2,-4.101264849E-2
1.170380312E0,-4.021370411E-2,6.484792382E-2,-4.207791388E-2
1.172868020E0,-4.234423116E-2,6.804371625E-2,-4.420844093E-2
1.175355729E0,-4.340949282E-2,7.017423958E-2,-4.633896798E-2
1.177843437E0,-4.660528526E-2,6.910897791E-2,-4.740423337E-2
1.180331145E0,-4.980107397E-2,6.804371625E-2,-4.846949503E-2
1.182818854E0,-5.299686641E-2,6.591318548E-2,-5.166528746E-2
1.185306562E0,-5.832318589E-2,6.271740049E-2,-5.486107618E-2
1.187794270E0,-6.258423626E-2,5.952160433E-2,-5.912213027E-2
1.190281927E0,-6.684529036E-2,5.739107728E-2,-6.444845349E-2
1.192769583E0,-7.004108280E-2,5.632581562E-2,-7.190529257E-2
1.195257239E0,-7.536740601E-2,5.632581562E-2,-7.936213911E-2
1.197744895E0,-7.962846011E-2,5.739107728E-2,-8.681898564E-2
1.200232552E0,-8.495477587E-2,5.739107728E-2,-9.427583218E-2
1.202720208E0,-9.028109163E-2,5.739107728E-2,-1.006674170E-1
1.205207864E0,-9.454214573E-2,5.419528857E-2,-1.081242561E-1
1.207695520E0,-9.986846894E-2,4.780370742E-2,-1.145158410E-1
1.210183177E0,-1.051947847E-1,3.928159550E-2,-1.209074259E-1
1.212670833E0,-1.115863696E-1,2.862896025E-2,-1.283642650E-1
1.215158489E0,-1.179779470E-1,1.797632314E-2,-1.358211190E-1
1.217646145E0,-1.233042628E-1,1.051947847E-2,-1.443432271E-1
1.220133802E0,-1.286305785E-1,5.193160381E-3,-1.518000662E-1
1.222621458E0,-1.318263710E-1,3.062632866E-3,-1.592569202E-1
1.225109114E0,-1.350221634E-1,3.062632866E-3,-1.645832360E-1
1.227596770E0,-1.371526867E-1,4.127896391E-3,-1.699095517E-1
1.230084427E0,-1.392832249E-1,3.062632866E-3,-1.741705984E-1
1.232572083E0,-1.414137483E-1,-1.331579551E-4,-1.784316599E-1
1.235059739E0,-1.435442716E-1,-4.394212738E-3,-1.805621833E-1
1.237547395E0,-1.456748098E-1,-1.078579482E-2,-1.805621833E-1
1.240035052E0,-1.456748098E-1,-1.717737690E-2,-1.784316599E-1
1.242522708E0,-1.446095407E-1,-2.356895804E-2,-1.741705984E-1
1.245010364E0,-1.435442716E-1,-2.996053919E-2,-1.688442826E-1
1.247498020E0,-1.403484792E-1,-3.635212034E-2,-1.613874435E-1
1.249985677E0,-1.371526867E-1,-4.380896688E-2,-1.539305896E-1
1.252473333E0,-1.328916401E-1,-5.233107507E-2,-1.464737505E-1
1.254961666E0,-1.307611167E-1,-6.085318699E-2,-1.411474347E-1
1.257448906E0,-1.275653243E-1,-6.724476814E-2,-1.368863732E-1
1.259936145E0,-1.233042628E-1,-7.363634557E-2,-1.347558498E-1
1.262423385E0,-1.190432087E-1,-7.896266878E-2,-1.336905807E-1
1.264910677E0,-1.147821546E-1,-8.322372288E-2,-1.347558498E-1
1.267398020E0,-1.083905771E-1,-8.535424620E-2,-1.358211190E-1
1.269885416E0,-1.030642539E-1,-8.428898454E-2,-1.390169114E-1
1.272372864E0,-9.667267650E-2,-8.002793044E-2,-1.432779580E-1
1.274860364E0,-8.921582997E-2,-7.150582224E-2,-1.475390196E-1
1.277347916E0,-8.175898343E-2,-6.085318699E-2,-1.518000662E-1
1.279835520E0,-7.217161357E-2,-4.807002097E-2,-1.560611278E-1
1.282323177E0,-6.258423626E-2,-3.422159329E-2,-1.613874435E-1
1.284810885E0,-5.193160102E-2,-2.356895804E-2,-1.667137593E-1
1.287298645E0,-4.340949282E-2,-1.611211337E-2,-1.741705984E-1
1.289786458E0,-3.701791167E-2,-1.185105834E-2,-1.826927215E-1
1.292274323E0,-3.275685757E-2,-1.185105834E-2,-1.901495606E-1
1.294762239E0,-3.382211924E-2,-1.611211337E-2,-1.954758763E-1
1.297250208E0,-3.808317333E-2,-2.356895804E-2,-1.986716688E-1
1.299738177E0,-4.873581231E-2,-3.315633163E-2,-1.986716688E-1
1.302226145E0,-6.151897460E-2,-4.380896688E-2,-1.933453530E-1
1.304714114E0,-7.643266767E-2,-5.765739456E-2,-1.837579757E-1
1.307202083E0,-9.241162241E-2,-7.363634557E-2,-1.677790284E-1
1.309689895E0,-1.083905771E-1,-9.068056941E-2,-1.486042738E-1
1.312177552E0,-1.243695319E-1,-1.098553166E-1,-1.262337416E-1
1.314665208E0,-1.392832249E-1,-1.279647946E-1,-1.027979404E-1
1.317152864E0,-1.531316489E-1,-1.439437568E-1,-8.042740822E-2
1.319640520E0,-1.648495495E-1,-1.535311192E-1,-6.018739566E-2
1.322128177E0,-1.733716577E-1,-1.556616426E-1,-3.994738683E-2
1.324615833E0,-1.786979735E-1,-1.524658650E-1,-1.970737800E-2
1.327103489E0,-1.818937659E-1,-1.418132186E-1,5.326318205E-4
1.329591145E0,-1.818937659E-1,-1.268995255E-1,1.970737800E-2
1.332078802E0,-1.797632426E-1,-1.098553166E-1,3.994738683E-2
1.334566458E0,-1.765674502E-1,-9.068056941E-2,5.912213027E-2
1.337054114E0,-1.744369268E-1,-7.257108390E-2,7.829687744E-2
1.339541770E0,-1.701758653E-1,-5.765739456E-2,9.640636295E-2
1.342029427E0,-1.680453420E-1,-4.593949392E-2,1.134505793E-1
1.344517083E0,-1.648495495E-1,-3.848264739E-2,1.283642650E-1
1.347004739E0,-1.627190262E-1,-3.528685868E-2,1.422126889E-1
1.349492395E0,-1.605884880E-1,-3.422159329E-2,1.539305896E-1
1.351980052E0,-1.595232338E-1,-3.315633163E-2,1.645832360E-1
1.354467708E0,-1.563274413E-1,-3.315633163E-2,1.752358675E-1
1.356955364E0,-1.552621722E-1,-3.209106624E-2,1.858884990E-1
1.359443020E0,-1.541969180E-1,-3.315633163E-2,1.965411454E-1
1.361930677E0,-1.541969180E-1,-3.635212034E-2,2.061285079E-1
1.364418333E0,-1.552621722E-1,-4.274370521E-2,2.135853618E-1
1.366905989E0,-1.563274413E-1,-5.126581341E-2,2.199769467E-1
1.369393645E0,-1.573926955E-1,-6.191844866E-2,2.253032625E-1
1.371881302E0,-1.584579647E-1,-7.150582224E-2,2.295643091E-1
1.374368958E0,-1.605884880E-1,-8.109319210E-2,2.338253707E-1
1.376856614E0,-1.605884880E-1,-8.641951531E-2,2.370211631E-1
1.379344270E0,-1.595232338E-1,-8.961530030E-2,2.434127480E-1
1.381831927E0,-1.563274413E-1,-8.961530030E-2,2.519348562E-1
1.384319583E0,-1.510011256E-1,-8.748477697E-2,2.604569495E-1
1.386807239E0,-1.478053331E-1,-7.576687634E-2,2.689790726E-1
1.389294895E0,-1.488705873E-1,-5.339634046E-2,2.817622423E-1
1.391782552E0,-1.382179558E-1,-4.167843983E-2,2.988064587E-1
1.394270208E0,-1.201084778E-1,-2.356895804E-2,3.190464675E-1
1.396757864E0,-1.009337306E-1,9.454214945E-3,3.414169848E-1
1.399245520E0,-7.962846011E-2,3.608580679E-2,3.595264852E-1
1.401733177E0,-5.725792050E-2,5.099949613E-2,3.701791167E-1
1.404220833E0,-4.021370411E-2,5.526055023E-2,3.723096550E-1
1.406708489E0,-2.849580161E-2,5.526055023E-2,3.723096550E-1
1.409196145E0,-2.423474751E-2,4.886896908E-2,3.733749092E-1
1.411683802E0,-2.423474751E-2,4.141212255E-2,3.797664940E-1
1.414171458E0,-2.636527456E-2,3.182475269E-2,3.925496638E-1
1.416659114E0,-2.743053809E-2,1.904158667E-2,4.127896726E-1
1.419146770E0,-2.423474751E-2,7.323687430E-3,4.362254739E-1
1.421634427E0,-1.784316637E-2,-2.263685223E-3,4.617917836E-1
1.424122083E0,-6.125265732E-3,-9.720530361E-3,4.852275848E-1
1.426609739E0,8.788425475E-3,-1.185105834E-2,5.022718310E-1
1.429097395E0,2.370211668E-2,-8.655266836E-3,5.161202550E-1
1.431585052E0,3.861580789E-2,-2.263685223E-3,5.235770941E-1
1.434072708E0,5.352949724E-2,5.193160381E-3,5.267728567E-1
1.436560364E0,6.631266326E-2,9.454214945E-3,5.257076025E-1
1.439048020E0,7.909582555E-2,7.323687430E-3,5.246423483E-1
1.441535677E0,9.294424951E-2,-1.331579551E-4,5.235770941E-1
1.444023333E0,1.057274193E-1,-1.504684892E-2,5.235770941E-1
1.446510989E0,1.195758432E-1,-3.315633163E-2,5.257076025E-1
1.448998645E0,1.323590130E-1,-5.339634046E-2,5.289034247E-1
1.451486302E0,1.462074369E-1,-7.363634557E-2,5.331644416E-1
1.453973958E0,1.589905918E-1,-9.281109273E-2,5.374255180E-1
1.456461614E0,1.728390306E-1,-1.087900475E-1,5.406212807E-1
1.458949270E0,1.866874546E-1,-1.205079481E-1,5.438171029E-1
1.461436927E0,2.005358785E-1,-1.290300637E-1,5.491434336E-1
1.463924583E0,2.122537792E-1,-1.343563795E-1,5.544697046E-1
1.466412239E0,2.261022031E-1,-1.386174262E-1,5.597960353E-1
1.468899895E0,2.378201038E-1,-1.418132186E-1,5.661876202E-1
1.471387552E0,2.495380044E-1,-1.482048035E-1,5.715139508E-1
1.473875208E0,2.623211741E-1,-1.535311192E-1,5.736444592E-1
1.476362864E0,2.761695981E-1,-1.588574350E-1,5.736444592E-1
1.478850520E0,2.900180221E-1,-1.609879732E-1,5.715139508E-1
1.481338177E0,3.049317300E-1,-1.599227041E-1,5.693834424E-1
1.483825833E0,3.198454082E-1,-1.567269117E-1,5.693834424E-1
1.486313489E0,3.347590864E-1,-1.503353268E-1,5.693834424E-1
1.488801145E0,3.496727943E-1,-1.450090110E-1,5.715139508E-1
1.491288802E0,3.667170107E-1,-1.407479644E-1,5.747097135E-1
1.493776458E0,3.837612271E-1,-1.354216337E-1,5.800360441E-1
1.496264114E0,4.029359818E-1,-1.279647946E-1,5.842971206E-1
1.498751770E0,4.231759906E-1,-1.183774248E-1,5.885581374E-1
1.501239427E0,4.466117918E-1,-1.066595241E-1,5.949497223E-1
1.503727083E0,4.711128473E-1,-9.068056941E-2,6.013413072E-1
1.506214739E0,4.977444410E-1,-7.576687634E-2,6.077328920E-1
1.508702395E0,5.265065432E-1,-6.085318699E-2,6.141244769E-1
1.511190052E0,5.542033911E-1,-4.700475931E-2,6.194508076E-1
1.513677708E0,5.797697306E-1,-3.741738573E-2,6.247771382E-1
1.516165364E0,6.021402478E-1,-3.422159329E-2,6.269076467E-1
1.518653020E0,6.213150024E-1,-3.741738573E-2,6.269076467E-1
1.521140677E0,6.383592486E-1,-4.487423226E-2,6.237118840E-1
1.523628333E0,6.500771642E-1,-5.659212917E-2,6.173202991E-1
1.526115989E0,6.596645117E-1,-6.937529147E-2,6.098634601E-1
1.528603645E0,6.649908423E-1,-8.322372288E-2,6.013413072E-1
1.531091302E0,6.681866050E-1,-9.600688517E-2,5.928192139E-1
1.533578958E0,6.681866050E-1,-1.066595241E-1,5.864276290E-1
1.536066614E0,6.692518592E-1,-1.173121557E-1,5.789707899E-1
1.538554270E0,6.713824272E-1,-1.258342713E-1,5.747097135E-1
1.541041927E0,6.756434441E-1,-1.332911104E-1,5.693834424E-1
1.543529583E0,6.831002831E-1,-1.364869028E-1,5.640571117E-1
1.546017239E0,6.948181987E-1,-1.364869028E-1,5.597960353E-1
1.548504895E0,7.086666226E-1,-1.322258562E-1,5.555350184E-1
1.550992552E0,7.246456146E-1,-1.226384789E-1,5.512739420E-1
1.553480208E0,7.406245470E-1,-1.077247858E-1,5.491434336E-1
1.555967864E0,7.587340474E-1,-8.855003864E-2,5.470128655E-1
1.558455520E0,7.789740562E-1,-6.617950648E-2,5.470128655E-1
1.560943177E0,8.002793193E-1,-4.274370521E-2,5.523391962E-1
1.563430833E0,8.226498365E-1,-1.717737690E-2,5.608612895E-1
1.565918489E0,8.460856676E-1,6.258423906E-3,5.736444592E-1
1.568406145E0,8.705866933E-1,2.436790615E-2,5.885581374E-1
1.570893802E0,8.961530328E-1,3.715106845E-2,6.056023836E-1
1.573381458E0,9.206541181E-1,4.460791498E-2,6.226465702E-1
1.575869114E0,9.440898895E-1,4.780370742E-2,6.396908164E-1
1.578356770E0,9.653951526E-1,4.567318037E-2,6.567350626E-1
1.580844427E0,9.867004752E-1,4.460791498E-2,6.737792492E-1
1.583332083E0,1.008005738E0,4.567318037E-2,6.908234954E-1
1.585819739E0,1.028245687E0,5.313002318E-2,7.099981904E-1
1.588307395E0,1.052746773E0,6.591318548E-2,7.302381992E-1
1.590795052E0,1.080443621E0,8.295740932E-2,7.536740303E-1
1.593282708E0,1.112401605E0,1.031974182E-1,7.771098018E-1
1.595770364E0,1.145424724E0,1.245026886E-1,8.005456328E-1
1.598258020E0,1.180578470E0,1.436774284E-1,8.218508959E-1
1.600745677E0,1.215732098E0,1.607216448E-1,8.399603963E-1
1.603233333E0,1.250885844E0,1.745700836E-1,8.538088202E-1
1.605720989E0,1.283908963E0,1.862879843E-1,8.644614220E-1
1.608208645E0,1.312671065E0,1.958753467E-1,8.719182611E-1
1.610696302E0,1.340368032E0,2.043974549E-1,8.783098459E-1
1.613183958E0,1.366999626E0,2.118543088E-1,8.836361766E-1
1.615671614E0,1.392565846E0,2.161153555E-1,8.878972530E-1
1.618159270E0,1.414936423E0,2.161153555E-1,8.910930157E-1
1.620646927E0,1.434111118E0,2.118543088E-1,8.910930157E-1
1.623134583E0,1.451155424E0,2.012016773E-1,8.857667446E-1
1.625622291E0,1.463938594E0,1.830921918E-1,8.772445917E-1
1.628110000E0,1.472460628E0,1.596563905E-1,8.644614220E-1
1.630597708E0,1.477787018E0,1.308942735E-1,8.516782522E-1
1.633085416E0,1.479917526E0,9.893636405E-2,8.388951421E-1
1.635573125E0,1.478852272E0,6.378266215E-2,8.271772265E-1
1.638060833E0,1.476721764E0,2.756369673E-2,8.154593110E-1
1.640548541E0,1.474591136E0,-9.720530361E-3,8.048067093E-1
1.643036250E0,1.471395373E0,-4.807002097E-2,7.941540480E-1
1.645523958E0,1.466069102E0,-8.322372288E-2,7.813708782E-1
1.648011666E0,1.459677458E0,-1.183774248E-1,7.685877085E-1
1.650499375E0,1.453285933E0,-1.514005959E-1,7.558045387E-1
1.652987083E0,1.447959661E0,-1.822932363E-1,7.430213690E-1
1.655474791E0,1.442633271E0,-2.078595608E-1,7.302381992E-1
1.657962500E0,1.437307000E0,-2.270343155E-1,7.195855975E-1
1.660450208E0,1.431980610E0,-2.376869470E-1,7.099981904E-1
1.662937916E0,1.427719593E0,-2.408827394E-1,7.036066055E-1
1.665425625E0,1.423458576E0,-2.355564237E-1,6.982803345E-1
1.667913333E0,1.421328068E0,-2.227732539E-1,6.940192580E-1
1.670401041E0,1.420262694E0,-2.046637833E-1,6.918887496E-1
1.672888750E0,1.422393322E0,-1.822932363E-1,6.908234954E-1
1.675376458E0,1.427719593E0,-1.577921808E-1,6.908234954E-1
1.677864166E0,1.437307000E0,-1.279647946E-1,6.908234954E-1
1.680351875E0,1.450090170E0,-9.494162351E-2,6.918887496E-1
1.682839583E0,1.463938594E0,-5.552686751E-2,6.929540038E-1
1.685327291E0,1.479917526E0,-1.291632187E-2,6.940192580E-1
1.687815000E0,1.494831204E0,2.862896025E-2,6.961497664E-1
1.690302708E0,1.509744883E0,7.017423958E-2,6.972150803E-1
1.692790416E0,1.523593307E0,1.063932031E-1,6.972150803E-1
1.695278125E0,1.535311222E0,1.372858584E-1,6.961497664E-1
1.697765833E0,1.545963883E0,1.617869139E-1,6.929540038E-1
1.700253541E0,1.554485917E0,1.798963994E-1,6.897581816E-1
1.702741198E0,1.560877562E0,1.937448233E-1,6.854971647E-1
1.705228854E0,1.563008070E0,2.012016773E-1,6.823013425E-1
1.707716510E0,1.564073324E0,2.065279931E-1,6.791055799E-1
1.710204166E0,1.563008070E0,2.097237855E-1,6.748445034E-1
1.712691823E0,1.558747053E0,2.129195631E-1,6.695181727E-1
1.715180104E0,1.550224900E0,2.161153555E-1,6.631265879E-1
1.717667187E0,1.538506985E0,2.171806246E-1,6.556697488E-1
1.720154270E0,1.522528052E0,2.139848322E-1,6.471476555E-1
1.722641354E0,1.503353357E0,2.033322006E-1,6.375603080E-1
1.725128489E0,1.478852272E0,1.862879843E-1,6.279729009E-1
1.727615677E0,1.449024916E0,1.617869139E-1,6.194508076E-1
1.730102968E0,1.413871169E0,1.308942735E-1,6.119939685E-1
1.732590364E0,1.374456406E0,9.254477918E-2,6.045371294E-1
1.735077864E0,1.332911134E0,4.993423447E-2,5.949497223E-1
1.737565468E0,1.291365862E0,6.258423906E-3,5.842971206E-1
1.740053177E0,1.251951098E0,-3.422159329E-2,5.736444592E-1
1.742540989E0,1.216797352E0,-6.724476814E-2,5.629918575E-1
1.745028906E0,1.186969995E0,-8.855003864E-2,5.512739420E-1
1.747516875E0,1.163534164E0,-9.707214683E-2,5.406212807E-1
1.750004895E0,1.147555232E0,-9.068056941E-2,5.320991874E-1
1.752492968E0,1.137967944E0,-7.257108390E-2,5.235770941E-1
1.754981093E0,1.134772062E0,-4.380896688E-2,5.139896870E-1
1.757469218E0,1.136902571E0,-8.655266836E-3,5.012065172E-1
1.759957343E0,1.143294215E0,2.969422378E-2,4.862928391E-1
1.762445208E0,1.151816368E0,7.017423958E-2,4.660528302E-1
1.764932864E0,1.162468910E0,1.106542572E-1,4.426170290E-1
1.767420520E0,1.176317334E0,1.500690132E-1,4.159854650E-1
1.769908177E0,1.191231012E0,1.873532385E-1,3.872233331E-1
1.772395833E0,1.208275318E0,2.225069404E-1,3.573959470E-1
1.774883489E0,1.226384759E0,2.555301189E-1,3.296990991E-1
1.777371145E0,1.245559454E0,2.832269669E-1,3.030675054E-1
1.779858802E0,1.263669014E0,3.045322299E-1,2.817622423E-1
1.782346458E0,1.282843709E0,3.205111921E-1,2.625874877E-1
1.784834114E0,1.298822641E0,3.290333152E-1,2.487390637E-1
1.787321770E0,1.309475303E0,3.300985694E-1,2.370211631E-1
1.789809427E0,1.316932201E0,3.215764761E-1,2.306295782E-1
1.792297083E0,1.317997456E0,3.034669757E-1,2.263685167E-1
1.794784739E0,1.314801693E0,2.779006660E-1,2.263685167E-1
1.797272395E0,1.306279540E0,2.448774725E-1,2.263685167E-1
1.799760052E0,1.293496370E0,2.075932473E-1,2.284990549E-1
1.802247708E0,1.277517438E0,1.681784987E-1,2.316948473E-1
1.804735364E0,1.261538506E0,1.319595277E-1,2.348906398E-1
1.807223020E0,1.242363691E0,9.680583328E-2,2.370211631E-1
1.809710677E0,1.223188996E0,6.591318548E-2,2.380864173E-1
1.812198333E0,1.204014182E0,4.141212255E-2,2.359558940E-1
1.814685989E0,1.185904741E0,2.649843320E-2,2.306295782E-1
1.817173645E0,1.168860555E0,2.330264263E-2,2.221074700E-1
1.819661302E0,1.153946877E0,3.289001435E-2,2.103895694E-1
1.822148958E0,1.141163707E0,5.526055023E-2,1.965411454E-1
1.824636614E0,1.129445791E0,8.828372508E-2,1.826927215E-1
1.827124270E0,1.118793130E0,1.287637353E-1,1.656484902E-1
1.829611927E0,1.107075214E0,1.756353378E-1,1.475390196E-1
1.832099583E0,1.094292045E0,2.225069404E-1,1.283642650E-1
1.834587239E0,1.079378366E0,2.704437971E-1,1.070589945E-1
1.837074895E0,1.061268926E0,3.162501454E-1,8.788424730E-2
1.839562552E0,1.045289993E0,3.482080400E-1,6.657897681E-2
1.842050208E0,1.027180433E0,3.833617568E-1,3.994738683E-2
1.844537864E0,1.004809976E0,4.270375669E-1,1.118526794E-2
1.847025520E0,9.845699072E-1,4.664523304E-1,-1.544632297E-2
1.849513177E0,9.621993899E-1,5.090628862E-1,-3.675159439E-2
1.852000833E0,9.366330504E-1,5.538039207E-1,-5.166528746E-2
1.854488489E0,9.078709483E-1,5.921534300E-1,-6.018739566E-2
1.856976145E0,8.769782782E-1,6.209155321E-1,-6.231792271E-2
1.859463802E0,8.428898454E-1,6.422207952E-1,-6.018739566E-2
1.861951458E0,8.109319210E-1,6.507429481E-1,-5.486107618E-2
1.864439114E0,7.843003273E-1,6.496776342E-1,-4.633896798E-2
1.866926770E0,7.640603185E-1,6.390250325E-1,-3.568633273E-2
1.869414427E0,7.491466403E-1,6.273071170E-1,-2.290316857E-2
1.871902083E0,7.384940386E-1,6.177197695E-1,-7.989477366E-3
1.874389739E0,7.289066315E-1,6.134586930E-1,9.054740891E-3
1.876877395E0,7.193192840E-1,6.134586930E-1,2.716422267E-2
1.879365052E0,7.086666226E-1,6.113281846E-1,4.740423337E-2
1.881852708E0,6.948181987E-1,6.006755233E-1,7.084003091E-2
1.884340364E0,6.767086983E-1,5.815007687E-1,9.640636295E-2
1.886828020E0,6.543381810E-1,5.506081581E-1,1.230379492E-1
1.889315677E0,6.277065873E-1,5.111933947E-1,1.507348120E-1
1.891803333E0,5.978792310E-1,4.664523304E-1,1.773663908E-1
1.894290989E0,5.648560524E-1,4.217112362E-1,2.029327303E-1
1.896778645E0,5.318328738E-1,3.822965026E-1,2.263685167E-1
1.899266302E0,4.998749495E-1,3.503385782E-1,2.487390637E-1
1.901753958E0,4.721781015E-1,3.300985694E-1,2.668485343E-1
1.904241614E0,4.476770461E-1,3.194459379E-1,2.817622423E-1
1.906729270E0,4.285022914E-1,3.194459379E-1,2.902843356E-1
1.909216927E0,4.114580750E-1,3.279680312E-1,2.902843356E-1
1.911704583E0,3.965443969E-1,3.450122476E-1,2.828274965E-1
1.914192239E0,3.816306889E-1,3.673827946E-1,2.668485343E-1
1.916679895E0,3.656517565E-1,3.961449265E-1,2.434127480E-1
1.919167552E0,3.496727943E-1,4.270375669E-1,2.157158852E-1
1.921655208E0,3.304980397E-1,4.579302073E-1,1.837579757E-1
1.924142864E0,3.081275225E-1,4.845618010E-1,1.496695429E-1
1.926630520E0,2.825611830E-1,5.048018098E-1,1.155811027E-1
1.929118177E0,2.537990510E-1,5.154544711E-1,8.042740822E-2
1.931605833E0,2.197106332E-1,5.154544711E-1,4.633896798E-2
1.934093489E0,1.813611388E-1,5.048018098E-1,1.331579592E-2
1.936581145E0,1.387505829E-1,4.834965467E-1,-1.864211448E-2
1.939068802E0,9.294424951E-2,4.536691606E-1,-4.953476042E-2
1.941556458E0,4.713791609E-2,4.163849354E-1,-7.510108501E-2
1.944044114E0,2.396843163E-3,3.748396337E-1,-9.640636295E-2
1.946531770E0,-3.808317333E-2,3.311638236E-1,-1.145158410E-1
1.949019427E0,-7.643266767E-2,2.896185517E-1,-1.272990108E-1
1.951507083E0,-1.083905771E-1,2.523343265E-1,-1.347558498E-1
1.953994739E0,-1.328916401E-1,2.214416862E-1,-1.390169114E-1
1.956482395E0,-1.520663798E-1,1.980058849E-1,-1.390169114E-1
1.958970052E0,-1.637842804E-1,1.820269227E-1,-1.347558498E-1
1.961457708E0,-1.701758653E-1,1.735048145E-1,-1.272990108E-1
1.963945364E0,-1.712411344E-1,1.724395454E-1,-1.187768951E-1
1.966433020E0,-1.680453420E-1,1.767006069E-1,-1.091895252E-1
1.968920677E0,-1.627190262E-1,1.862879843E-1,-9.853688627E-2
1.971408333E0,-1.541969180E-1,1.990711391E-1,-8.681898564E-2
1.973895989E0,-1.435442716E-1,2.139848322E-1,-7.616634667E-2
1.976383645E0,-1.307611167E-1,2.310290486E-1,-6.551371515E-2
1.978871302E0,-1.158474237E-1,2.533995807E-1,-5.592634156E-2
1.981358958E0,-9.667267650E-2,2.757701278E-1,-4.527370632E-2
1.983846614E0,-7.430213690E-2,3.024017215E-1,-3.675159439E-2
1.986334270E0,-4.767054692E-2,3.322291076E-1,-2.716422267E-2
1.988821927E0,-1.890842989E-2,3.673827946E-1,-1.864211448E-2
1.991309583E0,9.853689000E-3,4.025365114E-1,-9.054740891E-3
1.993797239E0,3.755054250E-2,4.355596602E-1,-5.326318205E-4
1.996284895E0,6.098634377E-2,4.632565379E-1,4.793686327E-3
1.998772552E0,8.229161799E-2,4.824312627E-1,7.989477366E-3
2.001260208E0,9.827057272E-2,4.952144325E-1,1.012000442E-2
2.003747864E0,1.121189967E-1,4.994754791E-1,1.118526794E-2
2.006235520E0,1.227716357E-1,4.962796867E-1,1.118526794E-2
2.008723177E0,1.323590130E-1,4.877575934E-1,1.118526794E-2
2.011210833E0,1.419463754E-1,4.760396779E-1,1.438105945E-2
2.013698489E0,1.515337527E-1,4.643217921E-1,1.864211448E-2
2.016186145E0,1.643169224E-1,4.515386224E-1,2.396843210E-2
2.018673802E0,1.781653464E-1,4.419512451E-1,3.036001325E-2
2.021161458E0,1.941442937E-1,4.366249442E-1,3.888212144E-2
2.023649114E0,2.111885101E-1,4.344944060E-1,4.740423337E-2
2.026136770E0,2.292979956E-1,4.366249442E-1,5.486107618E-2
2.028624427E0,2.474074811E-1,4.419512451E-1,6.338318437E-2
2.031112083E0,2.644517124E-1,4.515386224E-1,7.084003091E-2
2.033599791E0,2.825611830E-1,4.653870463E-1,7.936213911E-2
2.036087500E0,3.017359376E-1,4.834965467E-1,8.788424730E-2
2.038575208E0,3.219759464E-1,5.058670640E-1,9.747162461E-2
2.041062916E0,3.422159553E-1,5.293028951E-1,1.059937328E-1
2.043550625E0,3.613906801E-1,5.548691750E-1,1.134505793E-1
2.046038333E0,3.795001805E-1,5.772397518E-1,1.209074259E-1
2.048526041E0,3.954791129E-1,5.985450149E-1,1.272990108E-1
2.051013750E0,4.061317742E-1,6.145239472E-1,1.326253265E-1
2.053501458E0,4.114580750E-1,6.262418628E-1,1.368863732E-1
2.055989166E0,4.114580750E-1,6.315681934E-1,1.400821656E-1
2.058476875E0,4.071970284E-1,6.315681934E-1,1.432779580E-1
2.060964583E0,3.997401893E-1,6.262418628E-1,1.454084814E-1
2.063452291E0,3.890875578E-1,6.134586930E-1,1.475390196E-1
2.065940000E0,3.795001805E-1,5.964145064E-1,1.475390196E-1
2.068427708E0,3.688475490E-1,5.804355145E-1,1.464737505E-1
2.070915416E0,3.592601717E-1,5.655218363E-1,1.464737505E-1
2.073403125E0,3.486075401E-1,5.506081581E-1,1.454084814E-1
2.075890833E0,3.379548788E-1,5.356944799E-1,1.443432271E-1
2.078378541E0,3.273022473E-1,5.207807422E-1,1.411474347E-1
2.080866250E0,3.166496158E-1,5.026713014E-1,1.379516423E-1
2.083353958E0,3.059969842E-1,4.834965467E-1,1.358211190E-1
2.085841666E0,2.964096069E-1,4.643217921E-1,1.336905807E-1
2.088329375E0,2.878875136E-1,4.451470375E-1,1.315600574E-1
2.090817083E0,2.814959288E-1,4.281028211E-1,1.304948032E-1
2.093304791E0,2.751043439E-1,4.121238589E-1,1.294295341E-1
2.095792500E0,2.697780132E-1,3.972101808E-1,1.283642650E-1
2.098280208E0,2.676474750E-1,3.854922652E-1,1.262337416E-1
2.100767916E0,2.655169666E-1,3.759049177E-1,1.241032109E-1
2.103255625E0,2.665822208E-1,3.684480488E-1,1.209074259E-1
2.105743333E0,2.676474750E-1,3.652522564E-1,1.187768951E-1
2.108231041E0,2.708432674E-1,3.652522564E-1,1.134505793E-1
2.110718750E0,2.740390599E-1,3.684480488E-1,1.059937328E-1
2.113206406E0,2.761695981E-1,3.716438413E-1,9.853688627E-2
2.115694062E0,2.783001363E-1,3.759049177E-1,9.001477808E-2
2.118181718E0,2.793653905E-1,3.791007102E-1,8.042740822E-2
2.120669375E0,2.793653905E-1,3.801659644E-1,7.084003091E-2
2.123157031E0,2.783001363E-1,3.791007102E-1,6.338318437E-2
2.125644687E0,2.772348523E-1,3.769701719E-1,5.486107618E-2
2.128132343E0,2.740390599E-1,3.716438413E-1,4.846949503E-2
2.130620000E0,2.708432674E-1,3.631217480E-1,4.207791388E-2
2.133107656E0,2.655169666E-1,3.524691164E-1,3.888212144E-2
2.135595312E0,2.591253817E-1,3.386206925E-1,3.462106735E-2
2.138082968E0,2.516685426E-1,3.237069845E-1,3.249054030E-2
2.140570625E0,2.420811653E-1,3.066627681E-1,3.036001325E-2
2.143058281E0,2.314285189E-1,2.885532975E-1,2.716422267E-2
2.145545937E0,2.197106332E-1,2.693785429E-1,2.503369562E-2
2.148033593E0,2.058621943E-1,2.512690723E-1,2.396843210E-2
2.150521250E0,1.898832470E-1,2.342248410E-1,2.183790505E-2
2.153008906E0,1.717737615E-1,2.161153555E-1,2.077264152E-2
2.155496562E0,1.547295451E-1,1.990711391E-1,1.864211448E-2
2.157984218E0,1.387505829E-1,1.852227151E-1,1.651158556E-2
2.160471875E0,1.238368973E-1,1.735048145E-1,1.544632297E-2
2.162959531E0,1.142495275E-1,1.660479754E-1,1.331579592E-2
2.165447187E0,1.046621501E-1,1.617869139E-1,1.331579592E-2
2.167934843E0,9.827057272E-2,1.617869139E-1,1.544632297E-2
2.170422500E0,9.400951862E-2,1.628521830E-1,1.757685095E-2
2.172910156E0,9.081372619E-2,1.639174372E-1,2.077264152E-2
2.175397812E0,8.761793375E-2,1.628521830E-1,2.396843210E-2
2.177885468E0,8.548741043E-2,1.596563905E-1,2.822948620E-2
2.180373125E0,8.442214131E-2,1.532648057E-1,3.249054030E-2
2.182860781E0,8.442214131E-2,1.447426975E-1,3.781685978E-2
2.185348437E0,8.442214131E-2,1.362205893E-1,4.420844093E-2
2.187836093E0,8.655267209E-2,1.287637353E-1,4.953476042E-2
2.190323750E0,8.974846452E-2,1.213068962E-1,5.592634156E-2
2.192811406E0,9.400951862E-2,1.149153188E-1,6.231792271E-2
2.195299062E0,1.014663652E-1,1.085237339E-1,6.657897681E-2
2.197786718E0,1.110537350E-1,1.042626798E-1,7.190529257E-2
2.200274375E0,1.195758432E-1,1.000016257E-1,7.510108501E-2
2.202762031E0,1.291632205E-1,9.574057162E-2,7.829687744E-2
2.205249687E0,1.366200596E-1,9.147951752E-2,8.149266988E-2
2.207737343E0,1.451421678E-1,8.508793265E-2,8.362319320E-2
2.210225000E0,1.515337527E-1,7.869634777E-2,8.788424730E-2
2.212712656E0,1.557948142E-1,7.017423958E-2,9.001477808E-2
2.215200312E0,1.589905918E-1,6.058686972E-2,9.321057051E-2
2.217687968E0,1.600558609E-1,5.099949613E-2,9.427583218E-2
2.220175625E0,1.600558609E-1,4.034686089E-2,9.534109384E-2
2.222663281E0,1.589905918E-1,2.969422378E-2,9.534109384E-2
2.225150937E0,1.557948142E-1,1.584579609E-2,9.321057051E-2
2.227638593E0,1.504684836E-1,9.321057005E-4,8.894951642E-2
2.230126250E0,1.440769136E-1,-1.504684892E-2,8.255793154E-2
2.232613906E0,1.344895363E-1,-3.102580272E-2,7.510108501E-2
2.235101562E0,1.227716357E-1,-4.593949392E-2,6.657897681E-2
2.237589218E0,1.099884734E-1,-6.191844866E-2,5.912213027E-2
2.240076875E0,9.507478029E-2,-8.002793044E-2,5.060002208E-2
2.242564531E0,8.016108721E-2,-9.920267761E-2,4.314317927E-2
2.245052187E0,6.418213248E-2,-1.194426864E-1,3.568633273E-2
2.247539843E0,4.820318148E-2,-1.396826953E-1,2.716422267E-2
2.250027500E0,3.222422674E-2,-1.588574350E-1,1.970737800E-2
2.252515156E0,1.624527015E-2,-1.748363972E-1,1.331579592E-2
2.255002812E0,3.462106921E-3,-1.897500902E-1,6.924213842E-3
2.257490468E0,-8.255792782E-3,-2.014679909E-1,5.326318205E-4
2.259978125E0,-1.784316637E-2,-2.099900991E-1,-3.728422802E-3
2.262465781E0,-2.530001104E-2,-2.142511457E-1,-5.858949851E-3
2.264953437E0,-3.169159219E-2,-2.163816839E-1,-6.924213842E-3
2.267441093E0,-3.382211924E-2,-2.153164148E-1,-6.924213842E-3
2.269928750E0,-3.382211924E-2,-2.121206224E-1,-6.924213842E-3
2.272416406E0,-3.062633052E-2,-2.078595608E-1,-4.793686327E-3
2.274904062E0,-2.636527456E-2,-2.025332451E-1,-1.597895520E-3
2.277391718E0,-2.103895694E-2,-1.961416751E-1,2.663159044E-3
2.279879375E0,-1.464737486E-2,-1.908153445E-1,1.012000442E-2
2.282367031E0,-6.125265732E-3,-1.865542978E-1,1.757685095E-2
2.284854687E0,2.396843163E-3,-1.822932363E-1,2.609895915E-2
2.287342343E0,1.091895252E-2,-1.759016514E-1,3.568633273E-2
2.289830000E0,1.944106072E-2,-1.695100814E-1,4.420844093E-2
2.292317656E0,2.902843431E-2,-1.620532274E-1,5.486107618E-2
2.294805312E0,3.861580789E-2,-1.545963883E-1,6.444845349E-2
2.297292968E0,5.033370852E-2,-1.482048035E-1,7.403582335E-2
2.299780625E0,6.098634377E-2,-1.439437568E-1,8.042740822E-2
2.302268281E0,7.163897902E-2,-1.396826953E-1,8.681898564E-2
2.304755937E0,8.122635633E-2,-1.364869028E-1,9.214530140E-2
2.307243593E0,8.868319541E-2,-1.354216337E-1,9.534109384E-2
2.309731250E0,9.507478029E-2,-1.354216337E-1,9.640636295E-2
2.312218906E0,9.720530361E-2,-1.396826953E-1,9.640636295E-2
2.314706562E0,9.614004195E-2,-1.471395344E-1,9.427583218E-2
2.317194218E0,9.187898785E-2,-1.556616426E-1,9.001477808E-2
2.319681875E0,8.442214131E-2,-1.673795432E-1,8.575372398E-2
2.322169531E0,7.376950979E-2,-1.801627129E-1,8.149266988E-2
2.324657187E0,6.205160543E-2,-1.940111369E-1,7.616634667E-2
2.327144843E0,5.033370852E-2,-2.110553533E-1,6.870950758E-2
2.329632500E0,3.968106955E-2,-2.291648388E-1,6.231792271E-2
2.332120156E0,3.222422674E-2,-2.440785319E-1,5.486107618E-2
2.334607812E0,2.796317078E-2,-2.547311783E-1,4.740423337E-2
2.337095468E0,2.476738021E-2,-2.589922249E-1,4.101264849E-2
2.339583125E0,2.476738021E-2,-2.568616867E-1,3.675159439E-2
2.342070781E0,2.796317078E-2,-2.494048476E-1,3.355580568E-2
2.344558437E0,3.222422674E-2,-2.387522161E-1,3.249054030E-2
2.347046093E0,3.755054250E-2,-2.249037921E-1,3.355580568E-2
2.349533750E0,4.394212365E-2,-2.089248300E-1,3.568633273E-2
2.352021406E0,5.139897019E-2,-1.929458827E-1,3.994738683E-2
2.354509062E0,5.885581672E-2,-1.759016514E-1,4.420844093E-2
2.356996718E0,6.524740160E-2,-1.599227041E-1,4.953476042E-2
2.359484375E0,7.163897902E-2,-1.450090110E-1,5.592634156E-2
2.361972031E0,7.696529478E-2,-1.311605871E-1,6.125266105E-2
2.364459739E0,8.122635633E-2,-1.194426864E-1,6.764423847E-2
2.366947448E0,8.229161799E-2,-1.098553166E-1,7.297056168E-2
2.369435156E0,8.229161799E-2,-1.023984700E-1,7.829687744E-2
2.371922864E0,7.803056389E-2,-9.707214683E-2,8.362319320E-2
2.374410573E0,7.163897902E-2,-9.494162351E-2,8.681898564E-2
2.376898281E0,6.311687082E-2,-9.494162351E-2,8.894951642E-2
2.379385989E0,5.139897019E-2,-9.707214683E-2,9.001477808E-2
2.381873698E0,3.861580789E-2,-1.023984700E-1,9.001477808E-2
2.384361406E0,2.476738021E-2,-1.109205782E-1,8.894951642E-2
2.386849114E0,9.853689000E-3,-1.205079481E-1,8.681898564E-2
2.389336823E0,-3.994738683E-3,-1.311605871E-1,8.468846232E-2
2.391824531E0,-1.784316637E-2,-1.396826953E-1,8.042740822E-2
2.394312239E0,-2.849580161E-2,-1.471395344E-1,7.723161578E-2
2.396799948E0,-3.914843872E-2,-1.514005959E-1,7.297056168E-2
2.399287656E0,-4.767054692E-2,-1.545963883E-1,6.870950758E-2
2.401775364E0,-5.512739345E-2,-1.556616426E-1,6.444845349E-2
2.404263073E0,-6.151897460E-2,-1.556616426E-1,6.018739566E-2
2.406750781E0,-6.684529036E-2,-1.545963883E-1,5.805686861E-2
2.409238489E0,-7.110634446E-2,-1.535311192E-1,5.592634156E-2
2.411726198E0,-7.323687524E-2,-1.524658650E-1,5.379581451E-2
2.414213906E0,-7.323687524E-2,-1.503353268E-1,5.486107618E-2
2.416701614E0,-7.110634446E-2,-1.471395344E-1,5.592634156E-2
2.419189323E0,-6.684529036E-2,-1.428784877E-1,5.912213027E-2
2.421677031E0,-6.045371294E-2,-1.364869028E-1,6.231792271E-2
2.424164739E0,-5.086633936E-2,-1.268995255E-1,6.657897681E-2
2.426652448E0,-4.021370411E-2,-1.141163707E-1,6.977476925E-2
2.429140156E0,-2.636527456E-2,-1.002679393E-1,7.297056168E-2
2.431627864E0,-1.145158429E-2,-8.535424620E-2,7.510108501E-2
2.434115573E0,3.462106921E-3,-6.831002980E-2,7.723161578E-2
2.436603281E0,1.944106072E-2,-5.126581341E-2,8.042740822E-2
2.439090989E0,3.328948840E-2,-3.635212034E-2,8.255793154E-2
2.441578698E0,4.500738904E-2,-2.569948509E-2,8.468846232E-2
2.444066354E0,5.672528967E-2,-2.037316747E-2,8.681898564E-2
2.446554010E0,6.737792492E-2,-1.930790395E-2,9.214530140E-2
2.449041666E0,7.696529478E-2,-2.143843099E-2,9.534109384E-2
2.451529323E0,8.335687965E-2,-2.463422157E-2,1.017326787E-1
2.454016979E0,9.081372619E-2,-2.889527567E-2,1.059937328E-1
2.456504635E0,9.507478029E-2,-3.422159329E-2,1.123853177E-1
2.458992291E0,9.933583438E-2,-4.167843983E-2,1.155811027E-1
2.461479948E0,1.004010960E-1,-4.913528636E-2,1.166463718E-1
2.463967604E0,1.004010960E-1,-5.552686751E-2,1.177116334E-1
2.466455260E0,9.933583438E-2,-6.298371404E-2,1.155811027E-1
2.468942916E0,9.933583438E-2,-7.150582224E-2,1.123853177E-1
2.471430573E0,9.933583438E-2,-8.002793044E-2,1.081242561E-1
2.473918229E0,9.827057272E-2,-8.641951531E-2,1.038632020E-1
2.476405885E0,9.933583438E-2,-8.961530030E-2,9.960214794E-2
2.478893541E0,1.004010960E-1,-9.068056941E-2,9.747162461E-2
2.481381198E0,1.014663652E-1,-8.961530030E-2,9.534109384E-2
2.483868854E0,1.014663652E-1,-8.855003864E-2,9.214530140E-2
2.486356510E0,1.014663652E-1,-8.535424620E-2,9.001477808E-2
2.488844166E0,9.933583438E-2,-8.109319210E-2,8.788424730E-2
2.491331823E0,9.720530361E-2,-7.789740711E-2,8.575372398E-2
2.493819479E0,9.507478029E-2,-7.363634557E-2,8.468846232E-2
2.496307135E0,9.294424951E-2,-6.724476814E-2,8.362319320E-2
2.498794791E0,8.974846452E-2,-5.978792161E-2,8.255793154E-2
2.501282448E0,8.655267209E-2,-5.020054802E-2,8.255793154E-2
2.503770104E0,8.335687965E-2,-4.274370521E-2,8.149266988E-2
2.506257760E0,8.016108721E-2,-3.528685868E-2,8.149266988E-2
2.508745416E0,7.590003312E-2,-2.996053919E-2,8.042740822E-2
2.511233073E0,7.057371736E-2,-2.463422157E-2,8.042740822E-2
2.513720729E0,6.418213248E-2,-2.143843099E-2,7.936213911E-2
2.516208385E0,5.672528967E-2,-1.824264042E-2,7.723161578E-2
2.518696041E0,4.820318148E-2,-1.611211337E-2,7.403582335E-2
2.521183698E0,3.861580789E-2,-1.611211337E-2,7.084003091E-2
2.523671354E0,2.902843431E-2,-1.504684892E-2,6.657897681E-2
2.526159010E0,1.944106072E-2,-1.504684892E-2,6.125266105E-2
2.528646666E0,1.091895252E-2,-1.398158539E-2,5.592634156E-2
2.531134323E0,3.462106921E-3,-1.291632187E-2,5.060002208E-2
2.533621979E0,-2.929474926E-3,-1.185105834E-2,4.527370632E-2
2.536109635E0,-9.321057238E-3,-1.078579482E-2,4.101264849E-2
2.538597291E0,-1.464737486E-2,-9.720530361E-3,3.675159439E-2
2.541084948E0,-1.890842989E-2,-9.720530361E-3,3.355580568E-2
2.543572604E0,-2.210422046E-2,-9.720530361E-3,3.142527863E-2
2.546060260E0,-2.423474751E-2,-1.078579482E-2,3.142527863E-2
2.548547916E0,-2.423474751E-2,-9.720530361E-3,3.249054030E-2
2.551035573E0,-2.316948399E-2,-6.524739787E-3,3.462106735E-2
2.553523229E0,-1.997369342E-2,-2.263685223E-3,3.675159439E-2
2.556010885E0,-1.677790284E-2,5.193160381E-3,3.994738683E-2
2.558498541E0,-1.251684781E-2,1.265000552E-2,4.314317927E-2
2.560986198E0,-7.190529723E-3,2.223737910E-2,4.633896798E-2
2.563473854E0,-7.989477599E-4,3.289001435E-2,4.953476042E-2
2.565961510E0,5.592633970E-3,4.460791498E-2,5.166528746E-2
2.568449166E0,1.198421605E-2,5.739107728E-2,5.379581451E-2
2.570936823E0,1.731053367E-2,6.910897791E-2,5.486107618E-2
2.573424479E0,2.050632425E-2,7.976161689E-2,5.486107618E-2
2.575912135E0,2.157158963E-2,8.615319431E-2,5.486107618E-2
2.578399791E0,1.837579720E-2,9.041424841E-2,5.379581451E-2
2.580887448E0,1.198421605E-2,9.041424841E-2,5.060002208E-2
2.583375104E0,3.462106921E-3,8.615319431E-2,4.633896798E-2
2.585862760E0,-1.038632076E-2,7.656582445E-2,4.101264849E-2
2.588350416E0,-2.636527456E-2,6.591318548E-2,3.675159439E-2
2.590838073E0,-4.554001987E-2,5.206476152E-2,3.249054030E-2
2.593325729E0,-6.578002870E-2,3.502054140E-2,2.609895915E-2
2.595813385E0,-8.708529919E-2,1.797632314E-2,2.077264152E-2
2.598301041E0,-1.094558388E-1,-1.331579551E-4,1.331579592E-2
2.600788698E0,-1.307611167E-1,-1.611211337E-2,5.858949851E-3
2.603276354E0,-1.531316489E-1,-2.783001214E-2,-3.728422802E-3
2.605764010E0,-1.744369268E-1,-3.741738573E-2,-1.331579592E-2
2.608251666E0,-1.946769357E-1,-4.167843983E-2,-2.183790505E-2
2.610739323E0,-2.149169445E-1,-4.487423226E-2,-3.142527863E-2
2.613226979E0,-2.340916842E-1,-4.593949392E-2,-3.994738683E-2
2.615714635E0,-2.532664239E-1,-4.380896688E-2,-4.953476042E-2
2.618202291E0,-2.724411786E-1,-4.061317816E-2,-5.805686861E-2
2.620689948E0,-2.894853950E-1,-3.528685868E-2,-6.444845349E-2
2.623177604E0,-3.075948656E-1,-2.676474862E-2,-7.084003091E-2
2.625665260E0,-3.257043660E-1,-1.824264042E-2,-7.616634667E-2
2.628152916E0,-3.438138366E-1,-7.590003312E-3,-8.149266988E-2
2.630640573E0,-3.608580530E-1,3.062632866E-3,-8.468846232E-2
2.633128229E0,-3.789675534E-1,1.371526904E-2,-8.788424730E-2
2.635615885E0,-3.970770240E-1,2.223737910E-2,-8.894951642E-2
2.638103541E0,-4.151864946E-1,2.969422378E-2,-9.001477808E-2
2.640591198E0,-4.322307110E-1,3.608580679E-2,-9.108003974E-2
2.643078854E0,-4.492749274E-1,4.141212255E-2,-9.214530140E-2
2.645566510E0,-4.673844278E-1,4.354264960E-2,-9.321057051E-2
2.648054166E0,-4.844286442E-1,4.567318037E-2,-9.427583218E-2
2.650541823E0,-5.025381446E-1,4.460791498E-2,-9.640636295E-2
2.653029479E0,-5.217128396E-1,4.354264960E-2,-9.747162461E-2
2.655517135E0,-5.419528484E-1,4.247738793E-2,-1.006674170E-1
2.658004791E0,-5.632581711E-1,4.034686089E-2,-1.038632020E-1
2.660492448E0,-5.856286883E-1,3.715106845E-2,-1.059937328E-1
2.662980104E0,-6.079992056E-1,3.182475269E-2,-1.081242561E-1
2.665467760E0,-6.325002909E-1,2.543316968E-2,-1.102547869E-1
2.667955416E0,-6.580666304E-1,1.904158667E-2,-1.134505793E-1
2.670443073E0,-6.846982241E-1,1.051947847E-2,-1.166463718E-1
2.672930729E0,-7.091992497E-1,3.062632866E-3,-1.198421568E-1
2.675418385E0,-7.337003350E-1,-4.394212738E-3,-1.241032109E-1
2.677906093E0,-7.560708523E-1,-9.720530361E-3,-1.294295341E-1
2.680393802E0,-7.784414291E-1,-1.078579482E-2,-1.358211190E-1
2.682881510E0,-8.008119464E-1,-8.655266836E-3,-1.432779580E-1
2.685369218E0,-8.210519552E-1,-4.394212738E-3,-1.486042738E-1
2.687856927E0,-8.423572183E-1,1.997369342E-3,-1.560611278E-1
2.690344635E0,-8.636624813E-1,7.323687430E-3,-1.635179669E-1
2.692832343E0,-8.849677444E-1,1.051947847E-2,-1.709748209E-1
2.695320052E0,-9.062730670E-1,1.265000552E-2,-1.805621833E-1
2.697807760E0,-9.275783300E-1,1.051947847E-2,-1.901495606E-1
2.700295468E0,-9.488835931E-1,6.258423906E-3,-2.008021921E-1
2.702783177E0,-9.723193645E-1,9.321057005E-4,-2.114548385E-1
2.705270885E0,-9.957551956E-1,-3.328948980E-3,-2.231727391E-1
2.707758593E0,-1.018125772E0,-7.590003312E-3,-2.327601016E-1
2.710246302E0,-1.038365722E0,-1.185105834E-2,-2.434127480E-1
2.712734010E0,-1.058605790E0,-1.611211337E-2,-2.530001104E-1
2.715221718E0,-1.075649977E0,-2.143843099E-2,-2.636527419E-1
2.717709427E0,-1.090563655E0,-2.463422157E-2,-2.732401192E-1
2.720197135E0,-1.104412079E0,-2.889527567E-2,-2.838927507E-1
2.722684843E0,-1.118260503E0,-3.422159329E-2,-2.934801280E-1
2.725172552E0,-1.131043673E0,-3.954791278E-2,-3.041327596E-1
2.727660260E0,-1.144892097E0,-4.487423226E-2,-3.137201369E-1
2.730147968E0,-1.159805775E0,-5.126581341E-2,-3.243727684E-1
2.732635677E0,-1.174719453E0,-5.765739456E-2,-3.339601457E-1
2.735123385E0,-1.188567877E0,-6.404897571E-2,-3.435475230E-1
2.737611093E0,-1.203481555E0,-7.044056058E-2,-3.499391079E-1
2.740098802E0,-1.218395233E0,-7.789740711E-2,-3.563306928E-1
2.742586510E0,-1.232243776E0,-8.641951531E-2,-3.616569936E-1
2.745074218E0,-1.243961573E0,-9.707214683E-2,-3.659180701E-1
2.747561927E0,-1.255679488E0,-1.066595241E-1,-3.701791167E-1
2.750049635E0,-1.266332150E0,-1.151816323E-1,-3.744401634E-1
2.752537343E0,-1.275919557E0,-1.237037405E-1,-3.776359558E-1
2.755025052E0,-1.285506845E0,-1.290300637E-1,-3.818970025E-1
2.757512760E0,-1.294028997E0,-1.343563795E-1,-3.840275407E-1
2.760000416E0,-1.301485896E0,-1.396826953E-1,-3.882885873E-1
2.762488073E0,-1.310007930E0,-1.460742801E-1,-3.925496638E-1
2.764975729E0,-1.317464828E0,-1.545963883E-1,-3.968107104E-1
2.767463385E0,-1.325986862E0,-1.673795432E-1,-4.021370113E-1
2.769951041E0,-1.334509015E0,-1.822932363E-1,-4.063980877E-1
2.772438698E0,-1.341965914E0,-1.993374527E-1,-4.106591344E-1
2.774926354E0,-1.349422693E0,-2.185122073E-1,-4.138549268E-1
2.777414010E0,-1.354749084E0,-2.376869470E-1,-4.159854650E-1
2.779901666E0,-1.359010100E0,-2.536658943E-1,-4.159854650E-1
2.782389323E0,-1.359010100E0,-2.685796022E-1,-4.159854650E-1
2.784876979E0,-1.353683829E0,-2.781669796E-1,-4.149201810E-1
2.787364635E0,-1.344096422E0,-2.856238186E-1,-4.138549268E-1
2.789852291E0,-1.330247998E0,-2.888196111E-1,-4.127896726E-1
2.792339948E0,-1.313203812E0,-2.877543271E-1,-4.127896726E-1
2.794827604E0,-1.294028997E0,-2.856238186E-1,-4.149201810E-1
2.797315260E0,-1.272723794E0,-2.813627720E-1,-4.170507193E-1
2.799802916E0,-1.250353217E0,-2.781669796E-1,-4.202465117E-1
2.802290573E0,-1.230113149E0,-2.771016955E-1,-4.223770201E-1
2.804778229E0,-1.210938454E0,-2.749711871E-1,-4.234423041E-1
2.807265885E0,-1.193894267E0,-2.760364413E-1,-4.213117659E-1
2.809753541E0,-1.177915215E0,-2.781669796E-1,-4.202465117E-1
2.812241198E0,-1.163001537E0,-2.824280262E-1,-4.159854650E-1
2.814728854E0,-1.150218368E0,-2.866890728E-1,-4.106591344E-1
2.817216510E0,-1.137435198E0,-2.909501195E-1,-4.042675495E-1
2.819704166E0,-1.126782656E0,-2.930806577E-1,-3.989412189E-1
2.822191823E0,-1.118260503E0,-2.930806577E-1,-3.925496638E-1
2.824679479E0,-1.109738350E0,-2.898848653E-1,-3.882885873E-1
2.827167135E0,-1.103346825E0,-2.845585644E-1,-3.850927949E-1
2.829654791E0,-1.096955180E0,-2.771016955E-1,-3.829622865E-1
2.832142448E0,-1.091628909E0,-2.696448565E-1,-3.818970025E-1
2.834630104E0,-1.087367892E0,-2.589922249E-1,-3.808317482E-1
2.837117760E0,-1.080976248E0,-2.451438010E-1,-3.765707016E-1
2.839605416E0,-1.073519468E0,-2.270343155E-1,-3.723096550E-1
2.842093073E0,-1.063932061E0,-2.067943066E-1,-3.659180701E-1
2.844580729E0,-1.051148891E0,-1.844237745E-1,-3.584612012E-1
2.847068385E0,-1.038365722E0,-1.641837656E-1,-3.520696461E-1
2.849556041E0,-1.024517298E0,-1.460742801E-1,-3.446127772E-1
2.852043698E0,-1.013864636E0,-1.343563795E-1,-3.403517306E-1
2.854531354E0,-1.005342603E0,-1.279647946E-1,-3.371559381E-1
2.857019010E0,-9.989509583E-1,-1.290300637E-1,-3.350254297E-1
2.859506666E0,-9.957551956E-1,-1.354216337E-1,-3.318296373E-1
2.861994323E0,-9.914941192E-1,-1.450090110E-1,-3.265033066E-1
2.864481979E0,-9.872331023E-1,-1.535311192E-1,-3.169159293E-1
2.866969635E0,-9.808415174E-1,-1.599227041E-1,-3.062632978E-1
2.869457291E0,-9.701888561E-1,-1.631184965E-1,-2.924148738E-1
2.871944948E0,-9.542099237E-1,-1.631184965E-1,-2.796317041E-1
2.874432604E0,-9.350351691E-1,-1.620532274E-1,-2.700443268E-1
2.876920260E0,-9.126646519E-1,-1.599227041E-1,-2.647180259E-1
2.879407916E0,-8.881635666E-1,-1.556616426E-1,-2.625874877E-1
2.881895573E0,-8.657930493E-1,-1.503353268E-1,-2.636527419E-1
2.884383229E0,-8.444877267E-1,-1.450090110E-1,-2.700443268E-1
2.886870885E0,-8.274435401E-1,-1.396826953E-1,-2.785664499E-1
2.889358541E0,-8.114646077E-1,-1.375521719E-1,-2.902843356E-1
2.891846198E0,-7.997466922E-1,-1.364869028E-1,-3.030675054E-1
2.894333854E0,-7.901592851E-1,-1.386174262E-1,-3.158506751E-1
2.896821510E0,-7.827024460E-1,-1.428784877E-1,-3.286338449E-1
2.899309166E0,-7.773761153E-1,-1.503353268E-1,-3.424822688E-1
2.901796823E0,-7.741803527E-1,-1.588574350E-1,-3.563306928E-1
2.904284479E0,-7.752456069E-1,-1.705753356E-1,-3.701791167E-1
2.906772135E0,-7.784414291E-1,-1.822932363E-1,-3.840275407E-1
2.909259791E0,-7.858982682E-1,-1.950764060E-1,-3.968107104E-1
2.911747448E0,-7.944203615E-1,-2.067943066E-1,-4.106591344E-1
2.914235104E0,-8.029424548E-1,-2.153164148E-1,-4.213117659E-1
2.916722760E0,-8.103992939E-1,-2.227732539E-1,-4.298338890E-1
2.919210416E0,-8.157256246E-1,-2.238385230E-1,-4.351601899E-1
2.921698073E0,-8.178561330E-1,-2.195774615E-1,-4.404865205E-1
2.924185729E0,-8.167908788E-1,-2.078595608E-1,-4.436823130E-1
2.926673385E0,-8.135951161E-1,-1.918806136E-1,-4.468781054E-1
2.929161041E0,-8.072035313E-1,-1.705753356E-1,-4.479433596E-1
2.931648698E0,-7.986814380E-1,-1.482048035E-1,-4.479433596E-1
2.934136354E0,-7.880287766E-1,-1.226384789E-1,-4.479433596E-1
2.936624010E0,-7.752456069E-1,-9.600688517E-2,-4.468781054E-1
2.939111666E0,-7.613971829E-1,-6.937529147E-2,-4.436823130E-1
2.941599323E0,-7.464835048E-1,-4.274370521E-2,-4.394212663E-1
2.944086979E0,-7.294392586E-1,-1.611211337E-2,-4.340949357E-1
2.946574635E0,-7.102645040E-1,7.323687430E-3,-4.298338890E-1
2.949062291E0,-6.889592409E-1,2.862896025E-2,-4.255728126E-1
2.951549948E0,-6.665887237E-1,4.673844203E-2,-4.234423041E-1
2.954037604E0,-6.420876384E-1,5.952160433E-2,-4.223770201E-1
2.956525260E0,-6.186518669E-1,7.017423958E-2,-4.245075583E-1
2.959012916E0,-5.984118581E-1,7.550056279E-2,-4.287686050E-1
2.961500573E0,-5.803023577E-1,7.550056279E-2,-4.351601899E-1
2.963988229E0,-5.653886795E-1,7.017423958E-2,-4.426170290E-1
2.966475885E0,-5.526055098E-1,5.632581562E-2,-4.511391521E-1
2.968963541E0,-5.398223400E-1,3.715106845E-2,-4.607265294E-1
2.971451198E0,-5.291697383E-1,1.584579609E-2,-4.713791609E-1
2.973938854E0,-5.185170770E-1,-8.655266836E-3,-4.841623306E-1
2.976426510E0,-5.089297295E-1,-3.315633163E-2,-4.980107546E-1
2.978914218E0,-5.004075766E-1,-5.765739456E-2,-5.139896870E-1
2.981401927E0,-4.940160215E-1,-8.215846121E-2,-5.310339332E-1
2.983889635E0,-4.886896908E-1,-1.045289934E-1,-5.480781198E-1
2.986377343E0,-4.876244366E-1,-1.258342713E-1,-5.651223660E-1
2.988865052E0,-4.886896908E-1,-1.450090110E-1,-5.811012983E-1
2.991352760E0,-4.886896908E-1,-1.609879732E-1,-5.949497223E-1
2.993840468E0,-4.897549450E-1,-1.748363972E-1,-6.056023836E-1
2.996328177E0,-4.897549450E-1,-1.854890287E-1,-6.141244769E-1
2.998815885E0,-4.876244366E-1,-1.918806136E-1,-6.183855534E-1
3.001303593E0,-4.844286442E-1,-1.950764060E-1,-6.194508076E-1
3.003791302E0,-4.801675975E-1,-1.929458827E-1,-6.183855534E-1
3.006279010E0,-4.716454744E-1,-1.854890287E-1,-6.151897311E-1
3.008766718E0,-4.609928429E-1,-1.727058738E-1,-6.109287143E-1
3.011254427E0,-4.471444190E-1,-1.535311192E-1,-6.034718752E-1
3.013742135E0,-4.311654568E-1,-1.279647946E-1,-5.949497223E-1
3.016229843E0,-4.119907022E-1,-9.813741595E-2,-5.832318664E-1
3.018717552E0,-3.928159773E-1,-6.511423737E-2,-5.704486966E-1
3.021205260E0,-3.725759685E-1,-3.209106624E-2,-5.555350184E-1
3.023692968E0,-3.555317521E-1,-1.331579551E-4,-5.395560265E-1
3.026180677E0,-3.384875357E-1,2.862896025E-2,-5.225118399E-1
3.028668385E0,-3.235738277E-1,5.419528857E-2,-5.065328479E-1
3.031156093E0,-3.075948656E-1,7.656582445E-2,-4.894886315E-1
3.033643802E0,-2.926811874E-1,9.680583328E-2,-4.724444151E-1
3.036131510E0,-2.788327634E-1,1.138500497E-1,-4.575307369E-1
3.038619218E0,-2.649843395E-1,1.319595277E-1,-4.447475672E-1
3.041106927E0,-2.511359155E-1,1.490037590E-1,-4.362254739E-1
3.043594635E0,-2.394180000E-1,1.660479754E-1,-4.308991432E-1
3.046082343E0,-2.277000993E-1,1.830921918E-1,-4.287686050E-1
3.048570052E0,-2.191779912E-1,1.958753467E-1,-4.287686050E-1
3.051057760E0,-2.138516754E-1,2.043974549E-1,-4.319643974E-1
3.053545468E0,-2.117211521E-1,2.065279931E-1,-4.362254739E-1
3.056033177E0,-2.117211521E-1,2.022669315E-1,-4.415517747E-1
3.058520885E0,-2.149169445E-1,1.916143000E-1,-4.490086138E-1
3.061008593E0,-2.202432603E-1,1.756353378E-1,-4.554001987E-1
3.063496302E0,-2.277000993E-1,1.564605981E-1,-4.607265294E-1
3.065983958E0,-2.394180000E-1,1.372858584E-1,-4.660528302E-1
3.068471614E0,-2.511359155E-1,1.170458421E-1,-4.681833684E-1
3.070959270E0,-2.649843395E-1,9.787109494E-2,-4.681833684E-1
3.073446927E0,-2.777675092E-1,8.189214021E-2,-4.671181142E-1
3.075934583E0,-2.894853950E-1,7.123950869E-2,-4.660528302E-1
3.078422239E0,-2.980075181E-1,6.271740049E-2,-4.639223218E-1
3.080909895E0,-3.043990731E-1,5.845634267E-2,-4.607265294E-1
3.083397552E0,-3.086601496E-1,5.526055023E-2,-4.585959911E-1
3.085885208E0,-3.107906580E-1,5.632581562E-2,-4.532696903E-1
3.088372864E0,-3.129211962E-1,6.058686972E-2,-4.458128214E-1
3.090860520E0,-3.139864504E-1,6.697845459E-2,-4.372907281E-1
3.093348177E0,-3.129211962E-1,7.443529367E-2,-4.255728126E-1
3.095835833E0,-3.097254038E-1,8.295740932E-2,-4.127896726E-1
3.098323489E0,-3.022685647E-1,9.361004084E-2,-3.978759646E-1
3.100811145E0,-2.916159332E-1,1.074584723E-1,-3.818970025E-1
3.103298802E0,-2.777675092E-1,1.245026886E-1,-3.648527861E-1
3.105786458E0,-2.617885470E-1,1.447426975E-1,-3.478085697E-1
3.108274114E0,-2.426137924E-1,1.671132296E-1,-3.318296373E-1
3.110761770E0,-2.223737836E-1,1.894837767E-1,-3.179811835E-1
3.113249427E0,-2.021337748E-1,2.118543088E-1,-3.041327596E-1
3.115737083E0,-1.829590350E-1,2.331595868E-1,-2.924148738E-1
3.118224739E0,-1.669800729E-1,2.502037883E-1,-2.806969583E-1
3.120712395E0,-1.531316489E-1,2.629869580E-1,-2.711096108E-1
3.123200052E0,-1.414137483E-1,2.715090811E-1,-2.604569495E-1
3.125687708E0,-1.328916401E-1,2.768353820E-1,-2.508696020E-1
3.128175364E0,-1.254348010E-1,2.768353820E-1,-2.423474789E-1
3.130663020E0,-1.211737394E-1,2.747048736E-1,-2.348906398E-1
3.133150677E0,-1.169126853E-1,2.683132887E-1,-2.274337858E-1
3.135638333E0,-1.147821546E-1,2.619217038E-1,-2.221074700E-1
3.138125989E0,-1.147821546E-1,2.533995807E-1,-2.199769467E-1
3.140613645E0,-1.179779470E-1,2.459427416E-1,-2.189116776E-1
3.143101302E0,-1.222390011E-1,2.374206334E-1,-2.189116776E-1
3.145588958E0,-1.296958476E-1,2.288985252E-1,-2.189116776E-1
3.148076614E0,-1.392832249E-1,2.193111479E-1,-2.189116776E-1
3.150564270E0,-1.488705873E-1,2.086585164E-1,-2.199769467E-1
3.153051927E0,-1.584579647E-1,1.980058849E-1,-2.221074700E-1
3.155539583E0,-1.680453420E-1,1.852227151E-1,-2.263685167E-1
3.158027239E0,-1.755021811E-1,1.735048145E-1,-2.316948473E-1
3.160514895E0,-1.818937659E-1,1.628521830E-1,-2.391516864E-1
3.163002552E0,-1.861548275E-1,1.543300748E-1,-2.466085255E-1
3.165490208E0,-1.904158741E-1,1.479384899E-1,-2.551306486E-1
3.167977864E0,-1.925463974E-1,1.447426975E-1,-2.636527419E-1
3.170465520E0,-1.946769357E-1,1.436774284E-1,-2.711096108E-1
3.172953177E0,-1.946769357E-1,1.468732208E-1,-2.785664499E-1
3.175440833E0,-1.936116666E-1,1.500690132E-1,-2.828274965E-1
3.177928489E0,-1.893506050E-1,1.543300748E-1,-2.870885432E-1
3.180416145E0,-1.850895584E-1,1.585911214E-1,-2.913496196E-1
3.182903802E0,-1.786979735E-1,1.628521830E-1,-2.934801280E-1
3.185391458E0,-1.744369268E-1,1.649827063E-1,-2.956106663E-1
3.187879114E0,-1.691105962E-1,1.649827063E-1,-2.988064587E-1
3.190366770E0,-1.659148186E-1,1.639174372E-1,-3.009369671E-1
3.192854427E0,-1.616537571E-1,1.607216448E-1,-3.030675054E-1
3.195342083E0,-1.584579647E-1,1.543300748E-1,-3.051980436E-1
3.197829739E0,-1.541969180E-1,1.468732208E-1,-3.062632978E-1
3.200317395E0,-1.478053331E-1,1.394163817E-1,-3.051980436E-1
3.202805052E0,-1.414137483E-1,1.330247968E-1,-3.041327596E-1
3.205292708E0,-1.339569092E-1,1.287637353E-1,-3.030675054E-1
3.207780364E0,-1.265000552E-1,1.255679578E-1,-3.009369671E-1
3.210268020E0,-1.201084778E-1,1.255679578E-1,-2.966759205E-1
3.212755677E0,-1.137168929E-1,1.255679578E-1,-2.913496196E-1
3.215243333E0,-1.073253155E-1,1.287637353E-1,-2.860232890E-1
3.217730989E0,-1.009337306E-1,1.319595277E-1,-2.806969583E-1
3.220218645E0,-9.454214573E-2,1.362205893E-1,-2.753706574E-1
3.222706302E0,-8.708529919E-2,1.394163817E-1,-2.689790726E-1
3.225193958E0,-8.069372177E-2,1.436774284E-1,-2.636527419E-1
3.227681614E0,-7.536740601E-2,1.468732208E-1,-2.604569495E-1
3.230169270E0,-7.217161357E-2,1.500690132E-1,-2.572611570E-1
3.232656927E0,-7.004108280E-2,1.511342824E-1,-2.551306486E-1
3.235144583E0,-6.897582114E-2,1.500690132E-1,-2.551306486E-1
3.237632239E0,-7.004108280E-2,1.479384899E-1,-2.551306486E-1
3.240119895E0,-7.110634446E-2,1.447426975E-1,-2.572611570E-1
3.242607552E0,-7.430213690E-2,1.404816359E-1,-2.604569495E-1
3.245095208E0,-7.856319100E-2,1.340900660E-1,-2.647180259E-1
3.247582864E0,-8.388951421E-2,1.287637353E-1,-2.721748650E-1
3.250070520E0,-8.921582997E-2,1.245026886E-1,-2.796317041E-1
3.252558177E0,-9.454214573E-2,1.202416345E-1,-2.892190814E-1
3.255045833E0,-1.009337306E-1,1.170458421E-1,-3.009369671E-1
3.257533489E0,-1.073253155E-1,1.170458421E-1,-3.147853911E-1
3.260021145E0,-1.137168929E-1,1.170458421E-1,-3.286338449E-1
3.262508802E0,-1.211737394E-1,1.181111038E-1,-3.424822688E-1
3.264996458E0,-1.286305785E-1,1.170458421E-1,-3.552654386E-1
3.267484114E0,-1.371526867E-1,1.149153188E-1,-3.659180701E-1
3.269971770E0,-1.456748098E-1,1.117195264E-1,-3.733749092E-1
3.272459427E0,-1.552621722E-1,1.053279415E-1,-3.765707016E-1
3.274947135E0,-1.648495495E-1,9.893636405E-2,-3.755054474E-1
3.277434843E0,-1.733716577E-1,9.041424841E-2,-3.712443709E-1
3.279922552E0,-1.797632426E-1,8.189214021E-2,-3.627222776E-1
3.282410260E0,-1.840242893E-1,7.443529367E-2,-3.520696461E-1
3.284897968E0,-1.850895584E-1,7.123950869E-2,-3.392864764E-1
3.287385677E0,-1.850895584E-1,7.337003201E-2,-3.243727684E-1
3.289873385E0,-1.818937659E-1,7.869634777E-2,-3.094590902E-1
3.292361093E0,-1.776327193E-1,8.934898674E-2,-2.924148738E-1
3.294848802E0,-1.712411344E-1,1.031974182E-1,-2.753706574E-1
3.297336510E0,-1.648495495E-1,1.181111038E-1,-2.583264410E-1
3.299824218E0,-1.541969180E-1,1.340900660E-1,-2.402169555E-1
3.302311927E0,-1.435442716E-1,1.479384899E-1,-2.231727391E-1
3.304799635E0,-1.318263710E-1,1.607216448E-1,-2.071937770E-1
3.307287343E0,-1.201084778E-1,1.735048145E-1,-1.912148297E-1
3.309775052E0,-1.083905771E-1,1.852227151E-1,-1.763011366E-1
3.312262760E0,-9.880319983E-2,1.969406158E-1,-1.624527127E-1
3.314750468E0,-9.134636074E-2,2.065279931E-1,-1.518000662E-1
3.317238177E0,-8.602003753E-2,2.161153555E-1,-1.432779580E-1
3.319725885E0,-8.175898343E-2,2.214416862E-1,-1.368863732E-1
3.322213593E0,-8.069372177E-2,2.225069404E-1,-1.336905807E-1
3.324701302E0,-8.069372177E-2,2.171806246E-1,-1.336905807E-1
3.327189010E0,-8.282424510E-2,2.075932473E-1,-1.368863732E-1
3.329676718E0,-8.921582997E-2,1.926795542E-1,-1.432779580E-1
3.332164427E0,-9.667267650E-2,1.724395454E-1,-1.518000662E-1
3.334652135E0,-1.083905771E-1,1.500690132E-1,-1.635179669E-1
3.337139843E0,-1.211737394E-1,1.255679578E-1,-1.752358675E-1
3.339627552E0,-1.382179558E-1,1.010668874E-1,-1.890842915E-1
3.342115260E0,-1.573926955E-1,7.763108611E-2,-2.018674612E-1
3.344602968E0,-1.786979735E-1,5.526055023E-2,-2.146506310E-1
3.347090677E0,-2.000032514E-1,3.289001435E-2,-2.263685167E-1
3.349578385E0,-2.213085145E-1,1.051947847E-2,-2.359558940E-1
3.352066093E0,-2.415485233E-1,-1.078579482E-2,-2.455432713E-1
3.354553802E0,-2.607232630E-1,-3.102580272E-2,-2.530001104E-1
3.357041510E0,-2.777675092E-1,-4.913528636E-2,-2.583264410E-1
3.359529218E0,-2.937464416E-1,-6.191844866E-2,-2.615222335E-1
3.362016875E0,-3.075948656E-1,-6.937529147E-2,-2.636527419E-1
3.364504531E0,-3.182475269E-1,-7.257108390E-2,-2.625874877E-1
3.366992187E0,-3.278348744E-1,-6.724476814E-2,-2.583264410E-1
3.369479843E0,-3.352917433E-1,-5.659212917E-2,-2.508696020E-1
3.371967500E0,-3.395527899E-1,-3.954791278E-2,-2.412822098E-1
3.374455156E0,-3.406180441E-1,-1.824264042E-2,-2.274337858E-1
3.376942812E0,-3.384875357E-1,5.193160381E-3,-2.114548385E-1
3.379430468E0,-3.331612051E-1,3.289001435E-2,-1.944106072E-1
3.381918125E0,-3.246390820E-1,6.165213138E-2,-1.752358675E-1
3.384405781E0,-3.129211962E-1,9.041424841E-2,-1.549958587E-1
3.386893437E0,-2.990727723E-1,1.159805804E-1,-1.358211190E-1
3.389381093E0,-2.852243483E-1,1.394163817E-1,-1.166463718E-1
3.391868750E0,-2.713759243E-1,1.585911214E-1,-9.747162461E-2
3.394356406E0,-2.585927546E-1,1.745700836E-1,-8.149266988E-2
3.396844062E0,-2.479401082E-1,1.841574460E-1,-6.551371515E-2
3.399331718E0,-2.372874767E-1,1.894837767E-1,-5.060002208E-2
3.401819375E0,-2.287653685E-1,1.894837767E-1,-3.568633273E-2
3.404307031E0,-2.234390527E-1,1.852227151E-1,-2.183790505E-2
3.406794687E0,-2.191779912E-1,1.777658761E-1,-7.989477366E-3
3.409282343E0,-2.181127369E-1,1.671132296E-1,4.793686327E-3
3.411770000E0,-2.191779912E-1,1.543300748E-1,1.651158556E-2
3.414257656E0,-2.234390527E-1,1.394163817E-1,2.503369562E-2
3.416745312E0,-2.287653685E-1,1.223721579E-1,2.929474972E-2
3.419232968E0,-2.372874767E-1,1.031974182E-1,3.036001325E-2
3.421720625E0,-2.468748540E-1,8.295740932E-2,2.609895915E-2
3.424208281E0,-2.564622164E-1,6.271740049E-2,1.970737800E-2
3.426695937E0,-2.671148479E-1,4.034686089E-2,9.054740891E-3
3.429183593E0,-2.767022252E-1,2.010685205E-2,-3.728422802E-3
3.431671250E0,-2.862896025E-1,9.321057005E-4,-1.757685095E-2
3.434158906E0,-2.958769798E-1,-1.824264042E-2,-3.249054030E-2
3.436646562E0,-3.054643571E-1,-3.528685868E-2,-4.740423337E-2
3.439134218E0,-3.139864504E-1,-4.913528636E-2,-6.125266105E-2
3.441621875E0,-3.214432895E-1,-6.191844866E-2,-7.190529257E-2
3.444109531E0,-3.278348744E-1,-7.257108390E-2,-8.149266988E-2
3.446597187E0,-3.320959508E-1,-8.215846121E-2,-8.788424730E-2
3.449084843E0,-3.342264593E-1,-9.068056941E-2,-9.321057051E-2
3.451572500E0,-3.352917433E-1,-9.813741595E-2,-9.853688627E-2
3.454060156E0,-3.342264593E-1,-1.045289934E-1,-1.027979404E-1
3.456547812E0,-3.320959508E-1,-1.098553166E-1,-1.059937328E-1
3.459035468E0,-3.289001584E-1,-1.141163707E-1,-1.070589945E-1
3.461523125E0,-3.246390820E-1,-1.151816323E-1,-1.070589945E-1
3.464010781E0,-3.203780353E-1,-1.141163707E-1,-1.059937328E-1
3.466498437E0,-3.129211962E-1,-1.119858399E-1,-1.027979404E-1
3.468986093E0,-3.043990731E-1,-1.077247858E-1,-9.853688627E-2
3.471473750E0,-2.958769798E-1,-1.023984700E-1,-9.321057051E-2
3.473961406E0,-2.873548567E-1,-9.707214683E-2,-8.681898564E-2
3.476449062E0,-2.767022252E-1,-9.281109273E-2,-8.149266988E-2
3.478936718E0,-2.681801319E-1,-8.641951531E-2,-7.723161578E-2
3.481424375E0,-2.585927546E-1,-8.109319210E-2,-7.403582335E-2
3.483912031E0,-2.500706315E-1,-7.470161468E-2,-7.084003091E-2
3.486399687E0,-2.436790615E-1,-6.724476814E-2,-6.870950758E-2
3.488887343E0,-2.372874767E-1,-6.085318699E-2,-6.764423847E-2
3.491375000E0,-2.330264151E-1,-5.659212917E-2,-6.551371515E-2
3.493862656E0,-2.298306376E-1,-5.552686751E-2,-6.444845349E-2
3.496350312E0,-2.277000993E-1,-5.659212917E-2,-6.444845349E-2
3.498837968E0,-2.277000993E-1,-5.978792161E-2,-6.444845349E-2
3.501325625E0,-2.277000993E-1,-6.617950648E-2,-6.551371515E-2
3.503813281E0,-2.308958918E-1,-7.363634557E-2,-6.657897681E-2
3.506300937E0,-2.340916842E-1,-8.428898454E-2,-6.764423847E-2
3.508788593E0,-2.383527458E-1,-9.494162351E-2,-6.977476925E-2
3.511276250E0,-2.426137924E-1,-1.034637317E-1,-7.297056168E-2
3.513763906E0,-2.479401082E-1,-1.130511016E-1,-7.723161578E-2
3.516251562E0,-2.511359155E-1,-1.194426864E-1,-8.149266988E-2
3.518739218E0,-2.553969622E-1,-1.258342713E-1,-8.681898564E-2
3.521226875E0,-2.585927546E-1,-1.311605871E-1,-9.214530140E-2
3.523714531E0,-2.617885470E-1,-1.354216337E-1,-9.853688627E-2
3.526202187E0,-2.639190555E-1,-1.375521719E-1,-1.049284711E-1
3.528689843E0,-2.639190555E-1,-1.396826953E-1,-1.102547869E-1
3.531177500E0,-2.639190555E-1,-1.396826953E-1,-1.145158410E-1
3.533665156E0,-2.628538013E-1,-1.386174262E-1,-1.187768951E-1
3.536152812E0,-2.607232630E-1,-1.354216337E-1,-1.209074259E-1
3.538640468E0,-2.575274706E-1,-1.311605871E-1,-1.241032109E-1
3.541128125E0,-2.543317080E-1,-1.247690022E-1,-1.262337416E-1
3.543615781E0,-2.500706315E-1,-1.194426864E-1,-1.272990108E-1
3.546103437E0,-2.458095849E-1,-1.130511016E-1,-1.283642650E-1
3.548591093E0,-2.426137924E-1,-1.055942550E-1,-1.304948032E-1
3.551078750E0,-2.383527458E-1,-9.920267761E-2,-1.326253265E-1
3.553566406E0,-2.372874767E-1,-9.281109273E-2,-1.336905807E-1
3.556054062E0,-2.362222075E-1,-8.855003864E-2,-1.347558498E-1
3.558541770E0,-2.362222075E-1,-8.428898454E-2,-1.368863732E-1
3.561029479E0,-2.362222075E-1,-8.215846121E-2,-1.368863732E-1
3.563517187E0,-2.372874767E-1,-8.002793044E-2,-1.368863732E-1
3.566004895E0,-2.372874767E-1,-7.789740711E-2,-1.358211190E-1
3.568492604E0,-2.372874767E-1,-7.576687634E-2,-1.326253265E-1
3.570980312E0,-2.362222075E-1,-7.257108390E-2,-1.304948032E-1
3.573468020E0,-2.330264151E-1,-6.937529147E-2,-1.283642650E-1
3.575955729E0,-2.319611609E-1,-6.404897571E-2,-1.251684725E-1
3.578443437E0,-2.308958918E-1,-5.872265995E-2,-1.230379492E-1
3.580931145E0,-2.308958918E-1,-5.233107507E-2,-1.219726875E-1
3.583418854E0,-2.330264151E-1,-4.913528636E-2,-1.209074259E-1
3.585906562E0,-2.362222075E-1,-4.807002097E-2,-1.198421568E-1
3.588394270E0,-2.394180000E-1,-4.913528636E-2,-1.198421568E-1
3.590881979E0,-2.426137924E-1,-5.233107507E-2,-1.198421568E-1
3.593369687E0,-2.490053773E-1,-5.765739456E-2,-1.198421568E-1
3.595857395E0,-2.553969622E-1,-6.191844866E-2,-1.198421568E-1
3.598345104E0,-2.617885470E-1,-6.617950648E-2,-1.198421568E-1
3.600832812E0,-2.692453861E-1,-7.150582224E-2,-1.198421568E-1
3.603320520E0,-2.788327634E-1,-7.576687634E-2,-1.209074259E-1
3.605808229E0,-2.894853950E-1,-8.109319210E-2,-1.219726875E-1
3.608295937E0,-2.990727723E-1,-8.535424620E-2,-1.251684725E-1
3.610783645E0,-3.097254038E-1,-8.748477697E-2,-1.272990108E-1
3.613271354E0,-3.193127811E-1,-8.961530030E-2,-1.294295341E-1
3.615759062E0,-3.289001584E-1,-9.174583107E-2,-1.315600574E-1
3.618246770E0,-3.374222517E-1,-9.068056941E-2,-1.326253265E-1
3.620734479E0,-3.438138366E-1,-8.855003864E-2,-1.315600574E-1
3.623222187E0,-3.502054214E-1,-8.428898454E-2,-1.315600574E-1
3.625709895E0,-3.544664681E-1,-8.002793044E-2,-1.315600574E-1
3.628197604E0,-3.587275445E-1,-7.470161468E-2,-1.326253265E-1
3.630685312E0,-3.629885912E-1,-7.044056058E-2,-1.347558498E-1
3.633173020E0,-3.661843836E-1,-6.831002980E-2,-1.368863732E-1
3.635660729E0,-3.672496378E-1,-6.831002980E-2,-1.411474347E-1
3.638148437E0,-3.683148921E-1,-7.150582224E-2,-1.454084814E-1
3.640636145E0,-3.683148921E-1,-7.683213800E-2,-1.475390196E-1
3.643123854E0,-3.661843836E-1,-8.215846121E-2,-1.496695429E-1
3.645611562E0,-3.640538454E-1,-8.748477697E-2,-1.507348120E-1
3.648099218E0,-3.597927988E-1,-9.281109273E-2,-1.486042738E-1
3.650586875E0,-3.544664681E-1,-9.600688517E-2,-1.475390196E-1
3.653074531E0,-3.470096290E-1,-9.813741595E-2,-1.443432271E-1
3.655562187E0,-3.384875357E-1,-9.707214683E-2,-1.411474347E-1
3.658049843E0,-3.299654126E-1,-9.387636185E-2,-1.379516423E-1
3.660537500E0,-3.203780353E-1,-8.855003864E-2,-1.358211190E-1
3.663025156E0,-3.107906580E-1,-8.322372288E-2,-1.347558498E-1
3.665512812E0,-3.012032807E-1,-7.789740711E-2,-1.358211190E-1
3.668000468E0,-2.916159332E-1,-7.257108390E-2,-1.390169114E-1
3.670488125E0,-2.841590643E-1,-6.831002980E-2,-1.432779580E-1
3.672975781E0,-2.767022252E-1,-6.617950648E-2,-1.496695429E-1
3.675463437E0,-2.703106403E-1,-6.404897571E-2,-1.571263820E-1
3.677951093E0,-2.639190555E-1,-6.511423737E-2,-1.645832360E-1
3.680438750E0,-2.596580088E-1,-6.724476814E-2,-1.731053442E-1
3.682926406E0,-2.575274706E-1,-7.044056058E-2,-1.826927215E-1
3.685414062E0,-2.575274706E-1,-7.470161468E-2,-1.912148297E-1
3.687901718E0,-2.585927546E-1,-8.002793044E-2,-2.008021921E-1
3.690389375E0,-2.607232630E-1,-8.535424620E-2,-2.082590461E-1
3.692877031E0,-2.628538013E-1,-8.855003864E-2,-2.157158852E-1
3.695364687E0,-2.649843395E-1,-9.174583107E-2,-2.242379934E-1
3.697852343E0,-2.660495937E-1,-9.281109273E-2,-2.316948473E-1
3.700340000E0,-2.671148479E-1,-9.281109273E-2,-2.402169555E-1
3.702827656E0,-2.692453861E-1,-9.281109273E-2,-2.498043180E-1
3.705315312E0,-2.692453861E-1,-9.174583107E-2,-2.593916953E-1
3.707802968E0,-2.703106403E-1,-9.174583107E-2,-2.700443268E-1
3.710290625E0,-2.713759243E-1,-9.174583107E-2,-2.806969583E-1
3.712778281E0,-2.735064328E-1,-9.174583107E-2,-2.924148738E-1
3.715265937E0,-2.735064328E-1,-9.387636185E-2,-3.009369671E-1
3.717753593E0,-2.745717168E-1,-9.494162351E-2,-3.083938360E-1
3.720241250E0,-2.724411786E-1,-9.707214683E-2,-3.126548827E-1
3.722728906E0,-2.681801319E-1,-9.707214683E-2,-3.126548827E-1
3.725216562E0,-2.628538013E-1,-9.494162351E-2,-3.105243444E-1
3.727704218E0,-2.553969622E-1,-9.174583107E-2,-3.041327596E-1
3.730191875E0,-2.447443157E-1,-8.535424620E-2,-2.977411747E-1
3.732679531E0,-2.330264151E-1,-7.683213800E-2,-2.902843356E-1
3.735167187E0,-2.181127369E-1,-6.617950648E-2,-2.806969583E-1
3.737654843E0,-2.021337748E-1,-5.339634046E-2,-2.732401192E-1
3.740142500E0,-1.872200817E-1,-4.061317816E-2,-2.657832801E-1
3.742630156E0,-1.723063886E-1,-2.783001214E-2,-2.572611570E-1
3.745117812E0,-1.584579647E-1,-1.398158539E-2,-2.508696020E-1
3.747605468E0,-1.446095407E-1,-3.328948980E-3,-2.444780022E-1
3.750093125E0,-1.328916401E-1,6.258423906E-3,-2.380864173E-1
3.752580781E0,-1.211737394E-1,1.158474199E-2,-2.316948473E-1
3.755068437E0,-1.126516312E-1,1.584579609E-2,-2.242379934E-1
3.757556093E0,-1.041295230E-1,1.691105962E-2,-2.178464085E-1
3.760043750E0,-9.773793817E-2,1.478053257E-2,-2.114548385E-1
3.762531406E0,-9.347688407E-2,1.051947847E-2,-2.039979845E-1
3.765019062E0,-9.028109163E-2,5.193160381E-3,-1.986716688E-1
3.767506718E0,-8.815056831E-2,-1.198421582E-3,-1.944106072E-1
3.769994375E0,-8.708529919E-2,-8.655266836E-3,-1.922800839E-1
3.772482031E0,-8.602003753E-2,-1.611211337E-2,-1.901495606E-1
3.774969843E0,-8.602003753E-2,-2.356895804E-2,-1.901495606E-1
3.777457656E0,-8.602003753E-2,-2.889527567E-2,-1.912148297E-1
3.779945468E0,-8.602003753E-2,-3.315633163E-2,-1.922800839E-1
3.782433281E0,-8.708529919E-2,-3.422159329E-2,-1.944106072E-1
3.784921093E0,-8.708529919E-2,-3.422159329E-2,-1.976063997E-1
3.787408906E0,-8.815056831E-2,-3.102580272E-2,-1.997369379E-1
3.789896562E0,-8.815056831E-2,-2.889527567E-2,-2.029327303E-1
3.792384218E0,-8.708529919E-2,-2.569948509E-2,-2.050632536E-1
3.794871875E0,-8.495477587E-2,-2.143843099E-2,-2.061285079E-1
3.797359531E0,-8.175898343E-2,-1.717737690E-2,-2.061285079E-1
3.799847187E0,-7.856319100E-2,-1.291632187E-2,-2.061285079E-1
3.802334843E0,-7.536740601E-2,-1.078579482E-2,-2.050632536E-1
3.804822500E0,-7.217161357E-2,-9.720530361E-3,-2.018674612E-1
3.807310156E0,-6.897582114E-2,-1.078579482E-2,-1.976063997E-1
3.809797812E0,-6.684529036E-2,-1.185105834E-2,-1.933453530E-1
3.812285468E0,-6.471476704E-2,-1.398158539E-2,-1.858884990E-1
3.814773125E0,-6.258423626E-2,-1.611211337E-2,-1.794969290E-1
3.817260781E0,-6.258423626E-2,-1.930790395E-2,-1.699095517E-1
3.819748437E0,-6.045371294E-2,-2.037316747E-2,-1.592569202E-1
3.822236093E0,-5.832318589E-2,-1.930790395E-2,-1.475390196E-1
3.824723750E0,-5.512739345E-2,-1.611211337E-2,-1.358211190E-1
3.827211406E0,-5.299686641E-2,-1.185105834E-2,-1.219726875E-1
3.829699062E0,-4.873581231E-2,-4.394212738E-3,-1.102547869E-1
3.832186718E0,-4.447475821E-2,3.062632866E-3,-9.960214794E-2
3.834674375E0,-4.021370411E-2,1.265000552E-2,-8.894951642E-2
3.837162031E0,-3.488738462E-2,2.223737910E-2,-7.936213911E-2
3.839649687E0,-3.062633052E-2,3.395527974E-2,-7.190529257E-2
3.842137343E0,-2.530001104E-2,4.567318037E-2,-6.338318437E-2
3.844625000E0,-1.997369342E-2,5.845634267E-2,-5.592634156E-2
3.847112656E0,-1.571263932E-2,6.910897791E-2,-4.846949503E-2
3.849600312E0,-1.251684781E-2,7.869634777E-2,-4.101264849E-2
3.852087968E0,-9.321057238E-3,8.721846342E-2,-3.355580568E-2
3.854575625E0,-6.125265732E-3,9.361004084E-2,-2.716422267E-2
3.857063281E0,-5.060002208E-3,9.680583328E-2,-2.290316857E-2
3.859550937E0,-2.929474926E-3,9.680583328E-2,-1.864211448E-2
3.862038593E0,-7.989477599E-4,9.467530251E-2,-1.544632297E-2
3.864526250E0,-7.989477599E-4,8.934898674E-2,-1.438105945E-2
3.867013906E0,-7.989477599E-4,8.402267098E-2,-1.438105945E-2
3.869501562E0,-7.989477599E-4,7.763108611E-2,-1.651158556E-2
3.871989218E0,-7.989477599E-4,7.123950869E-2,-1.864211448E-2
3.874476875E0,2.663159103E-4,6.804371625E-2,-1.970737800E-2
3.876964531E0,2.396843163E-3,6.697845459E-2,-2.183790505E-2
3.879452187E0,5.592633970E-3,6.697845459E-2,-2.396843210E-2
3.881939843E0,9.853689000E-3,6.804371625E-2,-2.609895915E-2
3.884427500E0,1.411474310E-2,7.017423958E-2,-2.929474972E-2
3.886915156E0,2.050632425E-2,7.123950869E-2,-3.355580568E-2
3.889402812E0,2.583264373E-2,7.337003201E-2,-3.781685978E-2
3.891890468E0,3.009369783E-2,7.550056279E-2,-4.314317927E-2
3.894378125E0,3.435475379E-2,7.763108611E-2,-4.740423337E-2
3.896865781E0,3.648528084E-2,7.869634777E-2,-5.060002208E-2
3.899353437E0,3.755054250E-2,7.869634777E-2,-5.273054913E-2
3.901841093E0,3.861580789E-2,7.763108611E-2,-5.273054913E-2
3.904328750E0,3.755054250E-2,7.656582445E-2,-5.060002208E-2
3.906816406E0,3.755054250E-2,7.337003201E-2,-4.740423337E-2
3.909304062E0,3.648528084E-2,6.910897791E-2,-4.101264849E-2
3.911791718E0,3.542001545E-2,6.591318548E-2,-3.568633273E-2
3.914279375E0,3.435475379E-2,6.378266215E-2,-2.822948620E-2
3.916767031E0,3.435475379E-2,6.271740049E-2,-2.077264152E-2
3.919254687E0,3.435475379E-2,6.271740049E-2,-1.651158556E-2
3.921742343E0,3.542001545E-2,6.271740049E-2,-1.118526794E-2
3.924230000E0,3.755054250E-2,6.484792382E-2,-9.054740891E-3
3.926717656E0,3.968106955E-2,6.804371625E-2,-6.924213842E-3
3.929205312E0,4.181159660E-2,7.123950869E-2,-6.924213842E-3
3.931692968E0,4.394212365E-2,7.550056279E-2,-9.054740891E-3
3.934180625E0,4.607265070E-2,7.869634777E-2,-1.012000442E-2
3.936668281E0,4.713791609E-2,8.082687855E-2,-1.225053146E-2
3.939155937E0,4.926844314E-2,8.295740932E-2,-1.331579592E-2
3.941643593E0,5.033370852E-2,8.508793265E-2,-1.438105945E-2
3.944131250E0,5.139897019E-2,8.721846342E-2,-1.438105945E-2
3.946618906E0,5.139897019E-2,8.934898674E-2,-1.225053146E-2
3.949106562E0,5.246423557E-2,9.041424841E-2,-1.012000442E-2
3.951594218E0,5.459476262E-2,9.041424841E-2,-6.924213842E-3
3.954081875E0,5.566002429E-2,8.934898674E-2,-2.663159044E-3
3.956569531E0,5.779055133E-2,8.934898674E-2,1.597895520E-3
3.959057187E0,5.885581672E-2,8.934898674E-2,5.858949851E-3
3.961544843E0,5.885581672E-2,8.934898674E-2,1.012000442E-2
3.964032500E0,6.098634377E-2,8.934898674E-2,1.438105945E-2
3.966520156E0,6.311687082E-2,8.934898674E-2,1.651158556E-2
3.969007812E0,6.524740160E-2,8.934898674E-2,1.757685095E-2
3.971495468E0,6.844318658E-2,8.828372508E-2,1.864211448E-2
3.973983125E0,7.057371736E-2,8.615319431E-2,1.864211448E-2
3.976470781E0,7.376950979E-2,8.615319431E-2,1.757685095E-2
3.978958437E0,7.696529478E-2,8.508793265E-2,1.864211448E-2
3.981446145E0,8.229161799E-2,8.615319431E-2,1.970737800E-2
3.983933854E0,8.655267209E-2,8.828372508E-2,2.183790505E-2
3.986421562E0,9.081372619E-2,9.041424841E-2,2.503369562E-2
3.988909270E0,9.507478029E-2,9.361004084E-2,3.036001325E-2
3.991396979E0,1.004010960E-1,9.680583328E-2,3.568633273E-2
3.993884687E0,1.035968885E-1,9.787109494E-2,4.314317927E-2
3.996372395E0,1.067926809E-1,1.000016257E-1,4.953476042E-2
3.998860104E0,1.099884734E-1,1.000016257E-1,5.486107618E-2
4.001347812E0,1.121189967E-1,9.893636405E-2,6.018739566E-2
4.003835520E0,1.131842583E-1,9.574057162E-2,6.657897681E-2
4.006323229E0,1.131842583E-1,9.041424841E-2,7.084003091E-2
4.008810937E0,1.131842583E-1,8.508793265E-2,7.403582335E-2
4.011298645E0,1.121189967E-1,7.763108611E-2,7.616634667E-2
4.013786354E0,1.121189967E-1,7.123950869E-2,7.829687744E-2
4.016274062E0,1.121189967E-1,6.591318548E-2,8.042740822E-2
4.018761770E0,1.110537350E-1,5.952160433E-2,8.042740822E-2
4.021249479E0,1.089232042E-1,5.313002318E-2,8.042740822E-2
4.023737187E0,1.089232042E-1,4.780370742E-2,7.936213911E-2
4.026224895E0,1.067926809E-1,4.141212255E-2,7.723161578E-2
4.028712604E0,1.067926809E-1,3.608580679E-2,7.403582335E-2
4.031200312E0,1.046621501E-1,3.075948730E-2,7.084003091E-2
4.033688020E0,1.035968885E-1,2.543316968E-2,6.551371515E-2
4.036175729E0,1.025316268E-1,2.117211558E-2,6.125266105E-2
4.038663437E0,1.014663652E-1,1.691105962E-2,5.699160323E-2
4.041151145E0,1.004010960E-1,1.265000552E-2,5.379581451E-2
4.043638854E0,9.933583438E-2,9.454214945E-3,5.060002208E-2
4.046126562E0,9.827057272E-2,7.323687430E-3,4.846949503E-2
4.048614270E0,9.827057272E-2,4.127896391E-3,4.740423337E-2
4.051101979E0,9.827057272E-2,1.997369342E-3,4.740423337E-2
4.053589687E0,9.827057272E-2,9.321057005E-4,4.740423337E-2
4.056077395E0,9.827057272E-2,-1.331579551E-4,4.953476042E-2
4.058565104E0,9.933583438E-2,-1.198421582E-3,5.166528746E-2
4.061052812E0,9.933583438E-2,-2.263685223E-3,5.273054913E-2
4.063540520E0,1.004010960E-1,-2.263685223E-3,5.486107618E-2
4.066028229E0,1.004010960E-1,-3.328948980E-3,5.699160323E-2
4.068515937E0,1.014663652E-1,-3.328948980E-3,5.912213027E-2
4.071003645E0,1.014663652E-1,-4.394212738E-3,6.231792271E-2
4.073491302E0,1.035968885E-1,-3.328948980E-3,6.551371515E-2
4.075978958E0,1.057274193E-1,-1.198421582E-3,6.977476925E-2
4.078466614E0,1.089232042E-1,-1.331579551E-4,7.403582335E-2
4.080954270E0,1.110537350E-1,1.997369342E-3,7.829687744E-2
4.083441927E0,1.142495275E-1,5.193160381E-3,8.149266988E-2
4.085929583E0,1.174453199E-1,8.388951421E-3,8.468846232E-2
4.088417239E0,1.206411049E-1,1.265000552E-2,8.894951642E-2
4.090904895E0,1.238368973E-1,1.797632314E-2,9.214530140E-2
4.093392552E0,1.270326823E-1,2.330264263E-2,9.534109384E-2
4.095880208E0,1.291632205E-1,2.756369673E-2,9.853688627E-2
4.098367864E0,1.312937438E-1,3.289001435E-2,1.006674170E-1
4.100855520E0,1.334242672E-1,3.715106845E-2,1.038632020E-1
4.103343177E0,1.344895363E-1,3.928159550E-2,1.081242561E-1
4.105830833E0,1.344895363E-1,3.928159550E-2,1.113200486E-1
4.108318489E0,1.334242672E-1,3.715106845E-2,1.155811027E-1
4.110806145E0,1.323590130E-1,3.289001435E-2,1.187768951E-1
4.113293802E0,1.312937438E-1,2.756369673E-2,1.230379492E-1
4.115781458E0,1.291632205E-1,2.117211558E-2,1.262337416E-1
4.118269114E0,1.270326823E-1,1.478053257E-2,1.283642650E-1
4.120756770E0,1.249021590E-1,8.388951421E-3,1.294295341E-1
4.123244427E0,1.227716357E-1,1.997369342E-3,1.294295341E-1
4.125732083E0,1.195758432E-1,-5.459476262E-3,1.283642650E-1
4.128219739E0,1.163800508E-1,-1.185105834E-2,1.262337416E-1
4.130707395E0,1.131842583E-1,-1.717737690E-2,1.230379492E-1
4.133195052E0,1.110537350E-1,-2.250369452E-2,1.198421568E-1
4.135682708E0,1.089232042E-1,-2.676474862E-2,1.166463718E-1
4.138170364E0,1.067926809E-1,-2.996053919E-2,1.134505793E-1
4.140658020E0,1.057274193E-1,-3.315633163E-2,1.113200486E-1
4.143145677E0,1.046621501E-1,-3.422159329E-2,1.102547869E-1
4.145633333E0,1.046621501E-1,-3.635212034E-2,1.091895252E-1
4.148120989E0,1.046621501E-1,-3.741738573E-2,1.070589945E-1
4.150608645E0,1.046621501E-1,-3.848264739E-2,1.070589945E-1
4.153096302E0,1.057274193E-1,-4.167843983E-2,1.049284711E-1
4.155583958E0,1.046621501E-1,-4.274370521E-2,1.049284711E-1
4.158071614E0,1.035968885E-1,-4.380896688E-2,1.027979404E-1
4.160559270E0,1.025316268E-1,-4.593949392E-2,1.017326787E-1
4.163046927E0,1.014663652E-1,-4.807002097E-2,1.017326787E-1
4.165534583E0,9.933583438E-2,-5.020054802E-2,1.006674170E-1
4.168022239E0,9.827057272E-2,-5.233107507E-2,1.006674170E-1
4.170509895E0,9.720530361E-2,-5.233107507E-2,1.017326787E-1
4.172997552E0,9.720530361E-2,-5.233107507E-2,1.017326787E-1
4.175485208E0,9.720530361E-2,-5.020054802E-2,1.017326787E-1
4.177972864E0,9.720530361E-2,-4.807002097E-2,1.006674170E-1
4.180460520E0,9.720530361E-2,-4.593949392E-2,1.006674170E-1
4.182948177E0,9.614004195E-2,-4.380896688E-2,9.853688627E-2
4.185435833E0,9.507478029E-2,-4.167843983E-2,9.534109384E-2
4.187923489E0,9.400951862E-2,-3.848264739E-2,9.214530140E-2
4.190411145E0,9.294424951E-2,-3.635212034E-2,8.788424730E-2
4.192898802E0,9.187898785E-2,-3.422159329E-2,8.255793154E-2
4.195386458E0,9.187898785E-2,-3.315633163E-2,7.723161578E-2
4.197874114E0,9.187898785E-2,-3.209106624E-2,7.190529257E-2
4.200361770E0,9.294424951E-2,-2.996053919E-2,6.764423847E-2
4.202849427E0,9.294424951E-2,-2.783001214E-2,6.338318437E-2
4.205337083E0,9.614004195E-2,-2.463422157E-2,5.912213027E-2
4.207824739E0,9.827057272E-2,-2.037316747E-2,5.486107618E-2
4.210312395E0,1.014663652E-1,-1.717737690E-2,5.060002208E-2
4.212800052E0,1.057274193E-1,-1.398158539E-2,4.527370632E-2
4.215287708E0,1.099884734E-1,-9.720530361E-3,3.888212144E-2
4.217775364E0,1.121189967E-1,-7.590003312E-3,3.142527863E-2
4.220263020E0,1.153147891E-1,-5.459476262E-3,2.290316857E-2
4.222750677E0,1.174453199E-1,-4.394212738E-3,1.331579592E-2
4.225238333E0,1.185105816E-1,-4.394212738E-3,3.728422802E-3
4.227725989E0,1.185105816E-1,-4.394212738E-3,-6.924213842E-3
4.230213645E0,1.185105816E-1,-6.524739787E-3,-1.651158556E-2
4.232701302E0,1.174453199E-1,-9.720530361E-3,-2.503369562E-2
4.235189166E0,1.153147891E-1,-1.398158539E-2,-3.355580568E-2
4.237677031E0,1.121189967E-1,-1.824264042E-2,-3.994738683E-2
4.240164895E0,1.089232042E-1,-2.569948509E-2,-4.633896798E-2
4.242652760E0,1.046621501E-1,-3.315633163E-2,-5.060002208E-2
4.245140625E0,9.933583438E-2,-4.061317816E-2,-5.592634156E-2
4.247628437E0,9.400951862E-2,-4.913528636E-2,-6.018739566E-2
4.250116145E0,8.868319541E-2,-5.765739456E-2,-6.444845349E-2
4.252603802E0,8.229161799E-2,-6.511423737E-2,-6.764423847E-2
4.255091458E0,7.696529478E-2,-7.257108390E-2,-7.084003091E-2
4.257579114E0,7.270424068E-2,-7.896266878E-2,-7.297056168E-2
4.260066770E0,6.844318658E-2,-8.215846121E-2,-7.616634667E-2
4.262554427E0,6.524740160E-2,-8.535424620E-2,-7.616634667E-2
4.265042083E0,6.098634377E-2,-8.535424620E-2,-7.510108501E-2
4.267529739E0,5.992107838E-2,-8.428898454E-2,-7.297056168E-2
4.270017395E0,5.779055133E-2,-8.109319210E-2,-7.084003091E-2
4.272505052E0,5.566002429E-2,-7.789740711E-2,-6.657897681E-2
4.274992708E0,5.459476262E-2,-7.363634557E-2,-6.338318437E-2
4.277480364E0,5.139897019E-2,-6.937529147E-2,-5.805686861E-2
4.279968020E0,4.926844314E-2,-6.404897571E-2,-5.379581451E-2
4.282455677E0,4.607265070E-2,-5.978792161E-2,-4.846949503E-2
4.284943333E0,4.287686199E-2,-5.339634046E-2,-4.207791388E-2
4.287430989E0,3.968106955E-2,-4.913528636E-2,-3.675159439E-2
4.289918645E0,3.755054250E-2,-4.380896688E-2,-3.036001325E-2
4.292406302E0,3.435475379E-2,-3.954791278E-2,-2.183790505E-2
4.294893958E0,3.222422674E-2,-3.422159329E-2,-1.438105945E-2
4.297381614E0,2.902843431E-2,-2.996053919E-2,-5.858949851E-3
4.299869270E0,2.583264373E-2,-2.676474862E-2,2.663159044E-3
4.302356927E0,2.157158963E-2,-2.356895804E-2,9.054740891E-3
4.304844583E0,1.837579720E-2,-2.143843099E-2,1.544632297E-2
4.307332239E0,1.518000662E-2,-1.930790395E-2,2.077264152E-2
4.309819895E0,1.304947957E-2,-1.611211337E-2,2.609895915E-2
4.312307552E0,9.853689000E-3,-1.291632187E-2,3.142527863E-2
4.314795208E0,7.723161485E-3,-1.185105834E-2,3.675159439E-2
4.317282864E0,5.592633970E-3,-8.655266836E-3,4.207791388E-2
4.319770520E0,3.462106921E-3,-6.524739787E-3,4.740423337E-2
4.322258177E0,2.396843163E-3,-4.394212738E-3,5.273054913E-2
4.324745833E0,1.331579522E-3,-2.263685223E-3,5.699160323E-2
4.327233489E0,2.663159103E-4,-2.263685223E-3,6.018739566E-2
4.329721145E0,2.663159103E-4,-2.263685223E-3,6.231792271E-2
4.332208802E0,-7.989477599E-4,-2.263685223E-3,6.444845349E-2
4.334696458E0,-7.989477599E-4,-4.394212738E-3,6.444845349E-2
4.337184114E0,-1.864211401E-3,-5.459476262E-3,6.444845349E-2
4.339671770E0,-2.929474926E-3,-7.590003312E-3,6.444845349E-2
4.342159427E0,-2.929474926E-3,-8.655266836E-3,6.338318437E-2
4.344647083E0,-1.864211401E-3,-1.078579482E-2,6.018739566E-2
4.347134739E0,-1.864211401E-3,-1.504684892E-2,5.592634156E-2
4.349622395E0,-7.989477599E-4,-2.037316747E-2,5.166528746E-2
4.352110052E0,-7.989477599E-4,-2.569948509E-2,4.527370632E-2
4.354597708E0,-1.864211401E-3,-3.102580272E-2,3.888212144E-2
4.357085364E0,-2.929474926E-3,-3.848264739E-2,3.249054030E-2
4.359573020E0,-5.060002208E-3,-4.487423226E-2,2.503369562E-2
4.362060677E0,-7.190529723E-3,-5.233107507E-2,1.757685095E-2
4.364548333E0,-8.255792782E-3,-5.978792161E-2,1.012000442E-2
4.367035989E0,-1.038632076E-2,-6.511423737E-2,3.728422802E-3
4.369523645E0,-1.251684781E-2,-7.044056058E-2,-1.597895520E-3
4.372011302E0,-1.251684781E-2,-7.470161468E-2,-5.858949851E-3
4.374498958E0,-1.358211134E-2,-7.896266878E-2,-1.012000442E-2
4.376986614E0,-1.251684781E-2,-8.109319210E-2,-1.225053146E-2
4.379474270E0,-1.145158429E-2,-8.215846121E-2,-1.438105945E-2
4.381961927E0,-1.145158429E-2,-8.215846121E-2,-1.757685095E-2
4.384449583E0,-9.321057238E-3,-8.109319210E-2,-2.077264152E-2
4.386937239E0,-8.255792782E-3,-7.896266878E-2,-2.290316857E-2
4.389424895E0,-5.060002208E-3,-7.683213800E-2,-2.503369562E-2
4.391912552E0,-2.929474926E-3,-7.257108390E-2,-2.609895915E-2
4.394400208E0,2.663159103E-4,-6.724476814E-2,-2.609895915E-2
4.396887864E0,3.462106921E-3,-6.085318699E-2,-2.503369562E-2
4.399375520E0,7.723161485E-3,-5.446160212E-2,-2.290316857E-2
4.401863177E0,1.198421605E-2,-4.700475931E-2,-1.864211448E-2
4.404350833E0,1.731053367E-2,-4.061317816E-2,-1.438105945E-2
4.406838489E0,2.263685316E-2,-3.528685868E-2,-9.054740891E-3
4.409326145E0,2.796317078E-2,-3.102580272E-2,-3.728422802E-3
4.411813802E0,3.328948840E-2,-2.783001214E-2,1.597895520E-3
4.414301458E0,3.861580789E-2,-2.676474862E-2,6.924213842E-3
4.416789114E0,4.287686199E-2,-2.569948509E-2,1.225053146E-2
4.419276770E0,4.713791609E-2,-2.463422157E-2,1.864211448E-2
4.421764427E0,5.033370852E-2,-2.463422157E-2,2.396843210E-2
4.424252083E0,5.459476262E-2,-2.463422157E-2,2.929474972E-2
4.426739739E0,5.779055133E-2,-2.356895804E-2,3.462106735E-2
4.429227395E0,6.205160543E-2,-2.356895804E-2,3.888212144E-2
4.431715104E0,6.631266326E-2,-2.356895804E-2,4.314317927E-2
4.434202812E0,7.057371736E-2,-2.463422157E-2,4.740423337E-2
4.436690520E0,7.483477145E-2,-2.569948509E-2,5.060002208E-2
4.439178229E0,7.696529478E-2,-2.676474862E-2,5.166528746E-2
4.441665937E0,8.016108721E-2,-2.889527567E-2,5.166528746E-2
4.444153645E0,8.229161799E-2,-3.209106624E-2,5.166528746E-2
4.446641354E0,8.442214131E-2,-3.528685868E-2,5.166528746E-2
4.449129062E0,8.655267209E-2,-3.848264739E-2,5.060002208E-2
4.451616770E0,8.761793375E-2,-4.274370521E-2,4.953476042E-2
4.454104479E0,8.974846452E-2,-4.487423226E-2,4.740423337E-2
4.456592187E0,8.974846452E-2,-4.807002097E-2,4.527370632E-2
4.459079895E0,8.974846452E-2,-5.126581341E-2,4.207791388E-2
4.461567604E0,8.868319541E-2,-5.446160212E-2,3.994738683E-2
4.464055312E0,8.655267209E-2,-5.978792161E-2,3.781685978E-2
4.466543020E0,8.335687965E-2,-6.404897571E-2,3.568633273E-2
4.469030729E0,8.016108721E-2,-6.831002980E-2,3.462106735E-2
4.471518437E0,7.590003312E-2,-7.363634557E-2,3.355580568E-2
4.474006145E0,7.057371736E-2,-8.002793044E-2,3.355580568E-2
4.476493854E0,6.524740160E-2,-8.748477697E-2,3.249054030E-2
4.478981562E0,5.992107838E-2,-9.387636185E-2,3.142527863E-2
4.481469270E0,5.459476262E-2,-9.920267761E-2,3.249054030E-2
4.483956979E0,5.033370852E-2,-1.034637317E-1,3.249054030E-2
4.486444687E0,4.607265070E-2,-1.066595241E-1,3.462106735E-2
4.488932395E0,4.181159660E-2,-1.077247858E-1,3.568633273E-2
4.491420104E0,3.968106955E-2,-1.066595241E-1,3.675159439E-2
4.493907812E0,3.648528084E-2,-1.045289934E-1,3.888212144E-2
4.496395520E0,3.542001545E-2,-1.023984700E-1,4.101264849E-2
4.498883229E0,3.435475379E-2,-9.813741595E-2,4.207791388E-2
4.501370937E0,3.328948840E-2,-9.387636185E-2,4.314317927E-2
4.503858645E0,3.328948840E-2,-8.961530030E-2,4.420844093E-2
4.506346354E0,3.222422674E-2,-8.535424620E-2,4.633896798E-2
4.508834062E0,3.222422674E-2,-8.002793044E-2,4.846949503E-2
4.511321770E0,3.222422674E-2,-7.470161468E-2,5.060002208E-2
4.513809479E0,3.222422674E-2,-6.937529147E-2,5.273054913E-2
4.516297187E0,3.222422674E-2,-6.511423737E-2,5.592634156E-2
4.518784895E0,3.435475379E-2,-6.085318699E-2,5.805686861E-2
4.521272604E0,3.435475379E-2,-5.765739456E-2,6.018739566E-2
4.523760312E0,3.648528084E-2,-5.446160212E-2,6.231792271E-2
4.526247968E0,3.755054250E-2,-5.233107507E-2,6.338318437E-2
4.528735625E0,3.968106955E-2,-5.126581341E-2,6.231792271E-2
4.531223281E0,4.074633494E-2,-5.126581341E-2,5.912213027E-2
4.533710937E0,4.181159660E-2,-5.126581341E-2,5.592634156E-2
4.536198593E0,4.287686199E-2,-5.233107507E-2,5.060002208E-2
4.538686250E0,4.394212365E-2,-5.339634046E-2,4.527370632E-2
4.541173906E0,4.287686199E-2,-5.446160212E-2,3.994738683E-2
4.543661562E0,4.287686199E-2,-5.552686751E-2,3.355580568E-2
4.546149218E0,4.181159660E-2,-5.765739456E-2,2.822948620E-2
4.548636875E0,4.074633494E-2,-6.085318699E-2,2.183790505E-2
4.551124531E0,4.181159660E-2,-6.511423737E-2,1.651158556E-2
4.553612187E0,4.181159660E-2,-6.937529147E-2,1.012000442E-2
4.556099843E0,4.287686199E-2,-7.576687634E-2,2.663159044E-3
4.558587500E0,4.394212365E-2,-8.002793044E-2,-4.793686327E-3
4.561075156E0,4.500738904E-2,-8.641951531E-2,-1.225053146E-2
4.563562812E0,4.607265070E-2,-9.174583107E-2,-2.077264152E-2
4.566050468E0,4.607265070E-2,-9.707214683E-2,-2.822948620E-2
4.568538125E0,4.713791609E-2,-1.023984700E-1,-3.675159439E-2
4.571025781E0,4.926844314E-2,-1.055942550E-1,-4.527370632E-2
4.573513437E0,4.926844314E-2,-1.087900475E-1,-5.273054913E-2
4.576001093E0,5.033370852E-2,-1.098553166E-1,-6.018739566E-2
4.578488750E0,5.139897019E-2,-1.109205782E-1,-6.764423847E-2
4.580976406E0,5.246423557E-2,-1.119858399E-1,-7.616634667E-2
4.583464062E0,5.246423557E-2,-1.130511016E-1,-8.362319320E-2
4.585951718E0,5.246423557E-2,-1.141163707E-1,-9.321057051E-2
4.588439375E0,5.246423557E-2,-1.141163707E-1,-1.006674170E-1
4.590927031E0,5.246423557E-2,-1.141163707E-1,-1.091895252E-1
4.593414687E0,5.246423557E-2,-1.151816323E-1,-1.177116334E-1
4.595902343E0,5.246423557E-2,-1.151816323E-1,-1.251684725E-1
4.598390000E0,5.246423557E-2,-1.130511016E-1,-1.326253265E-1
4.600877656E0,5.352949724E-2,-1.119858399E-1,-1.390169114E-1
4.603365312E0,5.352949724E-2,-1.087900475E-1,-1.443432271E-1
4.605852968E0,5.352949724E-2,-1.055942550E-1,-1.475390196E-1
4.608340625E0,5.352949724E-2,-1.013332009E-1,-1.496695429E-1
4.610828281E0,5.352949724E-2,-9.600688517E-2,-1.518000662E-1
4.613315937E0,5.352949724E-2,-9.281109273E-2,-1.528653353E-1
4.615803593E0,5.352949724E-2,-8.855003864E-2,-1.528653353E-1
4.618291250E0,5.246423557E-2,-8.428898454E-2,-1.528653353E-1
4.620778906E0,5.139897019E-2,-8.109319210E-2,-1.496695429E-1
4.623266562E0,4.926844314E-2,-7.896266878E-2,-1.464737505E-1
4.625754218E0,4.607265070E-2,-7.576687634E-2,-1.432779580E-1
4.628241875E0,4.181159660E-2,-7.470161468E-2,-1.379516423E-1
4.630729531E0,3.755054250E-2,-7.470161468E-2,-1.326253265E-1
4.633217187E0,3.222422674E-2,-7.470161468E-2,-1.251684725E-1
4.635704843E0,2.583264373E-2,-7.683213800E-2,-1.177116334E-1
4.638192500E0,2.050632425E-2,-7.789740711E-2,-1.091895252E-1
4.640680156E0,1.518000662E-2,-8.002793044E-2,-9.960214794E-2
4.643167812E0,9.853689000E-3,-8.109319210E-2,-8.894951642E-2
4.645655468E0,6.657897960E-3,-8.109319210E-2,-7.829687744E-2
4.648143125E0,3.462106921E-3,-7.896266878E-2,-6.764423847E-2
4.650630781E0,1.331579522E-3,-7.470161468E-2,-5.699160323E-2
4.653118437E0,2.663159103E-4,-6.831002980E-2,-4.633896798E-2
4.655606093E0,2.663159103E-4,-6.085318699E-2,-3.675159439E-2
4.658093750E0,2.663159103E-4,-5.126581341E-2,-2.716422267E-2
4.660581406E0,2.663159103E-4,-4.061317816E-2,-1.864211448E-2
4.663069062E0,2.663159103E-4,-2.996053919E-2,-1.118526794E-2
4.665556718E0,1.331579522E-3,-1.930790395E-2,-4.793686327E-3
4.668044375E0,3.462106921E-3,-9.720530361E-3,1.597895520E-3
4.670532031E0,4.527370445E-3,-1.198421582E-3,7.989477366E-3
4.673019687E0,6.657897960E-3,6.258423906E-3,1.225053146E-2
4.675507343E0,7.723161485E-3,1.158474199E-2,1.757685095E-2
4.677995000E0,9.853689000E-3,1.584579609E-2,2.183790505E-2
4.680482656E0,1.198421605E-2,1.797632314E-2,2.609895915E-2
4.682970312E0,1.198421605E-2,1.797632314E-2,2.822948620E-2
4.685457968E0,1.411474310E-2,1.691105962E-2,3.142527863E-2
4.687945625E0,1.411474310E-2,1.478053257E-2,3.249054030E-2
4.690433281E0,1.411474310E-2,1.051947847E-2,3.462106735E-2
4.692920937E0,1.411474310E-2,7.323687430E-3,3.462106735E-2
4.695408593E0,1.518000662E-2,3.062632866E-3,3.462106735E-2
4.697896250E0,1.731053367E-2,-1.198421582E-3,3.355580568E-2
4.700383958E0,1.944106072E-2,-5.459476262E-3,3.142527863E-2
4.702871666E0,2.157158963E-2,-8.655266836E-3,2.929474972E-2
4.705359375E0,2.263685316E-2,-1.185105834E-2,2.503369562E-2
4.707847083E0,2.370211668E-2,-1.504684892E-2,2.077264152E-2
4.710334791E0,2.583264373E-2,-1.717737690E-2,1.544632297E-2
4.712822500E0,2.796317078E-2,-2.037316747E-2,9.054740891E-3
4.715310208E0,3.009369783E-2,-2.463422157E-2,2.663159044E-3
4.717797916E0,3.115896136E-2,-2.783001214E-2,-4.793686327E-3
4.720285625E0,3.328948840E-2,-3.315633163E-2,-1.118526794E-2
4.722773333E0,3.435475379E-2,-3.741738573E-2,-1.544632297E-2
4.725261041E0,3.648528084E-2,-4.274370521E-2,-2.077264152E-2
4.727748750E0,3.755054250E-2,-4.593949392E-2,-2.503369562E-2
4.730236458E0,3.861580789E-2,-4.913528636E-2,-2.716422267E-2
4.732724166E0,4.074633494E-2,-5.020054802E-2,-2.822948620E-2
4.735211875E0,4.287686199E-2,-5.126581341E-2,-2.716422267E-2
4.737699583E0,4.500738904E-2,-5.020054802E-2,-2.716422267E-2
4.740187291E0,4.820318148E-2,-4.700475931E-2,-2.609895915E-2
4.742675000E0,5.139897019E-2,-4.274370521E-2,-2.503369562E-2
4.745162708E0,5.566002429E-2,-3.741738573E-2,-2.396843210E-2
4.747650416E0,5.992107838E-2,-2.996053919E-2,-2.396843210E-2
4.750138125E0,6.524740160E-2,-2.250369452E-2,-2.290316857E-2
4.752625833E0,6.950845569E-2,-1.398158539E-2,-2.183790505E-2
4.755113541E0,7.483477145E-2,-5.459476262E-3,-2.077264152E-2
4.757601250E0,7.909582555E-2,4.127896391E-3,-1.864211448E-2
4.760088958E0,8.335687965E-2,1.371526904E-2,-1.651158556E-2
4.762576666E0,8.761793375E-2,2.330264263E-2,-1.331579592E-2
4.765064375E0,9.187898785E-2,3.289001435E-2,-7.989477366E-3
4.767552083E0,9.507478029E-2,4.141212255E-2,-3.728422802E-3
4.770039791E0,9.933583438E-2,4.886896908E-2,1.597895520E-3
4.772527500E0,1.014663652E-1,5.526055023E-2,5.858949851E-3
4.775015208E0,1.035968885E-1,5.952160433E-2,1.225053146E-2
4.777502916E0,1.046621501E-1,6.378266215E-2,1.864211448E-2
4.779990625E0,1.057274193E-1,6.591318548E-2,2.396843210E-2
4.782478333E0,1.067926809E-1,6.697845459E-2,3.036001325E-2
4.784966041E0,1.067926809E-1,6.697845459E-2,3.462106735E-2
4.787453750E0,1.067926809E-1,6.484792382E-2,3.888212144E-2
4.789941458E0,1.046621501E-1,6.165213138E-2,4.207791388E-2
4.792429166E0,1.025316268E-1,5.739107728E-2,4.420844093E-2
4.794916875E0,1.004010960E-1,5.313002318E-2,4.633896798E-2
4.797404531E0,9.720530361E-2,4.886896908E-2,4.740423337E-2
4.799892187E0,9.507478029E-2,4.567318037E-2,4.846949503E-2
4.802379843E0,9.187898785E-2,4.247738793E-2,4.846949503E-2
4.804867500E0,8.868319541E-2,3.821633384E-2,4.846949503E-2
4.807355156E0,8.655267209E-2,3.608580679E-2,4.846949503E-2
4.809842812E0,8.442214131E-2,3.395527974E-2,4.953476042E-2
4.812330468E0,8.229161799E-2,3.395527974E-2,5.060002208E-2
4.814818125E0,8.016108721E-2,3.502054140E-2,5.166528746E-2
4.817305781E0,8.122635633E-2,3.715106845E-2,5.273054913E-2
4.819793437E0,8.016108721E-2,3.928159550E-2,5.486107618E-2
4.822281093E0,8.229161799E-2,4.034686089E-2,5.592634156E-2
4.824768750E0,8.335687965E-2,4.247738793E-2,5.805686861E-2
4.827256406E0,8.548741043E-2,4.460791498E-2,5.912213027E-2
4.829744062E0,8.761793375E-2,4.780370742E-2,6.018739566E-2
4.832231718E0,8.868319541E-2,5.099949613E-2,5.912213027E-2
4.834719375E0,8.974846452E-2,5.419528857E-2,6.018739566E-2
4.837207031E0,9.081372619E-2,5.739107728E-2,6.125266105E-2
4.839694687E0,8.974846452E-2,6.058686972E-2,6.231792271E-2
4.842182343E0,8.974846452E-2,6.165213138E-2,6.338318437E-2
4.844670000E0,8.868319541E-2,6.271740049E-2,6.551371515E-2
4.847157656E0,8.761793375E-2,6.165213138E-2,6.657897681E-2
4.849645312E0,8.655267209E-2,5.952160433E-2,6.764423847E-2
4.852132968E0,8.442214131E-2,5.739107728E-2,6.870950758E-2
4.854620625E0,8.229161799E-2,5.419528857E-2,6.977476925E-2
4.857108281E0,8.016108721E-2,5.099949613E-2,6.977476925E-2
4.859595937E0,7.696529478E-2,4.780370742E-2,6.977476925E-2
4.862083593E0,7.376950979E-2,4.460791498E-2,6.870950758E-2
4.864571250E0,7.057371736E-2,4.141212255E-2,6.764423847E-2
4.867058906E0,6.631266326E-2,3.821633384E-2,6.551371515E-2
4.869546562E0,6.311687082E-2,3.502054140E-2,6.338318437E-2
4.872034218E0,6.098634377E-2,3.289001435E-2,6.125266105E-2
4.874521875E0,5.779055133E-2,2.862896025E-2,5.805686861E-2
4.877009531E0,5.459476262E-2,2.543316968E-2,5.592634156E-2
4.879497187E0,5.246423557E-2,2.223737910E-2,5.486107618E-2
4.881984843E0,4.926844314E-2,2.117211558E-2,5.273054913E-2
4.884472500E0,4.820318148E-2,2.010685205E-2,5.060002208E-2
4.886960156E0,4.713791609E-2,1.797632314E-2,4.953476042E-2
4.889447812E0,4.500738904E-2,1.797632314E-2,4.846949503E-2
4.891935468E0,4.500738904E-2,1.797632314E-2,4.633896798E-2
4.894423125E0,4.500738904E-2,1.904158667E-2,4.420844093E-2
4.896910781E0,4.607265070E-2,2.010685205E-2,4.207791388E-2
4.899398437E0,4.713791609E-2,2.223737910E-2,3.888212144E-2
4.901886093E0,4.713791609E-2,2.436790615E-2,3.462106735E-2
4.904373750E0,4.820318148E-2,2.543316968E-2,3.142527863E-2
4.906861406E0,5.033370852E-2,2.756369673E-2,2.716422267E-2
4.909349062E0,5.033370852E-2,2.862896025E-2,2.290316857E-2
4.911836718E0,5.033370852E-2,3.075948730E-2,1.864211448E-2
4.914324375E0,5.033370852E-2,3.289001435E-2,1.651158556E-2
4.916812031E0,5.033370852E-2,3.395527974E-2,1.331579592E-2
4.919299687E0,4.926844314E-2,3.502054140E-2,1.225053146E-2
4.921787343E0,4.820318148E-2,3.395527974E-2,1.012000442E-2
4.924275000E0,4.820318148E-2,3.182475269E-2,9.054740891E-3
4.926762656E0,4.607265070E-2,3.075948730E-2,9.054740891E-3
4.929250312E0,4.500738904E-2,2.756369673E-2,9.054740891E-3
4.931737968E0,4.181159660E-2,2.436790615E-2,1.012000442E-2
4.934225625E0,3.755054250E-2,2.117211558E-2,1.225053146E-2
4.936713281E0,3.328948840E-2,1.691105962E-2,1.438105945E-2
4.939200937E0,3.009369783E-2,1.265000552E-2,1.651158556E-2
4.941688593E0,2.476738021E-2,9.454214945E-3,2.077264152E-2
4.944176250E0,2.050632425E-2,6.258423906E-3,2.396843210E-2
4.946663906E0,1.624527015E-2,5.193160381E-3,2.822948620E-2
4.949151562E0,1.304947957E-2,3.062632866E-3,3.142527863E-2
4.951639218E0,9.853689000E-3,3.062632866E-3,3.462106735E-2
4.954126875E0,6.657897960E-3,9.321057005E-4,3.568633273E-2
4.956614531E0,4.527370445E-3,-1.331579551E-4,3.781685978E-2
4.959102187E0,-7.989477599E-4,-1.198421582E-3,3.888212144E-2
4.961589843E0,-3.994738683E-3,-2.263685223E-3,3.781685978E-2
4.964077500E0,-8.255792782E-3,-3.328948980E-3,3.675159439E-2
4.966565156E0,-1.251684781E-2,-4.394212738E-3,3.462106735E-2
4.969052864E0,-1.571263932E-2,-4.394212738E-3,3.355580568E-2
4.971540573E0,-1.890842989E-2,-4.394212738E-3,3.036001325E-2
4.974028281E0,-2.103895694E-2,-2.263685223E-3,2.929474972E-2
