"Time (s)","Acceleration x (m/s^2)","Acceleration y (m/s^2)","Acceleration z (m/s^2)"
5.330901000E-2,-3.387795389E-1,-9.637260437E0,-4.489128292E-2
5.580505200E-2,-3.675099611E-1,-9.646837234E0,-4.967968538E-2
5.830109300E-2,-3.866635859E-1,-9.656414032E0,-4.967968538E-2
6.079708300E-2,-4.106055796E-1,-9.689932823E0,-5.925649032E-2
6.329307300E-2,-4.345476031E-1,-9.699509621E0,-7.362170517E-2
6.578906200E-2,-4.489128292E-1,-9.718663216E0,-9.277531505E-2
6.828505200E-2,-4.680664241E-1,-9.742605209E0,-1.023521200E-1
7.078104100E-2,-4.824316502E-1,-9.761758804E0,-1.167173311E-1
7.327807300E-2,-4.967968464E-1,-9.780912399E0,-1.262941360E-1
7.577510400E-2,-4.967968464E-1,-9.795277596E0,-1.502361596E-1
7.822510400E-2,-5.207388401E-1,-9.804854393E0,-1.598129570E-1
8.067786400E-2,-5.303156972E-1,-9.804854393E0,-2.029085904E-1
8.313062500E-2,-5.351040959E-1,-9.819219589E0,-2.124854028E-1
8.559052000E-2,-5.494692922E-1,-9.814431190E0,-2.124854028E-1
8.805875000E-2,-5.686228871E-1,-9.843161583E0,-2.412158251E-1
9.053614500E-2,-5.781996846E-1,-9.847949982E0,-2.555810213E-1
9.302312500E-2,-5.877765417E-1,-9.843161583E0,-2.651578486E-1
9.551937500E-2,-5.877765417E-1,-9.867103577E0,-2.699462473E-1
9.802421800E-2,-5.925649405E-1,-9.881468773E0,-2.412158251E-1
1.005366140E-1,-5.829881430E-1,-9.886257172E0,-2.268506140E-1
1.030552600E-1,-5.686228871E-1,-9.919775963E0,-1.981201917E-1
1.055786980E-1,-5.398924947E-1,-9.929352760E0,-1.981201917E-1
1.081053120E-1,-5.303156972E-1,-9.934141159E0,-1.741781682E-1
1.106333850E-1,-5.111620426E-1,-9.929352760E0,-1.358709484E-1
1.131571870E-1,-4.920084476E-1,-9.924564362E0,-1.167173311E-1
1.156448950E-1,-4.776432514E-1,-9.919775963E0,-9.277531505E-2
1.181326040E-1,-4.920084476E-1,-9.900622368E0,-1.167173311E-1
1.206203120E-1,-5.063736439E-1,-9.886257172E0,-1.215057373E-1
1.231080200E-1,-4.967968464E-1,-9.881468773E0,-1.215057373E-1
1.255957290E-1,-4.824316502E-1,-9.871891975E0,-1.119289324E-1
1.280834370E-1,-4.920084476E-1,-9.852738380E0,-1.119289324E-1
1.305711450E-1,-4.920084476E-1,-9.843161583E0,-1.262941360E-1
1.330588540E-1,-4.776432514E-1,-9.857526779E0,-1.406593472E-1
1.355465620E-1,-4.920084476E-1,-9.857526779E0,-1.215057373E-1
1.380342700E-1,-4.920084476E-1,-9.857526779E0,-1.023521200E-1
1.405219790E-1,-4.728548229E-1,-9.857526779E0,-1.071405262E-1
1.430096870E-1,-4.728548229E-1,-9.852738380E0,-8.798690885E-2
1.454973950E-1,-4.872200489E-1,-9.867103577E0,-7.841010392E-2
1.479851040E-1,-4.776432514E-1,-9.876680374E0,-6.883329898E-2
1.504728120E-1,-4.872200489E-1,-9.900622368E0,-5.446808785E-2
1.529605200E-1,-4.872200489E-1,-9.891045570E0,-4.489128292E-2
1.554482290E-1,-4.776432514E-1,-9.910199165E0,-3.052607179E-2
1.579359370E-1,-4.584896266E-1,-9.910199165E0,-4.010287672E-2
1.604236450E-1,-4.632780254E-1,-9.924564362E0,-3.531447425E-2
1.629113540E-1,-4.824316502E-1,-9.910199165E0,-4.489128292E-2
1.653990620E-1,-4.824316502E-1,-9.881468773E0,-6.404489279E-2
1.678867700E-1,-4.920084476E-1,-9.857526779E0,-8.798690885E-2
1.703744790E-1,-5.015852451E-1,-9.833584785E0,-1.167173311E-1
1.728621870E-1,-5.303156972E-1,-9.809642792E0,-1.119289324E-1
1.753498950E-1,-5.398924947E-1,-9.776124001E0,-1.215057373E-1
1.778376040E-1,-5.351040959E-1,-9.766547203E0,-1.262941360E-1
1.803253120E-1,-5.398924947E-1,-9.728240013E0,-1.167173311E-1
1.828130200E-1,-5.351040959E-1,-9.728240013E0,-1.023521200E-1
1.853007290E-1,-5.398924947E-1,-9.713874817E0,-1.023521200E-1
1.877884370E-1,-5.159504414E-1,-9.704298019E0,-8.798690885E-2
1.902761450E-1,-4.920084476E-1,-9.685144424E0,-1.119289324E-1
1.927638540E-1,-4.967968464E-1,-9.689932823E0,-1.262941360E-1
1.952515620E-1,-4.967968464E-1,-9.670779228E0,-1.406593472E-1
1.977392700E-1,-4.967968464E-1,-9.656414032E0,-1.502361596E-1
2.002269790E-1,-5.063736439E-1,-9.651625633E0,-1.693897694E-1
2.027146870E-1,-5.303156972E-1,-9.627683640E0,-1.741781682E-1
2.052023950E-1,-5.542576909E-1,-9.618106842E0,-1.933317930E-1
2.076901040E-1,-5.542576909E-1,-9.608530045E0,-1.741781682E-1
2.101778120E-1,-5.638344884E-1,-9.613318443E0,-1.789665818E-1
2.126655200E-1,-5.734112859E-1,-9.613318443E0,-2.172738016E-1
2.151532290E-1,-5.638344884E-1,-9.618106842E0,-1.119289324E-1
2.176409370E-1,-5.638344884E-1,-9.608530045E0,-1.933317930E-1
2.201286450E-1,-5.494692922E-1,-9.618106842E0,-7.841010392E-2
2.226163540E-1,-5.638344884E-1,-9.603741646E0,-1.837549806E-1
2.251040620E-1,-5.829881430E-1,-9.618106842E0,-6.404489279E-2
2.275917700E-1,-5.925649405E-1,-9.594164848E0,-1.981201917E-1
2.300794790E-1,-6.021417379E-1,-9.603741646E0,-7.841010392E-2
2.325671870E-1,-6.212953329E-1,-9.570222855E0,-2.124854028E-1
2.350548950E-1,-6.356605291E-1,-9.594164848E0,-8.798690885E-2
2.375426040E-1,-6.356605291E-1,-9.584588051E0,-1.933317930E-1
2.400303120E-1,-6.548141837E-1,-9.598953247E0,-7.362170517E-2
2.425180200E-1,-6.691793799E-1,-9.575011253E0,-1.406593472E-1
2.450057290E-1,-6.548141837E-1,-9.579799652E0,-3.531447425E-2
2.474934370E-1,-6.308721304E-1,-9.570222855E0,-1.023521200E-1
2.499811450E-1,-6.165069342E-1,-9.565434456E0,-1.795651275E-3
2.524688540E-1,-5.877765417E-1,-9.546280861E0,-8.319851011E-2
2.549565620E-1,-5.877765417E-1,-9.565434456E0,-2.573766746E-2
2.574442700E-1,-5.829881430E-1,-9.551069260E0,-8.798690885E-2
2.599319790E-1,-5.877765417E-1,-9.551069260E0,-3.052607179E-2
2.624196870E-1,-6.069301367E-1,-9.507973671E0,-6.404489279E-2
2.649073950E-1,-6.260837317E-1,-9.493608475E0,-3.531447425E-2
2.673951040E-1,-6.260837317E-1,-9.507973671E0,-5.446808785E-2
2.698828120E-1,-6.596025825E-1,-9.507973671E0,-4.010287672E-2
2.723705200E-1,-6.643909812E-1,-9.507973671E0,-2.573766746E-2
2.748582290E-1,-6.787561774E-1,-9.512762070E0,-1.137245819E-2
2.773459370E-1,-6.691793799E-1,-9.522338867E0,-1.137245819E-2
2.798336450E-1,-6.787561774E-1,-9.527127266E0,-1.137245819E-2
2.823213540E-1,-6.548141837E-1,-9.531915665E0,3.172317147E-2
2.848090620E-1,-6.739677787E-1,-9.527127266E0,1.256955881E-2
2.872967700E-1,-6.787561774E-1,-9.527127266E0,5.087678507E-2
2.897844790E-1,-6.931213737E-1,-9.507973671E0,7.781155407E-3
2.922721870E-1,-7.170634270E-1,-9.498396873E0,7.960720360E-2
2.947598950E-1,-7.170634270E-1,-9.488820076E0,1.256955881E-2
2.972476040E-1,-7.170634270E-1,-9.493608475E0,7.960720360E-2
2.997353120E-1,-7.074866295E-1,-9.479243279E0,-3.531447425E-2
3.022230200E-1,-7.122750282E-1,-9.474454880E0,4.129998013E-2
3.047107290E-1,-7.170634270E-1,-9.464878082E0,-5.925649032E-2
3.071984370E-1,-7.074866295E-1,-9.469666481E0,7.781155407E-3
3.096861450E-1,-7.026981711E-1,-9.440936089E0,-1.215057373E-1
3.121738540E-1,-7.170634270E-1,-9.460089684E0,-2.094926499E-2
3.146615620E-1,-7.218518257E-1,-9.464878082E0,-1.262941360E-1
3.171493230E-1,-7.362170219E-1,-9.479243279E0,-3.052607179E-2
3.196370830E-1,-7.410054207E-1,-9.440936089E0,-1.454477459E-1
3.221248430E-1,-7.362170219E-1,-9.455301285E0,-1.616086066E-2
3.246126040E-1,-7.314286232E-1,-9.436147690E0,-1.550245583E-1
3.271003640E-1,-7.266402245E-1,-9.440936089E0,-2.094926499E-2
3.295881250E-1,-7.170634270E-1,-9.450512886E0,-1.502361596E-1
3.320758850E-1,-7.074866295E-1,-9.464878082E0,-1.795651275E-3
3.345636450E-1,-7.122750282E-1,-9.440936089E0,-1.071405262E-1
3.370514060E-1,-7.026981711E-1,-9.464878082E0,7.003039867E-2
3.395391660E-1,-6.787561774E-1,-9.440936089E0,-3.531447425E-2
3.420269270E-1,-6.596025825E-1,-9.436147690E0,1.179144308E-1
3.445146870E-1,-6.596025825E-1,-9.445724487E0,1.256955881E-2
3.470024480E-1,-6.643909812E-1,-9.440936089E0,1.227028370E-1
3.494902080E-1,-6.643909812E-1,-9.450512886E0,-6.584054790E-3
3.519779680E-1,-6.787561774E-1,-9.479243279E0,7.481880486E-2
3.544657290E-1,-6.739677787E-1,-9.479243279E0,-4.010287672E-2
3.569534890E-1,-6.691793799E-1,-9.493608475E0,3.172317147E-2
3.594412500E-1,-6.596025825E-1,-9.498396873E0,-4.010287672E-2
3.619290100E-1,-6.691793799E-1,-9.498396873E0,1.256955881E-2
3.644167700E-1,-6.500257850E-1,-9.493608475E0,-3.531447425E-2
3.669045310E-1,-6.212953329E-1,-9.507973671E0,2.992752008E-3
3.693922910E-1,-5.781996846E-1,-9.493608475E0,-6.584054790E-3
3.718800520E-1,-5.686228871E-1,-9.517550468E0,2.214636654E-2
3.743678120E-1,-5.446808934E-1,-9.507973671E0,2.214636654E-2
3.768555730E-1,-5.015852451E-1,-9.522338867E0,7.781155407E-3
3.793433330E-1,-4.872200489E-1,-9.536704063E0,1.256955881E-2
3.818310930E-1,-4.967968464E-1,-9.536704063E0,-3.052607179E-2
3.843188540E-1,-5.015852451E-1,-9.536704063E0,2.992752008E-3
3.868066140E-1,-5.015852451E-1,-9.541492462E0,-6.883329898E-2
3.892943750E-1,-4.967968464E-1,-9.546280861E0,-1.616086066E-2
3.917821350E-1,-5.255272985E-1,-9.527127266E0,-1.215057373E-1
3.942698950E-1,-5.446808934E-1,-9.522338867E0,-4.489128292E-2
3.967576560E-1,-5.734112859E-1,-9.498396873E0,-1.454477459E-1
3.992454160E-1,-5.781996846E-1,-9.493608475E0,-4.967968538E-2
4.017331770E-1,-5.973533392E-1,-9.479243279E0,-1.789665818E-1
4.042208850E-1,-6.117185354E-1,-9.469666481E0,-7.841010392E-2
4.067085930E-1,-6.356605291E-1,-9.464878082E0,-2.076970041E-1
4.091963020E-1,-6.356605291E-1,-9.484031677E0,-4.967968538E-2
4.116840100E-1,-6.212953329E-1,-9.493608475E0,-1.598129570E-1
4.141717180E-1,-6.069301367E-1,-9.527127266E0,-6.584054790E-3
4.166594270E-1,-6.117185354E-1,-9.541492462E0,-1.215057373E-1
4.191471350E-1,-6.117185354E-1,-9.575011253E0,6.524199992E-2
4.216348430E-1,-6.260837317E-1,-9.594164848E0,-4.489128292E-2
4.241225520E-1,-6.021417379E-1,-9.618106842E0,1.131260321E-1
4.266102600E-1,-5.829881430E-1,-9.632472038E0,-3.531447425E-2
4.290979680E-1,-5.877765417E-1,-9.661202431E0,1.227028370E-1
4.315856770E-1,-5.734112859E-1,-9.656414032E0,-3.531447425E-2
4.340733850E-1,-5.638344884E-1,-9.694721222E0,8.918401599E-2
4.365610930E-1,-5.686228871E-1,-9.689932823E0,-8.319851011E-2
4.390488020E-1,-5.542576909E-1,-9.713874817E0,4.129998013E-2
4.415365100E-1,-5.351040959E-1,-9.689932823E0,-1.023521200E-1
4.440242180E-1,-5.398924947E-1,-9.694721222E0,1.256955881E-2
4.465119270E-1,-5.446808934E-1,-9.656414032E0,-1.119289324E-1
4.489996350E-1,-5.542576909E-1,-9.661202431E0,-1.137245819E-2
4.514873430E-1,-5.494692922E-1,-9.646837234E0,-1.167173311E-1
4.539750520E-1,-5.638344884E-1,-9.627683640E0,-3.052607179E-2
4.564627600E-1,-5.638344884E-1,-9.613318443E0,-1.023521200E-1
4.589504680E-1,-5.877765417E-1,-9.603741646E0,-3.052607179E-2
4.614381770E-1,-6.021417379E-1,-9.589376450E0,-9.277531505E-2
4.639258850E-1,-5.973533392E-1,-9.598953247E0,-4.489128292E-2
4.664135930E-1,-6.021417379E-1,-9.594164848E0,-7.841010392E-2
4.689013020E-1,-5.973533392E-1,-9.598953247E0,-4.010287672E-2
4.713890100E-1,-5.829881430E-1,-9.598953247E0,-4.489128292E-2
4.738767180E-1,-5.781996846E-1,-9.613318443E0,-1.616086066E-2
4.763644270E-1,-5.734112859E-1,-9.637260437E0,-1.137245819E-2
4.788521350E-1,-5.734112859E-1,-9.651625633E0,-1.795651275E-3
4.813398430E-1,-5.446808934E-1,-9.656414032E0,1.735796221E-2
4.838275520E-1,-5.398924947E-1,-9.665990829E0,-3.531447425E-2
4.863152600E-1,-5.398924947E-1,-9.675567627E0,-1.795651275E-3
4.888029680E-1,-5.494692922E-1,-9.680356026E0,-7.362170517E-2
4.912906770E-1,-5.351040959E-1,-9.685144424E0,2.214636654E-2
4.937783850E-1,-5.303156972E-1,-9.685144424E0,-4.967968538E-2
4.962660930E-1,-5.207388401E-1,-9.670779228E0,4.129998013E-2
4.987538020E-1,-5.351040959E-1,-9.665990829E0,-4.489128292E-2
5.012415100E-1,-5.351040959E-1,-9.656414032E0,8.439560980E-2
5.037292180E-1,-5.446808934E-1,-9.627683640E0,-3.052607179E-2
5.062169270E-1,-5.446808934E-1,-9.598953247E0,1.179144308E-1
5.087046350E-1,-5.446808934E-1,-9.555857658E0,2.992752008E-3
5.111923430E-1,-5.446808934E-1,-9.555857658E0,1.322796494E-1
5.136800520E-1,-5.542576909E-1,-9.536704063E0,1.735796221E-2
5.161677600E-1,-5.638344884E-1,-9.503185272E0,1.610100716E-1
5.186554680E-1,-5.686228871E-1,-9.460089684E0,2.214636654E-2
5.211431770E-1,-5.638344884E-1,-9.469666481E0,1.897404790E-1
5.236308850E-1,-5.829881430E-1,-9.421782494E0,3.651157767E-2
5.261185930E-1,-5.925649405E-1,-9.416994095E0,1.945288926E-1
5.286063020E-1,-6.021417379E-1,-9.416994095E0,3.172317147E-2
5.310940100E-1,-6.212953329E-1,-9.407417297E0,1.705868691E-1
5.335817180E-1,-6.212953329E-1,-9.402628899E0,2.992752008E-3
5.360694270E-1,-6.356605291E-1,-9.402628899E0,1.466448605E-1
5.385571350E-1,-6.548141837E-1,-9.383475304E0,-1.795651275E-3
5.410448430E-1,-6.548141837E-1,-9.388263702E0,1.274912357E-1
5.435325520E-1,-6.500257850E-1,-9.359533310E0,1.256955881E-2
5.460202600E-1,-6.548141837E-1,-9.373898506E0,1.514332592E-1
5.485079680E-1,-6.308721304E-1,-9.349956512E0,6.524199992E-2
5.509956770E-1,-5.973533392E-1,-9.349956512E0,1.801636815E-1
5.534833850E-1,-5.781996846E-1,-9.326014519E0,7.960720360E-2
5.559710930E-1,-5.734112859E-1,-9.306860924E0,1.849520802E-1
5.584588020E-1,-5.734112859E-1,-9.287707329E0,8.918401599E-2
5.609465100E-1,-5.686228871E-1,-9.278130531E0,1.753752679E-1
5.634342180E-1,-5.542576909E-1,-9.215881348E0,9.876082093E-2
5.659219270E-1,-5.590460896E-1,-9.191938400E0,1.657984704E-1
5.684096350E-1,-5.590460896E-1,-9.139266014E0,1.131260321E-1
5.708973430E-1,-5.781996846E-1,-9.100958824E0,1.227028370E-1
5.733850520E-1,-5.734112859E-1,-9.062651634E0,1.083376259E-1
5.758727600E-1,-5.877765417E-1,-9.029132843E0,1.227028370E-1
5.783604680E-1,-5.925649405E-1,-8.986037254E0,1.466448605E-1
5.808481770E-1,-6.069301367E-1,-8.938153267E0,1.227028370E-1
5.833358850E-1,-6.069301367E-1,-8.918999672E0,1.514332592E-1
5.858235930E-1,-6.308721304E-1,-8.890269279E0,1.418564469E-1
5.883113020E-1,-6.260837317E-1,-8.856750488E0,2.280477136E-1
5.907990100E-1,-6.308721304E-1,-8.828020096E0,1.897404790E-1
5.932867180E-1,-6.165069342E-1,-8.799289703E0,2.998737693E-1
5.957744270E-1,-6.069301367E-1,-8.756194115E0,2.232593149E-1
5.982621350E-1,-6.021417379E-1,-8.732252121E0,3.238157928E-1
6.007498950E-1,-5.829881430E-1,-8.708310127E0,2.328361124E-1
6.032376560E-1,-5.734112859E-1,-8.689156532E0,3.716998100E-1
6.057254160E-1,-5.686228871E-1,-8.636484146E0,2.519897223E-1
6.082131770E-1,-5.398924947E-1,-8.612542152E0,3.956418335E-1
6.107009370E-1,-5.398924947E-1,-8.583811760E0,2.759317458E-1
6.131886980E-1,-5.734112859E-1,-8.535927773E0,4.100070298E-1
6.156764580E-1,-5.734112859E-1,-8.488043785E0,2.759317458E-1
6.181642180E-1,-5.925649405E-1,-8.454524994E0,4.435258508E-1
6.206519790E-1,-6.165069342E-1,-8.382699013E0,2.855085433E-1
6.231397390E-1,-6.404489279E-1,-8.339603424E0,4.291606545E-1
6.256275000E-1,-6.548141837E-1,-8.277354240E0,2.663549483E-1
6.281152600E-1,-6.787561774E-1,-8.248623848E0,4.291606545E-1
6.306030200E-1,-7.170634270E-1,-8.191162109E0,2.615665495E-1
6.330907810E-1,-7.457938194E-1,-8.162431717E0,4.147954583E-1
6.355785410E-1,-7.410054207E-1,-8.090605736E0,2.567781210E-1
6.380663020E-1,-7.362170219E-1,-8.076240540E0,3.812766075E-1
6.405540620E-1,-7.266402245E-1,-8.033144951E0,2.232593149E-1
6.430418230E-1,-7.170634270E-1,-8.018779755E0,3.716998100E-1
6.455295830E-1,-6.979097724E-1,-7.985261440E0,1.945288926E-1
6.480173430E-1,-6.643909812E-1,-7.980473042E0,2.950853705E-1
6.505051040E-1,-6.404489279E-1,-7.942165375E0,1.657984704E-1
6.529928640E-1,-6.260837317E-1,-7.937376976E0,2.663549483E-1
6.554806250E-1,-5.925649405E-1,-7.913434982E0,1.514332592E-1
6.579683850E-1,-5.829881430E-1,-7.889492989E0,2.376245260E-1
6.604561450E-1,-5.446808934E-1,-7.865550995E0,1.227028370E-1
6.629439060E-1,-5.303156972E-1,-7.879916191E0,2.041056901E-1
6.654316660E-1,-5.255272985E-1,-7.855974197E0,1.227028370E-1
6.679194270E-1,-5.015852451E-1,-7.841609001E0,1.514332592E-1
6.704071870E-1,-4.872200489E-1,-7.841609001E0,7.481880486E-2
6.728949480E-1,-4.584896266E-1,-7.827243805E0,7.003039867E-2
6.753827080E-1,-4.537012279E-1,-7.808090210E0,4.608838260E-2
6.778704680E-1,-4.441244006E-1,-7.793725014E0,3.651157767E-2
6.803582290E-1,-4.297592044E-1,-7.760206223E0,3.172317147E-2
6.828459890E-1,-4.297592044E-1,-7.741052628E0,-1.137245819E-2
6.853337500E-1,-4.010287821E-1,-7.688380241E0,-1.795651275E-3
6.878215100E-1,-4.153940082E-1,-7.659649849E0,-7.362170517E-2
6.903092180E-1,-4.106055796E-1,-7.630919456E0,-3.531447425E-2
6.927969270E-1,-4.153940082E-1,-7.578247070E0,-1.550245583E-1
6.952846350E-1,-4.153940082E-1,-7.544728279E0,-1.167173311E-1
6.977723430E-1,-4.106055796E-1,-7.506421089E0,-2.172738016E-1
7.002600520E-1,-4.249708056E-1,-7.472901821E0,-1.454477459E-1
7.027477600E-1,-4.537012279E-1,-7.415441036E0,-2.747346461E-1
7.052354680E-1,-4.441244006E-1,-7.391499043E0,-1.693897694E-1
7.077231770E-1,-4.537012279E-1,-7.348403454E0,-2.890998423E-1
7.102108850E-1,-4.584896266E-1,-7.334038258E0,-1.406593472E-1
7.126985930E-1,-4.776432514E-1,-7.290942669E0,-1.981201917E-1
7.151863020E-1,-4.967968464E-1,-7.267000675E0,-1.215057373E-1
7.176740100E-1,-5.111620426E-1,-7.257423878E0,-1.023521200E-1
7.201617180E-1,-5.159504414E-1,-7.243058681E0,-5.446808785E-2
7.226494270E-1,-5.159504414E-1,-7.252635479E0,1.256955881E-2
7.251371350E-1,-5.111620426E-1,-7.281365871E0,7.003039867E-2
7.276248430E-1,-4.967968464E-1,-7.305307865E0,1.179144308E-1
7.301125520E-1,-4.872200489E-1,-7.338826656E0,1.562216580E-1
7.326002600E-1,-4.632780254E-1,-7.381922245E0,1.849520802E-1
7.350879680E-1,-4.249708056E-1,-7.434594631E0,2.041056901E-1
7.375756770E-1,-4.153940082E-1,-7.496844292E0,1.849520802E-1
7.400633850E-1,-3.914519846E-1,-7.559093475E0,1.753752679E-1
7.425510930E-1,-3.818751574E-1,-7.630919456E0,1.657984704E-1
7.450388020E-1,-3.579331636E-1,-7.693168640E0,1.466448605E-1
7.475265100E-1,-3.579331636E-1,-7.755417824E0,1.083376259E-1
7.500142180E-1,-3.579331636E-1,-7.812878609E0,9.876082093E-2
7.525019270E-1,-3.339911401E-1,-7.889492989E0,8.918401599E-2
7.549896350E-1,-3.004723191E-1,-7.961318970E0,8.918401599E-2
7.574773430E-1,-2.573766708E-1,-8.004414558E0,5.566519126E-2
7.599650520E-1,-2.430114746E-1,-8.066663742E0,4.608838260E-2
7.624527600E-1,-2.047042400E-1,-8.143278122E0,2.693476900E-2
7.649404680E-1,-1.759738177E-1,-8.210315704E0,7.781155407E-3
7.674281770E-1,-1.711854190E-1,-8.277354240E0,-1.795651275E-3
7.699158850E-1,-1.663970202E-1,-8.325238228E0,-2.094926499E-2
7.724035930E-1,-1.759738177E-1,-8.382699013E0,-4.489128292E-2
7.748913020E-1,-1.903390288E-1,-8.430583000E0,-6.883329898E-2
7.773790100E-1,-2.142810524E-1,-8.488043785E0,-1.023521200E-1
7.798667180E-1,-2.573766708E-1,-8.535927773E0,-1.310825497E-1
7.823544270E-1,-3.052607179E-1,-8.569446564E0,-1.550245583E-1
7.848421350E-1,-3.531447649E-1,-8.588600159E0,-1.741781682E-1
7.873298430E-1,-4.058171809E-1,-8.607753754E0,-1.933317930E-1
7.898175520E-1,-4.345476031E-1,-8.607753754E0,-1.981201917E-1
7.923052600E-1,-4.872200489E-1,-8.607753754E0,-2.268506140E-1
7.947929680E-1,-5.111620426E-1,-8.583811760E0,-2.651578486E-1
7.972806770E-1,-5.590460896E-1,-8.564658165E0,-3.034650683E-1
7.997683850E-1,-6.165069342E-1,-8.531139374E0,-3.417722881E-1
8.022560930E-1,-6.643909812E-1,-8.492832184E0,-3.800795078E-1
8.047438020E-1,-7.026981711E-1,-8.435371399E0,-4.231751561E-1
8.072315100E-1,-7.745242715E-1,-8.392275810E0,-4.327519536E-1
8.097192180E-1,-8.271966577E-1,-8.349180222E0,-4.327519536E-1
8.122069270E-1,-8.319851160E-1,-8.320449829E0,-4.423287511E-1
8.146946350E-1,-8.607155085E-1,-8.296507835E0,-4.279635549E-1
8.171823430E-1,-8.655039072E-1,-8.296507835E0,-3.944447339E-1
8.196700520E-1,-8.942343593E-1,-8.330026627E0,-3.513490856E-1
8.221577600E-1,-8.942343593E-1,-8.339603424E0,-3.274070919E-1
8.246454680E-1,-8.702923059E-1,-8.373122215E0,-3.082534671E-1
8.271331770E-1,-8.367735147E-1,-8.397064209E0,-2.843114436E-1
8.296208850E-1,-7.984662652E-1,-8.435371399E0,-2.603694201E-1
8.321085930E-1,-7.457938194E-1,-8.473678589E0,-2.172738016E-1
8.345963020E-1,-6.739677787E-1,-8.511985779E0,-1.693897694E-1
8.370840100E-1,-6.165069342E-1,-8.569446564E0,-1.406593472E-1
8.395717180E-1,-5.734112859E-1,-8.612542152E0,-6.883329898E-2
8.420594270E-1,-5.159504414E-1,-8.674791336E0,-1.616086066E-2
8.445471350E-1,-4.776432514E-1,-8.737040520E0,4.608838260E-2
8.470348430E-1,-4.441244006E-1,-8.813654900E0,7.003039867E-2
8.495225520E-1,-4.106055796E-1,-8.899846077E0,9.397241473E-2
8.520102600E-1,-3.770867586E-1,-8.962095261E0,1.035492271E-1
8.544979680E-1,-3.292027414E-1,-9.024344444E0,9.876082093E-2
8.569856770E-1,-3.052607179E-1,-9.077016830E0,7.481880486E-2
8.594733850E-1,-2.669534981E-1,-9.139266014E0,6.524199992E-2
8.619610930E-1,-2.573766708E-1,-9.187150002E0,3.651157767E-2
8.644488020E-1,-2.238578647E-1,-9.225458145E0,-2.573766746E-2
8.669365100E-1,-2.190694511E-1,-9.254188538E0,-6.883329898E-2
8.694242180E-1,-2.094926536E-1,-9.278130531E0,-1.310825497E-1
8.719119790E-1,-1.855506301E-1,-9.292495728E0,-1.885433793E-1
8.743997390E-1,-2.142810524E-1,-9.316437721E0,-2.268506140E-1
8.768875000E-1,-2.286462635E-1,-9.340379715E0,-2.651578486E-1
8.793752600E-1,-2.477998734E-1,-9.388263702E0,-2.843114436E-1
8.818630200E-1,-2.573766708E-1,-9.416994095E0,-3.274070919E-1
8.843507810E-1,-2.908954918E-1,-9.431359291E0,-3.369838893E-1
8.868385410E-1,-3.148375154E-1,-9.450512886E0,-3.321954906E-1
8.893263020E-1,-3.339911401E-1,-9.479243279E0,-3.130418658E-1
8.918140620E-1,-3.722983599E-1,-9.507973671E0,-3.274070919E-1
8.943018230E-1,-4.058171809E-1,-9.541492462E0,-3.657143116E-1
8.967895830E-1,-4.297592044E-1,-9.575011253E0,-3.848679364E-1
8.992773430E-1,-4.537012279E-1,-9.613318443E0,-4.231751561E-1
9.017651040E-1,-4.728548229E-1,-9.665990829E0,-4.806360006E-1
9.042528640E-1,-5.015852451E-1,-9.718663216E0,-5.237316489E-1
9.067406250E-1,-5.159504414E-1,-9.742605209E0,-5.668272376E-1
9.092283850E-1,-5.638344884E-1,-9.780912399E0,-6.147112846E-1
9.117161450E-1,-6.117185354E-1,-9.800065994E0,-6.769605279E-1
9.142039060E-1,-6.643909812E-1,-9.804854393E0,-6.913257241E-1
9.166916660E-1,-7.074866295E-1,-9.795277596E0,-7.296329737E-1
9.191794270E-1,-7.697358727E-1,-9.771335602E0,-7.296329737E-1
9.216671870E-1,-8.032546639E-1,-9.742605209E0,-7.439981699E-1
9.241549480E-1,-8.319851160E-1,-9.718663216E0,-7.727286220E-1
9.266427080E-1,-8.463503122E-1,-9.694721222E0,-7.727286220E-1
9.291304680E-1,-8.559271097E-1,-9.651625633E0,-7.823054194E-1
9.316182290E-1,-8.607155085E-1,-9.613318443E0,-7.918822169E-1
9.341059890E-1,-8.655039072E-1,-9.575011253E0,-7.631517649E-1
9.365937500E-1,-8.798691034E-1,-9.536704063E0,-7.296329737E-1
9.390815100E-1,-8.702923059E-1,-9.512762070E0,-6.913257241E-1
9.415692700E-1,-8.702923059E-1,-9.479243279E0,-6.482301354E-1
9.440570310E-1,-9.038111567E-1,-9.469666481E0,-6.242880821E-1
9.465447910E-1,-9.085995555E-1,-9.474454880E0,-6.386532784E-1
9.490325520E-1,-9.038111567E-1,-9.493608475E0,-6.242880821E-1
9.515203120E-1,-8.655039072E-1,-9.517550468E0,-5.811924338E-1
9.540080730E-1,-8.176198602E-1,-9.536704063E0,-5.476736426E-1
9.564958330E-1,-7.553706169E-1,-9.575011253E0,-4.902127981E-1
9.589835930E-1,-6.835445762E-1,-9.622895241E0,-4.710591733E-1
9.614713540E-1,-6.069301367E-1,-9.665990829E0,-4.231751561E-1
9.639590620E-1,-5.255272985E-1,-9.728240013E0,-3.752911091E-1
9.664467700E-1,-4.632780254E-1,-9.776124001E0,-3.657143116E-1
9.689344790E-1,-3.866635859E-1,-9.852738380E0,-3.992331326E-1
9.714221870E-1,-3.292027414E-1,-9.919775963E0,-4.183867574E-1
9.739098950E-1,-2.813186944E-1,-9.996390343E0,-4.902127981E-1
9.763976040E-1,-2.286462635E-1,-1.008736992E1,-5.524620414E-1
9.788853120E-1,-1.759738177E-1,-1.014004230E1,-6.051344872E-1
9.813730200E-1,-1.137245819E-1,-1.021665764E1,-6.673837304E-1
9.838607290E-1,-7.062894851E-2,-1.026933002E1,-7.200561762E-1
9.863484370E-1,-2.753331885E-2,-1.028848362E1,-7.679402232E-1
9.888361450E-1,1.197100850E-3,-1.033636761E1,-8.254010081E-1
9.913238540E-1,-3.591302549E-3,-1.036988640E1,-8.732850552E-1
9.938115620E-1,-8.379706182E-3,-1.040340519E1,-9.020155072E-1
9.962992700E-1,-2.753331885E-2,-1.037946320E1,-9.690531492E-1
9.987869790E-1,-7.541735470E-2,-1.034115601E1,-1.026513934E0
1.001274687E0,-1.041477770E-1,-1.033157921E1,-1.064821243E0
1.003762395E0,-1.711854190E-1,-1.030763721E1,-1.112705231E0
1.006250104E0,-2.477998734E-1,-1.025975323E1,-1.141435623E0
1.008737812E0,-3.244143426E-1,-1.022144604E1,-1.127070427E0
1.011225520E0,-4.201824069E-1,-1.016877270E1,-1.112705231E0
1.013713229E0,-5.207388401E-1,-1.011131191E1,-1.064821243E0
1.016200937E0,-6.260837317E-1,-1.004906273E1,-1.012148738E0
1.018688645E0,-7.074866295E-1,-9.986813545E0,-9.546879530E-1
1.021176354E0,-7.888894677E-1,-9.938929558E0,-8.828618526E-1
1.023664062E0,-8.750807047E-1,-9.895833969E0,-8.062474132E-1
1.026151770E0,-9.564836025E-1,-9.862315178E0,-7.392097712E-1
1.028639479E0,-1.028309584E0,-9.790489197E0,-6.673837304E-1
1.031127187E0,-1.109712481E0,-9.752182007E0,-6.530185342E-1
1.033614895E0,-1.152808070E0,-9.704298019E0,-6.290764809E-1
1.036102604E0,-1.191115379E0,-9.661202431E0,-5.716156363E-1
1.038590312E0,-1.238999367E0,-9.613318443E0,-5.237316489E-1
1.041078020E0,-1.253364563E0,-9.570222855E0,-4.614823759E-1
1.043565729E0,-1.253364563E0,-9.551069260E0,-4.088099301E-1
1.046053437E0,-1.234210968E0,-9.546280861E0,-3.513490856E-1
1.048541145E0,-1.205480576E0,-9.527127266E0,-3.417722881E-1
1.051028854E0,-1.128866076E0,-9.546280861E0,-3.034650683E-1
1.053516562E0,-1.018732786E0,-9.560646057E0,-2.460042238E-1
1.056004270E0,-8.798691034E-1,-9.608530045E0,-1.789665818E-1
1.058491979E0,-7.314286232E-1,-9.656414032E0,-1.358709484E-1
1.060979687E0,-5.973533392E-1,-9.713874817E0,-1.023521200E-1
1.063467395E0,-4.489128292E-1,-9.780912399E0,-9.756372124E-2
1.065955104E0,-3.579331636E-1,-9.857526779E0,-1.023521200E-1
1.068442812E0,-2.430114746E-1,-9.934141159E0,-1.741781682E-1
1.070930520E0,-1.472434103E-1,-1.001554394E1,-2.460042238E-1
1.073418229E0,-6.105214357E-2,-1.011131191E1,-3.465606868E-1
1.075905937E0,3.471592441E-2,-1.021665764E1,-4.231751561E-1
1.078393645E0,1.161187813E-1,-1.030284882E1,-5.141547918E-1
1.080881354E0,1.831564307E-1,-1.037946320E1,-5.859808922E-1
1.083369062E0,2.549824715E-1,-1.046565437E1,-6.242880821E-1
1.085856770E0,3.124433160E-1,-1.053748035E1,-6.578069329E-1
1.088344479E0,3.315969408E-1,-1.057578754E1,-6.913257241E-1
1.090832187E0,3.555389643E-1,-1.063803673E1,-7.296329737E-1
1.093319895E0,3.699041605E-1,-1.068592072E1,-7.775170207E-1
1.095807604E0,3.603273630E-1,-1.071943951E1,-7.870938182E-1
1.098295312E0,3.651157618E-1,-1.074816990E1,-8.349778652E-1
1.100783020E0,3.555389643E-1,-1.077690029E1,-8.732850552E-1
1.103270729E0,3.172317147E-1,-1.079126549E1,-9.211691022E-1
1.105758437E0,2.693476975E-1,-1.079126549E1,-9.882067442E-1
1.108246145E0,1.879448295E-1,-1.079605389E1,-1.055244446E0
1.110733854E0,7.781155407E-2,-1.077690029E1,-1.107916832E0
1.113221562E0,-3.711012751E-2,-1.075295830E1,-1.151012421E0
1.115709270E0,-1.903390288E-1,-1.072901630E1,-1.189319730E0
1.118196979E0,-3.483563364E-1,-1.066676712E1,-1.246780515E0
1.120684687E0,-5.159504414E-1,-1.059015274E1,-1.304241419E0
1.123172395E0,-6.596025825E-1,-1.052311516E1,-1.347337008E0
1.125660104E0,-8.224082589E-1,-1.043692398E1,-1.347337008E0
1.128147812E0,-9.804255962E-1,-1.036030960E1,-1.342548609E0
1.130635520E0,-1.128866076E0,-1.027890682E1,-1.304241419E0
1.133123281E0,-1.262941360E0,-1.021186924E1,-1.237203717E0
1.135611041E0,-1.387439847E0,-1.015440750E1,-1.160589218E0
1.138098802E0,-1.511938334E0,-1.009694672E1,-1.055244446E0
1.140586562E0,-1.617283225E0,-1.003469753E1,-9.451110959E-1
1.143074323E0,-1.689109325E0,-1.001554394E1,-8.254010081E-1
1.145562083E0,-1.760935307E0,-1.002033234E1,-6.961141229E-1
1.148049843E0,-1.799242616E0,-1.001554394E1,-5.668272376E-1
1.150537604E0,-1.794454217E0,-1.002512074E1,-4.327519536E-1
1.153025364E0,-1.751358509E0,-1.006821632E1,-2.890998423E-1
1.155513125E0,-1.684320927E0,-1.009694672E1,-1.310825497E-1
1.158000885E0,-1.607706428E0,-1.014961910E1,2.992752008E-3
1.160488645E0,-1.507149935E0,-1.016877270E1,6.524199992E-2
1.162976406E0,-1.397016644E0,-1.016877270E1,8.918401599E-2
1.165464166E0,-1.238999367E0,-1.019271564E1,1.227028370E-1
1.167951927E0,-1.071405292E0,-1.021665764E1,1.562216580E-1
1.170439687E0,-8.798691034E-1,-1.025496483E1,1.801636815E-1
1.172927448E0,-6.979097724E-1,-1.030284882E1,1.705868691E-1
1.175415208E0,-5.063736439E-1,-1.035552120E1,1.418564469E-1
1.177902968E0,-3.531447649E-1,-1.042734718E1,6.524199992E-2
1.180390729E0,-2.190694511E-1,-1.049438477E1,-3.531447425E-2
1.182878489E0,-7.062894851E-2,-1.056621075E1,-1.598129570E-1
1.185366250E0,7.302315533E-2,-1.063803673E1,-2.603694201E-1
1.187854010E0,2.070984542E-1,-1.070028591E1,-3.657143116E-1
1.190341770E0,3.411737382E-1,-1.074338150E1,-4.423287511E-1
1.192829531E0,4.465186298E-1,-1.078647709E1,-5.141547918E-1
1.195317291E0,5.422866940E-1,-1.079126549E1,-5.716156363E-1
1.197805052E0,6.428431273E-1,-1.077690029E1,-6.003460884E-1
1.200292812E0,7.194576263E-1,-1.076732349E1,-6.386532784E-1
1.202780573E0,7.721300721E-1,-1.073380470E1,-7.104793787E-1
1.205268333E0,8.343793154E-1,-1.069070911E1,-7.823054194E-1
1.207756093E0,8.487445116E-1,-1.062845993E1,-8.732850552E-1
1.210243854E0,8.200140595E-1,-1.056621075E1,-9.642647505E-1
1.212731614E0,7.625532150E-1,-1.048480797E1,-1.074398041E0
1.215219375E0,6.619967818E-1,-1.042734718E1,-1.165377736E0
1.217707135E0,5.135562420E-1,-1.036988640E1,-1.246780515E0
1.220194895E0,3.746925592E-1,-1.031242561E1,-1.318606615E0
1.222682656E0,1.975216419E-1,-1.026933002E1,-1.352125406E0
1.225170416E0,-3.591302549E-3,-1.025975323E1,-1.352125406E0
1.227658125E0,-1.855506301E-1,-1.024059963E1,-1.337760210E0
1.230145833E0,-3.770867586E-1,-1.025017643E1,-1.318606615E0
1.232633541E0,-5.398924947E-1,-1.020229244E1,-1.275510907E0
1.235121250E0,-6.835445762E-1,-1.021186924E1,-1.227626920E0
1.237608958E0,-8.176198602E-1,-1.018792725E1,-1.151012421E0
1.240096666E0,-9.325415492E-1,-1.017356110E1,-1.083974838E0
1.242584375E0,-1.066616893E0,-1.016877270E1,-1.016937137E0
1.245072083E0,-1.167173386E0,-1.013525391E1,-9.738415480E-1
1.247559791E0,-1.262941360E0,-1.010173512E1,-9.259575009E-1
1.250047500E0,-1.339555860E0,-1.008736992E1,-8.732850552E-1
1.252535208E0,-1.387439847E0,-1.007779312E1,-7.918822169E-1
1.255022916E0,-1.392228246E0,-1.009215832E1,-6.769605279E-1
1.257510625E0,-1.387439847E0,-1.008736992E1,-5.620388389E-1
1.259998333E0,-1.339555860E0,-1.014004230E1,-4.423287511E-1
1.262486041E0,-1.248576164E0,-1.020708084E1,-2.986766696E-1
1.264973750E0,-1.152808070E0,-1.027411842E1,-1.358709484E-1
1.267461458E0,-1.071405292E0,-1.037467480E1,-6.584054790E-3
1.269949166E0,-1.013944387E0,-1.045128918E1,9.397241473E-2
1.272436875E0,-9.325415492E-1,-1.055663395E1,1.466448605E-1
1.274924583E0,-8.415619135E-1,-1.065719032E1,1.753752679E-1
1.277412291E0,-7.601590157E-1,-1.077211189E1,1.610100716E-1
1.279900000E0,-6.548141837E-1,-1.086787987E1,1.131260321E-1
1.282387708E0,-5.686228871E-1,-1.096364784E1,6.524199992E-2
1.284875416E0,-4.776432514E-1,-1.100195503E1,-3.052607179E-2
1.287363125E0,-3.627215624E-1,-1.103068542E1,-1.646013707E-1
1.289850833E0,-2.477998734E-1,-1.104983902E1,-2.795230448E-1
1.292338541E0,-1.233013868E-1,-1.102110863E1,-3.896563351E-1
1.294826250E0,-3.232172132E-2,-1.098280144E1,-5.189431906E-1
1.297313958E0,5.865794048E-2,-1.092055225E1,-6.721721292E-1
1.299801666E0,1.256955862E-1,-1.088703346E1,-8.254010081E-1
1.302289375E0,1.831564307E-1,-1.083436108E1,-9.642647505E-1
1.304777083E0,1.879448295E-1,-1.076253510E1,-1.079186440E0
1.307264791E0,1.640028208E-1,-1.070028591E1,-1.194108129E0
1.309752500E0,1.065419763E-1,-1.064761353E1,-1.294664621E0
1.312240208E0,3.950432688E-2,-1.059494114E1,-1.371279001E0
1.314727916E0,-4.668693244E-2,-1.054226875E1,-1.390432596E0
1.317215625E0,-1.616086215E-1,-1.050874996E1,-1.414374709E0
1.319703333E0,-2.717418969E-1,-1.046086597E1,-1.395220995E0
1.322191041E0,-3.675099611E-1,-1.044171238E1,-1.356913805E0
1.324678750E0,-5.015852451E-1,-1.040819359E1,-1.328183413E0
1.327166458E0,-6.117185354E-1,-1.039382839E1,-1.270722508E0
1.329654166E0,-7.122750282E-1,-1.036988640E1,-1.189319730E0
1.332141875E0,-8.271966577E-1,-1.035073280E1,-1.083974838E0
1.334629583E0,-9.277531505E-1,-1.033157921E1,-9.929951429E-1
1.337117291E0,-1.004367590E0,-1.030763721E1,-8.876502514E-1
1.339605000E0,-1.071405292E0,-1.027890682E1,-7.918822169E-1
1.342092708E0,-1.128866076E0,-1.023581123E1,-7.152677774E-1
1.344580416E0,-1.157596469E0,-1.020708084E1,-6.530185342E-1
1.347068125E0,-1.171961784E0,-1.015440750E1,-5.955576897E-1
1.349555833E0,-1.171961784E0,-1.013046551E1,-5.572504401E-1
1.352043541E0,-1.133654475E0,-1.012088871E1,-5.141547918E-1
1.354531250E0,-1.090558887E0,-1.012567711E1,-4.327519536E-1
1.357018958E0,-1.033097982E0,-1.011610031E1,-3.992331326E-1
1.359506666E0,-9.756371975E-1,-1.012088871E1,-3.561375141E-1
1.361994375E0,-9.181763530E-1,-1.014004230E1,-3.369838893E-1
1.364482083E0,-8.511387110E-1,-1.019271564E1,-3.561375141E-1
1.366969791E0,-7.649474144E-1,-1.026454163E1,-3.609259129E-1
1.369457500E0,-6.691793799E-1,-1.035552120E1,-3.848679364E-1
1.371945208E0,-5.734112859E-1,-1.045607758E1,-3.800795078E-1
1.374432916E0,-4.728548229E-1,-1.056142235E1,-4.135983288E-1
1.376920625E0,-3.770867586E-1,-1.068113232E1,-4.375403523E-1
1.379408333E0,-2.956839204E-1,-1.077690029E1,-4.758476019E-1
1.381896041E0,-2.190694511E-1,-1.087745667E1,-5.380968451E-1
1.384383750E0,-1.520318091E-1,-1.095885944E1,-6.194996834E-1
1.386871458E0,-7.541735470E-2,-1.100195503E1,-7.009025216E-1
1.389359166E0,-3.232172132E-2,-1.101632023E1,-8.014590144E-1
1.391846927E0,-8.379706182E-3,-1.101632023E1,-8.684966564E-1
1.394334687E0,-1.316810958E-2,-1.100674343E1,-9.498994946E-1
1.396822448E0,-2.753331885E-2,-1.094928265E1,-1.002571940E0
1.399310208E0,-4.189852998E-2,-1.088224506E1,-1.074398041E0
1.401797968E0,-7.062894851E-2,-1.081999588E1,-1.122282028E0
1.404285729E0,-1.137245819E-1,-1.073859310E1,-1.174954534E0
1.406773489E0,-1.903390288E-1,-1.065719032E1,-1.222838521E0
1.409261250E0,-2.669534981E-1,-1.058057594E1,-1.251568913E0
1.411749010E0,-3.770867586E-1,-1.049917316E1,-1.251568913E0
1.414236770E0,-4.920084476E-1,-1.045607758E1,-1.241992116E0
1.416724531E0,-6.165069342E-1,-1.039382839E1,-1.189319730E0
1.419212291E0,-7.410054207E-1,-1.035552120E1,-1.146224022E0
1.421700052E0,-8.702923059E-1,-1.031242561E1,-1.083974838E0
1.424187812E0,-9.995791912E-1,-1.026933002E1,-1.012148738E0
1.426675573E0,-1.128866076E0,-1.023102283E1,-9.594763517E-1
1.429163333E0,-1.243787766E0,-1.020708084E1,-9.115923047E-1
1.431651093E0,-1.344344258E0,-1.017356110E1,-8.445546627E-1
1.434138854E0,-1.406593442E0,-1.017356110E1,-7.823054194E-1
1.436626614E0,-1.435323954E0,-1.015440750E1,-7.200561762E-1
1.439114375E0,-1.449689150E0,-1.016398430E1,-6.578069329E-1
1.441602135E0,-1.411381960E0,-1.015919590E1,-5.859808922E-1
1.444089895E0,-1.377863050E0,-1.015440750E1,-5.141547918E-1
1.446577656E0,-1.310825467E0,-1.014004230E1,-4.471171796E-1
1.449065416E0,-1.243787766E0,-1.014483070E1,-3.800795078E-1
1.451553177E0,-1.181538582E0,-1.013046551E1,-3.130418658E-1
1.454040937E0,-1.133654475E0,-1.011610031E1,-3.034650683E-1
1.456528698E0,-1.090558887E0,-1.011610031E1,-3.034650683E-1
1.459016458E0,-1.033097982E0,-1.010652351E1,-3.178302646E-1
1.461504218E0,-9.612720013E-1,-1.012567711E1,-3.369838893E-1
1.463991979E0,-9.038111567E-1,-1.014961910E1,-3.561375141E-1
1.466479739E0,-8.607155085E-1,-1.016877270E1,-3.992331326E-1
1.468967500E0,-8.319851160E-1,-1.020708084E1,-4.471171796E-1
1.471455260E0,-7.841010690E-1,-1.024538803E1,-4.997895956E-1
1.473943020E0,-7.266402245E-1,-1.027890682E1,-5.764040351E-1
1.476430781E0,-7.218518257E-1,-1.029327202E1,-6.194996834E-1
1.478918541E0,-6.739677787E-1,-1.029806042E1,-6.673837304E-1
1.481406302E0,-6.404489279E-1,-1.031242561E1,-7.056909800E-1
1.483894062E0,-5.973533392E-1,-1.028848362E1,-7.583633661E-1
1.486381823E0,-5.590460896E-1,-1.026933002E1,-7.966706157E-1
1.488869583E0,-5.207388401E-1,-1.023102283E1,-8.254010081E-1
1.491357291E0,-5.159504414E-1,-1.015440750E1,-8.684966564E-1
1.493845000E0,-5.111620426E-1,-1.009215832E1,-9.115923047E-1
1.496332708E0,-5.351040959E-1,-1.001554394E1,-9.498994946E-1
1.498820416E0,-5.686228871E-1,-9.938929558E0,-9.786299467E-1
1.501308125E0,-6.021417379E-1,-9.871891975E0,-1.007360339E0
1.503795833E0,-6.739677787E-1,-9.814431190E0,-1.007360339E0
1.506283541E0,-7.314286232E-1,-9.776124001E0,-1.002571940E0
1.508771250E0,-7.841010690E-1,-9.761758804E0,-1.002571940E0
1.511258958E0,-8.367735147E-1,-9.737816811E0,-9.786299467E-1
1.513746666E0,-8.750807047E-1,-9.728240013E0,-9.546879530E-1
1.516234375E0,-9.038111567E-1,-9.742605209E0,-9.259575009E-1
1.518722083E0,-9.469067454E-1,-9.776124001E0,-8.828618526E-1
1.521209791E0,-9.852139950E-1,-9.809642792E0,-8.397662640E-1
1.523697500E0,-9.995791912E-1,-9.833584785E0,-7.870938182E-1
1.526185208E0,-1.037886381E0,-9.843161583E0,-7.487865686E-1
1.528672916E0,-1.057040095E0,-9.876680374E0,-7.056909800E-1
1.531160625E0,-1.061828494E0,-9.905410767E0,-6.625953317E-1
1.533648333E0,-1.052251697E0,-9.924564362E0,-6.051344872E-1
1.536136041E0,-1.033097982E0,-9.948506355E0,-5.859808922E-1
1.538623750E0,-1.013944387E0,-9.967659950E0,-5.476736426E-1
1.541111458E0,-9.804255962E-1,-1.000117874E1,-5.524620414E-1
1.543599166E0,-9.612720013E-1,-1.002033234E1,-5.620388389E-1
1.546086875E0,-9.516952038E-1,-1.000596714E1,-5.476736426E-1
1.548574583E0,-9.612720013E-1,-1.001075554E1,-5.620388389E-1
1.551062291E0,-9.660604000E-1,-9.996390343E0,-5.764040351E-1
1.553550000E0,-9.325415492E-1,-9.991601944E0,-5.907692909E-1
1.556037708E0,-9.181763530E-1,-9.958083153E0,-6.051344872E-1
1.558525416E0,-8.846575022E-1,-9.924564362E0,-6.194996834E-1
1.561013125E0,-8.319851160E-1,-9.919775963E0,-6.530185342E-1
1.563500833E0,-7.793126702E-1,-9.914987564E0,-6.673837304E-1
1.565988541E0,-7.218518257E-1,-9.910199165E0,-6.817489266E-1
1.568476250E0,-6.548141837E-1,-9.924564362E0,-7.104793787E-1
1.570963958E0,-6.021417379E-1,-9.938929558E0,-7.296329737E-1
1.573451666E0,-5.686228871E-1,-9.943717957E0,-7.344213724E-1
1.575939375E0,-5.494692922E-1,-9.962871552E0,-7.535749674E-1
1.578427083E0,-5.255272985E-1,-9.982025146E0,-7.823054194E-1
1.580914791E0,-5.063736439E-1,-1.001554394E1,-8.158242106E-1
1.583402500E0,-5.111620426E-1,-1.003948593E1,-8.493430614E-1
1.585890208E0,-5.494692922E-1,-1.004427433E1,-8.684966564E-1
1.588377916E0,-5.734112859E-1,-1.007300472E1,-8.589198589E-1
1.590865625E0,-5.925649405E-1,-1.006342793E1,-8.684966564E-1
1.593353333E0,-6.212953329E-1,-1.004906273E1,-8.876502514E-1
1.595841041E0,-6.596025825E-1,-1.004906273E1,-9.068039060E-1
1.598328750E0,-7.074866295E-1,-1.002512074E1,-9.020155072E-1
1.600816458E0,-7.601590157E-1,-1.001554394E1,-9.163807034E-1
1.603304166E0,-8.128314614E-1,-9.986813545E0,-9.259575009E-1
1.605791875E0,-8.463503122E-1,-9.958083153E0,-9.307458997E-1
1.608279583E0,-8.894459605E-1,-9.929352760E0,-9.355342984E-1
1.610767291E0,-9.229647517E-1,-9.914987564E0,-9.259575009E-1
1.613255000E0,-9.612720013E-1,-9.900622368E0,-9.259575009E-1
1.615742708E0,-9.900023937E-1,-9.876680374E0,-9.115923047E-1
1.618230416E0,-9.900023937E-1,-9.867103577E0,-8.780734539E-1
1.620718125E0,-9.900023937E-1,-9.881468773E0,-8.684966564E-1
1.623205833E0,-9.660604000E-1,-9.895833969E0,-8.589198589E-1
1.625693541E0,-9.277531505E-1,-9.900622368E0,-8.637082577E-1
1.628181250E0,-9.038111567E-1,-9.914987564E0,-8.684966564E-1
1.630668958E0,-8.846575022E-1,-9.938929558E0,-8.780734539E-1
1.633156666E0,-8.942343593E-1,-9.962871552E0,-8.924387097E-1
1.635644375E0,-9.085995555E-1,-9.977236748E0,-8.972271085E-1
1.638132083E0,-9.038111567E-1,-1.000117874E1,-9.211691022E-1
1.640619791E0,-8.942343593E-1,-1.000596714E1,-9.163807034E-1
1.643107500E0,-8.894459605E-1,-1.001554394E1,-9.163807034E-1
1.645595208E0,-8.750807047E-1,-1.001554394E1,-9.115923047E-1
1.648082916E0,-8.559271097E-1,-1.002033234E1,-9.355342984E-1
1.650570677E0,-8.415619135E-1,-1.002512074E1,-9.307458997E-1
1.653058437E0,-8.176198602E-1,-1.002033234E1,-9.068039060E-1
1.655546198E0,-7.841010690E-1,-1.004906273E1,-9.068039060E-1
1.658033958E0,-7.793126702E-1,-1.005863953E1,-9.163807034E-1
1.660521718E0,-7.936778665E-1,-1.007300472E1,-9.451110959E-1
1.663009479E0,-8.224082589E-1,-1.007779312E1,-9.882067442E-1
1.665497239E0,-8.559271097E-1,-1.008258152E1,-1.031302333E0
1.667985000E0,-8.846575022E-1,-1.008258152E1,-1.069609642E0
1.670472760E0,-9.133879542E-1,-1.009215832E1,-1.088763237E0
1.672960520E0,-9.325415492E-1,-1.011131191E1,-1.103128433E0
1.675448281E0,-9.421183467E-1,-1.012088871E1,-1.069609642E0
1.677936041E0,-9.516952038E-1,-1.012567711E1,-1.055244446E0
1.680423802E0,-9.612720013E-1,-1.013525391E1,-1.026513934E0
1.682911562E0,-9.756371975E-1,-1.013046551E1,-9.834183455E-1
1.685399323E0,-9.947907925E-1,-1.013525391E1,-9.211691022E-1
1.687887083E0,-1.018732786E0,-1.013046551E1,-8.684966564E-1
1.690374843E0,-1.042674899E0,-1.011610031E1,-8.158242106E-1
1.692862604E0,-1.114500880E0,-1.010173512E1,-7.870938182E-1
1.695350364E0,-1.176750183E0,-1.004906273E1,-7.392097712E-1
1.697838125E0,-1.219845772E0,-9.982025146E0,-6.769605279E-1
1.700325885E0,-1.282094955E0,-9.938929558E0,-6.386532784E-1
1.702813645E0,-1.334767461E0,-9.895833969E0,-6.099228859E-1
1.705301406E0,-1.401805043E0,-9.843161583E0,-6.003460884E-1
1.707789166E0,-1.430535555E0,-9.790489197E0,-5.668272376E-1
1.710276927E0,-1.444900751E0,-9.742605209E0,-5.620388389E-1
1.712764687E0,-1.425747156E0,-9.718663216E0,-5.476736426E-1
1.715252448E0,-1.377863050E0,-9.689932823E0,-5.141547918E-1
1.717740208E0,-1.329979062E0,-9.694721222E0,-4.997895956E-1
1.720227968E0,-1.253364563E0,-9.709086418E0,-4.902127981E-1
1.722715729E0,-1.200692177E0,-9.752182007E0,-4.710591733E-1
1.725203489E0,-1.138442874E0,-9.795277596E0,-4.519055784E-1
1.727691250E0,-1.095347285E0,-9.857526779E0,-4.279635549E-1
1.730179010E0,-1.061828494E0,-9.919775963E0,-4.519055784E-1
1.732666770E0,-1.033097982E0,-1.000596714E1,-4.997895956E-1
1.735154531E0,-9.995791912E-1,-1.009694672E1,-5.141547918E-1
1.737642291E0,-9.852139950E-1,-1.018792725E1,-5.476736426E-1
1.740130052E0,-9.995791912E-1,-1.025975323E1,-6.003460884E-1
1.742617812E0,-1.013944387E0,-1.032679081E1,-6.817489266E-1
1.745105573E0,-1.033097982E0,-1.038425159E1,-7.870938182E-1
1.747593333E0,-1.057040095E0,-1.044650078E1,-8.780734539E-1
1.750081093E0,-1.095347285E0,-1.049917316E1,-9.403226972E-1
1.752568802E0,-1.100135684E0,-1.055184555E1,-9.738415480E-1
1.755056510E0,-1.109712481E0,-1.060451794E1,-1.016937137E0
1.757544218E0,-1.095347285E0,-1.066676712E1,-1.074398041E0
1.760031927E0,-1.061828494E0,-1.071943951E1,-1.117493629E0
1.762519635E0,-1.023521185E0,-1.079126549E1,-1.160589218E0
1.765007343E0,-1.047463298E0,-1.086309147E1,-1.208473325E0
1.767495052E0,-1.061828494E0,-1.093491745E1,-1.275510907E0
1.769982760E0,-1.080982089E0,-1.097322464E1,-1.352125406E0
1.772470468E0,-1.143231273E0,-1.101632023E1,-1.438316703E0
1.774958177E0,-1.191115379E0,-1.104505062E1,-1.481412292E0
1.777445885E0,-1.258152962E0,-1.106420422E1,-1.490989089E0
1.779933593E0,-1.306037068E0,-1.109772301E1,-1.438316703E0
1.782421302E0,-1.344344258E0,-1.111208820E1,-1.356913805E0
1.784909010E0,-1.358709455E0,-1.113603020E1,-1.265934110E0
1.787396718E0,-1.373074651E0,-1.115518475E1,-1.146224022E0
1.789884427E0,-1.382651448E0,-1.118391514E1,-9.977835417E-1
1.792372135E0,-1.368286252E0,-1.120785713E1,-8.589198589E-1
1.794859843E0,-1.344344258E0,-1.123658752E1,-7.152677774E-1
1.797347552E0,-1.301248670E0,-1.128447151E1,-5.955576897E-1
1.799835260E0,-1.229422569E0,-1.134672070E1,-4.758476019E-1
1.802322968E0,-1.176750183E0,-1.141375828E1,-3.800795078E-1
1.804810677E0,-1.133654475E0,-1.148558426E1,-2.890998423E-1
1.807298385E0,-1.100135684E0,-1.156698704E1,-2.507926226E-1
1.809786093E0,-1.100135684E0,-1.165796661E1,-2.364274114E-1
1.812273802E0,-1.104924083E0,-1.175373459E1,-2.412158251E-1
1.814761510E0,-1.143231273E0,-1.182556057E1,-2.795230448E-1
1.817249218E0,-1.191115379E0,-1.190217495E1,-3.321954906E-1
1.819736927E0,-1.195903778E0,-1.197400093E1,-4.183867574E-1
1.822224635E0,-1.205480576E0,-1.205540371E1,-5.572504401E-1
1.824712343E0,-1.210268974E0,-1.208413410E1,-6.961141229E-1
1.827200052E0,-1.210268974E0,-1.213201809E1,-8.301894665E-1
1.829687760E0,-1.219845772E0,-1.217032623E1,-9.546879530E-1
1.832175468E0,-1.229422569E0,-1.219905663E1,-1.031302333E0
1.834663177E0,-1.215057373E0,-1.221342182E1,-1.064821243E0
1.837150885E0,-1.224634171E0,-1.222778702E1,-1.036090732E0
1.839638593E0,-1.243787766E0,-1.222299862E1,-9.882067442E-1
1.842126302E0,-1.277306557E0,-1.220863342E1,-9.403226972E-1
1.844614010E0,-1.320402265E0,-1.220863342E1,-8.972271085E-1
1.847101718E0,-1.387439847E0,-1.220384502E1,-8.780734539E-1
1.849589427E0,-1.430535555E0,-1.221821022E1,-8.972271085E-1
1.852077135E0,-1.459265947E0,-1.223257542E1,-9.642647505E-1
1.854564843E0,-1.483207941E0,-1.227567101E1,-1.079186440E0
1.857052552E0,-1.516726732E0,-1.233792019E1,-1.189319730E0
1.859540260E0,-1.550245643E0,-1.242889977E1,-1.294664621E0
1.862027968E0,-1.598129630E0,-1.253424454E1,-1.356913805E0
1.864515677E0,-1.669955730E0,-1.262043571E1,-1.376067400E0
1.867003385E0,-1.741781712E0,-1.270662689E1,-1.366490602E0
1.869491093E0,-1.794454217E0,-1.279760647E1,-1.356913805E0
1.871978802E0,-1.842338204E0,-1.286943245E1,-1.332971811E0
1.874466510E0,-1.851915002E0,-1.296998882E1,-1.285087705E0
1.876954218E0,-1.842338204E0,-1.307533360E1,-1.265934110E0
1.879441927E0,-1.789665818E0,-1.319025612E1,-1.208473325E0
1.881929635E0,-1.736993313E0,-1.329560089E1,-1.112705231E0
1.884417343E0,-1.669955730E0,-1.340573406E1,-1.012148738E0
1.886905052E0,-1.636436820E0,-1.349192524E1,-8.828618526E-1
1.889392760E0,-1.617283225E0,-1.360684681E1,-7.248445749E-1
1.891880468E0,-1.636436820E0,-1.368824959E1,-5.668272376E-1
1.894368177E0,-1.679532528E0,-1.373613358E1,-4.710591733E-1
1.896855885E0,-1.741781712E0,-1.376007557E1,-4.231751561E-1
1.899343593E0,-1.765723705E0,-1.377922916E1,-3.705027103E-1
1.901831354E0,-1.756146908E0,-1.382232475E1,-3.321954906E-1
1.904319114E0,-1.732204914E0,-1.385105515E1,-3.082534671E-1
1.906806875E0,-1.679532528E0,-1.389893913E1,-3.130418658E-1
1.909294635E0,-1.641225219E0,-1.392766953E1,-3.274070919E-1
1.911782395E0,-1.626860023E0,-1.394203472E1,-4.231751561E-1
1.914270156E0,-1.684320927E0,-1.393724632E1,-5.572504401E-1
1.916757916E0,-1.760935307E0,-1.391809273E1,-6.673837304E-1
1.919245677E0,-1.847126603E0,-1.387020874E1,-7.679402232E-1
1.921733437E0,-1.928529501E0,-1.382232475E1,-8.732850552E-1
1.924221198E0,-1.962048292E0,-1.377922916E1,-9.690531492E-1
1.926708958E0,-1.966836691E0,-1.373134518E1,-1.040879130E0
1.929196718E0,-1.933317900E0,-1.370261478E1,-1.117493629E0
1.931684479E0,-1.866280198E0,-1.363078880E1,-1.155800819E0
1.934172239E0,-1.789665818E0,-1.356853962E1,-1.184531331E0
1.936660000E0,-1.698686123E0,-1.353980923E1,-1.165377736E0
1.939147760E0,-1.650802016E0,-1.348234844E1,-1.155800819E0
1.941635520E0,-1.622071624E0,-1.343925285E1,-1.146224022E0
1.944123281E0,-1.622071624E0,-1.342009926E1,-1.136647224E0
1.946611041E0,-1.636436820E0,-1.337221527E1,-1.141435623E0
1.949098802E0,-1.650802016E0,-1.335785007E1,-1.170166135E0
1.951586562E0,-1.655590534E0,-1.336263847E1,-1.174954534E0
1.954074323E0,-1.641225219E0,-1.339136887E1,-1.179742932E0
1.956562083E0,-1.617283225E0,-1.342488766E1,-1.170166135E0
1.959049843E0,-1.598129630E0,-1.349671364E1,-1.146224022E0
1.961537604E0,-1.555034041E0,-1.358290482E1,-1.098340034E0
1.964025364E0,-1.521515131E0,-1.364036560E1,-1.036090732E0
1.966513125E0,-1.492784739E0,-1.367388439E1,-9.546879530E-1
1.969000885E0,-1.507149935E0,-1.369303799E1,-8.924387097E-1
1.971488645E0,-1.497573137E0,-1.369303799E1,-8.301894665E-1
1.973976406E0,-1.430535555E0,-1.367867279E1,-7.631517649E-1
1.976464166E0,-1.387439847E0,-1.366909599E1,-6.961141229E-1
1.978951927E0,-1.325190663E0,-1.361642361E1,-5.955576897E-1
1.981439687E0,-1.272518158E0,-1.357811642E1,-5.476736426E-1
1.983927448E0,-1.219845772E0,-1.351586723E1,-4.997895956E-1
1.986415208E0,-1.176750183E0,-1.347277164E1,-4.327519536E-1
1.988902968E0,-1.119289279E0,-1.341531086E1,-4.423287511E-1
1.991390729E0,-1.057040095E0,-1.333390808E1,-4.519055784E-1
1.993878489E0,-9.852139950E-1,-1.329081249E1,-4.423287511E-1
1.996366250E0,-8.942343593E-1,-1.323814011E1,-4.710591733E-1
1.998854010E0,-7.888894677E-1,-1.320940971E1,-5.428852439E-1
2.001341770E0,-6.739677787E-1,-1.317589092E1,-6.099228859E-1
2.003829479E0,-5.590460896E-1,-1.317110252E1,-6.434416771E-1
2.006317187E0,-4.632780254E-1,-1.317589092E1,-6.338648796E-1
2.008804895E0,-3.914519846E-1,-1.319025612E1,-6.194996834E-1
2.011292604E0,-3.483563364E-1,-1.320940971E1,-6.434416771E-1
2.013780312E0,-3.244143426E-1,-1.321898651E1,-6.913257241E-1
2.016268020E0,-3.339911401E-1,-1.324292850E1,-7.679402232E-1
2.018755729E0,-4.058171809E-1,-1.322856331E1,-9.020155072E-1
2.021243437E0,-4.872200489E-1,-1.320940971E1,-1.083974838E0
2.023731145E0,-5.925649405E-1,-1.319504452E1,-1.237203717E0
2.026218854E0,-6.979097724E-1,-1.318546772E1,-1.332971811E0
2.028706562E0,-7.793126702E-1,-1.317589092E1,-1.356913805E0
2.031194270E0,-8.415619135E-1,-1.318067932E1,-1.309029818E0
2.033681979E0,-8.463503122E-1,-1.319504452E1,-1.265934110E0
2.036169687E0,-8.559271097E-1,-1.318546772E1,-1.251568913E0
2.038657395E0,-8.224082589E-1,-1.315673733E1,-1.189319730E0
2.041145104E0,-7.649474144E-1,-1.312321854E1,-1.127070427E0
2.043632812E0,-7.074866295E-1,-1.306575680E1,-1.007360339E0
2.046120520E0,-6.452373862E-1,-1.298914242E1,-8.732850552E-1
2.048608229E0,-5.446808934E-1,-1.293168163E1,-7.200561762E-1
2.051095937E0,-4.345476031E-1,-1.283112526E1,-5.476736426E-1
2.053583645E0,-3.435679376E-1,-1.268268490E1,-3.944447339E-1
2.056071354E0,-2.621650994E-1,-1.253424454E1,-2.507926226E-1
2.058559062E0,-1.999158412E-1,-1.237143898E1,-1.406593472E-1
2.061046770E0,-1.807622313E-1,-1.218947983E1,-8.798690885E-2
2.063534479E0,-1.903390288E-1,-1.200273132E1,-7.362170517E-2
2.066022187E0,-2.334346622E-1,-1.184471416E1,-1.310825497E-1
2.068509895E0,-2.861070931E-1,-1.169627380E1,-2.220622003E-1
2.070997604E0,-3.148375154E-1,-1.158614063E1,-2.555810213E-1
2.073485312E0,-3.100491166E-1,-1.152867985E1,-1.885433793E-1
2.075973020E0,-2.477998734E-1,-1.153346825E1,-8.319851011E-2
2.078460729E0,-1.233013868E-1,-1.160050583E1,4.129998013E-2
2.080948437E0,2.513911761E-2,-1.169627380E1,1.610100716E-1
2.083436145E0,1.879448295E-1,-1.183513737E1,2.567781210E-1
2.085923854E0,3.268085420E-1,-1.198836613E1,2.998737693E-1
2.088411562E0,4.560954273E-1,-1.215596104E1,3.094505668E-1
2.090899270E0,5.758054852E-1,-1.234749699E1,3.142389655E-1
2.093386979E0,6.811503768E-1,-1.252466774E1,2.567781210E-1
2.095874687E0,7.864952683E-1,-1.268268490E1,1.945288926E-1
2.098362395E0,8.583213091E-1,-1.283591366E1,8.918401599E-2
2.100850104E0,9.062053561E-1,-1.293647003E1,-6.584054790E-3
2.103337812E0,9.397241473E-1,-1.299871922E1,-1.023521200E-1
2.105825520E0,9.732429981E-1,-1.306096840E1,-1.789665818E-1
2.108313229E0,9.876081944E-1,-1.308969879E1,-2.364274114E-1
2.110800937E0,9.971849918E-1,-1.308969879E1,-2.747346461E-1
2.113288645E0,9.828197956E-1,-1.307054520E1,-3.178302646E-1
2.115776354E0,9.540894032E-1,-1.302744961E1,-4.040215313E-1
2.118264062E0,9.301473498E-1,-1.297956562E1,-5.045779943E-1
2.120751770E0,8.774749041E-1,-1.289816284E1,-5.907692909E-1
2.123239479E0,8.295909166E-1,-1.280239487E1,-6.530185342E-1
2.125727187E0,8.008604646E-1,-1.266353130E1,-6.578069329E-1
2.128214895E0,8.056488633E-1,-1.249593735E1,-5.859808922E-1
2.130702604E0,8.391677141E-1,-1.230918980E1,-4.758476019E-1
2.133190312E0,8.966285586E-1,-1.209849930E1,-3.657143116E-1
2.135678020E0,9.445125461E-1,-1.185429096E1,-2.890998423E-1
2.138165729E0,9.876081944E-1,-1.158614063E1,-2.076970041E-1
2.140653437E0,1.006761789E0,-1.134193230E1,-1.262941360E-1
2.143141145E0,9.923965931E-1,-1.108814621E1,-6.404489279E-2
2.145628854E0,9.923965931E-1,-1.087266827E1,1.256955881E-2
2.148116614E0,1.025915384E0,-1.067155552E1,1.466448605E-1
2.150604375E0,1.083376288E0,-1.049438477E1,2.759317458E-1
2.153092135E0,1.145625472E0,-1.036030960E1,4.243722558E-1
2.155579895E0,1.217451572E0,-1.024059963E1,5.632359385E-1
2.158067656E0,1.274912357E0,-1.014961910E1,6.877344251E-1
2.160555416E0,1.337161660E0,-1.008736992E1,8.170213103E-1
2.163043177E0,1.394622445E0,-1.004906273E1,9.080010056E-1
2.165530937E0,1.447294950E0,-1.002990913E1,1.022922635E0
2.168018698E0,1.519120932E0,-1.004427433E1,1.137844324E0
2.170506458E0,1.600523829E0,-1.007779312E1,1.233612418E0
2.172994218E0,1.705868721E0,-1.014483070E1,1.324592113E0
2.175481979E0,1.825578809E0,-1.021665764E1,1.338957310E0
2.177969739E0,1.945288897E0,-1.028369522E1,1.315015316E0
2.180457500E0,2.036268473E0,-1.034115601E1,1.238400817E0
2.182945260E0,2.117671490E0,-1.038903999E1,1.166574836E0
2.185433020E0,2.194285870E0,-1.039382839E1,1.104325533E0
2.187920781E0,2.270900249E0,-1.042734718E1,1.061229944E0
2.190408541E0,2.357091665E0,-1.044650078E1,1.018134236E0
2.192896302E0,2.395398855E0,-1.043692398E1,9.223662019E-1
2.195384062E0,2.424129248E0,-1.042255878E1,8.313865662E-1
2.197871823E0,2.448071241E0,-1.041298199E1,7.404068708E-1
2.200359583E0,2.400187254E0,-1.038425159E1,6.350619793E-1
2.202847343E0,2.361880064E0,-1.035073280E1,5.680243373E-1
2.205335104E0,2.352303267E0,-1.031242561E1,4.578910768E-1
2.207822864E0,2.376245260E0,-1.027890682E1,3.333925903E-1
2.210310625E0,2.452859640E0,-1.025496483E1,2.280477136E-1
2.212798385E0,2.562992811E0,-1.023102283E1,1.514332592E-1
2.215286145E0,2.644395828E0,-1.020708084E1,6.045359373E-2
2.217773906E0,2.697068214E0,-1.015440750E1,2.693476900E-2
2.220261666E0,2.716221809E0,-1.010652351E1,3.651157767E-2
2.222749427E0,2.687491417E0,-1.006821632E1,3.172317147E-2
2.225237187E0,2.615665436E0,-1.001075554E1,5.566519126E-2
2.227724948E0,2.505532026E0,-9.958083153E0,6.045359373E-2
2.230212708E0,2.414552450E0,-9.905410767E0,5.087678507E-2
2.232700468E0,2.333149672E0,-9.876680374E0,2.693476900E-2
2.235188229E0,2.275688648E0,-9.862315178E0,-1.795651275E-3
2.237675989E0,2.223016262E0,-9.900622368E0,1.735796221E-2
2.240163750E0,2.179920673E0,-9.924564362E0,4.129998013E-2
2.242651510E0,2.112883091E0,-9.986813545E0,6.045359373E-2
2.245139270E0,2.112883091E0,-1.005385113E1,7.003039867E-2
2.247627031E0,2.132036686E0,-1.009694672E1,1.274912357E-1
2.250114791E0,2.146401882E0,-1.015919590E1,1.705868691E-1
2.252602552E0,2.146401882E0,-1.018792725E1,1.897404790E-1
2.255090260E0,2.165555477E0,-1.021186924E1,2.519897223E-1
2.257577968E0,2.199074268E0,-1.024059963E1,4.339490533E-1
2.260065677E0,2.275688648E0,-1.028848362E1,6.446388364E-1
2.262553385E0,2.395398855E0,-1.030284882E1,8.553285599E-1
2.265041093E0,2.543839216E0,-1.030763721E1,1.075595140E0
2.267528802E0,2.687491417E0,-1.027411842E1,1.262342811E0
2.270016510E0,2.816778183E0,-1.021186924E1,1.405994892E0
2.272504218E0,2.893392801E0,-1.013046551E1,1.506551385E0
2.274991927E0,2.974795580E0,-1.001554394E1,1.587954283E0
2.277479635E0,3.008314371E0,-9.881468773E0,1.645415068E0
2.279967343E0,3.041833162E0,-9.737816811E0,1.621473074E0
2.282455052E0,3.060986757E0,-9.608530045E0,1.587954283E0
2.284942760E0,3.041833162E0,-9.488820076E0,1.573589087E0
2.287430468E0,3.017891169E0,-9.354744911E0,1.554435492E0
2.289918177E0,2.989160776E0,-9.220669746E0,1.506551385E0
2.292405885E0,2.946065187E0,-9.110535622E0,1.420360208E0
2.294893593E0,2.893392801E0,-8.971672058E0,1.276708007E0
2.297381302E0,2.811989784E0,-8.804078102E0,1.128267527E0
2.299869010E0,2.634819031E0,-8.526350975E0,1.003769040E0
2.302356718E0,2.414552450E0,-8.143278122E0,9.367313981E-1
2.304844427E0,2.385822058E0,-8.033144951E0,9.702502489E-1
2.307332135E0,2.467224836E0,-8.124124527E0,1.094748735E0
2.309819843E0,2.582146645E0,-8.262989044E0,1.315015316E0
2.312307552E0,2.716221809E0,-8.401852608E0,1.487397790E0
2.314795260E0,2.778470993E0,-8.550292969E0,1.592742682E0
2.317282968E0,2.807201385E0,-8.732252121E0,1.693299174E0
2.319770677E0,2.788047791E0,-8.899846077E0,1.745971560E0
2.322258385E0,2.725798607E0,-9.053074837E0,1.698087573E0
2.324746093E0,2.625242233E0,-9.201516151E0,1.564012289E0
2.327233802E0,2.505532026E0,-9.311649323E0,1.367687702E0
2.329721510E0,2.366668463E0,-9.426570892E0,1.233612418E0
2.332209218E0,2.223016262E0,-9.546280861E0,1.195305228E0
2.334696927E0,2.108094692E0,-9.646837234E0,1.281496406E0
2.337184635E0,1.988384485E0,-9.713874817E0,1.425148606E0
2.339672343E0,1.916558504E0,-9.780912399E0,1.573589087E0
2.342160052E0,1.897404790E0,-9.847949982E0,1.736394763E0
2.344647760E0,1.964442492E0,-9.891045570E0,1.889623642E0
2.347135468E0,2.069787264E0,-9.900622368E0,2.014122248E0
2.349623177E0,2.227804661E0,-9.881468773E0,2.133832216E0
2.352110885E0,2.342726469E0,-9.809642792E0,2.263119221E0
2.354598593E0,2.443282843E0,-9.694721222E0,2.421136379E0
2.357086302E0,2.577358246E0,-9.579799652E0,2.679710150E0
2.359574010E0,2.730587006E0,-9.440936089E0,3.067570925E0
2.362061718E0,2.960430384E0,-9.302072525E0,3.522469282E0
2.364549427E0,3.286041737E0,-9.129689217E0,3.934272051E0
2.367037135E0,3.626018524E0,-8.928576469E0,4.135385036E0
2.369524843E0,3.870227098E0,-8.717886925E0,4.087501049E0
2.372012552E0,3.951629877E0,-8.444948196E0,3.824138641E0
2.374500260E0,3.898957491E0,-8.157643318E0,3.441066504E0
2.376987968E0,3.712209702E0,-7.884704590E0,2.947860956E0
2.379475677E0,3.463212729E0,-7.616554260E0,2.411559582E0
2.381963385E0,3.166331768E0,-7.381922245E0,1.918354154E0
2.384451093E0,2.855085611E0,-7.156867504E0,1.496974587E0
2.386938802E0,2.582146645E0,-6.994061947E0,1.219247222E0
2.389426510E0,2.385822058E0,-6.845621109E0,1.022922635E0
2.391914218E0,2.290053844E0,-6.735487938E0,9.894038439E-1
2.394401927E0,2.299630642E0,-6.649296761E0,1.099537134E0
2.396889687E0,2.395398855E0,-6.601412773E0,1.262342811E0
2.399377448E0,2.553416014E0,-6.534375191E0,1.405994892E0
2.401865208E0,2.677914619E0,-6.481702328E0,1.501762986E0
2.404352968E0,2.788047791E0,-6.395511150E0,1.597531080E0
2.406840729E0,2.807201385E0,-6.294954777E0,1.616684675E0
2.409328489E0,2.749740601E0,-6.180033207E0,1.597531080E0
2.411816250E0,2.601300240E0,-6.022016048E0,1.501762986E0
2.414304010E0,2.414552450E0,-5.835268021E0,1.405994892E0
2.416791770E0,2.199074268E0,-5.658097267E0,1.415571809E0
2.419279531E0,1.978807688E0,-5.476137638E0,1.482609391E0
2.421767291E0,1.792060018E0,-5.289390087E0,1.568800688E0
2.424255052E0,1.634042621E0,-5.078700542E0,1.573589087E0
2.426742812E0,1.514332533E0,-4.858433723E0,1.496974587E0
2.429230573E0,1.413776159E0,-4.628590584E0,1.401206493E0
2.431718333E0,1.313219666E0,-4.374804974E0,1.358110905E0
2.434206093E0,1.212663174E0,-4.111443043E0,1.367687702E0
2.436693854E0,1.083376288E0,-3.824138641E0,1.425148606E0
2.439181614E0,9.588778019E-1,-3.522469282E0,1.496974587E0
2.441669375E0,8.439561129E-1,-3.211223125E0,1.592742682E0
2.444157135E0,8.439561129E-1,-2.904765129E0,1.726817966E0
2.446644895E0,9.205705523E-1,-2.622249365E0,1.889623642E0
2.449132656E0,1.126471877E0,-2.344521999E0,2.090736628E0
2.451620416E0,1.428141356E0,-2.081159830E0,2.358887196E0
2.454108177E0,1.772906303E0,-1.836951256E0,2.718017578E0
2.456595937E0,2.074575663E0,-1.611896276E0,3.091512918E0
2.459083698E0,2.256535053E0,-1.377264500E0,3.345298290E0
2.461571458E0,2.337938070E0,-1.137844324E0,3.350086689E0
2.464059218E0,2.285265446E0,-8.744821548E-1,3.125031710E0
2.466546979E0,2.103306293E0,-5.871779919E-1,2.761113167E0
2.469034739E0,1.854309201E0,-3.142389655E-1,2.315791607E0
2.471522500E0,1.538274646E0,-2.214636654E-2,1.894412041E0
2.474010260E0,1.169567585E0,2.651578486E-1,1.492186189E0
2.476498020E0,7.912836671E-1,5.955576897E-1,1.128267527E0
2.478985781E0,4.129997790E-1,9.115923047E-1,8.074445128E-1
2.481473541E0,1.556231081E-2,1.232415318E0,7.451952696E-1
2.483961302E0,-4.920084476E-1,1.572391987E0,8.074445128E-1
2.486449062E0,-1.033097982E0,1.912368655E0,8.122329116E-1
2.488936823E0,-1.531091928E0,2.285864115E0,7.787141204E-1
2.491424583E0,-1.962048292E0,2.630629063E0,7.978677154E-1
2.493912343E0,-2.345120668E0,3.008913040E0,9.271546006E-1
2.496400104E0,-2.622848034E0,3.334524393E0,1.257554412E0
2.498887864E0,-2.809595585E0,3.626616955E0,1.678933978E0
2.501375625E0,-2.967612982E0,3.885190725E0,2.047641039E0
2.503863333E0,-3.063380957E0,4.081515312E0,2.382829189E0
2.506351041E0,-3.135207176E0,4.220378876E0,2.660556555E0
2.508838750E0,-3.154360771E0,4.301782131E0,2.852092743E0
2.511326458E0,-3.130418777E0,4.292205334E0,3.038840532E0
2.513814166E0,-3.072957993E0,4.253897667E0,3.134608507E0
2.516301875E0,-2.948459387E0,4.143764496E0,3.201646328E0
2.518789583E0,-2.785653591E0,3.976170540E0,3.254318714E0
2.521277291E0,-2.608482838E0,3.789422750E0,3.259107113E0
2.523765000E0,-2.393004656E0,3.593098164E0,3.158550501E0
2.526252708E0,-2.148796082E0,3.382408381E0,2.962226152E0
2.528740416E0,-1.938106298E0,3.152565002E0,2.770689964E0
2.531228125E0,-1.703474522E0,2.927510023E0,2.655768156E0
2.533715833E0,-1.430535555E0,2.697666883E0,2.555211782E0
2.536203541E0,-1.205480576E0,2.510919094E0,2.464232206E0
2.538691250E0,-1.076193690E0,2.357690096E0,2.258330822E0
2.541178958E0,-1.037886381E0,2.223614931E0,2.004545450E0
2.543666666E0,-1.157596469E0,2.118269920E0,1.702875972E0
2.546154375E0,-1.430535555E0,2.036867142E0,1.252766013E0
2.548642083E0,-1.842338204E0,1.974617839E0,7.787141204E-1
2.551129791E0,-2.292448044E0,1.941099048E0,3.812766075E-1
2.553617500E0,-2.728192806E0,1.893214941E0,5.087678507E-2
2.556105208E0,-3.120841980E0,1.850119352E0,-1.358709484E-1
2.558592916E0,-3.479972124E0,1.816600561E0,-2.220622003E-1
2.561080625E0,-3.752911091E0,1.773504853E0,-1.885433793E-1
2.563568333E0,-3.963600874E0,1.706467271E0,-1.741781682E-1
2.566056041E0,-4.159925461E0,1.610699177E0,-1.741781682E-1
2.568543750E0,-4.313154221E0,1.534084797E0,-9.756372124E-2
2.571031458E0,-4.447229862E0,1.395220995E0,1.370680481E-1
2.573519166E0,-4.566939831E0,1.241992116E0,5.249287486E-1
2.576006875E0,-4.653131008E0,1.069609642E0,1.008557439E0
2.578494583E0,-4.710591793E0,8.541314602E-1,1.487397790E0
2.580982291E0,-4.681861401E0,6.099228859E-1,1.942296147E0
2.583470000E0,-4.557363033E0,3.465606868E-1,2.397194386E0
2.585957708E0,-4.370615005E0,5.925649032E-2,2.832939148E0
2.588445416E0,-4.140771866E0,-2.328361124E-1,3.144185305E0
2.590933125E0,-3.886986494E0,-5.201402903E-1,3.335721493E0
2.593420833E0,-3.609259129E0,-8.122329116E-1,3.436278105E0
2.595908541E0,-3.331531763E0,-1.137844324E0,3.503315687E0
2.598396250E0,-3.029862165E0,-1.482609391E0,3.493738890E0
2.600883958E0,-2.761711597E0,-1.827374458E0,3.421912670E0
2.603371666E0,-2.493561029E0,-2.176927805E0,3.263895512E0
2.605859375E0,-2.254140854E0,-2.516904593E0,2.995744944E0
2.608347083E0,-2.005143881E0,-2.856881142E0,2.641402960E0
2.610834791E0,-1.780089021E0,-3.225588322E0,2.301426411E0
2.613322500E0,-1.641225219E0,-3.599083662E0,1.947084546E0
2.615810208E0,-1.521515131E0,-3.939060450E0,1.631049871E0
2.618297916E0,-1.416170359E0,-4.307767391E0,1.415571809E0
2.620785625E0,-1.310825467E0,-4.647744179E0,1.300650120E0
2.623273333E0,-1.181538582E0,-5.006874084E0,1.233612418E0
2.625761041E0,-1.085770488E0,-5.356427670E0,1.104325533E0
2.628248750E0,-9.900023937E-1,-5.710769653E0,9.702502489E-1
2.630736458E0,-9.421183467E-1,-6.041169643E0,8.122329116E-1
2.633224166E0,-9.133879542E-1,-6.395511150E0,6.590040326E-1
2.635711875E0,-9.085995555E-1,-6.749853134E0,5.440823436E-1
2.638199635E0,-8.894459605E-1,-7.118560314E0,5.297171474E-1
2.640687395E0,-8.367735147E-1,-7.439383030E0,6.206967831E-1
2.643175156E0,-7.457938194E-1,-7.736264229E0,8.122329116E-1
2.645662916E0,-6.835445762E-1,-8.018779755E0,1.042076349E0
2.648150677E0,-6.404489279E-1,-8.258200645E0,1.291073322E0
2.650638437E0,-6.404489279E-1,-8.449736595E0,1.535281897E0
2.653126198E0,-6.643909812E-1,-8.602965355E0,1.712452769E0
2.655613958E0,-6.596025825E-1,-8.708310127E0,1.899200439E0
2.658101718E0,-5.877765417E-1,-8.818443298E0,2.133832216E0
2.660589479E0,-4.584896266E-1,-8.895057678E0,2.516904593E0
2.663077239E0,-2.477998734E-1,-8.933364868E0,2.947860956E0
2.665565000E0,-1.316810958E-2,-8.971672058E0,3.292625904E0
2.668052760E0,2.262520641E-1,-8.981248856E0,3.579930067E0
2.670540520E0,4.369418025E-1,-8.928576469E0,3.828927040E0
2.673028281E0,5.997475386E-1,-8.818443298E0,3.996521235E0
2.675516041E0,7.194576263E-1,-8.670002937E0,4.010886192E0
2.678003802E0,8.104372621E-1,-8.516774178E0,3.895964622E0
2.680491562E0,8.678981066E-1,-8.334815025E0,3.642179251E0
2.682979323E0,9.157821536E-1,-8.157643318E0,3.354875088E0
2.685467083E0,9.540894032E-1,-8.028356552E0,3.196857929E0
2.687954843E0,9.588778019E-1,-7.918223381E0,3.134608507E0
2.690442604E0,9.301473498E-1,-7.827243805E0,3.048417330E0
2.692930364E0,8.726865053E-1,-7.774571419E0,2.856881142E0
2.695418125E0,7.481880188E-1,-7.745841026E0,2.598307371E0
2.697905885E0,5.566518903E-1,-7.707533836E0,2.378040791E0
2.700393645E0,3.651157618E-1,-7.726687431E0,2.148197412E0
2.702881406E0,1.592144072E-1,-7.774571419E0,1.937507749E0
2.705369166E0,-2.753331885E-2,-7.875127792E0,1.760336757E0
2.707856927E0,-1.759738177E-1,-8.037933350E0,1.750759959E0
2.710344687E0,-2.477998734E-1,-8.248623848E0,1.884835243E0
2.712832448E0,-2.908954918E-1,-8.492832184E0,2.109890223E0
2.715320208E0,-3.052607179E-1,-8.751405716E0,2.330156803E0
2.717807968E0,-3.052607179E-1,-9.029132843E0,2.502539396E0
2.720295729E0,-2.765302956E-1,-9.302072525E0,2.646191359E0
2.722783489E0,-1.759738177E-1,-9.565434456E0,2.832939148E0
2.725271250E0,4.429273307E-2,-9.819219589E0,3.096301317E0
2.727759010E0,3.459621370E-1,-1.010652351E1,3.388393879E0
2.730246770E0,7.386112213E-1,-1.035073280E1,3.661332846E0
2.732734531E0,1.164779186E0,-1.056621075E1,3.891176224E0
2.735222291E0,1.629254222E0,-1.073859310E1,4.044404984E0
2.737710052E0,2.050633669E0,-1.086309147E1,4.101866245E0
2.740197812E0,2.390610456E0,-1.090618706E1,4.053982258E0
2.742685573E0,2.596511841E0,-1.086787987E1,3.867234230E0
2.745173333E0,2.634819031E0,-1.075295830E1,3.608660460E0
2.747661041E0,2.567781210E0,-1.054705715E1,3.311779499E0
2.750148750E0,2.404975653E0,-1.030763721E1,2.957437754E0
2.752636458E0,2.184709072E0,-1.004427433E1,2.689286947E0
2.755124166E0,2.012326479E0,-9.800065994E0,2.550423384E0
2.757611875E0,1.945288897E0,-9.613318443E0,2.588730574E0
2.760099583E0,2.021903276E0,-9.464878082E0,2.660556555E0
2.762587291E0,2.223016262E0,-9.340379715E0,2.684498549E0
2.765075000E0,2.495955229E0,-9.249400139E0,2.641402960E0
2.767562708E0,2.716221809E0,-9.134477615E0,2.560000181E0
2.770050416E0,2.797624588E0,-9.014767647E0,2.449866772E0
2.772538125E0,2.668337822E0,-8.851962090E0,2.330156803E0
2.775025833E0,2.404975653E0,-8.708310127E0,2.172139406E0
2.777513541E0,2.002749681E0,-8.602965355E0,2.033275843E0
2.780001250E0,1.586158633E0,-8.540716171E0,1.947084546E0
2.782488958E0,1.265335560E0,-8.545504570E0,1.961449742E0
2.784976666E0,1.131260276E0,-8.631695747E0,2.095525026E0
2.787464375E0,1.131260276E0,-8.780136108E0,2.301426411E0
2.789952083E0,1.250970364E0,-8.962095261E0,2.574365377E0
2.792439791E0,1.385045648E0,-9.211092949E0,2.885611534E0
2.794927500E0,1.514332533E0,-9.474454880E0,3.134608507E0
2.797415208E0,1.648407817E0,-9.766547203E0,3.278260708E0
2.799902916E0,1.758541107E0,-1.002512074E1,3.330933094E0
2.802390625E0,1.902193308E0,-1.027890682E1,3.369240284E0
2.804878333E0,2.026691675E0,-1.047044277E1,3.426701069E0
2.807366041E0,2.117671490E0,-1.063324833E1,3.498527288E0
2.809853750E0,2.136825085E0,-1.073859310E1,3.551199675E0
2.812341458E0,2.151190281E0,-1.079126549E1,3.546411276E0
2.814829166E0,2.194285870E0,-1.079126549E1,3.426701069E0
2.817316875E0,2.270900249E0,-1.075774670E1,3.230376720E0
2.819804583E0,2.313995838E0,-1.067634392E1,2.947860956E0
2.822292291E0,2.309207439E0,-1.054226875E1,2.689286947E0
2.824780000E0,2.223016262E0,-1.042255878E1,2.516904593E0
2.827267708E0,2.088941097E0,-1.026933002E1,2.459443808E0
2.829755416E0,1.940500498E0,-1.010173512E1,2.497750998E0
2.832243125E0,1.753752708E0,-9.919775963E0,2.588730574E0
2.834730833E0,1.629254222E0,-9.737816811E0,2.660556555E0
2.837218541E0,1.567005038E0,-9.589376450E0,2.775478363E0
2.839706250E0,1.614889026E0,-9.469666481E0,2.923918724E0
2.842193958E0,1.820790410E0,-9.388263702E0,3.139396906E0
2.844681666E0,2.088941097E0,-9.311649323E0,3.388393879E0
2.847169375E0,2.323572636E0,-9.249400139E0,3.579930067E0
2.849657083E0,2.443282843E0,-9.187150002E0,3.632602453E0
2.852144791E0,2.404975653E0,-9.129689217E0,3.560776472E0
2.854632500E0,2.223016262E0,-9.086593628E0,3.345298290E0
2.857120208E0,1.930923700E0,-9.072228432E0,3.081936121E0
2.859607916E0,1.567005038E0,-9.110535622E0,2.785055161E0
2.862095625E0,1.231816769E0,-9.206304550E0,2.483385801E0
2.864583333E0,9.971849918E-1,-9.373898506E0,2.287061214E0
2.867071041E0,9.157821536E-1,-9.608530045E0,2.200869799E0
2.869558750E0,9.923965931E-1,-9.862315178E0,2.205658197E0
2.872046458E0,1.188721180E0,-1.014483070E1,2.224812031E0
2.874534166E0,1.437718153E0,-1.042734718E1,2.253542423E0
2.877021875E0,1.662773132E0,-1.066676712E1,2.325368404E0
2.879509583E0,1.859097600E0,-1.089182186E1,2.421136379E0
2.881997343E0,2.021903276E0,-1.104505062E1,2.507327795E0
2.884485104E0,2.088941097E0,-1.115518475E1,2.588730574E0
2.886972864E0,2.098517895E0,-1.117912674E1,2.646191359E0
2.889460625E0,2.031480074E0,-1.110729980E1,2.698863983E0
2.891948385E0,1.916558504E0,-1.096843624E1,2.718017578E0
2.894436145E0,1.830367208E0,-1.078647709E1,2.761113167E0
2.896923906E0,1.787271619E0,-1.058057594E1,2.828150749E0
2.899411666E0,1.820790410E0,-1.037467480E1,2.947860956E0
2.901899427E0,1.930923700E0,-1.017356110E1,3.081936121E0
2.904387187E0,2.079364061E0,-9.934141159E0,3.187281132E0
2.906874948E0,2.189497471E0,-9.675567627E0,3.283049107E0
2.909362708E0,2.294842243E0,-9.402628899E0,3.350086689E0
2.911850468E0,2.357091665E0,-9.110535622E0,3.412335873E0
2.914338229E0,2.385822058E0,-8.784924507E0,3.436278105E0
2.916825989E0,2.342726469E0,-8.488043785E0,3.330933094E0
2.919313750E0,2.218227863E0,-8.210315704E0,3.139396906E0
2.921801510E0,2.031480074E0,-7.985261440E0,2.899976730E0
2.924289270E0,1.806425214E0,-7.822455406E0,2.646191359E0
2.926777031E0,1.576581836E0,-7.726687431E0,2.368463993E0
2.929264791E0,1.385045648E0,-7.707533836E0,2.114678621E0
2.931752552E0,1.236605167E0,-7.764994621E0,1.889623642E0
2.934240312E0,1.126471877E0,-7.908646584E0,1.726817966E0
2.936728073E0,1.035492182E0,-8.104970932E0,1.640626669E0
2.939215833E0,1.006761789E0,-8.358757019E0,1.602319479E0
2.941703593E0,1.016338587E0,-8.641272545E0,1.674145579E0
2.944191354E0,1.059434295E0,-8.947730064E0,1.832162857E0
2.946679114E0,1.112106681E0,-9.268553734E0,2.042852640E0
2.949166875E0,1.155202270E0,-9.579799652E0,2.277484417E0
2.951654635E0,1.159990668E0,-9.891045570E0,2.497750998E0
2.954142395E0,1.159990668E0,-1.019271564E1,2.646191359E0
2.956630156E0,1.183932781E0,-1.048959637E1,2.737171173E0
2.959117916E0,1.265335560E0,-1.077690029E1,2.808997154E0
2.961605677E0,1.413776159E0,-1.101153183E1,2.919130325E0
2.964093437E0,1.600523829E0,-1.121743393E1,3.057994127E0
2.966581198E0,1.816002011E0,-1.137545109E1,3.196857929E0
2.969068958E0,2.007538080E0,-1.143770027E1,3.278260708E0
2.971556718E0,2.179920673E0,-1.141854668E1,3.330933094E0
2.974044479E0,2.313995838E0,-1.135629749E1,3.374028683E0
2.976532239E0,2.433706045E0,-1.120785713E1,3.383605480E0
2.979020000E0,2.486378431E0,-1.105462742E1,3.335721493E0
2.981507760E0,2.548627615E0,-1.086787987E1,3.259107113E0
2.983995520E0,2.615665436E0,-1.068113232E1,3.125031710E0
2.986483281E0,2.639607430E0,-1.048001957E1,2.876034737E0
2.988971041E0,2.673126221E0,-1.030284882E1,2.536058187E0
2.991458802E0,2.697068214E0,-1.014961910E1,2.172139406E0
2.993946510E0,2.740163803E0,-1.001075554E1,1.798644066E0
2.996434218E0,2.744952202E0,-9.867103577E0,1.405994892E0
2.998921927E0,2.668337822E0,-9.709086418E0,9.941922426E-1
3.001409635E0,2.495955229E0,-9.546280861E0,5.680243373E-1
3.003897343E0,2.218227863E0,-9.388263702E0,2.280477136E-1
3.006385052E0,1.906981707E0,-9.254188538E0,-2.573766746E-2
3.008872760E0,1.657984734E0,-9.139266014E0,-2.603694201E-1
3.011360468E0,1.466448545E0,-9.048286438E0,-3.513490856E-1
3.013848177E0,1.356315255E0,-9.033921242E0,-2.651578486E-1
3.016335885E0,1.289277673E0,-9.053074837E0,-1.023521200E-1
3.018823593E0,1.270123959E0,-9.096170425E0,1.035492271E-1
3.021311302E0,1.270123959E0,-9.158419609E0,3.238157928E-1
3.023799010E0,1.270123959E0,-9.239823341E0,5.967547894E-1
3.026286718E0,1.231816769E0,-9.302072525E0,9.175778031E-1
3.028774427E0,1.183932781E0,-9.388263702E0,1.319803715E0
3.031262135E0,1.164779186E0,-9.488820076E0,1.717241168E0
3.033749843E0,1.188721180E0,-9.608530045E0,2.095525026E0
3.036237552E0,1.236605167E0,-9.728240013E0,2.392405987E0
3.038725260E0,1.318008065E0,-9.867103577E0,2.564788580E0
3.041212968E0,1.394622445E0,-1.000596714E1,2.689286947E0
3.043700677E0,1.466448545E0,-1.013525391E1,2.799420357E0
3.046188385E0,1.504755735E0,-1.025017643E1,2.876034737E0
3.048676093E0,1.519120932E0,-1.033636761E1,2.938283920E0
3.051163802E0,1.523909330E0,-1.040819359E1,2.976591349E0
3.053651510E0,1.543063045E0,-1.047044277E1,3.005321741E0
3.056139218E0,1.547851443E0,-1.049917316E1,3.014898539E0
3.058626927E0,1.595735431E0,-1.054705715E1,2.962226152E0
3.061114635E0,1.653196216E0,-1.061409473E1,2.919130325E0
3.063602343E0,1.729810715E0,-1.068592072E1,2.804208755E0
3.066090052E0,1.787271619E0,-1.079126549E1,2.679710150E0
3.068577760E0,1.921346903E0,-1.089661026E1,2.502539396E0
3.071065468E0,2.088941097E0,-1.101153183E1,2.378040791E0
3.073553177E0,2.275688648E0,-1.108335781E1,2.200869799E0
3.076040885E0,2.481590033E0,-1.115518475E1,2.023699045E0
3.078528593E0,2.639607430E0,-1.116954994E1,1.836951256E0
3.081016302E0,2.773682594E0,-1.115518475E1,1.626261473E0
3.083504010E0,2.845508814E0,-1.110729980E1,1.415571809E0
3.085991718E0,2.821566820E0,-1.100195503E1,1.200093627E0
3.088479427E0,2.682703018E0,-1.087745667E1,9.510966539E-1
3.090967135E0,2.472013235E0,-1.072901630E1,6.733692288E-1
3.093454843E0,2.227804661E0,-1.059972954E1,4.578910768E-1
3.095942552E0,1.997961283E0,-1.053748035E1,3.956418335E-1
3.098430260E0,1.806425214E0,-1.050396156E1,4.483142793E-1
3.100917968E0,1.739387512E0,-1.048001957E1,5.871779919E-1
3.103405677E0,1.811213613E0,-1.045607758E1,7.212532759E-1
3.105893385E0,1.969230890E0,-1.045128918E1,8.218097091E-1
3.108381093E0,2.122459888E0,-1.042734718E1,9.415197968E-1
3.110868802E0,2.237381458E0,-1.038425159E1,1.104325533E0
3.113356510E0,2.227804661E0,-1.034115601E1,1.401206493E0
3.115844218E0,2.141613483E0,-1.028848362E1,1.717241168E0
3.118331927E0,1.964442492E0,-1.023581123E1,1.947084546E0
3.120819635E0,1.748964310E0,-1.021186924E1,2.085948229E0
3.123307343E0,1.547851443E0,-1.018313885E1,2.109890223E0
3.125795104E0,1.423352957E0,-1.018313885E1,2.085948229E0
3.128282864E0,1.370680451E0,-1.022623444E1,2.062006235E0
3.130770625E0,1.380257249E0,-1.029327202E1,2.062006235E0
3.133258385E0,1.413776159E0,-1.034115601E1,2.124255419E0
3.135746145E0,1.418564558E0,-1.038425159E1,2.191293001E0
3.138233906E0,1.404199243E0,-1.040819359E1,2.282272816E0
3.140721666E0,1.346738458E0,-1.038903999E1,2.358887196E0
3.143209427E0,1.246181965E0,-1.036988640E1,2.416347980E0
3.145697187E0,1.140837073E0,-1.036030960E1,2.449866772E0
3.148184948E0,1.049857497E0,-1.036509800E1,2.464232206E0
3.150672708E0,9.828197956E-1,-1.038425159E1,2.449866772E0
3.153160468E0,9.684545994E-1,-1.044171238E1,2.363675594E0
3.155648229E0,9.876081944E-1,-1.049438477E1,2.239177227E0
3.158135989E0,1.030703783E0,-1.052790356E1,2.129043818E0
3.160623750E0,1.097741485E0,-1.058536434E1,1.990180135E0
3.163111510E0,1.217451572E0,-1.062845993E1,1.865681648E0
3.165599270E0,1.346738458E0,-1.062845993E1,1.717241168E0
3.168087031E0,1.447294950E0,-1.060451794E1,1.530493379E0
3.170574791E0,1.528697729E0,-1.055663395E1,1.362899303E0
3.173062552E0,1.576581836E0,-1.050396156E1,1.252766013E0
3.175550312E0,1.533486247E0,-1.043692398E1,1.224035621E0
3.178038073E0,1.461660147E0,-1.036988640E1,1.257554412E0
3.180525833E0,1.408987641E0,-1.031721401E1,1.286284804E0
3.183013593E0,1.337161660E0,-1.025975323E1,1.281496406E0
3.185501354E0,1.289277673E0,-1.020708084E1,1.276708007E0
3.187989114E0,1.241393566E0,-1.014004230E1,1.243189216E0
3.190476875E0,1.241393566E0,-1.007300472E1,1.228824019E0
3.192964635E0,1.270123959E0,-1.002990913E1,1.257554412E0
3.195452395E0,1.341950059E0,-1.001554394E1,1.377264500E0
3.197940156E0,1.418564558E0,-1.001554394E1,1.540070295E0
3.200427916E0,1.480813742E0,-1.005863953E1,1.712452769E0
3.202915677E0,1.528697729E0,-1.009694672E1,1.836951256E0
3.205403437E0,1.576581836E0,-1.014004230E1,1.913565755E0
3.207891198E0,1.624465823E0,-1.022623444E1,1.937507749E0
3.210378958E0,1.715445518E0,-1.033157921E1,1.942296147E0
3.212866718E0,1.830367208E0,-1.044650078E1,1.875258446E0
3.215354479E0,1.930923700E0,-1.053269196E1,1.813009262E0
3.217842239E0,2.021903276E0,-1.059972954E1,1.722029567E0
3.220330000E0,2.050633669E0,-1.062845993E1,1.650203466E0
3.222817760E0,1.993172884E0,-1.061888313E1,1.564012289E0
3.225305520E0,1.878251195E0,-1.059015274E1,1.449090600E0
3.227793281E0,1.710657120E0,-1.055184555E1,1.315015316E0
3.230281041E0,1.490390539E0,-1.049438477E1,1.195305228E0
3.232768802E0,1.308431268E0,-1.047523117E1,1.089960337E0
3.235256562E0,1.140837073E0,-1.047044277E1,1.022922635E0
3.237744323E0,1.016338587E0,-1.048001957E1,9.463081956E-1
3.240232083E0,9.301473498E-1,-1.049917316E1,8.744821548E-1
3.242719791E0,8.726865053E-1,-1.047523117E1,8.553285599E-1
3.245207500E0,8.583213091E-1,-1.043692398E1,8.409633636E-1
3.247695208E0,8.535329103E-1,-1.037467480E1,8.649053574E-1
3.250182916E0,8.631097078E-1,-1.027890682E1,8.696937561E-1
3.252670625E0,9.157821536E-1,-1.017835045E1,8.649053574E-1
3.255158333E0,9.397241473E-1,-1.006821632E1,8.313865662E-1
3.257646041E0,9.636662006E-1,-9.948506355E0,8.170213103E-1
3.260133750E0,9.684545994E-1,-9.847949982E0,8.984242082E-1
3.262621458E0,9.445125461E-1,-9.819219589E0,1.142632723E0
3.265109166E0,8.774749041E-1,-9.809642792E0,1.410783410E0
3.267596875E0,8.104372621E-1,-9.843161583E0,1.631049871E0
3.270084583E0,7.290344238E-1,-9.919775963E0,1.755548358E0
3.272572291E0,7.338228226E-1,-1.000117874E1,1.784278870E0
3.275060000E0,8.248024583E-1,-1.009694672E1,1.731606364E0
3.277547708E0,9.732429981E-1,-1.018313885E1,1.631049871E0
3.280035416E0,1.188721180E0,-1.025017643E1,1.530493379E0
3.282523125E0,1.385045648E0,-1.026933002E1,1.449090600E0
3.285010833E0,1.499967337E0,-1.027411842E1,1.329380512E0
3.287498541E0,1.557428241E0,-1.026454163E1,1.209670424E0
3.289986250E0,1.571793437E0,-1.020708084E1,1.099537134E0
3.292473958E0,1.499967337E0,-1.017835045E1,9.702502489E-1
3.294961666E0,1.394622445E0,-1.018313885E1,8.744821548E-1
3.297449375E0,1.294066072E0,-1.023102283E1,7.882909179E-1
3.299937083E0,1.236605167E0,-1.027411842E1,6.925228238E-1
3.302424791E0,1.198297977E0,-1.035073280E1,6.015431881E-1
3.304912500E0,1.174355984E0,-1.042734718E1,5.297171474E-1
3.307400208E0,1.174355984E0,-1.047044277E1,4.722562730E-1
3.309887916E0,1.159990668E0,-1.048959637E1,3.908534348E-1
3.312375625E0,1.155202270E0,-1.048001957E1,3.333925903E-1
3.314863333E0,1.145625472E0,-1.041777039E1,2.902969420E-1
3.317351041E0,1.131260276E0,-1.030763721E1,2.950853705E-1
3.319838750E0,1.107318282E0,-1.016398430E1,2.998737693E-1
3.322326458E0,1.107318282E0,-1.000596714E1,3.956418335E-1
3.324814166E0,1.097741485E0,-9.857526779E0,5.488707423E-1
3.327301875E0,1.112106681E0,-9.694721222E0,7.308300734E-1
3.329789583E0,1.107318282E0,-9.560646057E0,9.271546006E-1
3.332277291E0,1.107318282E0,-9.412205696E0,1.113902330E0
3.334765000E0,1.107318282E0,-9.316437721E0,1.348534107E0
3.337252708E0,1.112106681E0,-9.211092949E0,1.587954283E0
3.339740416E0,1.083376288E0,-9.144054413E0,1.817797661E0
3.342228125E0,1.045069098E0,-9.067440033E0,2.018910646E0
3.344715833E0,9.923965931E-1,-9.024344444E0,2.114678621E0
3.347203541E0,1.001973391E0,-9.014767647E0,2.076371431E0
3.349691250E0,1.016338587E0,-9.072228432E0,1.971026540E0
3.352178958E0,1.073799491E0,-9.139266014E0,1.769913554E0
3.354666666E0,1.140837073E0,-9.230246544E0,1.535281897E0
3.357154375E0,1.246181965E0,-9.354744911E0,1.291073322E0
3.359642083E0,1.313219666E0,-9.493608475E0,1.022922635E0
3.362129791E0,1.337161660E0,-9.627683640E0,7.451952696E-1
3.364617500E0,1.289277673E0,-9.771335602E0,5.201402903E-1
3.367105208E0,1.227028370E0,-9.924564362E0,3.286041915E-1
3.369592916E0,1.140837073E0,-1.005385113E1,1.753752679E-1
3.372080677E0,1.016338587E0,-1.020708084E1,6.045359373E-2
3.374568437E0,9.157821536E-1,-1.035552120E1,-1.795651275E-3
3.377056198E0,8.104372621E-1,-1.048959637E1,-4.010287672E-2
3.379543958E0,7.242460251E-1,-1.063324833E1,-5.925649032E-2
3.382031718E0,6.715735793E-1,-1.075295830E1,-6.883329898E-2
3.384519479E0,6.619967818E-1,-1.083914948E1,-7.841010392E-2
3.387007239E0,6.907271743E-1,-1.088224506E1,-1.616086066E-2
3.389495000E0,7.194576263E-1,-1.088224506E1,3.172317147E-2
3.391982760E0,7.433996201E-1,-1.081999588E1,1.179144308E-1
3.394470520E0,8.008604646E-1,-1.071465111E1,1.849520802E-1
3.396958281E0,8.583213091E-1,-1.055184555E1,2.567781210E-1
3.399446041E0,8.918401599E-1,-1.034115601E1,3.477577865E-1
3.401933802E0,9.109937549E-1,-1.012567711E1,4.243722558E-1
3.404421562E0,9.253589511E-1,-9.914987564E0,5.153518915E-1
3.406909323E0,9.109937549E-1,-9.713874817E0,6.590040326E-1
3.409397083E0,9.157821536E-1,-9.555857658E0,8.361749649E-1
3.411884843E0,8.918401599E-1,-9.402628899E0,1.008557439E0
3.414372604E0,8.774749041E-1,-9.292495728E0,1.152209520E0
3.416860364E0,8.487445116E-1,-9.206304550E0,1.257554412E0
3.419348125E0,8.678981066E-1,-9.158419609E0,1.353322506E0
3.421835885E0,8.870517015E-1,-9.148842812E0,1.415571809E0
3.424323645E0,9.349357486E-1,-9.177573204E0,1.420360208E0
3.426811406E0,9.732429981E-1,-9.235034943E0,1.391629696E0
3.429299166E0,1.016338587E0,-9.306860924E0,1.329380512E0
3.431786927E0,1.016338587E0,-9.373898506E0,1.219247222E0
3.434274687E0,1.025915384E0,-9.450512886E0,1.042076349E0
3.436762448E0,1.006761789E0,-9.546280861E0,8.170213103E-1
3.439250208E0,9.780313969E-1,-9.608530045E0,5.584475398E-1
3.441737968E0,9.253589511E-1,-9.689932823E0,3.286041915E-1
3.444225729E0,8.966285586E-1,-9.785700798E0,8.918401599E-2
3.446713489E0,8.535329103E-1,-9.924564362E0,-1.167173311E-1
3.449201250E0,8.104372621E-1,-1.005385113E1,-2.460042238E-1
3.451689010E0,7.481880188E-1,-1.020229244E1,-3.034650683E-1
3.454176770E0,7.003039718E-1,-1.035073280E1,-3.178302646E-1
3.456664531E0,6.236895323E-1,-1.050396156E1,-3.034650683E-1
3.459152291E0,5.422866940E-1,-1.061888313E1,-2.747346461E-1
3.461640052E0,4.944026470E-1,-1.075774670E1,-2.507926226E-1
3.464127812E0,4.273650050E-1,-1.086787987E1,-2.268506140E-1
3.466615573E0,4.034229815E-1,-1.094928265E1,-1.933317930E-1
3.469103333E0,3.842693865E-1,-1.101632023E1,-1.262941360E-1
3.471591093E0,3.890577853E-1,-1.104026222E1,-7.841010392E-2
3.474078854E0,4.034229815E-1,-1.102589703E1,-1.795651275E-3
3.476566614E0,4.177882075E-1,-1.100195503E1,3.172317147E-2
3.479054375E0,4.177882075E-1,-1.096843624E1,4.129998013E-2
3.481542135E0,4.129997790E-1,-1.087266827E1,4.129998013E-2
3.484029895E0,3.890577853E-1,-1.076732349E1,2.214636654E-2
3.486517656E0,3.603273630E-1,-1.066197872E1,2.992752008E-3
3.489005364E0,3.268085420E-1,-1.055184555E1,2.992752008E-3
3.491493073E0,3.028665185E-1,-1.042734718E1,3.651157767E-2
3.493980781E0,3.076549172E-1,-1.030763721E1,8.439560980E-2
3.496468489E0,3.076549172E-1,-1.020229244E1,1.753752679E-1
3.498956198E0,3.315969408E-1,-1.014483070E1,2.615665495E-1
3.501443906E0,3.938461840E-1,-1.007779312E1,3.716998100E-1
3.503931614E0,4.513070285E-1,-1.002990913E1,5.057750940E-1
3.506419323E0,5.087678432E-1,-1.002033234E1,5.967547894E-1
3.508907031E0,5.614402890E-1,-1.004427433E1,5.871779919E-1
3.511394739E0,5.710170865E-1,-1.009694672E1,4.914098978E-1
3.513882448E0,5.422866940E-1,-1.017356110E1,3.860650361E-1
3.516370156E0,4.465186298E-1,-1.026933002E1,1.514332592E-1
3.518857864E0,3.794809580E-1,-1.036988640E1,-1.358709484E-1
3.521345573E0,3.172317147E-1,-1.050396156E1,-3.657143116E-1
3.523833281E0,2.597708702E-1,-1.063324833E1,-5.764040351E-1
3.526320989E0,2.118868530E-1,-1.075295830E1,-7.727286220E-1
3.528808698E0,1.687912196E-1,-1.087745667E1,-9.403226972E-1
3.531296406E0,1.400607973E-1,-1.096843624E1,-1.079186440E0
3.533784114E0,1.161187813E-1,-1.104026222E1,-1.184531331E0
3.536271823E0,1.017535701E-1,-1.110251141E1,-1.218050122E0
3.538759531E0,1.161187813E-1,-1.112645340E1,-1.194108129E0
3.541247239E0,1.209071875E-1,-1.114081860E1,-1.127070427E0
3.543734948E0,1.161187813E-1,-1.113124180E1,-1.036090732E0
3.546222656E0,8.738835901E-2,-1.109293461E1,-9.020155072E-1
3.548710364E0,2.035071515E-2,-1.104505062E1,-8.158242106E-1
3.551198073E0,-6.584054977E-2,-1.099237823E1,-7.152677774E-1
3.553685781E0,-1.376665980E-1,-1.092055225E1,-6.338648796E-1
3.556173489E0,-1.616086215E-1,-1.085351467E1,-5.620388389E-1
3.558661198E0,-1.663970202E-1,-1.080563068E1,-5.045779943E-1
3.561148906E0,-1.616086215E-1,-1.072422791E1,-4.614823759E-1
3.563636614E0,-1.089361757E-1,-1.065719032E1,-4.183867574E-1
3.566124323E0,-1.316810958E-2,-1.060930634E1,-3.465606868E-1
3.568612031E0,8.259996027E-2,-1.056142235E1,-3.034650683E-1
3.571099739E0,1.927332431E-1,-1.049917316E1,-2.460042238E-1
3.573587448E0,2.789244950E-1,-1.042734718E1,-1.693897694E-1
3.576075156E0,3.651157618E-1,-1.035073280E1,-6.883329898E-2
3.578562864E0,4.560954273E-1,-1.027411842E1,5.566519126E-2
3.581050573E0,5.135562420E-1,-1.022144604E1,2.088941038E-1
3.583538281E0,5.518634915E-1,-1.016398430E1,4.004302323E-1
3.586025989E0,5.422866940E-1,-1.013525391E1,5.153518915E-1
3.588513698E0,5.183446407E-1,-1.010652351E1,5.488707423E-1
3.591001406E0,4.560954273E-1,-1.008736992E1,4.866214991E-1
3.593489114E0,3.890577853E-1,-1.012567711E1,3.764882088E-1
3.595976823E0,3.411737382E-1,-1.017356110E1,1.945288926E-1
3.598464531E0,3.220201433E-1,-1.025975323E1,1.735796221E-2
3.600952239E0,2.932897210E-1,-1.035552120E1,-1.789665818E-1
3.603439948E0,2.549824715E-1,-1.044650078E1,-3.944447339E-1
3.605927656E0,1.975216419E-1,-1.053269196E1,-5.907692909E-1
3.608415364E0,1.161187813E-1,-1.059972954E1,-7.679402232E-1
3.610903073E0,-8.379706182E-3,-1.063803673E1,-9.307458997E-1
3.613390833E0,-1.089361757E-1,-1.064282513E1,-1.045667648E0
3.615878593E0,-2.573766708E-1,-1.063324833E1,-1.131858826E0
3.618366354E0,-3.627215624E-1,-1.064761353E1,-1.184531331E0
3.620854114E0,-4.393360019E-1,-1.063803673E1,-1.189319730E0
3.623341875E0,-5.111620426E-1,-1.062845993E1,-1.122282028E0
3.625829635E0,-5.686228871E-1,-1.061888313E1,-1.012148738E0
3.628317395E0,-5.925649405E-1,-1.060451794E1,-8.684966564E-1
3.630805156E0,-5.734112859E-1,-1.059494114E1,-7.104793787E-1
3.633292916E0,-5.542576909E-1,-1.057099915E1,-5.428852439E-1
3.635780677E0,-5.015852451E-1,-1.053748035E1,-4.040215313E-1
3.638268437E0,-4.584896266E-1,-1.048480797E1,-2.603694201E-1
3.640756198E0,-4.106055796E-1,-1.043692398E1,-1.741781682E-1
3.643243958E0,-3.770867586E-1,-1.038903999E1,-1.406593472E-1
3.645731718E0,-3.483563364E-1,-1.030763721E1,-1.167173311E-1
3.648219479E0,-2.908954918E-1,-1.023581123E1,-8.798690885E-2
3.650707239E0,-2.525882721E-1,-1.016398430E1,-4.967968538E-2
3.653195000E0,-2.286462635E-1,-1.008258152E1,3.651157767E-2
3.655682760E0,-1.807622313E-1,-9.991601944E0,9.397241473E-2
3.658170520E0,-1.568202078E-1,-9.914987564E0,1.610100716E-1
3.660658281E0,-1.328781992E-1,-9.852738380E0,3.094505668E-1
3.663146041E0,-1.328781992E-1,-9.804854393E0,4.147954583E-1
3.665633802E0,-1.472434103E-1,-9.756970406E0,4.626794755E-1
3.668121562E0,-2.047042400E-1,-9.685144424E0,4.147954583E-1
3.670609323E0,-2.477998734E-1,-9.632472038E0,3.381809890E-1
3.673097083E0,-2.717418969E-1,-9.603741646E0,1.897404790E-1
3.675584843E0,-2.430114746E-1,-9.584588051E0,7.781155407E-3
3.678072604E0,-2.142810524E-1,-9.575011253E0,-1.933317930E-1
3.680560364E0,-1.663970202E-1,-9.589376450E0,-3.848679364E-1
3.683048125E0,-1.089361757E-1,-9.594164848E0,-5.380968451E-1
3.685535885E0,-7.541735470E-2,-9.579799652E0,-6.625953317E-1
3.688023645E0,-7.541735470E-2,-9.551069260E0,-7.583633661E-1
3.690511406E0,-9.935937077E-2,-9.517550468E0,-8.732850552E-1
3.692999166E0,-1.185129806E-1,-9.484031677E0,-9.211691022E-1
3.695486927E0,-1.568202078E-1,-9.445724487E0,-8.876502514E-1
3.697974687E0,-1.759738177E-1,-9.431359291E0,-8.110358119E-1
3.700462448E0,-1.903390288E-1,-9.440936089E0,-7.009025216E-1
3.702950208E0,-1.903390288E-1,-9.464878082E0,-6.338648796E-1
3.705437968E0,-1.759738177E-1,-9.493608475E0,-5.333084464E-1
3.707925729E0,-1.280897856E-1,-9.555857658E0,-4.183867574E-1
3.710413489E0,-4.668693244E-2,-9.618106842E0,-3.321954906E-1
3.712901250E0,2.035071515E-2,-9.694721222E0,-2.938882709E-1
3.715389010E0,1.065419763E-1,-9.795277596E0,-2.364274114E-1
3.717876770E0,1.400607973E-1,-9.886257172E0,-1.885433793E-1
3.720364531E0,1.735796183E-1,-9.967659950E0,-1.454477459E-1
3.722852291E0,1.544260085E-1,-1.003948593E1,-1.502361596E-1
3.725340052E0,1.017535701E-1,-1.010173512E1,-2.029085904E-1
3.727827812E0,4.429273307E-2,-1.015919590E1,-2.795230448E-1
3.730315573E0,-6.584054977E-2,-1.021665764E1,-4.088099301E-1
3.732803281E0,-1.951274425E-1,-1.026454163E1,-6.003460884E-1
3.735290989E0,-3.196259141E-1,-1.032200241E1,-8.206126094E-1
3.737778698E0,-4.680664241E-1,-1.036030960E1,-1.007360339E0
3.740266406E0,-5.973533392E-1,-1.040819359E1,-1.151012421E0
3.742754114E0,-7.266402245E-1,-1.042734718E1,-1.285087705E0
3.745241823E0,-8.798691034E-1,-1.041298199E1,-1.428739905E0
3.747729531E0,-1.033097982E0,-1.038425159E1,-1.562815189E0
3.750217239E0,-1.200692177E0,-1.033636761E1,-1.644217968E0
3.752704948E0,-1.349132657E0,-1.025496483E1,-1.668160081E0
3.755192656E0,-1.454477549E0,-1.016398430E1,-1.639429569E0
3.757680364E0,-1.511938334E0,-1.006342793E1,-1.601122379E0
3.760168073E0,-1.502361536E0,-9.958083153E0,-1.543661594E0
3.762655781E0,-1.454477549E0,-9.852738380E0,-1.447893500E0
3.765143489E0,-1.368286252E0,-9.723451614E0,-1.361702204E0
3.767631198E0,-1.248576164E0,-9.618106842E0,-1.289876223E0
3.770118906E0,-1.138442874E0,-9.484031677E0,-1.246780515E0
3.772606614E0,-1.066616893E0,-9.369110107E0,-1.184531331E0
3.775094323E0,-1.018732786E0,-9.263765335E0,-1.146224022E0
3.777582031E0,-1.004367590E0,-9.177573204E0,-1.103128433E0
3.780069739E0,-1.004367590E0,-9.110535622E0,-1.079186440E0
3.782557448E0,-1.028309584E0,-9.062651634E0,-1.045667648E0
3.785045156E0,-1.042674899E0,-9.067440033E0,-9.690531492E-1
3.787532864E0,-1.033097982E0,-9.096170425E0,-8.732850552E-1
3.790020573E0,-1.009155989E0,-9.153631210E0,-7.200561762E-1
3.792508281E0,-9.421183467E-1,-9.254188538E0,-5.668272376E-1
3.794995989E0,-8.655039072E-1,-9.407417297E0,-3.800795078E-1
3.797483698E0,-7.505822182E-1,-9.584588051E0,-2.412158251E-1
3.799971406E0,-6.404489279E-1,-9.766547203E0,-1.167173311E-1
3.802459114E0,-5.398924947E-1,-9.948506355E0,-9.277531505E-2
3.804946823E0,-4.584896266E-1,-1.013046551E1,-1.358709484E-1
3.807434531E0,-3.866635859E-1,-1.029806042E1,-2.316390127E-1
3.809922239E0,-3.579331636E-1,-1.043692398E1,-4.231751561E-1
3.812409948E0,-3.627215624E-1,-1.054226875E1,-6.482301354E-1
3.814897656E0,-3.866635859E-1,-1.060451794E1,-8.493430614E-1
3.817385364E0,-4.201824069E-1,-1.064282513E1,-1.050456047E0
3.819873073E0,-5.063736439E-1,-1.060930634E1,-1.256357312E0
3.822360781E0,-6.356605291E-1,-1.055184555E1,-1.452681899E0
3.824848489E0,-7.793126702E-1,-1.045607758E1,-1.649006367E0
3.827336198E0,-9.373299479E-1,-1.032200241E1,-1.797446966E0
3.829823906E0,-1.085770488E0,-1.015919590E1,-1.917157054E0
3.832311614E0,-1.215057373E0,-1.001554394E1,-1.960252643E0
3.834799323E0,-1.296460271E0,-9.891045570E0,-1.945887446E0
3.837287031E0,-1.325190663E0,-9.780912399E0,-1.883638144E0
3.839774739E0,-1.310825467E0,-9.675567627E0,-1.739986062E0
3.842262448E0,-1.238999367E0,-9.608530045E0,-1.572391987E0
3.844750156E0,-1.152808070E0,-9.584588051E0,-1.428739905E0
3.847237864E0,-1.037886381E0,-9.570222855E0,-1.261145711E0
3.849725573E0,-8.942343593E-1,-9.579799652E0,-1.151012421E0
3.852213281E0,-7.553706169E-1,-9.598953247E0,-1.069609642E0
3.854701041E0,-6.452373862E-1,-9.651625633E0,-1.016937137E0
3.857188802E0,-5.734112859E-1,-9.694721222E0,-1.050456047E0
3.859676562E0,-5.303156972E-1,-9.733028412E0,-1.069609642E0
3.862164323E0,-5.494692922E-1,-9.752182007E0,-1.064821243E0
3.864652083E0,-5.829881430E-1,-9.785700798E0,-1.079186440E0
3.867139843E0,-6.548141837E-1,-9.809642792E0,-1.064821243E0
3.869627604E0,-7.649474144E-1,-9.843161583E0,-1.040879130E0
3.872115364E0,-8.942343593E-1,-9.857526779E0,-9.929951429E-1
3.874603125E0,-1.004367590E0,-9.852738380E0,-1.016937137E0
3.877090885E0,-1.109712481E0,-9.900622368E0,-8.780734539E-1
3.879578645E0,-1.181538582E0,-9.929352760E0,-8.445546627E-1
3.882066406E0,-1.243787766E0,-9.977236748E0,-8.254010081E-1
3.884554166E0,-1.286883354E0,-1.003469753E1,-7.823054194E-1
3.887041927E0,-1.339555860E0,-1.011131191E1,-7.583633661E-1
3.889529687E0,-1.344344258E0,-1.017835045E1,-7.487865686E-1
3.892017448E0,-1.349132657E0,-1.024059963E1,-7.344213724E-1
3.894505208E0,-1.353921056E0,-1.028369522E1,-7.439981699E-1
3.896992968E0,-1.406593442E0,-1.029806042E1,-7.870938182E-1
3.899480729E0,-1.454477549E0,-1.030284882E1,-8.062474132E-1
3.901968489E0,-1.502361536E0,-1.027411842E1,-8.206126094E-1
3.904456250E0,-1.555034041E0,-1.019750404E1,-8.206126094E-1
3.906944010E0,-1.617283225E0,-1.010652351E1,-8.493430614E-1
3.909431770E0,-1.674744129E0,-1.002990913E1,-8.589198589E-1
3.911919531E0,-1.722628117E0,-9.938929558E0,-8.445546627E-1
3.914407291E0,-1.717839718E0,-9.857526779E0,-8.062474132E-1
3.916895052E0,-1.708262920E0,-9.785700798E0,-7.775170207E-1
3.919382812E0,-1.641225219E0,-9.699509621E0,-7.583633661E-1
3.921870573E0,-1.531091928E0,-9.642048836E0,-7.248445749E-1
3.924358333E0,-1.392228246E0,-9.608530045E0,-6.913257241E-1
3.926846093E0,-1.238999367E0,-9.594164848E0,-6.625953317E-1
3.929333854E0,-1.080982089E0,-9.584588051E0,-6.530185342E-1
3.931821614E0,-9.277531505E-1,-9.589376450E0,-6.769605279E-1
3.934309375E0,-7.697358727E-1,-9.608530045E0,-7.296329737E-1
3.936797135E0,-6.452373862E-1,-9.627683640E0,-7.918822169E-1
3.939284895E0,-5.255272985E-1,-9.656414032E0,-8.206126094E-1
3.941772656E0,-4.584896266E-1,-9.689932823E0,-8.589198589E-1
3.944260416E0,-3.914519846E-1,-9.723451614E0,-9.163807034E-1
3.946748177E0,-3.722983599E-1,-9.756970406E0,-9.834183455E-1
3.949235937E0,-3.914519846E-1,-9.785700798E0,-1.026513934E0
3.951723698E0,-4.345476031E-1,-9.838373184E0,-1.050456047E0
3.954211458E0,-5.015852451E-1,-9.881468773E0,-1.040879130E0
3.956699218E0,-5.877765417E-1,-9.900622368E0,-1.012148738E0
3.959186979E0,-6.835445762E-1,-9.938929558E0,-9.977835417E-1
3.961674739E0,-7.936778665E-1,-9.962871552E0,-1.016937137E0
3.964162500E0,-8.846575022E-1,-9.962871552E0,-9.929951429E-1
3.966650260E0,-9.900023937E-1,-9.967659950E0,-9.834183455E-1
3.969138020E0,-1.100135684E0,-9.943717957E0,-9.834183455E-1
3.971625781E0,-1.200692177E0,-9.929352760E0,-9.834183455E-1
3.974113541E0,-1.310825467E0,-9.891045570E0,-1.026513934E0
3.976601250E0,-1.401805043E0,-9.857526779E0,-1.060032845E0
3.979088958E0,-1.478419542E0,-9.814431190E0,-1.079186440E0
3.981576666E0,-1.535880446E0,-9.766547203E0,-1.093551636E0
3.984064375E0,-1.559822440E0,-9.718663216E0,-1.079186440E0
3.986552083E0,-1.535880446E0,-9.685144424E0,-1.040879130E0
3.989039791E0,-1.487996340E0,-9.637260437E0,-9.786299467E-1
3.991527500E0,-1.420958757E0,-9.613318443E0,-8.924387097E-1
3.994015208E0,-1.353921056E0,-9.618106842E0,-8.206126094E-1
3.996502916E0,-1.286883354E0,-9.642048836E0,-7.487865686E-1
3.998990625E0,-1.205480576E0,-9.656414032E0,-7.200561762E-1
4.001478333E0,-1.119289279E0,-9.685144424E0,-6.961141229E-1
4.003966041E0,-1.052251697E0,-9.728240013E0,-6.817489266E-1
4.006453750E0,-9.756371975E-1,-9.790489197E0,-6.865373254E-1
4.008941458E0,-8.942343593E-1,-9.857526779E0,-6.913257241E-1
4.011429166E0,-8.080430627E-1,-9.876680374E0,-7.056909800E-1
4.013916875E0,-7.505822182E-1,-9.895833969E0,-7.056909800E-1
4.016404583E0,-6.691793799E-1,-9.910199165E0,-6.625953317E-1
4.018892291E0,-6.212953329E-1,-9.929352760E0,-6.051344872E-1
4.021380000E0,-5.638344884E-1,-9.924564362E0,-5.572504401E-1
4.023867708E0,-5.063736439E-1,-9.891045570E0,-5.524620414E-1
4.026355416E0,-4.632780254E-1,-9.891045570E0,-5.476736426E-1
4.028843125E0,-4.537012279E-1,-9.862315178E0,-5.237316489E-1
4.031330833E0,-4.680664241E-1,-9.847949982E0,-5.524620414E-1
4.033818541E0,-4.967968464E-1,-9.857526779E0,-6.003460884E-1
4.036306250E0,-5.590460896E-1,-9.833584785E0,-6.769605279E-1
4.038793958E0,-6.308721304E-1,-9.833584785E0,-7.535749674E-1
4.041281666E0,-7.074866295E-1,-9.838373184E0,-8.445546627E-1
4.043769375E0,-7.984662652E-1,-9.857526779E0,-9.259575009E-1
4.046257083E0,-9.038111567E-1,-9.876680374E0,-9.882067442E-1
4.048744791E0,-1.023521185E0,-9.881468773E0,-1.064821243E0
4.051232500E0,-1.133654475E0,-9.905410767E0,-1.112705231E0
4.053720208E0,-1.224634171E0,-9.934141159E0,-1.107916832E0
4.056207916E0,-1.325190663E0,-9.982025146E0,-1.127070427E0
4.058695625E0,-1.411381960E0,-9.982025146E0,-1.141435623E0
4.061183333E0,-1.487996340E0,-1.000117874E1,-1.131858826E0
4.063671041E0,-1.550245643E0,-9.996390343E0,-1.131858826E0
4.066158750E0,-1.564610839E0,-9.977236748E0,-1.122282028E0
4.068646458E0,-1.564610839E0,-9.953294754E0,-1.103128433E0
4.071134166E0,-1.535880446E0,-9.953294754E0,-1.074398041E0
4.073621875E0,-1.502361536E0,-9.953294754E0,-1.031302333E0
4.076109583E0,-1.444900751E0,-9.943717957E0,-9.977835417E-1
4.078597291E0,-1.358709455E0,-9.919775963E0,-9.546879530E-1
4.081085000E0,-1.282094955E0,-9.905410767E0,-9.020155072E-1
4.083572708E0,-1.210268974E0,-9.905410767E0,-8.445546627E-1
4.086060416E0,-1.143231273E0,-9.886257172E0,-8.349778652E-1
4.088548125E0,-1.090558887E0,-9.876680374E0,-8.158242106E-1
4.091035833E0,-1.047463298E0,-9.871891975E0,-7.823054194E-1
4.093523541E0,-1.018732786E0,-9.881468773E0,-7.631517649E-1
4.096011302E0,-9.995791912E-1,-9.900622368E0,-7.823054194E-1
4.098499062E0,-9.373299479E-1,-9.924564362E0,-7.918822169E-1
4.100986823E0,-8.846575022E-1,-9.934141159E0,-7.631517649E-1
4.103474583E0,-8.128314614E-1,-9.962871552E0,-7.200561762E-1
4.105962343E0,-7.649474144E-1,-1.000117874E1,-6.530185342E-1
4.108450104E0,-6.883329749E-1,-1.000117874E1,-6.003460884E-1
4.110937864E0,-6.117185354E-1,-1.000117874E1,-5.476736426E-1
4.113425625E0,-5.542576909E-1,-9.991601944E0,-5.141547918E-1
4.115913385E0,-5.255272985E-1,-9.986813545E0,-5.380968451E-1
4.118401145E0,-5.015852451E-1,-9.977236748E0,-5.428852439E-1
4.120888906E0,-5.207388401E-1,-9.977236748E0,-5.620388389E-1
4.123376666E0,-5.446808934E-1,-9.977236748E0,-6.147112846E-1
4.125864427E0,-6.165069342E-1,-9.977236748E0,-7.009025216E-1
4.128352187E0,-7.122750282E-1,-9.977236748E0,-7.775170207E-1
4.130839948E0,-8.032546639E-1,-9.967659950E0,-8.732850552E-1
4.133327708E0,-8.894459605E-1,-9.967659950E0,-9.259575009E-1
4.135815468E0,-9.756371975E-1,-9.982025146E0,-9.834183455E-1
4.138303229E0,-1.076193690E0,-9.982025146E0,-1.031302333E0
4.140790989E0,-1.138442874E0,-1.000596714E1,-1.050456047E0
4.143278750E0,-1.200692177E0,-1.002990913E1,-1.031302333E0
4.145766510E0,-1.234210968E0,-1.004427433E1,-1.040879130E0
4.148254270E0,-1.286883354E0,-1.004906273E1,-1.002571940E0
4.150742031E0,-1.310825467E0,-1.006821632E1,-9.546879530E-1
4.153229791E0,-1.320402265E0,-1.007779312E1,-9.163807034E-1
4.155717552E0,-1.296460271E0,-1.007779312E1,-8.684966564E-1
4.158205312E0,-1.229422569E0,-1.007779312E1,-8.158242106E-1
4.160693073E0,-1.162384868E0,-1.006821632E1,-7.392097712E-1
4.163180833E0,-1.080982089E0,-1.005385113E1,-6.482301354E-1
4.165668593E0,-9.947907925E-1,-1.003948593E1,-5.764040351E-1
4.168156354E0,-9.038111567E-1,-1.001554394E1,-4.997895956E-1
4.170644114E0,-8.319851160E-1,-9.977236748E0,-4.231751561E-1
4.173131875E0,-7.841010690E-1,-9.948506355E0,-4.088099301E-1
4.175619635E0,-7.457938194E-1,-9.934141159E0,-3.992331326E-1
4.178107395E0,-7.266402245E-1,-9.924564362E0,-4.231751561E-1
4.180595156E0,-7.122750282E-1,-9.943717957E0,-4.614823759E-1
4.183082916E0,-6.883329749E-1,-9.958083153E0,-4.614823759E-1
4.185570677E0,-6.883329749E-1,-9.991601944E0,-4.758476019E-1
4.188058437E0,-6.787561774E-1,-1.002512074E1,-4.566939771E-1
4.190546198E0,-6.691793799E-1,-1.006342793E1,-4.423287511E-1
4.193033958E0,-6.739677787E-1,-1.011610031E1,-4.471171796E-1
4.195521718E0,-6.835445762E-1,-1.016398430E1,-4.423287511E-1
4.198009479E0,-7.074866295E-1,-1.020229244E1,-4.423287511E-1
4.200497239E0,-7.553706169E-1,-1.020708084E1,-4.566939771E-1
4.202985000E0,-8.224082589E-1,-1.019271564E1,-5.141547918E-1
4.205472760E0,-9.085995555E-1,-1.019271564E1,-5.572504401E-1
4.207960520E0,-1.009155989E0,-1.018313885E1,-6.003460884E-1
4.210448281E0,-1.095347285E0,-1.015919590E1,-6.530185342E-1
4.212936041E0,-1.152808070E0,-1.014483070E1,-6.769605279E-1
4.215423802E0,-1.205480576E0,-1.014004230E1,-6.865373254E-1
4.217911510E0,-1.205480576E0,-1.014483070E1,-6.769605279E-1
4.220399218E0,-1.205480576E0,-1.016398430E1,-6.865373254E-1
4.222886927E0,-1.195903778E0,-1.016877270E1,-6.961141229E-1
4.225374635E0,-1.176750183E0,-1.017835045E1,-7.200561762E-1
4.227862343E0,-1.200692177E0,-1.019750404E1,-7.439981699E-1
4.230350052E0,-1.224634171E0,-1.022144604E1,-7.679402232E-1
4.232837760E0,-1.258152962E0,-1.025017643E1,-7.727286220E-1
4.235325468E0,-1.286883354E0,-1.027411842E1,-7.918822169E-1
4.237813177E0,-1.334767461E0,-1.031242561E1,-8.254010081E-1
4.240300885E0,-1.401805043E0,-1.033636761E1,-8.684966564E-1
4.242788593E0,-1.459265947E0,-1.037467480E1,-9.115923047E-1
4.245276302E0,-1.459265947E0,-1.042734718E1,-9.020155072E-1
4.247764010E0,-1.468842745E0,-1.048001957E1,-8.445546627E-1
4.250251718E0,-1.440112352E0,-1.052790356E1,-7.966706157E-1
4.252739427E0,-1.397016644E0,-1.058536434E1,-7.344213724E-1
4.255227135E0,-1.339555860E0,-1.059972954E1,-6.530185342E-1
4.257714843E0,-1.267729759E0,-1.063324833E1,-6.051344872E-1
4.260202552E0,-1.224634171E0,-1.064761353E1,-5.859808922E-1
4.262690260E0,-1.176750183E0,-1.064282513E1,-5.907692909E-1
4.265177968E0,-1.171961784E0,-1.065240192E1,-5.811924338E-1
4.267665677E0,-1.176750183E0,-1.063803673E1,-6.147112846E-1
4.270153385E0,-1.205480576E0,-1.063324833E1,-6.530185342E-1
4.272641093E0,-1.258152962E0,-1.062845993E1,-6.865373254E-1
4.275128802E0,-1.301248670E0,-1.063324833E1,-6.817489266E-1
4.277616510E0,-1.320402265E0,-1.063803673E1,-6.625953317E-1
4.280104218E0,-1.329979062E0,-1.067634392E1,-6.434416771E-1
4.282591927E0,-1.344344258E0,-1.070986271E1,-6.242880821E-1
4.285079635E0,-1.325190663E0,-1.073859310E1,-6.242880821E-1
4.287567343E0,-1.306037068E0,-1.077211189E1,-6.338648796E-1
4.290055052E0,-1.310825467E0,-1.081999588E1,-6.386532784E-1
4.292542760E0,-1.353921056E0,-1.082957268E1,-6.386532784E-1
4.295030468E0,-1.416170359E0,-1.082957268E1,-6.530185342E-1
4.297518177E0,-1.473631144E0,-1.084393787E1,-6.434416771E-1
4.300005885E0,-1.531091928E0,-1.086787987E1,-6.099228859E-1
4.302493593E0,-1.607706428E0,-1.088703346E1,-5.859808922E-1
4.304981302E0,-1.669955730E0,-1.093491745E1,-5.524620414E-1
4.307469010E0,-1.722628117E0,-1.098758984E1,-5.285200477E-1
4.309956718E0,-1.765723705E0,-1.106420422E1,-5.093663931E-1
4.312444427E0,-1.784877419E0,-1.116476154E1,-5.045779943E-1
4.314932135E0,-1.794454217E0,-1.124616432E1,-5.380968451E-1
4.317419843E0,-1.804031014E0,-1.135629749E1,-6.099228859E-1
4.319907552E0,-1.808819413E0,-1.147600746E1,-6.817489266E-1
4.322395260E0,-1.823184609E0,-1.159571743E1,-7.679402232E-1
4.324882968E0,-1.880645394E0,-1.171542740E1,-8.493430614E-1
4.327370677E0,-1.928529501E0,-1.182077217E1,-9.211691022E-1
4.329858385E0,-2.029085875E0,-1.193090534E1,-9.929951429E-1
4.332346093E0,-2.148796082E0,-1.201230812E1,-1.141435623E0
4.334833802E0,-2.297236443E0,-1.208892250E1,-1.265934110E0
4.337321562E0,-2.455253839E0,-1.217511463E1,-1.428739905E0
4.339809323E0,-2.613271236E0,-1.225172901E1,-1.572391987E0
4.342297083E0,-2.747346401E0,-1.232834339E1,-1.696890473E0
4.344784843E0,-2.862268209E0,-1.241453457E1,-1.783081770E0
4.347272604E0,-2.943670988E0,-1.249593735E1,-1.878849745E0
4.349760364E0,-3.001131773E0,-1.257734013E1,-1.969829440E0
4.352248125E0,-3.015496969E0,-1.264437771E1,-2.008136749E0
4.354735885E0,-3.049015760E0,-1.273535728E1,-1.998559833E0
4.357223645E0,-3.058592558E0,-1.282633686E1,-1.945887446E0
4.359711406E0,-3.063380957E0,-1.288858604E1,-1.869272947E0
4.362199166E0,-3.034650564E0,-1.293168163E1,-1.725620866E0
4.364686927E0,-3.029862165E0,-1.296998882E1,-1.534084797E0
4.367174687E0,-2.967612982E0,-1.300350761E1,-1.318606615E0
4.369662448E0,-2.862268209E0,-1.303223801E1,-1.083974838E0
4.372150208E0,-2.704250813E0,-1.305139160E1,-8.301894665E-1
4.374637968E0,-2.493561029E0,-1.308491039E1,-5.907692909E-1
4.377125729E0,-2.287659645E0,-1.310406399E1,-3.561375141E-1
4.379613489E0,-2.029085875E0,-1.312800694E1,-1.502361596E-1
4.382101250E0,-1.813607812E0,-1.317110252E1,2.992752008E-3
4.384589010E0,-1.641225219E0,-1.323335171E1,1.035492271E-1
4.387076770E0,-1.511938334E0,-1.327644730E1,1.227028370E-1
4.389564531E0,-1.449689150E0,-1.329081249E1,7.960720360E-2
4.392052291E0,-1.425747156E0,-1.329560089E1,4.608838260E-2
4.394540052E0,-1.430535555E0,-1.331954288E1,-2.094926499E-2
4.397027812E0,-1.435323954E0,-1.332911968E1,-1.167173311E-1
4.399515573E0,-1.435323954E0,-1.335785007E1,-2.124854028E-1
4.402003333E0,-1.416170359E0,-1.336263847E1,-3.082534671E-1
4.404491093E0,-1.382651448E0,-1.338179207E1,-4.423287511E-1
4.406978854E0,-1.339555860E0,-1.339615726E1,-5.524620414E-1
4.409466614E0,-1.277306557E0,-1.339615726E1,-6.673837304E-1
4.411954375E0,-1.224634171E0,-1.340094566E1,-8.301894665E-1
4.414442135E0,-1.191115379E0,-1.338179207E1,-9.594763517E-1
4.416929895E0,-1.152808070E0,-1.340094566E1,-1.069609642E0
4.419417656E0,-1.191115379E0,-1.338179207E1,-1.198896527E0
4.421905416E0,-1.229422569E0,-1.333869648E1,-1.280299306E0
4.424393177E0,-1.296460271E0,-1.330517769E1,-1.275510907E0
4.426880937E0,-1.397016644E0,-1.328602409E1,-1.261145711E0
4.429368698E0,-1.497573137E0,-1.325729370E1,-1.198896527E0
4.431856458E0,-1.574187636E0,-1.322856331E1,-1.093551636E0
4.434344218E0,-1.641225219E0,-1.320940971E1,-9.355342984E-1
4.436831979E0,-1.679532528E0,-1.322856331E1,-7.679402232E-1
4.439319739E0,-1.665167332E0,-1.324771690E1,-6.051344872E-1
4.441807500E0,-1.617283225E0,-1.326208210E1,-4.758476019E-1
4.444295260E0,-1.574187636E0,-1.330517769E1,-3.800795078E-1
4.446783020E0,-1.511938334E0,-1.333869648E1,-3.369838893E-1
4.449270781E0,-1.454477549E0,-1.339136887E1,-2.603694201E-1
4.451758541E0,-1.406593442E0,-1.346319485E1,-1.550245583E-1
4.454246302E0,-1.344344258E0,-1.354459763E1,-5.925649032E-2
4.456734062E0,-1.296460271E0,-1.361642361E1,-1.616086066E-2
4.459221823E0,-1.224634171E0,-1.368824959E1,3.172317147E-2
4.461709531E0,-1.128866076E0,-1.375049877E1,9.397241473E-2
4.464197239E0,-1.037886381E0,-1.383190155E1,1.179144308E-1
4.466684948E0,-9.516952038E-1,-1.388936234E1,1.418564469E-1
4.469172656E0,-8.702923059E-1,-1.394682312E1,1.370680481E-1
4.471660364E0,-7.745242715E-1,-1.398513031E1,1.274912357E-1
4.474148073E0,-7.074866295E-1,-1.402822590E1,8.439560980E-2
4.476635781E0,-6.739677787E-1,-1.404737949E1,5.087678507E-2
4.479123489E0,-6.212953329E-1,-1.406174469E1,1.256955881E-2
4.481611198E0,-6.021417379E-1,-1.410484123E1,-4.489128292E-2
4.484098906E0,-5.925649405E-1,-1.414314842E1,-1.215057373E-1
4.486586614E0,-5.781996846E-1,-1.417666721E1,-2.364274114E-1
4.489074323E0,-5.351040959E-1,-1.418624401E1,-3.417722881E-1
4.491562031E0,-4.920084476E-1,-1.418624401E1,-4.423287511E-1
4.494049739E0,-4.537012279E-1,-1.417666721E1,-5.141547918E-1
4.496537448E0,-4.249708056E-1,-1.415751362E1,-5.620388389E-1
4.499025156E0,-3.770867586E-1,-1.409047508E1,-5.716156363E-1
4.501512864E0,-3.339911401E-1,-1.402822590E1,-5.380968451E-1
4.504000573E0,-3.004723191E-1,-1.395161152E1,-4.950011969E-1
4.506488281E0,-2.813186944E-1,-1.384147835E1,-4.327519536E-1
4.508975989E0,-2.525882721E-1,-1.370740318E1,-3.609259129E-1
4.511463698E0,-2.382230759E-1,-1.358290482E1,-3.082534671E-1
4.513951406E0,-1.807622313E-1,-1.343925285E1,-1.933317930E-1
4.516439114E0,-1.233013868E-1,-1.328602409E1,-6.883329898E-2
4.518926823E0,-4.189852998E-2,-1.314716053E1,4.129998013E-2
4.521414531E0,1.556231081E-2,-1.301308441E1,1.945288926E-1
4.523902239E0,6.823474914E-2,-1.288379765E1,3.286041915E-1
4.526389948E0,1.065419763E-1,-1.276887608E1,4.674678743E-1
4.528877656E0,1.304839998E-1,-1.265874290E1,5.632359385E-1
4.531365364E0,1.879448295E-1,-1.257734013E1,6.446388364E-1
4.533853073E0,2.358288616E-1,-1.251030254E1,6.781576276E-1
4.536340781E0,2.980781198E-1,-1.244326496E1,6.925228238E-1
4.538828489E0,3.459621370E-1,-1.240016937E1,7.164648771E-1
4.541316198E0,3.651157618E-1,-1.238101578E1,6.685808301E-1
4.543803906E0,4.082113802E-1,-1.236665058E1,6.206967831E-1
4.546291614E0,4.704606235E-1,-1.237143898E1,5.776011348E-1
4.548779323E0,5.470750928E-1,-1.238580418E1,5.632359385E-1
4.551267031E0,5.997475386E-1,-1.240016937E1,5.440823436E-1
4.553754739E0,6.763619781E-1,-1.242411137E1,5.536591411E-1
4.556242448E0,7.146692276E-1,-1.244805336E1,5.392939448E-1
4.558730156E0,7.242460251E-1,-1.247678375E1,5.105634928E-1
4.561217864E0,7.146692276E-1,-1.250551414E1,4.243722558E-1
4.563705573E0,6.667851806E-1,-1.254860973E1,2.950853705E-1
4.566193281E0,6.045359373E-1,-1.261085892E1,1.514332592E-1
4.568680989E0,5.279214978E-1,-1.263958931E1,1.735796221E-2
4.571168698E0,4.800374508E-1,-1.268268490E1,-6.404489279E-2
4.573656406E0,4.991910458E-1,-1.274014568E1,-1.262941360E-1
4.576144114E0,5.614402890E-1,-1.277366447E1,-1.598129570E-1
4.578631823E0,6.715735793E-1,-1.279760647E1,-1.310825497E-1
4.581119583E0,8.248024583E-1,-1.282154846E1,-1.119289324E-1
4.583607343E0,1.006761789E0,-1.283591366E1,-1.167173311E-1
4.586095104E0,1.188721180E0,-1.282154846E1,-7.362170517E-2
4.588582864E0,1.375468850E0,-1.280239487E1,-4.489128292E-2
4.591070625E0,1.509544134E0,-1.277845287E1,-1.795651275E-3
4.593558385E0,1.619677424E0,-1.273056889E1,5.087678507E-2
4.596046145E0,1.667561531E0,-1.263958931E1,9.397241473E-2
4.598533906E0,1.705868721E0,-1.253903294E1,1.753752679E-1
4.601021666E0,1.744175911E0,-1.243368816E1,2.519897223E-1
4.603509427E0,1.777694821E0,-1.228524780E1,3.046621680E-1
4.605997187E0,1.806425214E0,-1.217032623E1,3.286041915E-1
4.608484948E0,1.863885999E0,-1.205540371E1,3.381809890E-1
4.610972708E0,1.954865694E0,-1.195484734E1,3.860650361E-1
4.613460468E0,2.041056871E0,-1.188780975E1,4.435258508E-1
4.615948229E0,2.189497471E0,-1.186865616E1,4.961982965E-1
4.618435989E0,2.352303267E0,-1.186386776E1,5.249287486E-1
4.620923750E0,2.534262419E0,-1.186865616E1,5.201402903E-1
4.623411510E0,2.725798607E0,-1.189738655E1,4.770447016E-1
4.625899270E0,2.931699991E0,-1.192132854E1,4.626794755E-1
4.628387031E0,3.142389774E0,-1.194527054E1,4.291606545E-1
4.630874791E0,3.357867956E0,-1.197400093E1,4.339490533E-1
4.633362552E0,3.525461912E0,-1.196921253E1,4.818331003E-1
4.635850312E0,3.659537315E0,-1.193090534E1,5.584475398E-1
4.638338073E0,3.721786499E0,-1.186386776E1,6.446388364E-1
4.640825833E0,3.750516891E0,-1.175373459E1,6.877344251E-1
4.643313593E0,3.721786499E0,-1.165317822E1,6.494272351E-1
4.645801354E0,3.693056107E0,-1.155262184E1,8.026561141E-1
4.648289114E0,3.587711334E0,-1.143291187E1,1.022922635E0
4.650776875E0,3.439270735E0,-1.127010632E1,1.085171938E0
4.653264635E0,3.319560766E0,-1.112645340E1,9.894038439E-1
4.655752395E0,3.238157749E0,-1.101153183E1,7.787141204E-1
4.658240156E0,3.195062160E0,-1.094928265E1,5.392939448E-1
4.660727916E0,3.142389774E0,-1.091097546E1,2.902969420E-1
4.663215677E0,3.084928989E0,-1.090139866E1,3.172317147E-2
4.665703437E0,3.008314371E0,-1.091576385E1,-1.933317930E-1
4.668191198E0,2.893392801E0,-1.094449425E1,-3.896563351E-1
4.670678958E0,2.754528999E0,-1.102110863E1,-5.620388389E-1
4.673166718E0,2.582146645E0,-1.113603020E1,-6.961141229E-1
4.675654479E0,2.409764051E0,-1.124616432E1,-7.631517649E-1
4.678142239E0,2.266111851E0,-1.138502789E1,-7.823054194E-1
4.680630000E0,2.170343876E0,-1.153346825E1,-7.392097712E-1
4.683117760E0,2.103306293E0,-1.168190861E1,-7.056909800E-1
4.685605520E0,2.084152699E0,-1.184950256E1,-5.476736426E-1
4.688093281E0,2.036268473E0,-1.212244129E1,1.418564469E-1
4.690581041E0,1.772906303E0,-1.231876659E1,2.902969420E-1
4.693068802E0,1.605312228E0,-1.234749699E1,-1.693897694E-1
4.695556562E0,1.701080322E0,-1.242411137E1,-1.119289324E-1
4.698044323E0,2.098517895E0,-1.251987934E1,1.274912357E-1
4.700532083E0,2.586935043E0,-1.258212852E1,2.759317458E-1
4.703019843E0,2.941276789E0,-1.260128212E1,4.674678743E-1
4.705507604E0,3.070563793E0,-1.261085892E1,7.595604658E-1
4.707995312E0,3.037044764E0,-1.263480091E1,1.018134236E0
4.710483020E0,2.955641985E0,-1.262043571E1,1.128267527E0
4.712970729E0,2.864662409E0,-1.262043571E1,1.176151633E0
4.715458437E0,2.807201385E0,-1.261085892E1,1.142632723E0
4.717946145E0,2.778470993E0,-1.260607052E1,1.070806742E0
4.720433854E0,2.740163803E0,-1.255339813E1,1.037287831E0
4.722921562E0,2.687491417E0,-1.244805336E1,1.046864748E0
4.725409270E0,2.596511841E0,-1.229961300E1,1.051653147E0
4.727896979E0,2.472013235E0,-1.213201809E1,1.051653147E0
4.730384687E0,2.323572636E0,-1.196442413E1,1.003769040E0
4.732872395E0,2.184709072E0,-1.180640697E1,8.601169586E-1
4.735360104E0,2.060210466E0,-1.172021580E1,7.068880796E-1
4.737847812E0,1.997961283E0,-1.169148540E1,5.584475398E-1
4.740335520E0,2.002749681E0,-1.169148540E1,4.147954583E-1
4.742823229E0,2.074575663E0,-1.172500420E1,3.094505668E-1
4.745310937E0,2.175132275E0,-1.180640697E1,2.902969420E-1
4.747798645E0,2.290053844E0,-1.186865616E1,3.525462151E-1
4.750286354E0,2.385822058E0,-1.194048214E1,4.387374520E-1
4.752774062E0,2.472013235E0,-1.199315453E1,5.297171474E-1
4.755261770E0,2.529474020E0,-1.204582691E1,6.446388364E-1
4.757749479E0,2.586935043E0,-1.208892250E1,8.074445128E-1
4.760237187E0,2.668337822E0,-1.212244129E1,9.702502489E-1
4.762724895E0,2.773682594E0,-1.217032623E1,1.142632723E0
4.765212604E0,2.869450808E0,-1.219905663E1,1.238400817E0
4.767700312E0,2.936488390E0,-1.221821022E1,1.247977614E0
4.770188020E0,2.955641985E0,-1.219426823E1,1.195305228E0
4.772675729E0,2.926911592E0,-1.214159584E1,1.128267527E0
4.775163437E0,2.859874010E0,-1.205540371E1,1.104325533E0
4.777651145E0,2.783259392E0,-1.196442413E1,1.094748735E0
4.780138854E0,2.792836189E0,-1.183992577E1,1.066018343E0
4.782626562E0,2.883816004E0,-1.169627380E1,1.061229944E0
4.785114270E0,3.118447781E0,-1.156698704E1,1.075595140E0
4.787601979E0,3.444059134E0,-1.141854668E1,1.171363235E0
4.790089687E0,3.793612480E0,-1.128925991E1,1.305438519E0
4.792577395E0,4.100070477E0,-1.112166500E1,1.458667397E0
4.795065104E0,4.296394825E0,-1.093970585E1,1.568800688E0
4.797552812E0,4.334702015E0,-1.075295830E1,1.616684675E0
4.800040520E0,4.200626850E0,-1.051832676E1,1.626261473E0
4.802528229E0,3.908534288E0,-1.025975323E1,1.635838270E0
4.805015937E0,3.544615507E0,-9.996390343E0,1.631049871E0
4.807503645E0,3.156754971E0,-9.747393608E0,1.564012289E0
4.809991354E0,2.874239206E0,-9.507973671E0,1.405994892E0
4.812479062E0,2.711433411E0,-9.297284126E0,1.209670424E0
4.814966770E0,2.620453835E0,-9.120112419E0,1.037287831E0
4.817454479E0,2.634819031E0,-8.947730064E0,8.888474107E-1
4.819942187E0,2.716221809E0,-8.794501305E0,8.026561141E-1
4.822429895E0,2.807201385E0,-8.660426140E0,7.547720671E-1
4.824917604E0,2.912546396E0,-8.511985779E0,7.260416746E-1
4.827405364E0,2.965218782E0,-8.406641006E0,8.265981078E-1
4.829893125E0,2.950853586E0,-8.267777443E0,1.051653147E0
4.832380885E0,2.850297213E0,-8.114547729E0,1.276708007E0
4.834868645E0,2.711433411E0,-7.961318970E0,1.506551385E0
4.837356406E0,2.586935043E0,-7.808090210E0,1.678933978E0
4.839844166E0,2.486378431E0,-7.645284653E0,1.856104851E0
4.842331927E0,2.414552450E0,-7.453748226E0,2.014122248E0
4.844819687E0,2.376245260E0,-7.247847080E0,2.176927805E0
4.847307448E0,2.342726469E0,-7.032369137E0,2.311003208E0
4.849795208E0,2.328361034E0,-6.802525520E0,2.411559582E0
4.852282968E0,2.318784237E0,-6.577470779E0,2.469020605E0
4.854770729E0,2.299630642E0,-6.333261967E0,2.459443808E0
4.857258489E0,2.218227863E0,-6.084265232E0,2.349310398E0
4.859746250E0,2.103306293E0,-5.830479622E0,2.119467020E0
4.862234010E0,1.921346903E0,-5.571906090E0,1.822586060E0
4.864721770E0,1.648407817E0,-5.303755283E0,1.458667397E0
4.867209531E0,1.408987641E0,-4.982932091E0,1.118690729E0
4.869697291E0,1.222239971E0,-4.666897774E0,8.361749649E-1
4.872185052E0,1.035492182E0,-4.322132587E0,7.451952696E-1
4.874672812E0,9.301473498E-1,-3.991732836E0,8.170213103E-1
4.877160573E0,9.062053561E-1,-3.685275078E0,1.013345838E0
4.879648333E0,9.876081944E-1,-3.383605480E0,1.247977614E0
4.882136093E0,1.092953086E0,-3.096301317E0,1.492186189E0
4.884623854E0,1.174355984E0,-2.804208755E0,1.683722377E0
4.887111614E0,1.222239971E0,-2.488174200E0,1.808220863E0
4.889599375E0,1.183932781E0,-2.148197412E0,1.875258446E0
4.892087135E0,1.078587890E0,-1.736394763E0,1.894412041E0
4.894574895E0,9.732429981E-1,-1.305438519E0,1.903988957E0
4.897062656E0,8.583213091E-1,-8.553285599E-1,1.937507749E0
4.899550416E0,7.817068696E-1,-4.195838571E-1,2.004545450E0
4.902038177E0,7.529764175E-1,1.795651275E-3,2.172139406E0
4.904525937E0,7.817068696E-1,4.566939771E-1,2.296638012E0
4.907013698E0,8.248024583E-1,9.020155072E-1,2.363675594E0
4.909501458E0,8.726865053E-1,1.356913805E0,2.349310398E0
4.911989218E0,8.870517015E-1,1.821388960E0,2.301426411E0
4.914476979E0,9.014169574E-1,2.309806108E0,2.210446835E0
4.916964739E0,8.774749041E-1,2.803011656E0,2.071583033E0
4.919452500E0,8.056488633E-1,3.301005602E0,1.918354154E0
4.921940260E0,7.050924301E-1,3.789422750E0,1.832162857E0
4.924428020E0,5.422866940E-1,4.249109268E0,1.731606364E0
4.926915781E0,3.028665185E-1,4.699219227E0,1.616684675E0
4.929403541E0,2.035071515E-2,5.154117584E0,1.511339784E0
4.931891302E0,-2.525882721E-1,5.551555157E0,1.477820992E0
4.934379062E0,-4.824316502E-1,5.910685539E0,1.496974587E0
4.936866823E0,-7.218518257E-1,6.207566261E0,1.506551385E0
4.939354583E0,-9.133879542E-1,6.523601055E0,1.520916581E0
4.941842343E0,-1.061828494E0,6.753444672E0,1.573589087E0
4.944330104E0,-1.114500880E0,6.930615425E0,1.731606364E0
4.946817864E0,-1.080982089E0,7.112574577E0,1.913565755E0
4.949305625E0,-9.947907925E-1,7.299322605E0,2.033275843E0
4.951793385E0,-9.229647517E-1,7.486070156E0,2.105101824E0
4.954281093E0,-8.415619135E-1,7.668029308E0,2.196081400E0
4.956768802E0,-7.793126702E-1,7.845200539E0,2.311003208E0
4.959256510E0,-7.649474144E-1,8.008006096E0,2.368463993E0
4.961744218E0,-8.367735147E-1,8.122927666E0,2.459443808E0
4.964231927E0,-1.004367590E0,8.223484039E0,2.569576979E0
4.966719635E0,-1.215057373E0,8.276156425E0,2.636614561E0
4.969207343E0,-1.468842745E0,8.276156425E0,2.684498549E0
4.971695052E0,-1.727416515E0,8.204330444E0,2.679710150E0
4.974182760E0,-1.981201887E0,8.060678482E0,2.617460966E0
4.976670468E0,-2.215833664E0,7.893084526E0,2.502539396E0
4.979158177E0,-2.493561029E0,7.696759701E0,2.277484417E0
4.981645885E0,-2.823961020E0,7.442974567E0,1.956661344E0
4.984133593E0,-3.183091164E0,7.203554153E0,1.621473074E0
4.986621302E0,-3.566163540E0,6.944980621E0,1.295861721E0
4.989109010E0,-3.973177671E0,6.700771809E0,9.750386477E-1
4.991596718E0,-4.389768600E0,6.461351871E0,7.020996213E-1
4.994084427E0,-4.763264179E0,6.212354660E0,4.914098978E-1
4.996572135E0,-5.045780182E0,5.944204330E0,3.525462151E-1
4.999059843E0,-5.256469727E0,5.647323132E0,3.573346138E-1
5.001547552E0,-5.333084106E0,5.326500416E0,3.764882088E-1
5.004035260E0,-5.246892929E0,4.972158432E0,3.860650361E-1
5.006522968E0,-5.127182961E0,4.636970043E0,5.536591411E-1
5.009010677E0,-4.878185749E0,4.249109268E0,7.547720671E-1
5.011498385E0,-4.442441463E0,3.832518339E0,9.032126069E-1
5.013986093E0,-3.896563292E0,3.425503969E0,9.750386477E-1
5.016473802E0,-3.341108561E0,3.013701439E0,1.046864748E0
5.018961510E0,-2.823961020E0,2.649782658E0,1.147421122E0
5.021449218E0,-2.345120668E0,2.319382906E0,1.271919608E0
5.023936927E0,-1.933317900E0,2.051232338E0,1.396418095E0
5.026424635E0,-1.626860023E0,1.783081770E0,1.511339784E0
5.028912343E0,-1.416170359E0,1.534084797E0,1.535281897E0
5.031400052E0,-1.262941360E0,1.309029818E0,1.410783410E0
5.033887760E0,-1.215057373E0,1.136647224E0,1.219247222E0
5.036375468E0,-1.253364563E0,9.403226972E-1,1.018134236E0
5.038863177E0,-1.353921056E0,7.248445749E-1,7.978677154E-1
5.041350885E0,-1.449689150E0,4.854243994E-1,6.398503780E-1
5.043838593E0,-1.511938334E0,2.555810213E-1,4.770447016E-1
5.046326302E0,-1.540668845E0,-2.992752008E-3,3.477577865E-1
5.048814010E0,-1.535880446E0,-2.759317458E-1,2.232593149E-1
5.051301718E0,-1.487996340E0,-5.728127360E-1,1.322796494E-1
5.053789427E0,-1.373074651E0,-8.361749649E-1,7.003039867E-2
5.056277135E0,-1.272518158E0,-1.156997919E0,3.651157767E-2
5.058764843E0,-1.143231273E0,-1.463455796E0,7.781155407E-3
5.061252552E0,-1.037886381E0,-1.793855667E0,2.214636654E-2
5.063740260E0,-9.947907925E-1,-2.133832216E0,8.439560980E-2
