"Time (s)","Gyroscope x (rad/s)","Gyroscope y (rad/s)","Gyroscope z (rad/s)"
1.219546350E-1,-1.890842989E-2,7.337003201E-2,-6.924213842E-3
1.244812500E-1,-1.890842989E-2,7.230477035E-2,-5.858949851E-3
1.270009900E-1,-1.784316637E-2,7.017423958E-2,-5.858949851E-3
1.294888540E-1,-1.571263932E-2,6.697845459E-2,-5.858949851E-3
1.319766670E-1,-1.251684781E-2,6.697845459E-2,-6.924213842E-3
1.344644790E-1,-1.038632076E-2,6.697845459E-2,-7.989477366E-3
1.369522920E-1,-8.255792782E-3,6.910897791E-2,-9.054740891E-3
1.394401040E-1,-6.125265732E-3,7.230477035E-2,-1.012000442E-2
1.419279170E-1,-5.060002208E-3,7.656582445E-2,-1.331579592E-2
1.444157290E-1,-5.060002208E-3,8.082687855E-2,-1.651158556E-2
1.469035420E-1,-3.994738683E-3,8.402267098E-2,-1.970737800E-2
1.493913540E-1,-5.060002208E-3,8.721846342E-2,-2.396843210E-2
1.518791670E-1,-6.125265732E-3,8.934898674E-2,-2.929474972E-2
1.543669790E-1,-6.125265732E-3,8.828372508E-2,-3.462106735E-2
1.568547920E-1,-7.190529723E-3,8.615319431E-2,-3.994738683E-2
1.593426040E-1,-7.190529723E-3,8.189214021E-2,-4.740423337E-2
1.618304170E-1,-7.190529723E-3,7.656582445E-2,-5.379581451E-2
1.643182290E-1,-7.190529723E-3,7.017423958E-2,-5.912213027E-2
1.668060420E-1,-7.190529723E-3,6.271740049E-2,-6.551371515E-2
1.692938540E-1,-6.125265732E-3,5.419528857E-2,-7.084003091E-2
1.717816670E-1,-5.060002208E-3,4.673844203E-2,-7.403582335E-2
1.742694790E-1,-5.060002208E-3,4.034686089E-2,-7.829687744E-2
1.767572920E-1,-5.060002208E-3,3.289001435E-2,-8.149266988E-2
1.792451040E-1,-5.060002208E-3,2.756369673E-2,-8.362319320E-2
1.817329170E-1,-5.060002208E-3,2.117211558E-2,-8.575372398E-2
1.842207290E-1,-5.060002208E-3,1.584579609E-2,-8.894951642E-2
1.867085420E-1,-6.125265732E-3,1.051947847E-2,-9.108003974E-2
1.891963540E-1,-5.060002208E-3,4.127896391E-3,-9.214530140E-2
1.916841670E-1,-5.060002208E-3,-1.198421582E-3,-9.321057051E-2
1.941719790E-1,-3.994738683E-3,-7.590003312E-3,-9.534109384E-2
1.966597920E-1,-2.929474926E-3,-1.185105834E-2,-9.640636295E-2
1.991476040E-1,-1.864211401E-3,-1.717737690E-2,-9.747162461E-2
2.016354170E-1,2.663159103E-4,-2.143843099E-2,-9.640636295E-2
2.041232290E-1,1.331579522E-3,-2.356895804E-2,-9.427583218E-2
2.066110420E-1,2.396843163E-3,-2.463422157E-2,-9.214530140E-2
2.090988540E-1,3.462106921E-3,-2.569948509E-2,-8.894951642E-2
2.115866670E-1,4.527370445E-3,-2.463422157E-2,-8.468846232E-2
2.140744790E-1,5.592633970E-3,-2.250369452E-2,-8.042740822E-2
2.165622920E-1,6.657897960E-3,-1.930790395E-2,-7.510108501E-2
2.190501040E-1,7.723161485E-3,-1.611211337E-2,-6.977476925E-2
2.215379690E-1,8.788425475E-3,-1.185105834E-2,-6.444845349E-2
2.240258330E-1,9.853689000E-3,-7.590003312E-3,-5.805686861E-2
2.265136980E-1,9.853689000E-3,-2.263685223E-3,-5.166528746E-2
2.290015620E-1,1.091895252E-2,1.997369342E-3,-4.527370632E-2
2.314894270E-1,1.091895252E-2,7.323687430E-3,-3.888212144E-2
2.339772920E-1,1.091895252E-2,1.265000552E-2,-3.249054030E-2
2.364651560E-1,9.853689000E-3,1.797632314E-2,-2.609895915E-2
2.389530210E-1,9.853689000E-3,2.223737910E-2,-1.970737800E-2
2.414408850E-1,8.788425475E-3,2.543316968E-2,-1.331579592E-2
2.439287500E-1,7.723161485E-3,2.862896025E-2,-7.989477366E-3
2.464166150E-1,7.723161485E-3,2.969422378E-2,-2.663159044E-3
2.489044790E-1,6.657897960E-3,2.969422378E-2,2.663159044E-3
2.513923440E-1,6.657897960E-3,2.862896025E-2,7.989477366E-3
2.538802080E-1,5.592633970E-3,2.649843320E-2,1.118526794E-2
2.563680730E-1,5.592633970E-3,2.436790615E-2,1.438105945E-2
2.588559370E-1,5.592633970E-3,1.904158667E-2,1.651158556E-2
2.613438020E-1,6.657897960E-3,1.478053257E-2,1.970737800E-2
2.638316670E-1,7.723161485E-3,1.051947847E-2,2.077264152E-2
2.663195310E-1,7.723161485E-3,6.258423906E-3,2.290316857E-2
2.688073960E-1,8.788425475E-3,3.062632866E-3,2.396843210E-2
2.712952600E-1,8.788425475E-3,9.321057005E-4,2.396843210E-2
2.737831250E-1,8.788425475E-3,-1.331579551E-4,2.609895915E-2
2.762709900E-1,7.723161485E-3,-1.331579551E-4,2.609895915E-2
2.787588540E-1,7.723161485E-3,9.321057005E-4,2.822948620E-2
2.812467190E-1,7.723161485E-3,3.062632866E-3,2.822948620E-2
2.837345830E-1,7.723161485E-3,5.193160381E-3,3.036001325E-2
2.862224480E-1,8.788425475E-3,7.323687430E-3,3.249054030E-2
2.887103120E-1,8.788425475E-3,8.388951421E-3,3.355580568E-2
2.911981770E-1,9.853689000E-3,1.051947847E-2,3.568633273E-2
2.936860420E-1,9.853689000E-3,1.051947847E-2,3.888212144E-2
2.961739060E-1,9.853689000E-3,1.051947847E-2,4.101264849E-2
2.986617710E-1,8.788425475E-3,7.323687430E-3,4.314317927E-2
3.011496350E-1,7.723161485E-3,4.127896391E-3,4.527370632E-2
3.036375000E-1,7.723161485E-3,-1.331579551E-4,4.633896798E-2
3.061253650E-1,8.788425475E-3,-5.459476262E-3,4.633896798E-2
3.086132290E-1,9.853689000E-3,-1.185105834E-2,4.633896798E-2
3.111010940E-1,1.091895252E-2,-1.717737690E-2,4.527370632E-2
3.135889580E-1,1.091895252E-2,-2.463422157E-2,4.527370632E-2
3.160768230E-1,1.198421605E-2,-2.996053919E-2,4.420844093E-2
3.185646870E-1,1.304947957E-2,-3.528685868E-2,4.314317927E-2
3.210525520E-1,1.518000662E-2,-3.954791278E-2,4.207791388E-2
3.235404170E-1,1.624527015E-2,-4.274370521E-2,4.101264849E-2
3.260282810E-1,1.837579720E-2,-4.487423226E-2,3.994738683E-2
3.285161460E-1,1.837579720E-2,-4.593949392E-2,3.994738683E-2
3.310040100E-1,1.944106072E-2,-4.593949392E-2,3.888212144E-2
3.334918750E-1,1.944106072E-2,-4.700475931E-2,3.781685978E-2
3.359797400E-1,1.944106072E-2,-4.700475931E-2,3.675159439E-2
3.384676040E-1,1.837579720E-2,-4.700475931E-2,3.568633273E-2
3.409554690E-1,1.731053367E-2,-4.807002097E-2,3.462106735E-2
3.434433330E-1,1.731053367E-2,-4.807002097E-2,3.355580568E-2
3.459311980E-1,1.624527015E-2,-4.807002097E-2,3.249054030E-2
3.484190620E-1,1.518000662E-2,-4.700475931E-2,3.249054030E-2
3.509069270E-1,1.411474310E-2,-4.700475931E-2,3.249054030E-2
3.533947920E-1,1.304947957E-2,-4.593949392E-2,3.355580568E-2
3.558826560E-1,1.198421605E-2,-4.380896688E-2,3.462106735E-2
3.583705210E-1,1.091895252E-2,-4.274370521E-2,3.568633273E-2
3.608583850E-1,9.853689000E-3,-4.061317816E-2,3.781685978E-2
3.633462500E-1,8.788425475E-3,-3.954791278E-2,3.994738683E-2
3.658341150E-1,6.657897960E-3,-3.954791278E-2,4.101264849E-2
3.683219790E-1,5.592633970E-3,-3.954791278E-2,4.207791388E-2
3.708098440E-1,5.592633970E-3,-3.954791278E-2,4.420844093E-2
3.732977080E-1,4.527370445E-3,-4.061317816E-2,4.527370632E-2
3.757855730E-1,4.527370445E-3,-4.167843983E-2,4.420844093E-2
3.782734370E-1,4.527370445E-3,-4.274370521E-2,4.420844093E-2
3.807613020E-1,5.592633970E-3,-4.380896688E-2,4.207791388E-2
3.832491670E-1,5.592633970E-3,-4.593949392E-2,3.994738683E-2
3.857370310E-1,7.723161485E-3,-4.593949392E-2,3.781685978E-2
3.882248960E-1,8.788425475E-3,-4.700475931E-2,3.355580568E-2
3.907127600E-1,9.853689000E-3,-4.807002097E-2,3.036001325E-2
3.932006250E-1,1.091895252E-2,-4.807002097E-2,2.716422267E-2
3.956884900E-1,1.091895252E-2,-4.913528636E-2,2.290316857E-2
3.981763540E-1,1.091895252E-2,-4.913528636E-2,1.970737800E-2
4.006642190E-1,1.198421605E-2,-5.126581341E-2,1.651158556E-2
4.031520830E-1,1.198421605E-2,-5.233107507E-2,1.331579592E-2
4.056399480E-1,1.091895252E-2,-5.552686751E-2,1.012000442E-2
4.081278120E-1,1.091895252E-2,-5.872265995E-2,9.054740891E-3
4.106156770E-1,1.091895252E-2,-6.404897571E-2,6.924213842E-3
4.131035420E-1,1.091895252E-2,-6.831002980E-2,4.793686327E-3
4.155914060E-1,1.198421605E-2,-7.363634557E-2,2.663159044E-3
4.180792710E-1,1.198421605E-2,-7.896266878E-2,5.326318205E-4
4.205671350E-1,1.304947957E-2,-8.535424620E-2,-1.597895520E-3
4.230550000E-1,1.518000662E-2,-8.961530030E-2,-3.728422802E-3
4.255428650E-1,1.624527015E-2,-9.494162351E-2,-4.793686327E-3
4.280307290E-1,1.837579720E-2,-9.813741595E-2,-6.924213842E-3
4.305185940E-1,2.050632425E-2,-1.013332009E-1,-7.989477366E-3
4.330064580E-1,2.157158963E-2,-1.034637317E-1,-1.012000442E-2
4.354943230E-1,2.157158963E-2,-1.066595241E-1,-1.118526794E-2
4.379821870E-1,2.263685316E-2,-1.066595241E-1,-1.331579592E-2
4.404700520E-1,2.370211668E-2,-1.077247858E-1,-1.438105945E-2
4.429579170E-1,2.476738021E-2,-1.087900475E-1,-1.651158556E-2
4.454457810E-1,2.476738021E-2,-1.087900475E-1,-1.864211448E-2
4.479336460E-1,2.583264373E-2,-1.098553166E-1,-2.077264152E-2
4.504215100E-1,2.689790726E-2,-1.098553166E-1,-2.290316857E-2
4.529093750E-1,2.796317078E-2,-1.109205782E-1,-2.396843210E-2
4.553972400E-1,2.902843431E-2,-1.119858399E-1,-2.396843210E-2
4.578851040E-1,3.009369783E-2,-1.119858399E-1,-2.503369562E-2
4.603729690E-1,3.009369783E-2,-1.119858399E-1,-2.503369562E-2
4.628608330E-1,3.115896136E-2,-1.119858399E-1,-2.503369562E-2
4.653486980E-1,3.115896136E-2,-1.098553166E-1,-2.396843210E-2
4.678365620E-1,3.115896136E-2,-1.087900475E-1,-2.396843210E-2
4.703244270E-1,3.009369783E-2,-1.066595241E-1,-2.290316857E-2
4.728122920E-1,3.009369783E-2,-1.055942550E-1,-2.183790505E-2
4.753001560E-1,2.902843431E-2,-1.034637317E-1,-2.077264152E-2
4.777880210E-1,2.902843431E-2,-1.023984700E-1,-2.183790505E-2
4.802758850E-1,2.796317078E-2,-1.023984700E-1,-2.077264152E-2
4.827637500E-1,2.796317078E-2,-1.023984700E-1,-2.077264152E-2
4.852516150E-1,2.796317078E-2,-1.034637317E-1,-2.183790505E-2
4.877394270E-1,2.796317078E-2,-1.055942550E-1,-2.290316857E-2
4.902272400E-1,2.902843431E-2,-1.077247858E-1,-2.396843210E-2
4.927150520E-1,3.009369783E-2,-1.109205782E-1,-2.396843210E-2
4.952028650E-1,3.009369783E-2,-1.130511016E-1,-2.609895915E-2
4.976906770E-1,3.222422674E-2,-1.141163707E-1,-2.716422267E-2
5.001784900E-1,3.222422674E-2,-1.151816323E-1,-2.822948620E-2
5.026663020E-1,3.328948840E-2,-1.151816323E-1,-2.929474972E-2
5.051541150E-1,3.435475379E-2,-1.162468940E-1,-3.142527863E-2
5.076419270E-1,3.542001545E-2,-1.162468940E-1,-3.249054030E-2
5.101297400E-1,3.648528084E-2,-1.162468940E-1,-3.462106735E-2
5.126175520E-1,3.755054250E-2,-1.151816323E-1,-3.568633273E-2
5.151053650E-1,3.861580789E-2,-1.151816323E-1,-3.675159439E-2
5.175931770E-1,4.074633494E-2,-1.141163707E-1,-3.781685978E-2
5.200809900E-1,4.181159660E-2,-1.130511016E-1,-3.781685978E-2
5.225688020E-1,4.287686199E-2,-1.098553166E-1,-3.781685978E-2
5.250566150E-1,4.394212365E-2,-1.066595241E-1,-3.781685978E-2
5.275444270E-1,4.500738904E-2,-1.034637317E-1,-3.568633273E-2
5.300322400E-1,4.500738904E-2,-9.813741595E-2,-3.462106735E-2
5.325200520E-1,4.394212365E-2,-9.281109273E-2,-3.355580568E-2
5.350078650E-1,4.287686199E-2,-8.748477697E-2,-3.036001325E-2
5.374956770E-1,3.968106955E-2,-8.322372288E-2,-2.716422267E-2
5.399834900E-1,3.755054250E-2,-7.789740711E-2,-2.396843210E-2
5.424713020E-1,3.648528084E-2,-7.363634557E-2,-2.077264152E-2
5.449591150E-1,3.435475379E-2,-7.044056058E-2,-1.757685095E-2
5.474469270E-1,3.435475379E-2,-6.724476814E-2,-1.544632297E-2
5.499347400E-1,3.542001545E-2,-6.404897571E-2,-1.225053146E-2
5.524225520E-1,3.542001545E-2,-6.085318699E-2,-1.012000442E-2
5.549103650E-1,3.542001545E-2,-5.765739456E-2,-6.924213842E-3
5.573982290E-1,3.542001545E-2,-5.446160212E-2,-5.858949851E-3
5.598860940E-1,3.435475379E-2,-5.233107507E-2,-4.793686327E-3
5.623739580E-1,3.328948840E-2,-4.913528636E-2,-3.728422802E-3
5.648618230E-1,3.222422674E-2,-4.700475931E-2,-3.728422802E-3
5.673496870E-1,3.115896136E-2,-4.593949392E-2,-4.793686327E-3
5.698375520E-1,3.009369783E-2,-4.700475931E-2,-6.924213842E-3
5.723254170E-1,3.009369783E-2,-4.807002097E-2,-1.012000442E-2
5.748132810E-1,3.115896136E-2,-5.233107507E-2,-1.331579592E-2
5.773011460E-1,3.222422674E-2,-5.659212917E-2,-1.864211448E-2
5.797890100E-1,3.328948840E-2,-6.298371404E-2,-2.396843210E-2
5.822768750E-1,3.328948840E-2,-6.937529147E-2,-2.929474972E-2
5.847647400E-1,3.435475379E-2,-7.576687634E-2,-3.568633273E-2
5.872526040E-1,3.328948840E-2,-8.215846121E-2,-3.994738683E-2
5.897404690E-1,3.328948840E-2,-8.748477697E-2,-4.420844093E-2
5.922283330E-1,3.328948840E-2,-9.281109273E-2,-4.633896798E-2
5.947161980E-1,3.222422674E-2,-9.707214683E-2,-4.846949503E-2
5.972040620E-1,3.115896136E-2,-1.002679393E-1,-5.060002208E-2
5.996919270E-1,3.115896136E-2,-1.034637317E-1,-5.273054913E-2
6.021797920E-1,3.009369783E-2,-1.045289934E-1,-5.379581451E-2
6.046676560E-1,3.115896136E-2,-1.066595241E-1,-5.379581451E-2
6.071555210E-1,3.115896136E-2,-1.055942550E-1,-5.379581451E-2
6.096433850E-1,3.009369783E-2,-1.045289934E-1,-5.273054913E-2
6.121312500E-1,3.009369783E-2,-1.023984700E-1,-5.060002208E-2
6.146191150E-1,2.902843431E-2,-9.813741595E-2,-4.846949503E-2
6.171069790E-1,2.689790726E-2,-9.174583107E-2,-4.527370632E-2
6.195948440E-1,2.583264373E-2,-8.428898454E-2,-4.207791388E-2
6.220827080E-1,2.370211668E-2,-7.576687634E-2,-3.675159439E-2
6.245705730E-1,2.263685316E-2,-6.617950648E-2,-3.355580568E-2
6.270584370E-1,2.050632425E-2,-5.659212917E-2,-3.036001325E-2
6.295463020E-1,1.944106072E-2,-4.807002097E-2,-2.716422267E-2
6.320341670E-1,1.731053367E-2,-3.954791278E-2,-2.290316857E-2
6.345220310E-1,1.624527015E-2,-3.315633163E-2,-2.077264152E-2
6.370098960E-1,1.411474310E-2,-2.676474862E-2,-1.864211448E-2
6.394977600E-1,1.304947957E-2,-2.250369452E-2,-1.757685095E-2
6.419856250E-1,1.198421605E-2,-1.717737690E-2,-1.651158556E-2
6.444734900E-1,9.853689000E-3,-1.291632187E-2,-1.651158556E-2
6.469613540E-1,8.788425475E-3,-8.655266836E-3,-1.651158556E-2
6.494492190E-1,5.592633970E-3,-5.459476262E-3,-1.651158556E-2
6.519370830E-1,4.527370445E-3,-2.263685223E-3,-1.757685095E-2
6.544249480E-1,1.331579522E-3,-1.331579551E-4,-1.757685095E-2
6.569128120E-1,-7.989477599E-4,9.321057005E-4,-1.970737800E-2
6.594006770E-1,-3.994738683E-3,1.997369342E-3,-2.077264152E-2
6.618885420E-1,-6.125265732E-3,1.997369342E-3,-2.183790505E-2
6.643764060E-1,-9.321057238E-3,-1.331579551E-4,-2.396843210E-2
6.668642710E-1,-1.251684781E-2,-2.263685223E-3,-2.716422267E-2
6.693521350E-1,-1.464737486E-2,-4.394212738E-3,-3.036001325E-2
6.718400000E-1,-1.677790284E-2,-7.590003312E-3,-3.249054030E-2
6.743278650E-1,-1.890842989E-2,-9.720530361E-3,-3.675159439E-2
6.768157290E-1,-2.103895694E-2,-1.185105834E-2,-3.888212144E-2
6.793035940E-1,-2.316948399E-2,-1.291632187E-2,-4.314317927E-2
6.817914580E-1,-2.423474751E-2,-1.398158539E-2,-4.527370632E-2
6.842793230E-1,-2.530001104E-2,-1.398158539E-2,-4.846949503E-2
6.867671870E-1,-2.743053809E-2,-1.398158539E-2,-4.953476042E-2
6.892550520E-1,-2.849580161E-2,-1.291632187E-2,-5.166528746E-2
6.917429170E-1,-2.956106514E-2,-1.185105834E-2,-5.273054913E-2
6.942307810E-1,-3.062633052E-2,-1.185105834E-2,-5.486107618E-2
6.967186460E-1,-3.169159219E-2,-1.185105834E-2,-5.699160323E-2
6.992065100E-1,-3.169159219E-2,-1.078579482E-2,-5.805686861E-2
7.016943750E-1,-3.275685757E-2,-1.078579482E-2,-6.018739566E-2
7.041822400E-1,-3.382211924E-2,-1.291632187E-2,-6.125266105E-2
7.066701040E-1,-3.382211924E-2,-1.291632187E-2,-6.231792271E-2
7.091579690E-1,-3.382211924E-2,-1.291632187E-2,-6.444845349E-2
7.116458330E-1,-3.488738462E-2,-1.185105834E-2,-6.551371515E-2
7.141336980E-1,-3.488738462E-2,-1.078579482E-2,-6.657897681E-2
7.166215620E-1,-3.488738462E-2,-9.720530361E-3,-6.657897681E-2
7.191094270E-1,-3.595264629E-2,-7.590003312E-3,-6.764423847E-2
7.215972920E-1,-3.701791167E-2,-5.459476262E-3,-6.764423847E-2
7.240851560E-1,-3.808317333E-2,-3.328948980E-3,-6.870950758E-2
7.265730210E-1,-3.808317333E-2,-1.331579551E-4,-6.977476925E-2
7.290608850E-1,-3.914843872E-2,3.062632866E-3,-7.084003091E-2
7.315487500E-1,-3.914843872E-2,6.258423906E-3,-7.084003091E-2
7.340366150E-1,-3.808317333E-2,1.158474199E-2,-7.084003091E-2
7.365244790E-1,-3.808317333E-2,1.478053257E-2,-6.977476925E-2
7.390123440E-1,-3.808317333E-2,2.010685205E-2,-6.977476925E-2
7.415002080E-1,-3.701791167E-2,2.330264263E-2,-6.870950758E-2
7.439880730E-1,-3.701791167E-2,2.756369673E-2,-6.764423847E-2
7.464759370E-1,-3.488738462E-2,3.182475269E-2,-6.657897681E-2
7.489638020E-1,-3.382211924E-2,3.608580679E-2,-6.551371515E-2
7.514516670E-1,-3.169159219E-2,3.821633384E-2,-6.444845349E-2
7.539395310E-1,-2.849580161E-2,4.034686089E-2,-6.338318437E-2
7.564273960E-1,-2.530001104E-2,4.141212255E-2,-6.338318437E-2
7.589152600E-1,-2.210422046E-2,4.247738793E-2,-6.231792271E-2
7.614031250E-1,-1.890842989E-2,4.141212255E-2,-6.231792271E-2
7.638909900E-1,-1.464737486E-2,3.928159550E-2,-6.231792271E-2
7.663788540E-1,-1.145158429E-2,3.715106845E-2,-6.338318437E-2
7.688667190E-1,-7.190529723E-3,3.395527974E-2,-6.338318437E-2
7.713545830E-1,-3.994738683E-3,3.075948730E-2,-6.338318437E-2
7.738424480E-1,2.663159103E-4,2.756369673E-2,-6.444845349E-2
7.763303120E-1,4.527370445E-3,2.543316968E-2,-6.551371515E-2
7.788181770E-1,8.788425475E-3,2.223737910E-2,-6.657897681E-2
7.813060420E-1,1.411474310E-2,1.904158667E-2,-6.657897681E-2
7.837939060E-1,1.944106072E-2,1.584579609E-2,-6.551371515E-2
7.862817710E-1,2.370211668E-2,1.371526904E-2,-6.444845349E-2
7.887696350E-1,2.902843431E-2,1.051947847E-2,-6.338318437E-2
7.912575000E-1,3.435475379E-2,8.388951421E-3,-6.231792271E-2
7.937453650E-1,3.968106955E-2,6.258423906E-3,-6.018739566E-2
7.962332290E-1,4.287686199E-2,5.193160381E-3,-5.699160323E-2
7.987210940E-1,4.820318148E-2,5.193160381E-3,-5.486107618E-2
8.012089580E-1,5.246423557E-2,5.193160381E-3,-5.166528746E-2
8.036968230E-1,5.566002429E-2,7.323687430E-3,-4.740423337E-2
8.061846870E-1,5.779055133E-2,9.454214945E-3,-4.420844093E-2
8.086725520E-1,6.098634377E-2,1.265000552E-2,-4.101264849E-2
8.111604170E-1,6.418213248E-2,1.584579609E-2,-3.675159439E-2
8.136482810E-1,6.631266326E-2,2.010685205E-2,-3.142527863E-2
8.161361460E-1,6.844318658E-2,2.543316968E-2,-2.503369562E-2
8.186240100E-1,6.950845569E-2,3.075948730E-2,-1.864211448E-2
8.211118750E-1,7.163897902E-2,3.715106845E-2,-1.331579592E-2
8.235997400E-1,7.270424068E-2,4.354264960E-2,-6.924213842E-3
8.260876040E-1,7.376950979E-2,4.993423447E-2,-5.326318205E-4
8.285754690E-1,7.590003312E-2,5.526055023E-2,5.858949851E-3
8.310633330E-1,7.590003312E-2,6.058686972E-2,1.118526794E-2
8.335511980E-1,7.803056389E-2,6.378266215E-2,1.544632297E-2
8.360390620E-1,7.803056389E-2,6.697845459E-2,1.970737800E-2
8.385269270E-1,8.016108721E-2,7.017423958E-2,2.396843210E-2
8.410147920E-1,8.122635633E-2,7.123950869E-2,2.716422267E-2
8.435026560E-1,8.229161799E-2,7.230477035E-2,2.929474972E-2
8.459905210E-1,8.229161799E-2,7.337003201E-2,3.355580568E-2
8.484783850E-1,8.335687965E-2,7.123950869E-2,3.568633273E-2
8.509662500E-1,8.442214131E-2,7.123950869E-2,3.888212144E-2
8.534541150E-1,8.655267209E-2,6.910897791E-2,4.207791388E-2
8.559419790E-1,8.761793375E-2,6.697845459E-2,4.420844093E-2
8.584298440E-1,8.868319541E-2,6.484792382E-2,4.633896798E-2
8.609177080E-1,8.974846452E-2,6.378266215E-2,4.740423337E-2
8.634055730E-1,9.187898785E-2,6.165213138E-2,4.846949503E-2
8.658934370E-1,9.400951862E-2,6.058686972E-2,4.846949503E-2
8.683813020E-1,9.614004195E-2,6.058686972E-2,4.846949503E-2
8.708691670E-1,9.720530361E-2,6.058686972E-2,4.953476042E-2
8.733570310E-1,9.933583438E-2,6.165213138E-2,5.060002208E-2
8.758448960E-1,1.004010960E-1,6.378266215E-2,5.060002208E-2
8.783327600E-1,1.014663652E-1,6.591318548E-2,5.166528746E-2
8.808206250E-1,1.025316268E-1,6.910897791E-2,5.379581451E-2
8.833084900E-1,1.035968885E-1,7.230477035E-2,5.486107618E-2
8.857963540E-1,1.035968885E-1,7.763108611E-2,5.699160323E-2
8.882842190E-1,1.035968885E-1,7.976161689E-2,5.912213027E-2
8.907720830E-1,1.025316268E-1,8.295740932E-2,6.125266105E-2
8.932599480E-1,1.014663652E-1,8.508793265E-2,6.338318437E-2
8.957478120E-1,9.933583438E-2,8.508793265E-2,6.444845349E-2
8.982356770E-1,9.720530361E-2,8.402267098E-2,6.657897681E-2
9.007235420E-1,9.400951862E-2,8.189214021E-2,6.764423847E-2
9.032114060E-1,9.081372619E-2,7.976161689E-2,6.977476925E-2
9.056992710E-1,8.761793375E-2,7.763108611E-2,7.084003091E-2
9.081871350E-1,8.442214131E-2,7.443529367E-2,7.190529257E-2
9.106750000E-1,8.122635633E-2,7.230477035E-2,7.190529257E-2
9.131628650E-1,7.590003312E-2,7.017423958E-2,7.190529257E-2
9.156507290E-1,7.270424068E-2,6.804371625E-2,7.190529257E-2
9.181385940E-1,6.737792492E-2,6.697845459E-2,7.084003091E-2
9.206264580E-1,6.205160543E-2,6.484792382E-2,6.977476925E-2
9.231143230E-1,5.672528967E-2,6.378266215E-2,6.764423847E-2
9.256021870E-1,5.139897019E-2,6.165213138E-2,6.657897681E-2
9.280900520E-1,4.713791609E-2,5.952160433E-2,6.338318437E-2
9.305779170E-1,4.181159660E-2,5.739107728E-2,6.125266105E-2
9.330657810E-1,3.755054250E-2,5.419528857E-2,5.699160323E-2
9.355536460E-1,3.328948840E-2,4.993423447E-2,5.379581451E-2
9.380415100E-1,2.796317078E-2,4.567318037E-2,5.060002208E-2
9.405293750E-1,2.263685316E-2,3.928159550E-2,4.633896798E-2
9.430172400E-1,1.837579720E-2,3.289001435E-2,4.314317927E-2
9.455051040E-1,1.304947957E-2,2.543316968E-2,3.888212144E-2
9.479929690E-1,7.723161485E-3,1.797632314E-2,3.568633273E-2
9.504808330E-1,2.396843163E-3,1.051947847E-2,3.249054030E-2
9.529686980E-1,-1.864211401E-3,3.062632866E-3,2.822948620E-2
9.554565620E-1,-6.125265732E-3,-2.263685223E-3,2.396843210E-2
9.579444270E-1,-1.038632076E-2,-8.655266836E-3,1.864211448E-2
9.604322920E-1,-1.358211134E-2,-1.398158539E-2,1.438105945E-2
9.629201560E-1,-1.677790284E-2,-1.930790395E-2,1.012000442E-2
9.654080210E-1,-1.997369342E-2,-2.250369452E-2,5.858949851E-3
9.678958850E-1,-2.316948399E-2,-2.569948509E-2,2.663159044E-3
9.703837500E-1,-2.530001104E-2,-2.889527567E-2,-5.326318205E-4
9.728716150E-1,-2.849580161E-2,-2.996053919E-2,-4.793686327E-3
9.753594790E-1,-3.169159219E-2,-3.209106624E-2,-7.989477366E-3
9.778473440E-1,-3.488738462E-2,-3.422159329E-2,-1.225053146E-2
9.803352080E-1,-3.808317333E-2,-3.848264739E-2,-1.757685095E-2
9.828230730E-1,-4.021370411E-2,-4.167843983E-2,-2.290316857E-2
9.853109370E-1,-4.340949282E-2,-4.593949392E-2,-2.822948620E-2
9.877988020E-1,-4.660528526E-2,-5.126581341E-2,-3.462106735E-2
9.902866670E-1,-4.980107397E-2,-5.552686751E-2,-4.101264849E-2
9.927745310E-1,-5.299686641E-2,-5.978792161E-2,-4.846949503E-2
9.952623960E-1,-5.619265884E-2,-6.404897571E-2,-5.486107618E-2
9.977502600E-1,-5.938844755E-2,-6.937529147E-2,-6.125266105E-2
1.000238177E0,-6.364950538E-2,-7.257108390E-2,-6.764423847E-2
1.002726094E0,-6.684529036E-2,-7.683213800E-2,-7.297056168E-2
1.005214010E0,-7.217161357E-2,-7.896266878E-2,-7.829687744E-2
1.007701927E0,-7.643266767E-2,-8.109319210E-2,-8.255793154E-2
1.010189844E0,-8.069372177E-2,-8.215846121E-2,-8.575372398E-2
1.012677760E0,-8.602003753E-2,-8.002793044E-2,-8.894951642E-2
1.015165677E0,-9.028109163E-2,-7.789740711E-2,-9.108003974E-2
1.017653594E0,-9.560741484E-2,-7.576687634E-2,-9.427583218E-2
1.020141510E0,-9.986846894E-2,-7.150582224E-2,-9.534109384E-2
1.022629427E0,-1.030642539E-1,-6.724476814E-2,-9.747162461E-2
1.025117344E0,-1.073253155E-1,-6.191844866E-2,-9.853688627E-2
1.027605260E0,-1.105211005E-1,-5.659212917E-2,-1.006674170E-1
1.030093177E0,-1.126516312E-1,-5.020054802E-2,-1.006674170E-1
1.032581094E0,-1.147821546E-1,-4.274370521E-2,-1.006674170E-1
1.035069010E0,-1.169126853E-1,-3.528685868E-2,-9.960214794E-2
1.037556927E0,-1.179779470E-1,-2.889527567E-2,-9.960214794E-2
1.040044844E0,-1.190432087E-1,-2.143843099E-2,-9.853688627E-2
1.042532760E0,-1.201084778E-1,-1.504684892E-2,-9.747162461E-2
1.045020677E0,-1.211737394E-1,-8.655266836E-3,-9.747162461E-2
1.047508594E0,-1.211737394E-1,-2.263685223E-3,-9.853688627E-2
1.049996510E0,-1.222390011E-1,1.997369342E-3,-9.960214794E-2
1.052484427E0,-1.233042628E-1,4.127896391E-3,-1.017326787E-1
1.054972344E0,-1.254348010E-1,7.323687430E-3,-1.038632020E-1
1.057460260E0,-1.275653243E-1,8.388951421E-3,-1.070589945E-1
1.059948177E0,-1.286305785E-1,9.454214945E-3,-1.102547869E-1
1.062436094E0,-1.286305785E-1,9.454214945E-3,-1.134505793E-1
1.064924010E0,-1.307611167E-1,8.388951421E-3,-1.155811027E-1
1.067411927E0,-1.318263710E-1,7.323687430E-3,-1.187768951E-1
1.069899792E0,-1.328916401E-1,7.323687430E-3,-1.198421568E-1
1.072387656E0,-1.339569092E-1,5.193160381E-3,-1.219726875E-1
1.074875521E0,-1.360874325E-1,4.127896391E-3,-1.230379492E-1
1.077363385E0,-1.371526867E-1,9.321057005E-4,-1.219726875E-1
1.079851250E0,-1.382179558E-1,-2.263685223E-3,-1.219726875E-1
1.082339115E0,-1.382179558E-1,-6.524739787E-3,-1.198421568E-1
1.084826979E0,-1.382179558E-1,-1.185105834E-2,-1.198421568E-1
1.087314844E0,-1.371526867E-1,-1.824264042E-2,-1.187768951E-1
1.089802708E0,-1.371526867E-1,-2.356895804E-2,-1.177116334E-1
1.092290573E0,-1.360874325E-1,-2.783001214E-2,-1.166463718E-1
1.094778437E0,-1.350221634E-1,-3.102580272E-2,-1.166463718E-1
1.097266302E0,-1.339569092E-1,-3.209106624E-2,-1.177116334E-1
1.099754167E0,-1.339569092E-1,-2.996053919E-2,-1.166463718E-1
1.102242031E0,-1.328916401E-1,-2.463422157E-2,-1.177116334E-1
1.104729896E0,-1.318263710E-1,-1.717737690E-2,-1.187768951E-1
1.107217760E0,-1.328916401E-1,-7.590003312E-3,-1.187768951E-1
1.109705625E0,-1.328916401E-1,1.997369342E-3,-1.209074259E-1
1.112193490E0,-1.339569092E-1,1.158474199E-2,-1.219726875E-1
1.114681354E0,-1.339569092E-1,2.117211558E-2,-1.251684725E-1
1.117169219E0,-1.339569092E-1,2.862896025E-2,-1.283642650E-1
1.119657083E0,-1.339569092E-1,3.608580679E-2,-1.304948032E-1
1.122144948E0,-1.339569092E-1,4.141212255E-2,-1.347558498E-1
1.124632812E0,-1.318263710E-1,4.567318037E-2,-1.368863732E-1
1.127120677E0,-1.307611167E-1,4.886896908E-2,-1.400821656E-1
1.129608542E0,-1.286305785E-1,5.313002318E-2,-1.422126889E-1
1.132096406E0,-1.265000552E-1,5.739107728E-2,-1.454084814E-1
1.134584271E0,-1.254348010E-1,6.165213138E-2,-1.486042738E-1
1.137072135E0,-1.243695319E-1,6.697845459E-2,-1.528653353E-1
1.139560000E0,-1.233042628E-1,7.230477035E-2,-1.560611278E-1
1.142047865E0,-1.222390011E-1,7.869634777E-2,-1.613874435E-1
1.144535729E0,-1.201084778E-1,8.615319431E-2,-1.656484902E-1
1.147023594E0,-1.190432087E-1,9.361004084E-2,-1.699095517E-1
1.149511458E0,-1.169126853E-1,1.000016257E-1,-1.731053442E-1
1.151999323E0,-1.158474237E-1,1.074584723E-1,-1.752358675E-1
1.154487187E0,-1.147821546E-1,1.149153188E-1,-1.773663908E-1
1.156975052E0,-1.126516312E-1,1.213068962E-1,-1.784316599E-1
1.159462917E0,-1.105211005E-1,1.276984811E-1,-1.784316599E-1
1.161950781E0,-1.094558388E-1,1.340900660E-1,-1.784316599E-1
1.164438646E0,-1.083905771E-1,1.404816359E-1,-1.773663908E-1
1.166926510E0,-1.073253155E-1,1.468732208E-1,-1.741705984E-1
1.169414375E0,-1.062600464E-1,1.521995366E-1,-1.731053442E-1
1.171902240E0,-1.083905771E-1,1.564605981E-1,-1.709748209E-1
1.174390104E0,-1.094558388E-1,1.585911214E-1,-1.699095517E-1
1.176877969E0,-1.115863696E-1,1.596563905E-1,-1.688442826E-1
1.179365833E0,-1.126516312E-1,1.575258672E-1,-1.699095517E-1
1.181853698E0,-1.137168929E-1,1.553953290E-1,-1.688442826E-1
1.184341562E0,-1.137168929E-1,1.500690132E-1,-1.699095517E-1
1.186829427E0,-1.147821546E-1,1.436774284E-1,-1.688442826E-1
1.189317292E0,-1.147821546E-1,1.372858584E-1,-1.667137593E-1
1.191805156E0,-1.137168929E-1,1.308942735E-1,-1.645832360E-1
1.194293021E0,-1.126516312E-1,1.255679578E-1,-1.613874435E-1
1.196780885E0,-1.126516312E-1,1.213068962E-1,-1.560611278E-1
1.199268750E0,-1.115863696E-1,1.170458421E-1,-1.507348120E-1
1.201756615E0,-1.105211005E-1,1.149153188E-1,-1.443432271E-1
1.204244479E0,-1.094558388E-1,1.127847880E-1,-1.379516423E-1
1.206732344E0,-1.073253155E-1,1.127847880E-1,-1.315600574E-1
1.209220208E0,-1.051947847E-1,1.117195264E-1,-1.251684725E-1
1.211708073E0,-1.019989923E-1,1.127847880E-1,-1.209074259E-1
1.214195937E0,-9.880319983E-2,1.138500497E-1,-1.166463718E-1
1.216683802E0,-9.454214573E-2,1.170458421E-1,-1.134505793E-1
1.219171667E0,-9.028109163E-2,1.191763729E-1,-1.102547869E-1
1.221659531E0,-8.495477587E-2,1.234374270E-1,-1.070589945E-1
1.224147396E0,-8.069372177E-2,1.266332120E-1,-1.049284711E-1
1.226635260E0,-7.643266767E-2,1.319595277E-1,-1.049284711E-1
1.229123125E0,-7.110634446E-2,1.362205893E-1,-1.049284711E-1
1.231610990E0,-6.791055948E-2,1.415469050E-1,-1.038632020E-1
1.234098854E0,-6.471476704E-2,1.458079666E-1,-1.049284711E-1
1.236586719E0,-6.258423626E-2,1.490037590E-1,-1.059937328E-1
1.239074583E0,-6.045371294E-2,1.511342824E-1,-1.070589945E-1
1.241562448E0,-5.832318589E-2,1.532648057E-1,-1.091895252E-1
1.244050312E0,-5.725792050E-2,1.543300748E-1,-1.113200486E-1
1.246538177E0,-5.619265884E-2,1.553953290E-1,-1.123853177E-1
1.249026042E0,-5.512739345E-2,1.564605981E-1,-1.134505793E-1
1.251513906E0,-5.406212807E-2,1.585911214E-1,-1.134505793E-1
1.254001771E0,-5.193160102E-2,1.607216448E-1,-1.145158410E-1
1.256489635E0,-5.086633936E-2,1.639174372E-1,-1.145158410E-1
1.258977500E0,-4.873581231E-2,1.660479754E-1,-1.166463718E-1
1.261465365E0,-4.554001987E-2,1.692437679E-1,-1.187768951E-1
1.263953229E0,-4.340949282E-2,1.703090221E-1,-1.209074259E-1
1.266441094E0,-4.127896577E-2,1.713742912E-1,-1.230379492E-1
1.268928958E0,-4.021370411E-2,1.724395454E-1,-1.262337416E-1
1.271416823E0,-4.127896577E-2,1.724395454E-1,-1.283642650E-1
1.273904687E0,-4.234423116E-2,1.724395454E-1,-1.304948032E-1
1.276392552E0,-4.447475821E-2,1.724395454E-1,-1.326253265E-1
1.278880417E0,-4.767054692E-2,1.724395454E-1,-1.358211190E-1
1.281368281E0,-5.086633936E-2,1.724395454E-1,-1.379516423E-1
1.283856146E0,-5.406212807E-2,1.713742912E-1,-1.422126889E-1
1.286344010E0,-5.725792050E-2,1.692437679E-1,-1.454084814E-1
1.288831875E0,-6.045371294E-2,1.649827063E-1,-1.507348120E-1
1.291319740E0,-6.258423626E-2,1.575258672E-1,-1.571263820E-1
1.293807604E0,-6.471476704E-2,1.490037590E-1,-1.624527127E-1
1.296295469E0,-6.578002870E-2,1.351553202E-1,-1.688442826E-1
1.298783333E0,-6.897582114E-2,1.191763729E-1,-1.752358675E-1
1.301271198E0,-7.004108280E-2,1.010668874E-1,-1.826927215E-1
1.303759062E0,-7.217161357E-2,8.189214021E-2,-1.901495606E-1
1.306246927E0,-7.430213690E-2,6.271740049E-2,-1.986716688E-1
1.308734792E0,-7.749792933E-2,4.247738793E-2,-2.061285079E-1
1.311222656E0,-7.962846011E-2,2.543316968E-2,-2.135853618E-1
1.313710521E0,-8.282424510E-2,9.454214945E-3,-2.199769467E-1
1.316198385E0,-8.602003753E-2,-4.394212738E-3,-2.263685167E-1
1.318686250E0,-9.028109163E-2,-1.717737690E-2,-2.316948473E-1
1.321174115E0,-9.667267650E-2,-2.676474862E-2,-2.359558940E-1
1.323661979E0,-1.019989923E-1,-3.528685868E-2,-2.391516864E-1
1.326149844E0,-1.073253155E-1,-4.274370521E-2,-2.412822098E-1
1.328637708E0,-1.137168929E-1,-5.020054802E-2,-2.423474789E-1
1.331125573E0,-1.179779470E-1,-5.978792161E-2,-2.434127480E-1
1.333613437E0,-1.211737394E-1,-6.937529147E-2,-2.444780022E-1
1.336101302E0,-1.243695319E-1,-8.002793044E-2,-2.444780022E-1
1.338589167E0,-1.254348010E-1,-9.068056941E-2,-2.434127480E-1
1.341077031E0,-1.275653243E-1,-1.013332009E-1,-2.434127480E-1
1.343564896E0,-1.296958476E-1,-1.109205782E-1,-2.412822098E-1
1.346052760E0,-1.328916401E-1,-1.173121557E-1,-2.391516864E-1
1.348540625E0,-1.350221634E-1,-1.215732098E-1,-2.348906398E-1
1.351028490E0,-1.371526867E-1,-1.237037405E-1,-2.306295782E-1
1.353516354E0,-1.382179558E-1,-1.215732098E-1,-2.263685167E-1
1.356004219E0,-1.392832249E-1,-1.183774248E-1,-2.231727391E-1
1.358492083E0,-1.392832249E-1,-1.151816323E-1,-2.210422009E-1
1.360979948E0,-1.392832249E-1,-1.098553166E-1,-2.199769467E-1
1.363467812E0,-1.392832249E-1,-1.055942550E-1,-2.199769467E-1
1.365955677E0,-1.392832249E-1,-1.013332009E-1,-2.189116776E-1
1.368443542E0,-1.403484792E-1,-9.813741595E-2,-2.189116776E-1
1.370931458E0,-1.403484792E-1,-9.494162351E-2,-2.178464085E-1
1.373419375E0,-1.414137483E-1,-9.387636185E-2,-2.157158852E-1
1.375907292E0,-1.424790174E-1,-9.174583107E-2,-2.114548385E-1
1.378395208E0,-1.446095407E-1,-9.068056941E-2,-2.071937770E-1
1.380883125E0,-1.478053331E-1,-8.961530030E-2,-2.008021921E-1
1.383371042E0,-1.510011256E-1,-8.961530030E-2,-1.944106072E-1
1.385858958E0,-1.531316489E-1,-8.855003864E-2,-1.858884990E-1
1.388346875E0,-1.573926955E-1,-8.855003864E-2,-1.773663908E-1
1.390834792E0,-1.605884880E-1,-8.855003864E-2,-1.677790284E-1
1.393322708E0,-1.637842804E-1,-8.961530030E-2,-1.581916511E-1
1.395810625E0,-1.669800729E-1,-8.961530030E-2,-1.486042738E-1
1.398298542E0,-1.712411344E-1,-8.855003864E-2,-1.390169114E-1
1.400786458E0,-1.733716577E-1,-8.748477697E-2,-1.294295341E-1
1.403274375E0,-1.765674502E-1,-8.641951531E-2,-1.209074259E-1
1.405762292E0,-1.786979735E-1,-8.322372288E-2,-1.113200486E-1
1.408250208E0,-1.818937659E-1,-8.002793044E-2,-1.006674170E-1
1.410738125E0,-1.850895584E-1,-7.683213800E-2,-9.108003974E-2
1.413226042E0,-1.882853508E-1,-7.257108390E-2,-8.149266988E-2
1.415713958E0,-1.925463974E-1,-6.937529147E-2,-7.297056168E-2
1.418201875E0,-1.968074590E-1,-6.724476814E-2,-6.551371515E-2
1.420689792E0,-2.010685056E-1,-6.617950648E-2,-5.912213027E-2
1.423177708E0,-2.053295672E-1,-6.617950648E-2,-5.379581451E-2
1.425665625E0,-2.106558830E-1,-6.937529147E-2,-4.953476042E-2
1.428153542E0,-2.149169445E-1,-7.257108390E-2,-4.633896798E-2
1.430641458E0,-2.181127369E-1,-7.683213800E-2,-4.527370632E-2
1.433129375E0,-2.223737836E-1,-8.215846121E-2,-4.420844093E-2
1.435617292E0,-2.255695760E-1,-8.748477697E-2,-4.314317927E-2
1.438105208E0,-2.308958918E-1,-9.281109273E-2,-4.207791388E-2
1.440593125E0,-2.340916842E-1,-9.707214683E-2,-4.207791388E-2
1.443081042E0,-2.362222075E-1,-1.023984700E-1,-4.101264849E-2
1.445568958E0,-2.394180000E-1,-1.055942550E-1,-4.101264849E-2
1.448056875E0,-2.404832691E-1,-1.087900475E-1,-4.101264849E-2
1.450544740E0,-2.426137924E-1,-1.109205782E-1,-3.994738683E-2
1.453032604E0,-2.436790615E-1,-1.119858399E-1,-3.888212144E-2
1.455520469E0,-2.447443157E-1,-1.119858399E-1,-3.781685978E-2
1.458008333E0,-2.458095849E-1,-1.119858399E-1,-3.568633273E-2
1.460496198E0,-2.458095849E-1,-1.098553166E-1,-3.355580568E-2
1.462984062E0,-2.447443157E-1,-1.077247858E-1,-3.036001325E-2
1.465471927E0,-2.447443157E-1,-1.055942550E-1,-2.716422267E-2
1.467959792E0,-2.426137924E-1,-1.045289934E-1,-2.396843210E-2
1.470447656E0,-2.394180000E-1,-1.045289934E-1,-2.183790505E-2
1.472935521E0,-2.351569533E-1,-1.045289934E-1,-1.970737800E-2
1.475423385E0,-2.319611609E-1,-1.055942550E-1,-1.757685095E-2
1.477911250E0,-2.277000993E-1,-1.055942550E-1,-1.438105945E-2
1.480399115E0,-2.245043069E-1,-1.034637317E-1,-1.225053146E-2
1.482886979E0,-2.202432603E-1,-1.002679393E-1,-7.989477366E-3
1.485374844E0,-2.181127369E-1,-9.600688517E-2,-3.728422802E-3
1.487862708E0,-2.149169445E-1,-8.855003864E-2,5.326318205E-4
1.490350573E0,-2.138516754E-1,-8.215846121E-2,5.858949851E-3
1.492838437E0,-2.117211521E-1,-7.470161468E-2,1.118526794E-2
1.495326302E0,-2.106558830E-1,-6.724476814E-2,1.651158556E-2
1.497814167E0,-2.095906287E-1,-5.978792161E-2,2.290316857E-2
1.500302031E0,-2.085253596E-1,-5.446160212E-2,2.822948620E-2
1.502789896E0,-2.085253596E-1,-5.020054802E-2,3.462106735E-2
1.505277760E0,-2.074600905E-1,-4.700475931E-2,4.101264849E-2
1.507765625E0,-2.063948363E-1,-4.380896688E-2,4.740423337E-2
1.510253490E0,-2.053295672E-1,-4.167843983E-2,5.379581451E-2
1.512741354E0,-2.042642981E-1,-3.741738573E-2,6.018739566E-2
1.515229219E0,-2.021337748E-1,-3.315633163E-2,6.551371515E-2
1.517717083E0,-2.010685056E-1,-2.783001214E-2,7.190529257E-2
1.520204948E0,-1.989379823E-1,-2.037316747E-2,7.616634667E-2
1.522692812E0,-1.978727281E-1,-1.398158539E-2,8.042740822E-2
1.525180677E0,-1.978727281E-1,-7.590003312E-3,8.255793154E-2
1.527668542E0,-1.978727281E-1,-4.394212738E-3,8.362319320E-2
1.530156406E0,-1.957421899E-1,-2.263685223E-3,8.255793154E-2
1.532644271E0,-1.936116666E-1,-2.263685223E-3,8.042740822E-2
1.535132135E0,-1.893506050E-1,-6.524739787E-3,7.723161578E-2
1.537620000E0,-1.872200817E-1,-1.185105834E-2,7.297056168E-2
1.540107865E0,-1.829590350E-1,-2.037316747E-2,6.870950758E-2
1.542595729E0,-1.797632426E-1,-3.102580272E-2,6.338318437E-2
1.545083594E0,-1.744369268E-1,-4.487423226E-2,5.805686861E-2
1.547571458E0,-1.701758653E-1,-5.872265995E-2,5.060002208E-2
1.550059323E0,-1.648495495E-1,-7.363634557E-2,4.527370632E-2
1.552547187E0,-1.595232338E-1,-8.748477697E-2,3.888212144E-2
1.555035052E0,-1.541969180E-1,-1.002679393E-1,3.249054030E-2
1.557522917E0,-1.488705873E-1,-1.098553166E-1,2.822948620E-2
1.560010781E0,-1.435442716E-1,-1.173121557E-1,2.396843210E-2
1.562498646E0,-1.382179558E-1,-1.226384789E-1,2.077264152E-2
1.564986510E0,-1.350221634E-1,-1.258342713E-1,1.651158556E-2
1.567474375E0,-1.296958476E-1,-1.279647946E-1,1.225053146E-2
1.569962240E0,-1.254348010E-1,-1.279647946E-1,1.012000442E-2
1.572450104E0,-1.211737394E-1,-1.279647946E-1,6.924213842E-3
1.574937969E0,-1.169126853E-1,-1.247690022E-1,4.793686327E-3
1.577425833E0,-1.126516312E-1,-1.194426864E-1,4.793686327E-3
1.579913698E0,-1.094558388E-1,-1.119858399E-1,6.924213842E-3
1.582401562E0,-1.073253155E-1,-1.034637317E-1,1.012000442E-2
1.584889427E0,-1.041295230E-1,-9.281109273E-2,1.438105945E-2
1.587377292E0,-1.009337306E-1,-8.002793044E-2,2.077264152E-2
1.589865156E0,-9.880319983E-2,-6.724476814E-2,2.609895915E-2
1.592353021E0,-9.667267650E-2,-5.339634046E-2,3.142527863E-2
1.594840885E0,-9.454214573E-2,-4.061317816E-2,3.568633273E-2
1.597328750E0,-9.347688407E-2,-2.783001214E-2,3.888212144E-2
1.599816615E0,-9.347688407E-2,-1.824264042E-2,3.994738683E-2
1.602304479E0,-9.347688407E-2,-1.078579482E-2,4.101264849E-2
1.604792344E0,-9.454214573E-2,-5.459476262E-3,3.994738683E-2
1.607280208E0,-9.560741484E-2,-3.328948980E-3,3.888212144E-2
1.609768073E0,-9.880319983E-2,-2.263685223E-3,3.675159439E-2
1.612255937E0,-1.009337306E-1,-3.328948980E-3,3.568633273E-2
1.614743802E0,-1.041295230E-1,-4.394212738E-3,3.355580568E-2
1.617231667E0,-1.073253155E-1,-5.459476262E-3,3.142527863E-2
1.619719531E0,-1.105211005E-1,-7.590003312E-3,2.929474972E-2
1.622207396E0,-1.137168929E-1,-1.078579482E-2,2.503369562E-2
1.624695260E0,-1.158474237E-1,-1.504684892E-2,1.970737800E-2
1.627183125E0,-1.179779470E-1,-1.930790395E-2,1.225053146E-2
1.629670990E0,-1.201084778E-1,-2.463422157E-2,2.663159044E-3
1.632158854E0,-1.211737394E-1,-2.996053919E-2,-6.924213842E-3
1.634646719E0,-1.233042628E-1,-3.635212034E-2,-1.757685095E-2
1.637134583E0,-1.243695319E-1,-4.380896688E-2,-2.822948620E-2
1.639622448E0,-1.265000552E-1,-5.126581341E-2,-3.888212144E-2
1.642110312E0,-1.296958476E-1,-6.191844866E-2,-4.953476042E-2
1.644598177E0,-1.318263710E-1,-7.150582224E-2,-5.912213027E-2
1.647086042E0,-1.318263710E-1,-8.109319210E-2,-6.870950758E-2
1.649573906E0,-1.328916401E-1,-9.174583107E-2,-7.616634667E-2
1.652061771E0,-1.339569092E-1,-1.013332009E-1,-8.362319320E-2
1.654549635E0,-1.339569092E-1,-1.119858399E-1,-9.001477808E-2
1.657037500E0,-1.339569092E-1,-1.215732098E-1,-9.640636295E-2
1.659525365E0,-1.350221634E-1,-1.311605871E-1,-1.006674170E-1
1.662013229E0,-1.360874325E-1,-1.396826953E-1,-1.038632020E-1
1.664501094E0,-1.371526867E-1,-1.450090110E-1,-1.070589945E-1
1.666988958E0,-1.382179558E-1,-1.492700726E-1,-1.070589945E-1
1.669476823E0,-1.392832249E-1,-1.514005959E-1,-1.070589945E-1
1.671964687E0,-1.392832249E-1,-1.514005959E-1,-1.059937328E-1
1.674452552E0,-1.371526867E-1,-1.471395344E-1,-1.038632020E-1
1.676940469E0,-1.360874325E-1,-1.428784877E-1,-9.960214794E-2
1.679428385E0,-1.328916401E-1,-1.364869028E-1,-9.640636295E-2
1.681916302E0,-1.318263710E-1,-1.279647946E-1,-9.214530140E-2
1.684404219E0,-1.296958476E-1,-1.173121557E-1,-8.681898564E-2
1.686892135E0,-1.275653243E-1,-1.066595241E-1,-8.042740822E-2
1.689380052E0,-1.254348010E-1,-9.387636185E-2,-7.403582335E-2
1.691867969E0,-1.233042628E-1,-8.002793044E-2,-6.764423847E-2
1.694355885E0,-1.211737394E-1,-6.511423737E-2,-6.018739566E-2
1.696843802E0,-1.179779470E-1,-4.807002097E-2,-5.379581451E-2
1.699331719E0,-1.158474237E-1,-3.209106624E-2,-4.633896798E-2
1.701819635E0,-1.137168929E-1,-1.504684892E-2,-3.994738683E-2
1.704307552E0,-1.105211005E-1,9.321057005E-4,-3.355580568E-2
1.706795469E0,-1.073253155E-1,1.691105962E-2,-2.929474972E-2
1.709283385E0,-1.051947847E-1,3.182475269E-2,-2.290316857E-2
1.711771302E0,-1.019989923E-1,4.567318037E-2,-1.864211448E-2
1.714259219E0,-9.986846894E-2,5.739107728E-2,-1.331579592E-2
1.716747135E0,-9.773793817E-2,6.804371625E-2,-6.924213842E-3
1.719235052E0,-9.667267650E-2,7.656582445E-2,-1.597895520E-3
1.721722969E0,-9.454214573E-2,8.402267098E-2,4.793686327E-3
1.724210885E0,-9.347688407E-2,8.828372508E-2,1.012000442E-2
1.726698802E0,-9.134636074E-2,9.041424841E-2,1.438105945E-2
1.729186719E0,-8.815056831E-2,9.041424841E-2,1.864211448E-2
1.731674635E0,-8.602003753E-2,8.934898674E-2,2.077264152E-2
1.734162552E0,-8.282424510E-2,8.615319431E-2,2.077264152E-2
1.736650469E0,-7.962846011E-2,8.189214021E-2,2.077264152E-2
1.739138385E0,-7.856319100E-2,7.656582445E-2,1.757685095E-2
1.741626302E0,-7.749792933E-2,7.123950869E-2,1.331579592E-2
1.744114219E0,-7.749792933E-2,6.484792382E-2,7.989477366E-3
1.746602135E0,-7.749792933E-2,5.952160433E-2,2.663159044E-3
1.749090052E0,-7.856319100E-2,5.526055023E-2,-2.663159044E-3
1.751577969E0,-7.856319100E-2,5.099949613E-2,-9.054740891E-3
1.754065885E0,-7.962846011E-2,4.886896908E-2,-1.651158556E-2
1.756553802E0,-7.962846011E-2,4.673844203E-2,-2.183790505E-2
1.759041719E0,-8.069372177E-2,4.780370742E-2,-2.609895915E-2
1.761529583E0,-7.962846011E-2,5.099949613E-2,-2.929474972E-2
1.764017448E0,-7.962846011E-2,5.526055023E-2,-3.036001325E-2
1.766505312E0,-8.175898343E-2,6.058686972E-2,-3.036001325E-2
1.768993177E0,-8.388951421E-2,6.484792382E-2,-2.822948620E-2
1.771481042E0,-8.602003753E-2,6.910897791E-2,-2.716422267E-2
1.773968906E0,-8.921582997E-2,7.123950869E-2,-2.609895915E-2
1.776456771E0,-9.134636074E-2,7.017423958E-2,-2.503369562E-2
1.778944635E0,-9.454214573E-2,6.910897791E-2,-2.290316857E-2
1.781432500E0,-9.454214573E-2,6.697845459E-2,-1.970737800E-2
1.783920365E0,-9.560741484E-2,6.378266215E-2,-1.544632297E-2
1.786408229E0,-9.667267650E-2,5.952160433E-2,-1.012000442E-2
1.788896094E0,-9.773793817E-2,5.419528857E-2,-2.663159044E-3
1.791383958E0,-9.880319983E-2,4.993423447E-2,5.858949851E-3
1.793871823E0,-9.880319983E-2,4.567318037E-2,1.438105945E-2
1.796359687E0,-9.986846894E-2,4.247738793E-2,2.290316857E-2
1.798847552E0,-1.009337306E-1,3.821633384E-2,3.142527863E-2
1.801335417E0,-1.009337306E-1,3.395527974E-2,3.994738683E-2
1.803823281E0,-1.009337306E-1,2.969422378E-2,4.633896798E-2
1.806311146E0,-9.880319983E-2,2.436790615E-2,5.273054913E-2
1.808799010E0,-9.773793817E-2,1.797632314E-2,5.912213027E-2
1.811286875E0,-9.560741484E-2,1.158474199E-2,6.551371515E-2
1.813774740E0,-9.347688407E-2,3.062632866E-3,7.190529257E-2
1.816262604E0,-9.134636074E-2,-6.524739787E-3,7.723161578E-2
1.818750469E0,-8.921582997E-2,-1.717737690E-2,8.362319320E-2
1.821238333E0,-8.708529919E-2,-2.889527567E-2,8.894951642E-2
1.823726198E0,-8.495477587E-2,-4.167843983E-2,9.534109384E-2
1.826214062E0,-8.282424510E-2,-5.659212917E-2,9.853688627E-2
1.828701927E0,-8.282424510E-2,-7.257108390E-2,1.027979404E-1
1.831189792E0,-8.388951421E-2,-8.961530030E-2,1.049284711E-1
1.833677656E0,-8.602003753E-2,-1.066595241E-1,1.059937328E-1
1.836165521E0,-8.815056831E-2,-1.226384789E-1,1.059937328E-1
1.838653385E0,-9.241162241E-2,-1.364869028E-1,1.049284711E-1
1.841141250E0,-9.773793817E-2,-1.460742801E-1,1.027979404E-1
1.843629115E0,-1.051947847E-1,-1.535311192E-1,1.006674170E-1
1.846116979E0,-1.126516312E-1,-1.567269117E-1,9.747162461E-2
1.848604844E0,-1.201084778E-1,-1.567269117E-1,9.427583218E-2
1.851092708E0,-1.265000552E-1,-1.535311192E-1,9.214530140E-2
1.853580573E0,-1.328916401E-1,-1.492700726E-1,9.001477808E-2
1.856068437E0,-1.414137483E-1,-1.428784877E-1,8.894951642E-2
1.858556302E0,-1.488705873E-1,-1.364869028E-1,8.575372398E-2
1.861044167E0,-1.563274413E-1,-1.300953180E-1,8.255793154E-2
1.863532031E0,-1.637842804E-1,-1.226384789E-1,7.829687744E-2
1.866019896E0,-1.723063886E-1,-1.151816323E-1,7.190529257E-2
1.868507760E0,-1.797632426E-1,-1.055942550E-1,6.551371515E-2
1.870995625E0,-1.872200817E-1,-9.600688517E-2,5.805686861E-2
1.873483490E0,-1.946769357E-1,-8.322372288E-2,4.953476042E-2
1.875971354E0,-2.031990439E-1,-7.150582224E-2,4.101264849E-2
1.878459219E0,-2.106558830E-1,-5.872265995E-2,3.142527863E-2
1.880947083E0,-2.181127369E-1,-4.807002097E-2,2.183790505E-2
1.883434948E0,-2.255695760E-1,-3.741738573E-2,1.118526794E-2
1.885922812E0,-2.319611609E-1,-3.102580272E-2,5.326318205E-4
1.888410677E0,-2.372874767E-1,-2.783001214E-2,-9.054740891E-3
1.890898542E0,-2.426137924E-1,-2.996053919E-2,-1.970737800E-2
1.893386406E0,-2.468748540E-1,-3.422159329E-2,-3.036001325E-2
1.895874271E0,-2.511359155E-1,-4.274370521E-2,-4.101264849E-2
1.898362135E0,-2.532664239E-1,-5.446160212E-2,-5.060002208E-2
1.900850000E0,-2.553969622E-1,-6.724476814E-2,-6.018739566E-2
1.903337865E0,-2.553969622E-1,-8.215846121E-2,-6.870950758E-2
1.905825729E0,-2.543317080E-1,-9.707214683E-2,-7.829687744E-2
1.908313594E0,-2.522011697E-1,-1.130511016E-1,-8.894951642E-2
1.910801458E0,-2.500706315E-1,-1.268995255E-1,-9.960214794E-2
1.913289323E0,-2.479401082E-1,-1.418132186E-1,-1.113200486E-1
1.915777187E0,-2.468748540E-1,-1.535311192E-1,-1.241032109E-1
1.918265052E0,-2.436790615E-1,-1.641837656E-1,-1.347558498E-1
1.920752917E0,-2.415485233E-1,-1.727058738E-1,-1.464737505E-1
1.923240781E0,-2.394180000E-1,-1.801627129E-1,-1.571263820E-1
1.925728646E0,-2.383527458E-1,-1.865542978E-1,-1.667137593E-1
1.928216510E0,-2.372874767E-1,-1.918806136E-1,-1.741705984E-1
1.930704375E0,-2.383527458E-1,-1.961416751E-1,-1.784316599E-1
1.933192240E0,-2.394180000E-1,-2.004027218E-1,-1.826927215E-1
1.935680104E0,-2.415485233E-1,-2.035985142E-1,-1.858884990E-1
1.938167969E0,-2.436790615E-1,-2.067943066E-1,-1.869537681E-1
1.940655833E0,-2.447443157E-1,-2.078595608E-1,-1.869537681E-1
1.943143698E0,-2.468748540E-1,-2.067943066E-1,-1.858884990E-1
1.945631562E0,-2.490053773E-1,-2.014679909E-1,-1.826927215E-1
1.948119427E0,-2.522011697E-1,-1.940111369E-1,-1.805621833E-1
1.950607292E0,-2.543317080E-1,-1.822932363E-1,-1.763011366E-1
1.953095156E0,-2.575274706E-1,-1.705753356E-1,-1.720400751E-1
1.955583021E0,-2.617885470E-1,-1.567269117E-1,-1.656484902E-1
1.958070885E0,-2.639190555E-1,-1.418132186E-1,-1.603221744E-1
1.960558750E0,-2.660495937E-1,-1.268995255E-1,-1.539305896E-1
1.963046615E0,-2.681801319E-1,-1.141163707E-1,-1.475390196E-1
1.965534479E0,-2.692453861E-1,-1.034637317E-1,-1.411474347E-1
1.968022344E0,-2.703106403E-1,-9.387636185E-2,-1.358211190E-1
1.970510208E0,-2.713759243E-1,-8.855003864E-2,-1.304948032E-1
1.972998073E0,-2.703106403E-1,-8.428898454E-2,-1.251684725E-1
1.975485990E0,-2.703106403E-1,-8.322372288E-2,-1.209074259E-1
1.977973906E0,-2.681801319E-1,-8.322372288E-2,-1.155811027E-1
1.980461823E0,-2.649843395E-1,-8.641951531E-2,-1.102547869E-1
1.982949740E0,-2.617885470E-1,-9.174583107E-2,-1.049284711E-1
1.985437656E0,-2.575274706E-1,-9.920267761E-2,-9.960214794E-2
1.987925573E0,-2.532664239E-1,-1.077247858E-1,-9.534109384E-2
1.990413490E0,-2.468748540E-1,-1.173121557E-1,-9.214530140E-2
1.992901406E0,-2.415485233E-1,-1.279647946E-1,-8.894951642E-2
1.995389323E0,-2.340916842E-1,-1.375521719E-1,-8.468846232E-2
1.997877240E0,-2.277000993E-1,-1.492700726E-1,-8.255793154E-2
2.000365156E0,-2.202432603E-1,-1.588574350E-1,-8.042740822E-2
2.002853073E0,-2.127864063E-1,-1.705753356E-1,-7.616634667E-2
2.005340990E0,-2.042642981E-1,-1.801627129E-1,-7.190529257E-2
2.007828906E0,-1.957421899E-1,-1.918806136E-1,-6.870950758E-2
2.010316823E0,-1.872200817E-1,-2.025332451E-1,-6.444845349E-2
2.012804740E0,-1.786979735E-1,-2.131858915E-1,-6.018739566E-2
2.015292656E0,-1.701758653E-1,-2.249037921E-1,-5.592634156E-2
2.017780573E0,-1.627190262E-1,-2.334259003E-1,-5.486107618E-2
2.020268490E0,-1.563274413E-1,-2.398174703E-1,-5.166528746E-2
2.022756406E0,-1.510011256E-1,-2.440785319E-1,-4.846949503E-2
2.025244323E0,-1.456748098E-1,-2.451438010E-1,-4.527370632E-2
2.027732240E0,-1.435442716E-1,-2.430132627E-1,-4.314317927E-2
2.030220156E0,-1.414137483E-1,-2.376869470E-1,-3.994738683E-2
2.032708073E0,-1.414137483E-1,-2.323606312E-1,-3.781685978E-2
2.035195990E0,-1.403484792E-1,-2.249037921E-1,-3.462106735E-2
2.037683906E0,-1.392832249E-1,-2.174469382E-1,-3.142527863E-2
2.040171823E0,-1.382179558E-1,-2.110553533E-1,-2.716422267E-2
2.042659740E0,-1.371526867E-1,-2.067943066E-1,-2.503369562E-2
2.045147656E0,-1.371526867E-1,-2.025332451E-1,-2.396843210E-2
2.047635573E0,-1.360874325E-1,-2.004027218E-1,-2.183790505E-2
2.050123490E0,-1.360874325E-1,-1.972069293E-1,-2.183790505E-2
2.052611406E0,-1.360874325E-1,-1.950764060E-1,-2.183790505E-2
2.055099323E0,-1.350221634E-1,-1.929458827E-1,-2.183790505E-2
2.057587240E0,-1.360874325E-1,-1.918806136E-1,-2.290316857E-2
2.060075104E0,-1.371526867E-1,-1.918806136E-1,-2.503369562E-2
2.062562969E0,-1.392832249E-1,-1.918806136E-1,-2.609895915E-2
2.065050833E0,-1.403484792E-1,-1.918806136E-1,-2.716422267E-2
2.067538698E0,-1.424790174E-1,-1.950764060E-1,-2.822948620E-2
2.070026562E0,-1.456748098E-1,-1.982721984E-1,-2.929474972E-2
2.072514427E0,-1.478053331E-1,-2.014679909E-1,-3.036001325E-2
2.075002292E0,-1.510011256E-1,-2.057290375E-1,-3.036001325E-2
2.077490156E0,-1.531316489E-1,-2.099900991E-1,-2.822948620E-2
2.079978021E0,-1.541969180E-1,-2.131858915E-1,-2.609895915E-2
2.082465885E0,-1.552621722E-1,-2.153164148E-1,-2.290316857E-2
2.084953750E0,-1.573926955E-1,-2.174469382E-1,-1.864211448E-2
2.087441615E0,-1.573926955E-1,-2.174469382E-1,-1.331579592E-2
2.089929479E0,-1.573926955E-1,-2.163816839E-1,-9.054740891E-3
2.092417344E0,-1.563274413E-1,-2.163816839E-1,-4.793686327E-3
2.094905208E0,-1.541969180E-1,-2.153164148E-1,5.326318205E-4
2.097393073E0,-1.531316489E-1,-2.142511457E-1,3.728422802E-3
2.099880937E0,-1.499358565E-1,-2.121206224E-1,5.858949851E-3
2.102368802E0,-1.478053331E-1,-2.089248300E-1,5.858949851E-3
2.104856667E0,-1.446095407E-1,-2.067943066E-1,5.858949851E-3
2.107344531E0,-1.414137483E-1,-2.035985142E-1,3.728422802E-3
2.109832396E0,-1.392832249E-1,-2.004027218E-1,2.663159044E-3
2.112320260E0,-1.371526867E-1,-1.950764060E-1,-5.326318205E-4
2.114808125E0,-1.339569092E-1,-1.908153445E-1,-3.728422802E-3
2.117295990E0,-1.328916401E-1,-1.865542978E-1,-6.924213842E-3
2.119783854E0,-1.307611167E-1,-1.833585054E-1,-1.012000442E-2
2.122271719E0,-1.296958476E-1,-1.822932363E-1,-1.544632297E-2
2.124759583E0,-1.286305785E-1,-1.822932363E-1,-2.183790505E-2
2.127247448E0,-1.265000552E-1,-1.833585054E-1,-2.822948620E-2
2.129735312E0,-1.243695319E-1,-1.844237745E-1,-3.781685978E-2
2.132223177E0,-1.233042628E-1,-1.876195520E-1,-4.740423337E-2
2.134711042E0,-1.222390011E-1,-1.897500902E-1,-5.805686861E-2
2.137198906E0,-1.222390011E-1,-1.918806136E-1,-7.084003091E-2
2.139686771E0,-1.211737394E-1,-1.929458827E-1,-8.468846232E-2
2.142174635E0,-1.222390011E-1,-1.918806136E-1,-9.853688627E-2
2.144662500E0,-1.211737394E-1,-1.876195520E-1,-1.134505793E-1
2.147150365E0,-1.211737394E-1,-1.822932363E-1,-1.272990108E-1
2.149638229E0,-1.211737394E-1,-1.737711281E-1,-1.390169114E-1
2.152126094E0,-1.222390011E-1,-1.652490199E-1,-1.496695429E-1
2.154613958E0,-1.233042628E-1,-1.577921808E-1,-1.592569202E-1
2.157101823E0,-1.243695319E-1,-1.524658650E-1,-1.677790284E-1
2.159589687E0,-1.243695319E-1,-1.482048035E-1,-1.763011366E-1
2.162077552E0,-1.233042628E-1,-1.482048035E-1,-1.848232448E-1
2.164565417E0,-1.233042628E-1,-1.471395344E-1,-1.912148297E-1
2.167053281E0,-1.243695319E-1,-1.471395344E-1,-1.986716688E-1
2.169541146E0,-1.243695319E-1,-1.450090110E-1,-2.039979845E-1
2.172029010E0,-1.243695319E-1,-1.418132186E-1,-2.093243003E-1
2.174516875E0,-1.265000552E-1,-1.354216337E-1,-2.135853618E-1
2.177004740E0,-1.275653243E-1,-1.279647946E-1,-2.178464085E-1
2.179492604E0,-1.286305785E-1,-1.173121557E-1,-2.199769467E-1
2.181980469E0,-1.307611167E-1,-1.077247858E-1,-2.210422009E-1
2.184468333E0,-1.328916401E-1,-9.813741595E-2,-2.189116776E-1
2.186956198E0,-1.339569092E-1,-9.174583107E-2,-2.167811543E-1
2.189444062E0,-1.350221634E-1,-8.641951531E-2,-2.125200927E-1
2.191931927E0,-1.350221634E-1,-8.322372288E-2,-2.082590461E-1
2.194419792E0,-1.339569092E-1,-8.215846121E-2,-2.029327303E-1
2.196907656E0,-1.328916401E-1,-8.215846121E-2,-1.954758763E-1
2.199395521E0,-1.296958476E-1,-8.322372288E-2,-1.901495606E-1
2.201883385E0,-1.275653243E-1,-8.428898454E-2,-1.848232448E-1
2.204371250E0,-1.233042628E-1,-8.428898454E-2,-1.784316599E-1
2.206859115E0,-1.190432087E-1,-8.535424620E-2,-1.741705984E-1
2.209346979E0,-1.126516312E-1,-8.641951531E-2,-1.699095517E-1
2.211834844E0,-1.062600464E-1,-8.855003864E-2,-1.667137593E-1
2.214322708E0,-9.880319983E-2,-9.068056941E-2,-1.635179669E-1
2.216810573E0,-9.028109163E-2,-9.494162351E-2,-1.624527127E-1
2.219298437E0,-8.069372177E-2,-1.002679393E-1,-1.635179669E-1
2.221786302E0,-7.110634446E-2,-1.087900475E-1,-1.645832360E-1
2.224274167E0,-6.151897460E-2,-1.194426864E-1,-1.667137593E-1
2.226762031E0,-5.299686641E-2,-1.322258562E-1,-1.699095517E-1
2.229249896E0,-4.660528526E-2,-1.471395344E-1,-1.763011366E-1
2.231737760E0,-3.914843872E-2,-1.620532274E-1,-1.826927215E-1
2.234225625E0,-3.275685757E-2,-1.769669205E-1,-1.890842915E-1
2.236713490E0,-2.530001104E-2,-1.897500902E-1,-1.954758763E-1
2.239201354E0,-1.890842989E-2,-1.993374527E-1,-2.018674612E-1
2.241689219E0,-1.145158429E-2,-2.057290375E-1,-2.061285079E-1
2.244177083E0,-5.060002208E-3,-2.078595608E-1,-2.093243003E-1
2.246664948E0,1.331579522E-3,-2.046637833E-1,-2.103895694E-1
2.249152812E0,6.657897960E-3,-1.993374527E-1,-2.114548385E-1
2.251640677E0,1.198421605E-2,-1.908153445E-1,-2.103895694E-1
2.254128542E0,1.624527015E-2,-1.780321896E-1,-2.082590461E-1
2.256616406E0,2.050632425E-2,-1.652490199E-1,-2.050632536E-1
2.259104271E0,2.476738021E-2,-1.514005959E-1,-2.008021921E-1
2.261592135E0,2.796317078E-2,-1.364869028E-1,-1.954758763E-1
2.264080000E0,3.009369783E-2,-1.215732098E-1,-1.890842915E-1
2.266567865E0,3.328948840E-2,-1.045289934E-1,-1.826927215E-1
2.269055729E0,3.542001545E-2,-8.855003864E-2,-1.752358675E-1
2.271543594E0,3.648528084E-2,-7.150582224E-2,-1.677790284E-1
2.274031458E0,3.755054250E-2,-5.765739456E-2,-1.613874435E-1
2.276519323E0,3.861580789E-2,-4.380896688E-2,-1.549958587E-1
2.279007240E0,4.074633494E-2,-3.315633163E-2,-1.496695429E-1
2.281495156E0,4.394212365E-2,-2.676474862E-2,-1.443432271E-1
2.283983073E0,4.713791609E-2,-2.250369452E-2,-1.411474347E-1
2.286470990E0,5.139897019E-2,-2.143843099E-2,-1.390169114E-1
2.288958906E0,5.566002429E-2,-2.143843099E-2,-1.358211190E-1
2.291446823E0,5.992107838E-2,-2.463422157E-2,-1.336905807E-1
2.293934740E0,6.418213248E-2,-2.889527567E-2,-1.336905807E-1
2.296422656E0,6.844318658E-2,-3.635212034E-2,-1.315600574E-1
2.298910573E0,7.270424068E-2,-4.487423226E-2,-1.315600574E-1
2.301398490E0,7.803056389E-2,-5.659212917E-2,-1.315600574E-1
2.303886406E0,8.335687965E-2,-6.937529147E-2,-1.315600574E-1
2.306374323E0,8.974846452E-2,-8.535424620E-2,-1.304948032E-1
2.308862240E0,9.294424951E-2,-1.013332009E-1,-1.294295341E-1
2.311350156E0,9.720530361E-2,-1.173121557E-1,-1.294295341E-1
2.313838073E0,1.004010960E-1,-1.343563795E-1,-1.304948032E-1
2.316325990E0,1.014663652E-1,-1.482048035E-1,-1.315600574E-1
2.318813906E0,1.004010960E-1,-1.599227041E-1,-1.326253265E-1
2.321301823E0,9.933583438E-2,-1.705753356E-1,-1.336905807E-1
2.323789740E0,9.720530361E-2,-1.790974438E-1,-1.358211190E-1
2.326277656E0,9.507478029E-2,-1.854890287E-1,-1.368863732E-1
2.328765573E0,9.294424951E-2,-1.886848211E-1,-1.368863732E-1
2.331253490E0,9.081372619E-2,-1.897500902E-1,-1.368863732E-1
2.333741406E0,8.868319541E-2,-1.865542978E-1,-1.358211190E-1
2.336229323E0,8.548741043E-2,-1.812279820E-1,-1.326253265E-1
2.338717240E0,8.229161799E-2,-1.737711281E-1,-1.294295341E-1
2.341205156E0,7.696529478E-2,-1.631184965E-1,-1.262337416E-1
2.343693073E0,7.163897902E-2,-1.514005959E-1,-1.219726875E-1
2.346180990E0,6.631266326E-2,-1.364869028E-1,-1.187768951E-1
2.348668906E0,5.992107838E-2,-1.215732098E-1,-1.145158410E-1
2.351156823E0,5.352949724E-2,-1.077247858E-1,-1.102547869E-1
2.353644740E0,4.607265070E-2,-9.281109273E-2,-1.049284711E-1
2.356132656E0,3.861580789E-2,-8.002793044E-2,-1.017326787E-1
2.358620573E0,3.009369783E-2,-6.831002980E-2,-9.640636295E-2
2.361108437E0,1.944106072E-2,-5.765739456E-2,-9.108003974E-2
2.363596302E0,8.788425475E-3,-5.020054802E-2,-8.468846232E-2
2.366084167E0,2.663159103E-4,-4.487423226E-2,-7.936213911E-2
2.368572031E0,-1.038632076E-2,-4.274370521E-2,-7.616634667E-2
2.371059896E0,-1.997369342E-2,-4.380896688E-2,-7.297056168E-2
2.373547760E0,-2.849580161E-2,-4.807002097E-2,-6.977476925E-2
2.376035625E0,-3.701791167E-2,-5.233107507E-2,-6.870950758E-2
2.378523490E0,-4.554001987E-2,-5.872265995E-2,-6.764423847E-2
2.381011354E0,-5.406212807E-2,-6.511423737E-2,-6.657897681E-2
2.383499219E0,-6.258423626E-2,-7.150582224E-2,-6.657897681E-2
2.385987083E0,-7.110634446E-2,-7.789740711E-2,-6.551371515E-2
2.388474948E0,-7.962846011E-2,-8.535424620E-2,-6.551371515E-2
2.390962812E0,-8.708529919E-2,-9.174583107E-2,-6.551371515E-2
2.393450677E0,-9.454214573E-2,-1.002679393E-1,-6.444845349E-2
2.395938542E0,-1.009337306E-1,-1.077247858E-1,-6.338318437E-2
2.398426406E0,-1.062600464E-1,-1.173121557E-1,-6.231792271E-2
2.400914271E0,-1.115863696E-1,-1.258342713E-1,-5.912213027E-2
2.403402135E0,-1.169126853E-1,-1.343563795E-1,-5.912213027E-2
2.405890000E0,-1.222390011E-1,-1.450090110E-1,-5.805686861E-2
2.408377865E0,-1.275653243E-1,-1.545963883E-1,-5.805686861E-2
2.410865729E0,-1.328916401E-1,-1.631184965E-1,-5.912213027E-2
2.413353594E0,-1.371526867E-1,-1.705753356E-1,-6.125266105E-2
2.415841458E0,-1.414137483E-1,-1.759016514E-1,-6.444845349E-2
2.418329323E0,-1.456748098E-1,-1.790974438E-1,-6.764423847E-2
2.420817187E0,-1.499358565E-1,-1.822932363E-1,-7.190529257E-2
2.423305052E0,-1.541969180E-1,-1.812279820E-1,-7.616634667E-2
2.425792917E0,-1.595232338E-1,-1.780321896E-1,-8.042740822E-2
2.428280781E0,-1.648495495E-1,-1.737711281E-1,-8.575372398E-2
2.430768646E0,-1.701758653E-1,-1.684448123E-1,-9.108003974E-2
2.433256510E0,-1.744369268E-1,-1.620532274E-1,-9.640636295E-2
2.435744375E0,-1.797632426E-1,-1.567269117E-1,-1.017326787E-1
2.438232240E0,-1.829590350E-1,-1.514005959E-1,-1.070589945E-1
2.440720104E0,-1.872200817E-1,-1.439437568E-1,-1.113200486E-1
2.443207969E0,-1.914811432E-1,-1.375521719E-1,-1.134505793E-1
2.445695833E0,-1.968074590E-1,-1.300953180E-1,-1.155811027E-1
2.448183698E0,-2.000032514E-1,-1.226384789E-1,-1.166463718E-1
2.450671562E0,-2.031990439E-1,-1.151816323E-1,-1.177116334E-1
2.453159427E0,-2.053295672E-1,-1.077247858E-1,-1.187768951E-1
2.455647292E0,-2.085253596E-1,-9.920267761E-2,-1.209074259E-1
2.458135156E0,-2.095906287E-1,-9.068056941E-2,-1.230379492E-1
2.460623021E0,-2.095906287E-1,-8.215846121E-2,-1.241032109E-1
2.463110885E0,-2.095906287E-1,-7.150582224E-2,-1.251684725E-1
2.465598750E0,-2.085253596E-1,-6.085318699E-2,-1.251684725E-1
2.468086615E0,-2.063948363E-1,-4.807002097E-2,-1.251684725E-1
2.470574479E0,-2.021337748E-1,-3.741738573E-2,-1.230379492E-1
2.473062344E0,-1.978727281E-1,-2.889527567E-2,-1.219726875E-1
2.475550208E0,-1.925463974E-1,-2.250369452E-2,-1.198421568E-1
2.478038073E0,-1.861548275E-1,-1.930790395E-2,-1.177116334E-1
2.480525937E0,-1.797632426E-1,-2.037316747E-2,-1.155811027E-1
2.483013802E0,-1.733716577E-1,-2.463422157E-2,-1.134505793E-1
2.485501667E0,-1.669800729E-1,-3.209106624E-2,-1.113200486E-1
2.487989531E0,-1.584579647E-1,-4.274370521E-2,-1.091895252E-1
2.490477396E0,-1.499358565E-1,-5.552686751E-2,-1.070589945E-1
2.492965260E0,-1.392832249E-1,-6.937529147E-2,-1.049284711E-1
2.495453125E0,-1.296958476E-1,-8.322372288E-2,-1.017326787E-1
2.497940990E0,-1.201084778E-1,-9.707214683E-2,-9.747162461E-2
2.500428854E0,-1.094558388E-1,-1.098553166E-1,-9.427583218E-2
2.502916719E0,-9.880319983E-2,-1.215732098E-1,-8.894951642E-2
2.505404583E0,-8.708529919E-2,-1.343563795E-1,-8.362319320E-2
2.507892448E0,-7.323687524E-2,-1.460742801E-1,-7.723161578E-2
2.510380312E0,-6.045371294E-2,-1.556616426E-1,-7.084003091E-2
2.512868177E0,-4.447475821E-2,-1.652490199E-1,-6.338318437E-2
2.515356042E0,-2.849580161E-2,-1.748363972E-1,-5.592634156E-2
2.517843906E0,-1.464737486E-2,-1.822932363E-1,-4.740423337E-2
2.520331771E0,-7.989477599E-4,-1.886848211E-1,-3.888212144E-2
2.522819635E0,1.198421605E-2,-1.940111369E-1,-3.036001325E-2
2.525307500E0,2.370211668E-2,-1.982721984E-1,-2.290316857E-2
2.527795365E0,3.328948840E-2,-2.025332451E-1,-1.651158556E-2
2.530283229E0,4.287686199E-2,-2.035985142E-1,-1.118526794E-2
2.532771094E0,5.139897019E-2,-2.057290375E-1,-6.924213842E-3
2.535258958E0,5.992107838E-2,-2.035985142E-1,-1.597895520E-3
2.537746823E0,6.631266326E-2,-1.993374527E-1,2.663159044E-3
2.540234687E0,7.270424068E-2,-1.918806136E-1,7.989477366E-3
2.542722552E0,7.909582555E-2,-1.801627129E-1,1.331579592E-2
2.545210417E0,8.442214131E-2,-1.663142890E-1,2.077264152E-2
2.547698281E0,8.974846452E-2,-1.492700726E-1,2.822948620E-2
2.550186146E0,9.507478029E-2,-1.311605871E-1,3.675159439E-2
2.552674010E0,1.004010960E-1,-1.119858399E-1,4.740423337E-2
2.555161875E0,1.057274193E-1,-9.281109273E-2,5.699160323E-2
2.557649740E0,1.099884734E-1,-7.576687634E-2,6.657897681E-2
2.560137604E0,1.142495275E-1,-5.872265995E-2,7.616634667E-2
2.562625469E0,1.163800508E-1,-4.274370521E-2,8.468846232E-2
2.565113333E0,1.185105816E-1,-2.783001214E-2,9.321057051E-2
2.567601198E0,1.185105816E-1,-1.504684892E-2,1.006674170E-1
2.570089062E0,1.185105816E-1,-4.394212738E-3,1.059937328E-1
2.572576927E0,1.174453199E-1,4.127896391E-3,1.102547869E-1
2.575064792E0,1.153147891E-1,9.454214945E-3,1.134505793E-1
2.577552656E0,1.142495275E-1,1.158474199E-2,1.145158410E-1
2.580040521E0,1.131842583E-1,1.158474199E-2,1.145158410E-1
2.582528385E0,1.121189967E-1,9.454214945E-3,1.145158410E-1
2.585016250E0,1.121189967E-1,5.193160381E-3,1.155811027E-1
2.587504115E0,1.099884734E-1,-1.331579551E-4,1.166463718E-1
2.589991979E0,1.089232042E-1,-8.655266836E-3,1.166463718E-1
2.592479844E0,1.067926809E-1,-1.611211337E-2,1.145158410E-1
2.594967708E0,1.046621501E-1,-2.569948509E-2,1.123853177E-1
2.597455573E0,1.014663652E-1,-3.528685868E-2,1.081242561E-1
2.599943490E0,9.933583438E-2,-4.487423226E-2,1.017326787E-1
2.602431406E0,9.507478029E-2,-5.552686751E-2,9.534109384E-2
2.604919323E0,9.081372619E-2,-6.617950648E-2,8.894951642E-2
2.607407240E0,8.761793375E-2,-7.576687634E-2,8.149266988E-2
2.609895156E0,8.229161799E-2,-8.535424620E-2,7.403582335E-2
2.612383073E0,7.803056389E-2,-9.494162351E-2,6.551371515E-2
2.614870990E0,7.270424068E-2,-1.023984700E-1,5.699160323E-2
2.617358906E0,6.737792492E-2,-1.098553166E-1,4.846949503E-2
2.619846823E0,6.098634377E-2,-1.141163707E-1,4.101264849E-2
2.622334740E0,5.566002429E-2,-1.173121557E-1,3.462106735E-2
2.624822656E0,5.033370852E-2,-1.173121557E-1,2.716422267E-2
2.627310573E0,4.500738904E-2,-1.162468940E-1,2.290316857E-2
2.629798490E0,3.968106955E-2,-1.130511016E-1,1.864211448E-2
2.632286406E0,3.435475379E-2,-1.066595241E-1,1.651158556E-2
2.634774323E0,2.902843431E-2,-9.920267761E-2,1.438105945E-2
2.637262240E0,2.370211668E-2,-9.068056941E-2,1.438105945E-2
2.639750156E0,1.944106072E-2,-8.215846121E-2,1.438105945E-2
2.642238073E0,1.411474310E-2,-7.257108390E-2,1.438105945E-2
2.644725990E0,9.853689000E-3,-6.191844866E-2,1.651158556E-2
2.647213906E0,5.592633970E-3,-5.126581341E-2,1.757685095E-2
2.649701823E0,1.331579522E-3,-3.954791278E-2,1.970737800E-2
2.652189740E0,-1.864211401E-3,-2.676474862E-2,2.077264152E-2
2.654677656E0,-5.060002208E-3,-1.291632187E-2,2.077264152E-2
2.657165573E0,-7.190529723E-3,-1.331579551E-4,2.183790505E-2
2.659653490E0,-9.321057238E-3,1.265000552E-2,2.183790505E-2
2.662141406E0,-1.038632076E-2,2.543316968E-2,2.183790505E-2
2.664629323E0,-1.038632076E-2,3.608580679E-2,1.970737800E-2
2.667117240E0,-1.251684781E-2,4.460791498E-2,1.757685095E-2
2.669605156E0,-1.358211134E-2,5.206476152E-2,1.544632297E-2
2.672093073E0,-1.571263932E-2,5.739107728E-2,1.225053146E-2
2.674580990E0,-1.890842989E-2,6.165213138E-2,7.989477366E-3
2.677068906E0,-2.103895694E-2,6.378266215E-2,2.663159044E-3
2.679556771E0,-2.423474751E-2,6.484792382E-2,-3.728422802E-3
2.682044635E0,-2.743053809E-2,6.378266215E-2,-1.012000442E-2
2.684532500E0,-3.062633052E-2,6.271740049E-2,-1.544632297E-2
2.687020365E0,-3.382211924E-2,6.165213138E-2,-2.077264152E-2
2.689508229E0,-3.595264629E-2,6.058686972E-2,-2.503369562E-2
2.691996094E0,-3.914843872E-2,6.058686972E-2,-2.929474972E-2
2.694483958E0,-4.234423116E-2,6.271740049E-2,-3.462106735E-2
2.696971823E0,-4.554001987E-2,6.378266215E-2,-3.888212144E-2
2.699459687E0,-4.873581231E-2,6.591318548E-2,-4.314317927E-2
2.701947552E0,-5.086633936E-2,6.910897791E-2,-4.846949503E-2
2.704435417E0,-5.299686641E-2,7.337003201E-2,-5.273054913E-2
2.706923281E0,-5.512739345E-2,7.763108611E-2,-5.699160323E-2
2.709411146E0,-5.725792050E-2,8.402267098E-2,-6.018739566E-2
2.711899010E0,-5.938844755E-2,9.147951752E-2,-6.338318437E-2
2.714386875E0,-6.151897460E-2,9.787109494E-2,-6.551371515E-2
2.716874740E0,-6.364950538E-2,1.053279415E-1,-6.764423847E-2
2.719362604E0,-6.471476704E-2,1.127847880E-1,-6.977476925E-2
2.721850469E0,-6.471476704E-2,1.202416345E-1,-7.190529257E-2
2.724338333E0,-6.578002870E-2,1.276984811E-1,-7.403582335E-2
2.726826198E0,-6.578002870E-2,1.319595277E-1,-7.723161578E-2
2.729314062E0,-6.578002870E-2,1.362205893E-1,-7.936213911E-2
2.731801927E0,-6.684529036E-2,1.383511126E-1,-8.255793154E-2
2.734289792E0,-6.578002870E-2,1.383511126E-1,-8.575372398E-2
2.736777656E0,-6.471476704E-2,1.372858584E-1,-8.788424730E-2
2.739265521E0,-6.364950538E-2,1.362205893E-1,-9.108003974E-2
2.741753385E0,-6.258423626E-2,1.340900660E-1,-9.321057051E-2
2.744241250E0,-5.938844755E-2,1.319595277E-1,-9.534109384E-2
2.746729115E0,-5.619265884E-2,1.287637353E-1,-9.747162461E-2
2.749216979E0,-5.299686641E-2,1.255679578E-1,-1.006674170E-1
2.751704844E0,-4.767054692E-2,1.223721579E-1,-1.017326787E-1
2.754192708E0,-4.447475821E-2,1.170458421E-1,-1.027979404E-1
2.756680573E0,-3.914843872E-2,1.127847880E-1,-1.049284711E-1
2.759168437E0,-3.488738462E-2,1.063932031E-1,-1.081242561E-1
2.761656302E0,-2.849580161E-2,1.010668874E-1,-1.102547869E-1
2.764144167E0,-2.316948399E-2,9.680583328E-2,-1.123853177E-1
2.766632031E0,-1.571263932E-2,9.254477918E-2,-1.134505793E-1
2.769119896E0,-8.255792782E-3,9.147951752E-2,-1.123853177E-1
2.771607760E0,-1.864211401E-3,9.147951752E-2,-1.102547869E-1
2.774095625E0,5.592633970E-3,9.254477918E-2,-1.081242561E-1
2.776583490E0,1.304947957E-2,9.361004084E-2,-1.059937328E-1
2.779071354E0,2.050632425E-2,9.680583328E-2,-1.006674170E-1
2.781559219E0,2.796317078E-2,1.010668874E-1,-9.640636295E-2
2.784047083E0,3.542001545E-2,1.053279415E-1,-9.214530140E-2
2.786534948E0,4.287686199E-2,1.106542572E-1,-8.681898564E-2
2.789022812E0,4.926844314E-2,1.159805804E-1,-8.149266988E-2
2.791510677E0,5.672528967E-2,1.213068962E-1,-7.616634667E-2
2.793998542E0,6.418213248E-2,1.276984811E-1,-6.977476925E-2
2.796486406E0,6.950845569E-2,1.351553202E-1,-6.338318437E-2
2.798974271E0,7.590003312E-2,1.415469050E-1,-5.805686861E-2
2.801462135E0,8.016108721E-2,1.468732208E-1,-5.166528746E-2
2.803950000E0,8.335687965E-2,1.500690132E-1,-4.527370632E-2
2.806437865E0,8.655267209E-2,1.532648057E-1,-3.888212144E-2
2.808925729E0,8.868319541E-2,1.532648057E-1,-3.462106735E-2
2.811413594E0,9.081372619E-2,1.521995366E-1,-2.929474972E-2
2.813901458E0,9.400951862E-2,1.490037590E-1,-2.290316857E-2
2.816389323E0,9.614004195E-2,1.458079666E-1,-1.864211448E-2
2.818877187E0,9.827057272E-2,1.404816359E-1,-1.438105945E-2
2.821365052E0,1.014663652E-1,1.319595277E-1,-1.118526794E-2
2.823852917E0,1.035968885E-1,1.234374270E-1,-9.054740891E-3
2.826340781E0,1.057274193E-1,1.127847880E-1,-6.924213842E-3
2.828828646E0,1.078579426E-1,1.031974182E-1,-6.924213842E-3
2.831316510E0,1.099884734E-1,9.361004084E-2,-5.858949851E-3
2.833804375E0,1.121189967E-1,8.508793265E-2,-4.793686327E-3
2.836292240E0,1.142495275E-1,7.869634777E-2,-3.728422802E-3
2.838780104E0,1.163800508E-1,7.230477035E-2,-1.597895520E-3
2.841267969E0,1.174453199E-1,6.591318548E-2,2.663159044E-3
2.843755833E0,1.195758432E-1,5.952160433E-2,5.858949851E-3
2.846243698E0,1.227716357E-1,5.313002318E-2,1.012000442E-2
2.848731562E0,1.259674281E-1,4.780370742E-2,1.438105945E-2
2.851219427E0,1.302284747E-1,4.247738793E-2,1.864211448E-2
2.853707292E0,1.323590130E-1,3.821633384E-2,2.396843210E-2
2.856195156E0,1.355548054E-1,3.502054140E-2,2.822948620E-2
2.858683021E0,1.387505829E-1,3.289001435E-2,3.142527863E-2
2.861170885E0,1.419463754E-1,3.182475269E-2,3.568633273E-2
2.863658750E0,1.440769136E-1,3.182475269E-2,3.675159439E-2
2.866146615E0,1.462074369E-1,3.182475269E-2,3.888212144E-2
2.868634479E0,1.472726911E-1,3.289001435E-2,4.101264849E-2
2.871122344E0,1.483379602E-1,3.608580679E-2,4.314317927E-2
2.873610208E0,1.504684836E-1,3.821633384E-2,4.527370632E-2
2.876098073E0,1.504684836E-1,4.141212255E-2,4.846949503E-2
2.878585937E0,1.504684836E-1,4.247738793E-2,5.060002208E-2
2.881073802E0,1.504684836E-1,4.247738793E-2,5.273054913E-2
2.883561667E0,1.504684836E-1,3.928159550E-2,5.379581451E-2
2.886049531E0,1.472726911E-1,3.395527974E-2,5.592634156E-2
2.888537396E0,1.440769136E-1,2.543316968E-2,5.699160323E-2
2.891025260E0,1.398158520E-1,1.265000552E-2,5.699160323E-2
2.893513125E0,1.344895363E-1,-1.198421582E-3,5.486107618E-2
2.896000990E0,1.291632205E-1,-1.611211337E-2,5.273054913E-2
2.898488854E0,1.227716357E-1,-2.996053919E-2,5.060002208E-2
2.900976719E0,1.163800508E-1,-4.380896688E-2,4.740423337E-2
2.903464583E0,1.099884734E-1,-5.659212917E-2,4.207791388E-2
2.905952448E0,1.035968885E-1,-6.724476814E-2,3.675159439E-2
2.908440312E0,9.614004195E-2,-7.683213800E-2,2.929474972E-2
2.910928177E0,8.868319541E-2,-8.428898454E-2,2.183790505E-2
2.913416042E0,8.229161799E-2,-9.068056941E-2,1.438105945E-2
2.915903906E0,7.483477145E-2,-9.600688517E-2,6.924213842E-3
2.918391771E0,6.950845569E-2,-1.002679393E-1,-5.326318205E-4
2.920879635E0,6.418213248E-2,-1.023984700E-1,-6.924213842E-3
2.923367500E0,5.885581672E-2,-1.055942550E-1,-1.225053146E-2
2.925855365E0,5.459476262E-2,-1.077247858E-1,-1.544632297E-2
2.928343229E0,5.033370852E-2,-1.087900475E-1,-1.864211448E-2
2.930831094E0,4.713791609E-2,-1.087900475E-1,-2.077264152E-2
2.933318958E0,4.394212365E-2,-1.098553166E-1,-2.290316857E-2
2.935806823E0,4.181159660E-2,-1.077247858E-1,-2.609895915E-2
2.938294687E0,3.861580789E-2,-1.066595241E-1,-2.822948620E-2
2.940782552E0,3.542001545E-2,-1.045289934E-1,-3.036001325E-2
2.943270417E0,3.222422674E-2,-1.013332009E-1,-3.142527863E-2
2.945758281E0,2.902843431E-2,-9.813741595E-2,-3.249054030E-2
2.948246146E0,2.689790726E-2,-9.494162351E-2,-3.355580568E-2
2.950734010E0,2.370211668E-2,-9.174583107E-2,-3.355580568E-2
2.953221875E0,2.157158963E-2,-8.748477697E-2,-3.249054030E-2
2.955709740E0,1.944106072E-2,-8.428898454E-2,-3.249054030E-2
2.958197604E0,1.837579720E-2,-8.215846121E-2,-3.249054030E-2
2.960685469E0,1.624527015E-2,-8.109319210E-2,-3.355580568E-2
2.963173333E0,1.411474310E-2,-8.002793044E-2,-3.462106735E-2
2.965661198E0,1.198421605E-2,-8.109319210E-2,-3.568633273E-2
2.968149062E0,1.091895252E-2,-8.215846121E-2,-3.781685978E-2
2.970636927E0,9.853689000E-3,-8.322372288E-2,-3.994738683E-2
2.973124792E0,6.657897960E-3,-8.322372288E-2,-4.207791388E-2
2.975612656E0,4.527370445E-3,-8.322372288E-2,-4.314317927E-2
2.978100521E0,1.331579522E-3,-8.322372288E-2,-4.314317927E-2
2.980588385E0,-2.929474926E-3,-8.428898454E-2,-4.420844093E-2
2.983076302E0,-6.125265732E-3,-8.641951531E-2,-4.527370632E-2
2.985564219E0,-1.038632076E-2,-8.961530030E-2,-4.527370632E-2
2.988052135E0,-1.358211134E-2,-9.494162351E-2,-4.740423337E-2
2.990540052E0,-1.677790284E-2,-1.002679393E-1,-5.060002208E-2
2.993027969E0,-2.103895694E-2,-1.077247858E-1,-5.273054913E-2
2.995515885E0,-2.636527456E-2,-1.173121557E-1,-5.699160323E-2
2.998003802E0,-2.956106514E-2,-1.268995255E-1,-6.231792271E-2
3.000491719E0,-3.382211924E-2,-1.364869028E-1,-6.657897681E-2
3.002979635E0,-3.808317333E-2,-1.460742801E-1,-7.297056168E-2
3.005467552E0,-4.234423116E-2,-1.545963883E-1,-7.616634667E-2
3.007955469E0,-4.660528526E-2,-1.620532274E-1,-7.936213911E-2
3.010443385E0,-4.980107397E-2,-1.673795432E-1,-8.149266988E-2
3.012931302E0,-5.512739345E-2,-1.716406047E-1,-8.468846232E-2
3.015419219E0,-5.832318589E-2,-1.759016514E-1,-8.681898564E-2
3.017907135E0,-6.151897460E-2,-1.801627129E-1,-8.788424730E-2
3.020395052E0,-6.471476704E-2,-1.833585054E-1,-8.894951642E-2
3.022882969E0,-6.578002870E-2,-1.876195520E-1,-9.001477808E-2
3.025370885E0,-6.684529036E-2,-1.908153445E-1,-9.108003974E-2
3.027858802E0,-6.791055948E-2,-1.940111369E-1,-9.108003974E-2
3.030346719E0,-6.791055948E-2,-1.961416751E-1,-9.108003974E-2
3.032834635E0,-6.578002870E-2,-1.972069293E-1,-9.108003974E-2
3.035322552E0,-6.471476704E-2,-1.940111369E-1,-8.894951642E-2
3.037810469E0,-6.258423626E-2,-1.886848211E-1,-8.788424730E-2
3.040298385E0,-6.045371294E-2,-1.822932363E-1,-8.681898564E-2
3.042786302E0,-5.832318589E-2,-1.727058738E-1,-8.575372398E-2
3.045274219E0,-5.406212807E-2,-1.631184965E-1,-8.468846232E-2
3.047762135E0,-5.086633936E-2,-1.545963883E-1,-8.468846232E-2
3.050250052E0,-4.767054692E-2,-1.450090110E-1,-8.468846232E-2
3.052737969E0,-4.340949282E-2,-1.364869028E-1,-8.468846232E-2
3.055225885E0,-3.701791167E-2,-1.268995255E-1,-8.468846232E-2
3.057713750E0,-3.169159219E-2,-1.183774248E-1,-8.575372398E-2
3.060201615E0,-2.636527456E-2,-1.109205782E-1,-8.681898564E-2
3.062689479E0,-1.997369342E-2,-1.034637317E-1,-8.894951642E-2
3.065177344E0,-1.464737486E-2,-9.707214683E-2,-9.108003974E-2
3.067665208E0,-8.255792782E-3,-9.068056941E-2,-9.321057051E-2
3.070153073E0,-2.929474926E-3,-8.535424620E-2,-9.534109384E-2
3.072640937E0,3.462106921E-3,-8.002793044E-2,-9.853688627E-2
3.075128802E0,8.788425475E-3,-7.470161468E-2,-1.027979404E-1
3.077616667E0,1.518000662E-2,-7.150582224E-2,-1.070589945E-1
3.080104531E0,2.050632425E-2,-6.724476814E-2,-1.113200486E-1
3.082592396E0,2.689790726E-2,-6.404897571E-2,-1.166463718E-1
3.085080260E0,3.222422674E-2,-6.298371404E-2,-1.209074259E-1
3.087568125E0,3.755054250E-2,-6.191844866E-2,-1.251684725E-1
3.090055990E0,4.287686199E-2,-6.191844866E-2,-1.283642650E-1
3.092543854E0,4.926844314E-2,-6.404897571E-2,-1.304948032E-1
3.095031719E0,5.352949724E-2,-6.617950648E-2,-1.326253265E-1
3.097519583E0,5.779055133E-2,-6.831002980E-2,-1.326253265E-1
3.100007448E0,6.205160543E-2,-7.150582224E-2,-1.336905807E-1
3.102495312E0,6.631266326E-2,-7.576687634E-2,-1.326253265E-1
3.104983177E0,6.950845569E-2,-7.896266878E-2,-1.315600574E-1
3.107471042E0,7.270424068E-2,-8.322372288E-2,-1.315600574E-1
3.109958906E0,7.590003312E-2,-8.641951531E-2,-1.294295341E-1
3.112446771E0,7.909582555E-2,-8.855003864E-2,-1.283642650E-1
3.114934635E0,8.335687965E-2,-8.961530030E-2,-1.262337416E-1
3.117422500E0,8.655267209E-2,-8.855003864E-2,-1.230379492E-1
3.119910365E0,9.081372619E-2,-8.748477697E-2,-1.198421568E-1
3.122398229E0,9.507478029E-2,-8.535424620E-2,-1.155811027E-1
3.124886094E0,9.933583438E-2,-8.215846121E-2,-1.113200486E-1
3.127373958E0,1.035968885E-1,-8.002793044E-2,-1.070589945E-1
3.129861823E0,1.078579426E-1,-7.683213800E-2,-1.027979404E-1
3.132349687E0,1.121189967E-1,-7.363634557E-2,-9.853688627E-2
3.134837552E0,1.174453199E-1,-7.044056058E-2,-9.427583218E-2
3.137325417E0,1.227716357E-1,-6.724476814E-2,-9.001477808E-2
3.139813281E0,1.291632205E-1,-6.298371404E-2,-8.575372398E-2
3.142301146E0,1.355548054E-1,-5.765739456E-2,-8.255793154E-2
3.144789010E0,1.419463754E-1,-5.233107507E-2,-7.829687744E-2
3.147276875E0,1.483379602E-1,-4.487423226E-2,-7.190529257E-2
3.149764740E0,1.547295451E-1,-3.741738573E-2,-6.657897681E-2
3.152252604E0,1.600558609E-1,-2.996053919E-2,-6.018739566E-2
3.154740469E0,1.653821766E-1,-2.250369452E-2,-5.379581451E-2
3.157228333E0,1.707084924E-1,-1.611211337E-2,-4.740423337E-2
3.159716198E0,1.749695539E-1,-9.720530361E-3,-4.101264849E-2
3.162204062E0,1.802958697E-1,-5.459476262E-3,-3.568633273E-2
3.164691927E0,1.856221855E-1,-2.263685223E-3,-3.036001325E-2
3.167179792E0,1.898832470E-1,-1.198421582E-3,-2.609895915E-2
3.169667656E0,1.941442937E-1,-1.331579551E-4,-2.290316857E-2
3.172155521E0,1.973400861E-1,-1.331579551E-4,-2.077264152E-2
3.174643385E0,2.005358785E-1,-1.331579551E-4,-1.864211448E-2
3.177131250E0,2.037316710E-1,-1.331579551E-4,-1.757685095E-2
3.179619115E0,2.058621943E-1,-2.263685223E-3,-1.757685095E-2
3.182106979E0,2.069274634E-1,-4.394212738E-3,-1.864211448E-2
3.184594844E0,2.069274634E-1,-8.655266836E-3,-1.970737800E-2
3.187082708E0,2.079927325E-1,-1.504684892E-2,-2.077264152E-2
3.189570573E0,2.079927325E-1,-2.250369452E-2,-2.290316857E-2
3.192058437E0,2.090579867E-1,-3.102580272E-2,-2.290316857E-2
3.194546302E0,2.090579867E-1,-4.061317816E-2,-2.396843210E-2
3.197034167E0,2.079927325E-1,-5.020054802E-2,-2.290316857E-2
3.199522031E0,2.069274634E-1,-5.872265995E-2,-2.290316857E-2
3.202009896E0,2.058621943E-1,-6.617950648E-2,-2.290316857E-2
3.204497760E0,2.026664019E-1,-7.257108390E-2,-2.077264152E-2
3.206985625E0,1.994706094E-1,-7.683213800E-2,-1.970737800E-2
3.209473490E0,1.962748319E-1,-8.002793044E-2,-1.970737800E-2
3.211961354E0,1.941442937E-1,-8.215846121E-2,-1.970737800E-2
3.214449219E0,1.909485012E-1,-8.322372288E-2,-1.970737800E-2
3.216937083E0,1.888179779E-1,-8.428898454E-2,-2.077264152E-2
3.219424948E0,1.866874546E-1,-8.215846121E-2,-1.970737800E-2
3.221912812E0,1.845569313E-1,-7.789740711E-2,-1.970737800E-2
3.224400677E0,1.813611388E-1,-7.363634557E-2,-1.970737800E-2
3.226888542E0,1.781653464E-1,-6.831002980E-2,-1.757685095E-2
3.229376406E0,1.749695539E-1,-6.191844866E-2,-1.544632297E-2
3.231864271E0,1.728390306E-1,-5.446160212E-2,-1.331579592E-2
3.234352135E0,1.696432382E-1,-4.593949392E-2,-9.054740891E-3
3.236840000E0,1.664474458E-1,-3.741738573E-2,-4.793686327E-3
3.239327865E0,1.653821766E-1,-2.996053919E-2,-5.326318205E-4
3.241815729E0,1.632516533E-1,-2.250369452E-2,2.663159044E-3
3.244303594E0,1.611211300E-1,-1.717737690E-2,6.924213842E-3
3.246791458E0,1.600558609E-1,-1.185105834E-2,1.012000442E-2
3.249279323E0,1.568600684E-1,-6.524739787E-3,1.331579592E-2
3.251767187E0,1.557948142E-1,-1.198421582E-3,1.651158556E-2
3.254255052E0,1.536642760E-1,3.062632866E-3,1.970737800E-2
3.256742917E0,1.525990218E-1,7.323687430E-3,2.290316857E-2
3.259230781E0,1.515337527E-1,1.265000552E-2,2.609895915E-2
3.261718646E0,1.504684836E-1,1.584579609E-2,2.822948620E-2
3.264206510E0,1.494032294E-1,1.904158667E-2,3.036001325E-2
3.266694375E0,1.494032294E-1,2.117211558E-2,3.249054030E-2
3.269182240E0,1.483379602E-1,2.223737910E-2,3.462106735E-2
3.271670104E0,1.472726911E-1,2.330264263E-2,3.675159439E-2
3.274157969E0,1.472726911E-1,2.330264263E-2,3.888212144E-2
3.276645833E0,1.472726911E-1,2.436790615E-2,3.994738683E-2
3.279133698E0,1.472726911E-1,2.436790615E-2,4.101264849E-2
3.281621562E0,1.472726911E-1,2.543316968E-2,4.314317927E-2
3.284109427E0,1.472726911E-1,2.649843320E-2,4.420844093E-2
3.286597292E0,1.472726911E-1,2.862896025E-2,4.527370632E-2
3.289085156E0,1.472726911E-1,2.969422378E-2,4.527370632E-2
3.291573021E0,1.462074369E-1,3.289001435E-2,4.420844093E-2
3.294060885E0,1.462074369E-1,3.502054140E-2,4.420844093E-2
3.296548750E0,1.462074369E-1,3.928159550E-2,4.314317927E-2
3.299036615E0,1.451421678E-1,4.354264960E-2,4.207791388E-2
3.301524479E0,1.440769136E-1,4.780370742E-2,4.101264849E-2
3.304012344E0,1.419463754E-1,5.206476152E-2,3.888212144E-2
3.306500208E0,1.387505829E-1,5.313002318E-2,3.781685978E-2
3.308988073E0,1.366200596E-1,5.313002318E-2,3.568633273E-2
3.311475937E0,1.344895363E-1,5.206476152E-2,3.355580568E-2
3.313963802E0,1.323590130E-1,4.780370742E-2,3.142527863E-2
3.316451667E0,1.312937438E-1,4.247738793E-2,2.929474972E-2
3.318939531E0,1.302284747E-1,3.608580679E-2,2.609895915E-2
3.321427396E0,1.302284747E-1,3.075948730E-2,2.290316857E-2
3.323915260E0,1.291632205E-1,2.543316968E-2,1.970737800E-2
3.326403125E0,1.291632205E-1,2.117211558E-2,1.438105945E-2
3.328890990E0,1.280979514E-1,1.904158667E-2,1.012000442E-2
3.331378854E0,1.280979514E-1,1.691105962E-2,5.858949851E-3
3.333866719E0,1.270326823E-1,1.691105962E-2,1.597895520E-3
3.336354583E0,1.259674281E-1,1.797632314E-2,-2.663159044E-3
3.338842448E0,1.259674281E-1,1.904158667E-2,-6.924213842E-3
3.341330312E0,1.259674281E-1,2.010685205E-2,-9.054740891E-3
3.343818177E0,1.270326823E-1,2.223737910E-2,-1.118526794E-2
3.346306042E0,1.259674281E-1,2.543316968E-2,-1.225053146E-2
3.348793906E0,1.270326823E-1,2.756369673E-2,-1.225053146E-2
3.351281771E0,1.291632205E-1,3.075948730E-2,-1.225053146E-2
3.353769635E0,1.312937438E-1,3.289001435E-2,-1.118526794E-2
3.356257500E0,1.344895363E-1,3.608580679E-2,-9.054740891E-3
3.358745365E0,1.376853287E-1,3.928159550E-2,-5.858949851E-3
3.361233229E0,1.398158520E-1,4.247738793E-2,-2.663159044E-3
3.363721094E0,1.430116445E-1,4.780370742E-2,1.597895520E-3
3.366208958E0,1.462074369E-1,5.419528857E-2,4.793686327E-3
3.368696823E0,1.472726911E-1,6.271740049E-2,9.054740891E-3
3.371184687E0,1.494032294E-1,7.230477035E-2,1.225053146E-2
3.373672552E0,1.504684836E-1,8.082687855E-2,1.544632297E-2
3.376160417E0,1.525990218E-1,9.041424841E-2,1.757685095E-2
3.378648281E0,1.536642760E-1,9.787109494E-2,1.864211448E-2
3.381136146E0,1.547295451E-1,1.042626798E-1,1.864211448E-2
3.383624010E0,1.568600684E-1,1.085237339E-1,1.864211448E-2
3.386111875E0,1.589905918E-1,1.106542572E-1,1.864211448E-2
3.388599740E0,1.611211300E-1,1.117195264E-1,1.864211448E-2
3.391087604E0,1.621863842E-1,1.095889956E-1,1.864211448E-2
3.393575469E0,1.632516533E-1,1.053279415E-1,1.864211448E-2
3.396063333E0,1.632516533E-1,1.010668874E-1,1.757685095E-2
3.398551198E0,1.653821766E-1,9.361004084E-2,1.757685095E-2
3.401039062E0,1.653821766E-1,8.721846342E-2,1.438105945E-2
3.403526927E0,1.653821766E-1,7.976161689E-2,1.118526794E-2
3.406014792E0,1.653821766E-1,7.123950869E-2,7.989477366E-3
3.408502656E0,1.653821766E-1,6.484792382E-2,4.793686327E-3
3.410990521E0,1.643169224E-1,5.739107728E-2,1.597895520E-3
3.413478385E0,1.632516533E-1,5.099949613E-2,-3.728422802E-3
3.415966250E0,1.632516533E-1,4.567318037E-2,-7.989477366E-3
3.418454115E0,1.643169224E-1,4.034686089E-2,-1.331579592E-2
3.420941979E0,1.643169224E-1,3.821633384E-2,-1.864211448E-2
3.423429844E0,1.643169224E-1,3.502054140E-2,-2.503369562E-2
3.425917708E0,1.653821766E-1,3.289001435E-2,-3.036001325E-2
3.428405573E0,1.675127149E-1,3.182475269E-2,-3.462106735E-2
3.430893437E0,1.675127149E-1,3.182475269E-2,-3.994738683E-2
3.433381302E0,1.685779691E-1,3.182475269E-2,-4.420844093E-2
3.435869167E0,1.707084924E-1,3.289001435E-2,-4.846949503E-2
3.438357031E0,1.707084924E-1,3.395527974E-2,-5.166528746E-2
3.440844896E0,1.728390306E-1,3.502054140E-2,-5.379581451E-2
3.443332760E0,1.739042848E-1,3.608580679E-2,-5.592634156E-2
3.445820625E0,1.749695539E-1,3.821633384E-2,-5.699160323E-2
3.448308490E0,1.771000773E-1,4.034686089E-2,-5.912213027E-2
3.450796354E0,1.792306006E-1,4.141212255E-2,-5.912213027E-2
3.453284219E0,1.813611388E-1,4.567318037E-2,-6.125266105E-2
3.455772083E0,1.824263930E-1,4.886896908E-2,-6.231792271E-2
3.458259948E0,1.845569313E-1,5.206476152E-2,-6.444845349E-2
3.460747812E0,1.866874546E-1,5.526055023E-2,-6.551371515E-2
3.463235677E0,1.888179779E-1,6.058686972E-2,-6.764423847E-2
3.465723542E0,1.909485012E-1,6.484792382E-2,-6.977476925E-2
3.468211406E0,1.941442937E-1,6.910897791E-2,-7.084003091E-2
3.470699271E0,1.962748319E-1,7.337003201E-2,-7.403582335E-2
3.473187187E0,1.984053552E-1,7.763108611E-2,-7.510108501E-2
3.475675104E0,2.016011477E-1,8.189214021E-2,-7.616634667E-2
3.478163021E0,2.037316710E-1,8.508793265E-2,-7.723161578E-2
3.480650937E0,2.058621943E-1,8.721846342E-2,-7.616634667E-2
3.483138854E0,2.079927325E-1,8.934898674E-2,-7.616634667E-2
3.485626771E0,2.111885101E-1,9.041424841E-2,-7.510108501E-2
3.488114687E0,2.133190483E-1,9.254477918E-2,-7.297056168E-2
3.490602604E0,2.165148407E-1,9.361004084E-2,-7.084003091E-2
3.493090521E0,2.186453640E-1,9.680583328E-2,-6.870950758E-2
3.495578437E0,2.197106332E-1,9.787109494E-2,-6.657897681E-2
3.498066354E0,2.218411565E-1,1.000016257E-1,-6.338318437E-2
3.500554271E0,2.239716798E-1,1.021321490E-1,-6.018739566E-2
3.503042187E0,2.261022031E-1,1.042626798E-1,-5.699160323E-2
3.505530104E0,2.282327414E-1,1.053279415E-1,-5.486107618E-2
3.508018021E0,2.314285189E-1,1.074584723E-1,-5.060002208E-2
3.510505937E0,2.335590571E-1,1.095889956E-1,-4.740423337E-2
3.512993854E0,2.356895804E-1,1.106542572E-1,-4.314317927E-2
3.515481771E0,2.378201038E-1,1.149153188E-1,-3.888212144E-2
3.517969687E0,2.399506420E-1,1.181111038E-1,-3.462106735E-2
3.520457604E0,2.420811653E-1,1.223721579E-1,-2.929474972E-2
3.522945521E0,2.431464195E-1,1.266332120E-1,-2.503369562E-2
3.525433437E0,2.452769578E-1,1.308942735E-1,-2.077264152E-2
3.527921354E0,2.474074811E-1,1.351553202E-1,-1.757685095E-2
3.530409271E0,2.495380044E-1,1.394163817E-1,-1.438105945E-2
3.532897187E0,2.527337968E-1,1.415469050E-1,-1.225053146E-2
3.535385104E0,2.559295893E-1,1.436774284E-1,-9.054740891E-3
3.537873021E0,2.591253817E-1,1.436774284E-1,-6.924213842E-3
3.540360937E0,2.612559199E-1,1.426121742E-1,-4.793686327E-3
3.542848802E0,2.644517124E-1,1.404816359E-1,-3.728422802E-3
3.545336667E0,2.676474750E-1,1.372858584E-1,-1.597895520E-3
3.547824531E0,2.708432674E-1,1.308942735E-1,5.326318205E-4
3.550312396E0,2.729738057E-1,1.234374270E-1,2.663159044E-3
3.552800260E0,2.761695981E-1,1.149153188E-1,4.793686327E-3
3.555288125E0,2.793653905E-1,1.031974182E-1,6.924213842E-3
3.557775990E0,2.814959288E-1,9.147951752E-2,1.012000442E-2
3.560263854E0,2.836264372E-1,7.976161689E-2,1.331579592E-2
3.562751719E0,2.846917212E-1,6.697845459E-2,1.757685095E-2
3.565239583E0,2.868222296E-1,5.419528857E-2,2.077264152E-2
3.567727448E0,2.878875136E-1,4.354264960E-2,2.290316857E-2
3.570215312E0,2.868222296E-1,3.289001435E-2,2.396843210E-2
3.572703177E0,2.857569754E-1,2.543316968E-2,2.609895915E-2
3.575191042E0,2.846917212E-1,1.904158667E-2,2.716422267E-2
3.577678906E0,2.825611830E-1,1.478053257E-2,2.822948620E-2
3.580166771E0,2.814959288E-1,1.265000552E-2,2.929474972E-2
3.582654635E0,2.804306448E-1,1.158474199E-2,3.036001325E-2
3.585142500E0,2.783001363E-1,1.371526904E-2,3.249054030E-2
3.587630365E0,2.772348523E-1,1.904158667E-2,3.568633273E-2
3.590118229E0,2.751043439E-1,2.543316968E-2,3.994738683E-2
3.592606094E0,2.740390599E-1,3.395527974E-2,4.420844093E-2
3.595093958E0,2.729738057E-1,4.354264960E-2,4.953476042E-2
3.597581823E0,2.719085515E-1,5.419528857E-2,5.486107618E-2
3.600069687E0,2.719085515E-1,6.697845459E-2,5.912213027E-2
3.602557552E0,2.708432674E-1,8.082687855E-2,6.444845349E-2
3.605045417E0,2.697780132E-1,9.574057162E-2,6.870950758E-2
3.607533281E0,2.676474750E-1,1.117195264E-1,7.297056168E-2
3.610021146E0,2.655169666E-1,1.276984811E-1,7.829687744E-2
3.612509010E0,2.644517124E-1,1.436774284E-1,8.255793154E-2
3.614996875E0,2.612559199E-1,1.585911214E-1,8.681898564E-2
3.617484740E0,2.580601275E-1,1.735048145E-1,9.108003974E-2
3.619972604E0,2.559295893E-1,1.862879843E-1,9.534109384E-2
3.622460469E0,2.537990510E-1,1.969406158E-1,9.960214794E-2
3.624948333E0,2.516685426E-1,2.075932473E-1,1.017326787E-1
3.627436198E0,2.506032586E-1,2.150501013E-1,1.049284711E-1
3.629924062E0,2.484727502E-1,2.214416862E-1,1.070589945E-1
3.632411927E0,2.463422120E-1,2.267680019E-1,1.102547869E-1
3.634899792E0,2.452769578E-1,2.278332561E-1,1.123853177E-1
3.637387656E0,2.420811653E-1,2.299637944E-1,1.145158410E-1
3.639875521E0,2.399506420E-1,2.299637944E-1,1.166463718E-1
3.642363385E0,2.378201038E-1,2.299637944E-1,1.177116334E-1
3.644851250E0,2.356895804E-1,2.278332561E-1,1.187768951E-1
3.647339115E0,2.335590571E-1,2.246374637E-1,1.198421568E-1
3.649826979E0,2.314285189E-1,2.214416862E-1,1.209074259E-1
3.652314844E0,2.303632647E-1,2.161153555E-1,1.209074259E-1
3.654802708E0,2.292979956E-1,2.107890397E-1,1.198421568E-1
3.657290573E0,2.271674722E-1,2.043974549E-1,1.177116334E-1
3.659778437E0,2.250369489E-1,1.969406158E-1,1.166463718E-1
3.662266302E0,2.229064107E-1,1.884185076E-1,1.145158410E-1
3.664754167E0,2.197106332E-1,1.788311303E-1,1.123853177E-1
3.667242031E0,2.175800949E-1,1.681784987E-1,1.102547869E-1
3.669729896E0,2.133190483E-1,1.564605981E-1,1.081242561E-1
3.672217760E0,2.111885101E-1,1.447426975E-1,1.059937328E-1
3.674705625E0,2.079927325E-1,1.308942735E-1,1.038632020E-1
3.677193490E0,2.058621943E-1,1.159805804E-1,1.017326787E-1
3.679681354E0,2.047969401E-1,1.021321490E-1,1.017326787E-1
3.682169219E0,2.037316710E-1,8.721846342E-2,1.006674170E-1
3.684657083E0,2.026664019E-1,7.337003201E-2,1.006674170E-1
3.687144948E0,2.016011477E-1,5.952160433E-2,9.960214794E-2
3.689632812E0,2.016011477E-1,4.673844203E-2,9.853688627E-2
3.692120677E0,2.016011477E-1,3.395527974E-2,9.747162461E-2
3.694608542E0,2.005358785E-1,2.330264263E-2,9.640636295E-2
3.697096406E0,1.994706094E-1,1.478053257E-2,9.427583218E-2
3.699584271E0,1.984053552E-1,7.323687430E-3,9.427583218E-2
3.702072135E0,1.973400861E-1,1.997369342E-3,9.321057051E-2
3.704560000E0,1.962748319E-1,9.321057005E-4,9.427583218E-2
3.707047865E0,1.962748319E-1,1.997369342E-3,9.534109384E-2
3.709535729E0,1.962748319E-1,5.193160381E-3,9.640636295E-2
3.712023594E0,1.962748319E-1,1.158474199E-2,9.960214794E-2
3.714511458E0,1.962748319E-1,2.010685205E-2,1.027979404E-1
3.716999323E0,1.962748319E-1,3.075948730E-2,1.070589945E-1
3.719487187E0,1.952095628E-1,4.247738793E-2,1.134505793E-1
3.721975052E0,1.941442937E-1,5.632581562E-2,1.209074259E-1
3.724462917E0,1.930790395E-1,7.017423958E-2,1.304948032E-1
3.726950781E0,1.909485012E-1,8.402267098E-2,1.400821656E-1
3.729438646E0,1.888179779E-1,9.893636405E-2,1.496695429E-1
3.731926510E0,1.866874546E-1,1.138500497E-1,1.592569202E-1
3.734414375E0,1.845569313E-1,1.276984811E-1,1.699095517E-1
3.736902240E0,1.824263930E-1,1.394163817E-1,1.784316599E-1
3.739390104E0,1.792306006E-1,1.500690132E-1,1.869537681E-1
3.741877969E0,1.749695539E-1,1.596563905E-1,1.954758763E-1
3.744365833E0,1.707084924E-1,1.681784987E-1,2.039979845E-1
3.746853698E0,1.664474458E-1,1.756353378E-1,2.114548385E-1
3.749341562E0,1.600558609E-1,1.809616536E-1,2.189116776E-1
3.751829427E0,1.547295451E-1,1.841574460E-1,2.263685167E-1
3.754317292E0,1.494032294E-1,1.862879843E-1,2.327601016E-1
3.756805156E0,1.430116445E-1,1.873532385E-1,2.391516864E-1
3.759293021E0,1.376853287E-1,1.852227151E-1,2.444780022E-1
3.761780885E0,1.323590130E-1,1.820269227E-1,2.498043180E-1
3.764268750E0,1.259674281E-1,1.767006069E-1,2.540653646E-1
3.766756615E0,1.195758432E-1,1.692437679E-1,2.572611570E-1
3.769244479E0,1.131842583E-1,1.607216448E-1,2.615222335E-1
3.771732344E0,1.067926809E-1,1.490037590E-1,2.636527419E-1
3.774220208E0,1.004010960E-1,1.372858584E-1,2.668485343E-1
3.776708073E0,9.187898785E-2,1.255679578E-1,2.689790726E-1
3.779195937E0,8.442214131E-2,1.127847880E-1,2.700443268E-1
3.781683802E0,7.483477145E-2,1.000016257E-1,2.721748650E-1
3.784171667E0,6.524740160E-2,8.721846342E-2,2.743053734E-1
3.786659531E0,5.566002429E-2,7.550056279E-2,2.753706574E-1
3.789147396E0,4.607265070E-2,6.378266215E-2,2.753706574E-1
3.791635260E0,3.648528084E-2,5.099949613E-2,2.764359117E-1
3.794123125E0,2.689790726E-2,3.928159550E-2,2.775011659E-1
3.796610990E0,1.731053367E-2,2.862896025E-2,2.796317041E-1
3.799098854E0,8.788425475E-3,1.797632314E-2,2.806969583E-1
3.801586719E0,1.331579522E-3,8.388951421E-3,2.838927507E-1
3.804074583E0,-6.125265732E-3,1.997369342E-3,2.870885432E-1
3.806562448E0,-1.358211134E-2,-4.394212738E-3,2.902843356E-1
3.809050312E0,-1.997369342E-2,-7.590003312E-3,2.934801280E-1
3.811538177E0,-2.743053809E-2,-9.720530361E-3,2.966759205E-1
3.814026042E0,-3.382211924E-2,-7.590003312E-3,2.998717129E-1
3.816513906E0,-4.021370411E-2,-2.263685223E-3,3.051980436E-1
3.819001771E0,-4.660528526E-2,6.258423906E-3,3.083938360E-1
3.821489635E0,-5.299686641E-2,1.797632314E-2,3.126548827E-1
3.823977500E0,-5.938844755E-2,3.075948730E-2,3.169159293E-1
3.826465365E0,-6.471476704E-2,4.567318037E-2,3.201117218E-1
3.828953229E0,-6.897582114E-2,6.058686972E-2,3.222422600E-1
3.831441094E0,-7.430213690E-2,7.550056279E-2,3.243727684E-1
3.833928958E0,-7.856319100E-2,8.934898674E-2,3.254380524E-1
3.836416823E0,-8.175898343E-2,1.021321490E-1,3.254380524E-1
3.838904687E0,-8.495477587E-2,1.159805804E-1,3.254380524E-1
3.841392552E0,-8.602003753E-2,1.276984811E-1,3.254380524E-1
3.843880417E0,-8.815056831E-2,1.383511126E-1,3.243727684E-1
3.846368281E0,-8.815056831E-2,1.479384899E-1,3.233075142E-1
3.848856146E0,-8.815056831E-2,1.553953290E-1,3.211769760E-1
3.851344010E0,-8.815056831E-2,1.628521830E-1,3.190464675E-1
3.853831875E0,-8.815056831E-2,1.703090221E-1,3.147853911E-1
3.856319740E0,-8.815056831E-2,1.756353378E-1,3.105243444E-1
3.858807604E0,-8.815056831E-2,1.798963994E-1,3.041327596E-1
3.861295469E0,-8.815056831E-2,1.830921918E-1,2.988064587E-1
3.863783333E0,-8.921582997E-2,1.841574460E-1,2.934801280E-1
3.866271198E0,-9.028109163E-2,1.852227151E-1,2.860232890E-1
3.868759062E0,-9.028109163E-2,1.841574460E-1,2.785664499E-1
3.871246927E0,-9.134636074E-2,1.820269227E-1,2.711096108E-1
3.873734792E0,-9.134636074E-2,1.777658761E-1,2.636527419E-1
3.876222656E0,-9.134636074E-2,1.703090221E-1,2.551306486E-1
3.878710521E0,-9.134636074E-2,1.617869139E-1,2.455432713E-1
3.881198385E0,-9.134636074E-2,1.511342824E-1,2.359558940E-1
3.883686250E0,-9.134636074E-2,1.404816359E-1,2.253032625E-1
3.886174115E0,-9.028109163E-2,1.276984811E-1,2.146506310E-1
3.888661979E0,-9.028109163E-2,1.159805804E-1,2.050632536E-1
3.891149844E0,-9.028109163E-2,1.042626798E-1,1.944106072E-1
3.893637708E0,-9.028109163E-2,9.147951752E-2,1.848232448E-1
3.896125573E0,-9.134636074E-2,8.082687855E-2,1.763011366E-1
3.898613437E0,-9.241162241E-2,6.804371625E-2,1.688442826E-1
3.901101302E0,-9.347688407E-2,5.739107728E-2,1.624527127E-1
3.903589167E0,-9.560741484E-2,4.673844203E-2,1.560611278E-1
3.906077031E0,-9.773793817E-2,3.715106845E-2,1.507348120E-1
3.908564896E0,-9.880319983E-2,2.969422378E-2,1.464737505E-1
3.911052760E0,-1.009337306E-1,2.117211558E-2,1.422126889E-1
3.913540625E0,-1.030642539E-1,1.584579609E-2,1.390169114E-1
3.916028490E0,-1.051947847E-1,1.051947847E-2,1.347558498E-1
3.918516354E0,-1.083905771E-1,7.323687430E-3,1.315600574E-1
3.921004219E0,-1.105211005E-1,5.193160381E-3,1.283642650E-1
3.923492083E0,-1.126516312E-1,5.193160381E-3,1.262337416E-1
3.925979948E0,-1.158474237E-1,7.323687430E-3,1.241032109E-1
3.928467812E0,-1.190432087E-1,1.051947847E-2,1.219726875E-1
3.930955677E0,-1.211737394E-1,1.584579609E-2,1.219726875E-1
3.933443542E0,-1.233042628E-1,2.223737910E-2,1.219726875E-1
3.935931406E0,-1.243695319E-1,2.969422378E-2,1.230379492E-1
3.938419271E0,-1.254348010E-1,3.715106845E-2,1.241032109E-1
3.940907135E0,-1.254348010E-1,4.567318037E-2,1.262337416E-1
3.943395000E0,-1.243695319E-1,5.313002318E-2,1.262337416E-1
3.945882865E0,-1.233042628E-1,6.058686972E-2,1.251684725E-1
3.948370729E0,-1.201084778E-1,6.697845459E-2,1.241032109E-1
3.950858594E0,-1.169126853E-1,7.230477035E-2,1.209074259E-1
3.953346458E0,-1.137168929E-1,7.656582445E-2,1.177116334E-1
3.955834323E0,-1.094558388E-1,8.082687855E-2,1.134505793E-1
3.958322187E0,-1.051947847E-1,8.508793265E-2,1.102547869E-1
3.960810052E0,-1.019989923E-1,8.828372508E-2,1.070589945E-1
3.963297917E0,-9.773793817E-2,8.934898674E-2,1.027979404E-1
3.965785781E0,-9.347688407E-2,9.041424841E-2,9.747162461E-2
3.968273646E0,-9.028109163E-2,9.041424841E-2,9.321057051E-2
3.970761510E0,-8.495477587E-2,8.828372508E-2,8.788424730E-2
3.973249375E0,-8.069372177E-2,8.402267098E-2,8.149266988E-2
3.975737240E0,-7.536740601E-2,7.869634777E-2,7.510108501E-2
3.978225104E0,-7.004108280E-2,7.230477035E-2,6.764423847E-2
3.980712969E0,-6.471476704E-2,6.484792382E-2,6.018739566E-2
3.983200833E0,-5.938844755E-2,5.632581562E-2,5.379581451E-2
3.985688698E0,-5.406212807E-2,4.780370742E-2,4.633896798E-2
3.988176562E0,-4.980107397E-2,4.141212255E-2,4.101264849E-2
3.990664427E0,-4.554001987E-2,3.395527974E-2,3.568633273E-2
3.993152292E0,-4.021370411E-2,2.649843320E-2,3.142527863E-2
3.995640156E0,-3.595264629E-2,1.904158667E-2,2.716422267E-2
3.998128021E0,-3.062633052E-2,1.265000552E-2,2.290316857E-2
4.000615885E0,-2.636527456E-2,7.323687430E-3,2.077264152E-2
4.003103750E0,-2.103895694E-2,1.997369342E-3,1.757685095E-2
4.005591615E0,-1.571263932E-2,-3.328948980E-3,1.438105945E-2
4.008079479E0,-1.038632076E-2,-6.524739787E-3,1.118526794E-2
4.010567344E0,-6.125265732E-3,-7.590003312E-3,6.924213842E-3
4.013055208E0,-7.989477599E-4,-6.524739787E-3,3.728422802E-3
4.015543073E0,3.462106921E-3,-3.328948980E-3,5.326318205E-4
4.018030937E0,6.657897960E-3,9.321057005E-4,-2.663159044E-3
4.020518802E0,9.853689000E-3,6.258423906E-3,-5.858949851E-3
4.023006667E0,1.198421605E-2,1.265000552E-2,-9.054740891E-3
4.025494531E0,1.411474310E-2,1.797632314E-2,-1.225053146E-2
4.027982396E0,1.624527015E-2,2.436790615E-2,-1.544632297E-2
4.030470260E0,1.944106072E-2,2.862896025E-2,-1.757685095E-2
4.032958125E0,2.157158963E-2,3.182475269E-2,-1.864211448E-2
4.035445990E0,2.370211668E-2,3.395527974E-2,-1.970737800E-2
4.037933854E0,2.370211668E-2,3.395527974E-2,-2.290316857E-2
4.040421719E0,2.370211668E-2,3.395527974E-2,-2.503369562E-2
4.042909583E0,2.370211668E-2,3.182475269E-2,-2.716422267E-2
4.045397448E0,2.263685316E-2,3.075948730E-2,-2.929474972E-2
4.047885312E0,2.263685316E-2,2.862896025E-2,-3.142527863E-2
4.050373177E0,2.263685316E-2,2.649843320E-2,-3.355580568E-2
4.052861042E0,2.157158963E-2,2.543316968E-2,-3.568633273E-2
4.055348906E0,2.050632425E-2,2.543316968E-2,-3.675159439E-2
4.057836771E0,1.944106072E-2,2.543316968E-2,-3.781685978E-2
4.060324635E0,1.837579720E-2,2.649843320E-2,-3.781685978E-2
4.062812500E0,1.624527015E-2,2.862896025E-2,-3.781685978E-2
4.065300365E0,1.304947957E-2,3.075948730E-2,-3.675159439E-2
4.067788229E0,1.091895252E-2,3.395527974E-2,-3.568633273E-2
4.070276094E0,6.657897960E-3,3.608580679E-2,-3.462106735E-2
4.072763958E0,3.462106921E-3,4.034686089E-2,-3.249054030E-2
4.075251823E0,2.663159103E-4,4.460791498E-2,-2.929474972E-2
4.077739687E0,-2.929474926E-3,4.886896908E-2,-2.503369562E-2
4.080227552E0,-6.125265732E-3,5.313002318E-2,-2.077264152E-2
4.082715417E0,-9.321057238E-3,5.739107728E-2,-1.651158556E-2
4.085203281E0,-1.358211134E-2,6.271740049E-2,-1.225053146E-2
4.087691146E0,-1.784316637E-2,6.697845459E-2,-5.858949851E-3
4.090179010E0,-2.103895694E-2,7.123950869E-2,-5.326318205E-4
4.092666875E0,-2.530001104E-2,7.656582445E-2,4.793686327E-3
4.095154740E0,-2.849580161E-2,8.082687855E-2,9.054740891E-3
4.097642604E0,-3.275685757E-2,8.508793265E-2,1.438105945E-2
4.100130469E0,-3.595264629E-2,8.934898674E-2,1.864211448E-2
4.102618333E0,-3.808317333E-2,9.361004084E-2,2.183790505E-2
4.105106198E0,-4.127896577E-2,9.787109494E-2,2.503369562E-2
4.107594062E0,-4.340949282E-2,1.010668874E-1,2.716422267E-2
4.110081927E0,-4.767054692E-2,1.053279415E-1,2.929474972E-2
4.112569792E0,-4.980107397E-2,1.085237339E-1,3.142527863E-2
4.115057656E0,-5.193160102E-2,1.117195264E-1,3.249054030E-2
4.117545521E0,-5.406212807E-2,1.138500497E-1,3.462106735E-2
4.120033385E0,-5.406212807E-2,1.159805804E-1,3.568633273E-2
4.122521250E0,-5.406212807E-2,1.181111038E-1,3.675159439E-2
4.125009115E0,-5.406212807E-2,1.202416345E-1,3.675159439E-2
4.127496979E0,-5.406212807E-2,1.213068962E-1,3.675159439E-2
4.129984844E0,-5.299686641E-2,1.223721579E-1,3.568633273E-2
4.132472708E0,-5.299686641E-2,1.234374270E-1,3.355580568E-2
4.134960573E0,-5.193160102E-2,1.234374270E-1,3.249054030E-2
4.137448437E0,-5.086633936E-2,1.234374270E-1,3.036001325E-2
4.139936302E0,-4.980107397E-2,1.234374270E-1,2.716422267E-2
4.142424167E0,-4.873581231E-2,1.223721579E-1,2.503369562E-2
4.144912031E0,-4.660528526E-2,1.213068962E-1,2.290316857E-2
4.147399896E0,-4.447475821E-2,1.191763729E-1,1.970737800E-2
4.149887760E0,-4.127896577E-2,1.159805804E-1,1.757685095E-2
4.152375625E0,-3.808317333E-2,1.117195264E-1,1.438105945E-2
4.154863490E0,-3.488738462E-2,1.074584723E-1,1.118526794E-2
4.157351354E0,-3.169159219E-2,1.031974182E-1,7.989477366E-3
4.159839219E0,-2.743053809E-2,9.787109494E-2,6.924213842E-3
4.162327083E0,-2.316948399E-2,9.147951752E-2,4.793686327E-3
4.164814948E0,-1.997369342E-2,8.721846342E-2,2.663159044E-3
4.167302812E0,-1.571263932E-2,8.295740932E-2,5.326318205E-4
4.169790677E0,-1.145158429E-2,7.869634777E-2,-5.326318205E-4
4.172278542E0,-9.321057238E-3,7.656582445E-2,-2.663159044E-3
4.174766406E0,-6.125265732E-3,7.337003201E-2,-3.728422802E-3
4.177254271E0,-2.929474926E-3,7.017423958E-2,-4.793686327E-3
4.179742135E0,1.331579522E-3,6.910897791E-2,-5.858949851E-3
4.182230000E0,5.592633970E-3,6.697845459E-2,-6.924213842E-3
4.184717865E0,8.788425475E-3,6.697845459E-2,-6.924213842E-3
4.187205729E0,1.304947957E-2,6.804371625E-2,-7.989477366E-3
4.189693594E0,1.518000662E-2,6.804371625E-2,-7.989477366E-3
4.192181458E0,1.944106072E-2,6.910897791E-2,-7.989477366E-3
4.194669323E0,2.370211668E-2,7.123950869E-2,-9.054740891E-3
4.197157187E0,2.689790726E-2,7.337003201E-2,-1.012000442E-2
4.199645052E0,3.115896136E-2,7.443529367E-2,-1.118526794E-2
4.202132917E0,3.435475379E-2,7.656582445E-2,-1.118526794E-2
4.204620781E0,3.648528084E-2,7.869634777E-2,-1.225053146E-2
4.207108646E0,3.755054250E-2,7.976161689E-2,-1.331579592E-2
4.209596510E0,3.968106955E-2,8.082687855E-2,-1.331579592E-2
4.212084375E0,4.074633494E-2,8.189214021E-2,-1.438105945E-2
4.214572240E0,4.181159660E-2,8.295740932E-2,-1.438105945E-2
4.217060104E0,4.287686199E-2,8.189214021E-2,-1.438105945E-2
4.219547969E0,4.500738904E-2,8.189214021E-2,-1.544632297E-2
4.222035833E0,4.500738904E-2,8.082687855E-2,-1.651158556E-2
4.224523698E0,4.713791609E-2,7.869634777E-2,-1.651158556E-2
4.227011562E0,4.926844314E-2,7.656582445E-2,-1.757685095E-2
4.229499427E0,4.926844314E-2,7.337003201E-2,-1.970737800E-2
4.231987292E0,5.033370852E-2,7.017423958E-2,-2.077264152E-2
4.234475156E0,5.139897019E-2,6.591318548E-2,-2.290316857E-2
4.236963021E0,5.139897019E-2,6.058686972E-2,-2.503369562E-2
4.239450937E0,5.139897019E-2,5.632581562E-2,-2.716422267E-2
4.241938854E0,5.246423557E-2,4.993423447E-2,-2.822948620E-2
4.244426771E0,5.352949724E-2,4.460791498E-2,-3.036001325E-2
4.246914687E0,5.352949724E-2,4.034686089E-2,-3.142527863E-2
4.249402604E0,5.566002429E-2,3.608580679E-2,-3.249054030E-2
4.251890521E0,5.672528967E-2,3.182475269E-2,-3.355580568E-2
4.254378437E0,5.779055133E-2,2.756369673E-2,-3.568633273E-2
4.256866354E0,5.992107838E-2,2.436790615E-2,-3.568633273E-2
4.259354271E0,6.098634377E-2,2.223737910E-2,-3.568633273E-2
4.261842187E0,6.205160543E-2,2.010685205E-2,-3.568633273E-2
4.264330104E0,6.205160543E-2,1.797632314E-2,-3.462106735E-2
4.266818021E0,6.418213248E-2,1.584579609E-2,-3.355580568E-2
4.269305937E0,6.524740160E-2,1.478053257E-2,-3.462106735E-2
4.271793854E0,6.631266326E-2,1.371526904E-2,-3.462106735E-2
4.274281771E0,6.950845569E-2,1.265000552E-2,-3.355580568E-2
4.276769687E0,7.163897902E-2,1.371526904E-2,-3.249054030E-2
4.279257604E0,7.376950979E-2,1.478053257E-2,-3.036001325E-2
4.281745521E0,7.483477145E-2,1.691105962E-2,-2.929474972E-2
4.284233437E0,7.696529478E-2,1.904158667E-2,-2.716422267E-2
4.286721354E0,7.803056389E-2,2.223737910E-2,-2.609895915E-2
4.289209271E0,8.016108721E-2,2.543316968E-2,-2.503369562E-2
4.291697187E0,8.122635633E-2,2.756369673E-2,-2.503369562E-2
4.294185104E0,8.122635633E-2,2.756369673E-2,-2.503369562E-2
4.296673021E0,8.229161799E-2,2.649843320E-2,-2.503369562E-2
4.299160937E0,8.335687965E-2,2.436790615E-2,-2.609895915E-2
4.301648854E0,8.442214131E-2,2.010685205E-2,-2.716422267E-2
4.304136771E0,8.442214131E-2,1.584579609E-2,-2.716422267E-2
4.306624635E0,8.548741043E-2,1.051947847E-2,-2.822948620E-2
4.309112500E0,8.655267209E-2,5.193160381E-3,-2.822948620E-2
4.311600365E0,8.868319541E-2,-1.331579551E-4,-2.822948620E-2
4.314088229E0,8.974846452E-2,-4.394212738E-3,-2.822948620E-2
4.316576094E0,9.081372619E-2,-7.590003312E-3,-2.822948620E-2
4.319063958E0,9.187898785E-2,-9.720530361E-3,-2.822948620E-2
4.321551823E0,9.294424951E-2,-1.185105834E-2,-2.822948620E-2
4.324039687E0,9.294424951E-2,-1.291632187E-2,-2.929474972E-2
4.326527552E0,9.294424951E-2,-1.291632187E-2,-3.036001325E-2
4.329015417E0,9.294424951E-2,-1.185105834E-2,-3.142527863E-2
4.331503281E0,9.294424951E-2,-1.078579482E-2,-3.249054030E-2
4.333991146E0,9.294424951E-2,-8.655266836E-3,-3.355580568E-2
4.336479010E0,9.294424951E-2,-6.524739787E-3,-3.355580568E-2
4.338966875E0,9.187898785E-2,-4.394212738E-3,-3.355580568E-2
4.341454740E0,9.081372619E-2,-2.263685223E-3,-3.462106735E-2
4.343942604E0,8.974846452E-2,-1.331579551E-4,-3.355580568E-2
4.346430469E0,8.761793375E-2,9.321057005E-4,-3.355580568E-2
4.348918333E0,8.655267209E-2,9.321057005E-4,-3.355580568E-2
4.351406198E0,8.442214131E-2,-1.331579551E-4,-3.462106735E-2
4.353894062E0,8.229161799E-2,-1.198421582E-3,-3.462106735E-2
4.356381927E0,8.016108721E-2,-4.394212738E-3,-3.568633273E-2
4.358869792E0,7.909582555E-2,-7.590003312E-3,-3.675159439E-2
4.361357656E0,7.590003312E-2,-1.078579482E-2,-3.781685978E-2
4.363845521E0,7.483477145E-2,-1.291632187E-2,-3.888212144E-2
4.366333385E0,7.270424068E-2,-1.611211337E-2,-3.888212144E-2
4.368821250E0,7.163897902E-2,-1.717737690E-2,-3.994738683E-2
4.371309115E0,6.950845569E-2,-1.717737690E-2,-3.994738683E-2
4.373796979E0,6.844318658E-2,-1.717737690E-2,-3.994738683E-2
4.376284844E0,6.631266326E-2,-1.824264042E-2,-3.994738683E-2
4.378772708E0,6.418213248E-2,-1.611211337E-2,-4.207791388E-2
4.381260573E0,6.205160543E-2,-1.504684892E-2,-4.314317927E-2
4.383748437E0,6.098634377E-2,-1.504684892E-2,-4.420844093E-2
4.386236302E0,5.885581672E-2,-1.504684892E-2,-4.633896798E-2
4.388724167E0,5.779055133E-2,-1.504684892E-2,-4.953476042E-2
4.391212031E0,5.566002429E-2,-1.504684892E-2,-5.166528746E-2
4.393699896E0,5.352949724E-2,-1.504684892E-2,-5.379581451E-2
4.396187760E0,5.139897019E-2,-1.611211337E-2,-5.486107618E-2
4.398675625E0,4.820318148E-2,-1.611211337E-2,-5.699160323E-2
4.401163490E0,4.607265070E-2,-1.717737690E-2,-5.912213027E-2
4.403651354E0,4.394212365E-2,-1.824264042E-2,-6.018739566E-2
4.406139219E0,4.181159660E-2,-1.824264042E-2,-6.125266105E-2
4.408627083E0,3.968106955E-2,-1.930790395E-2,-6.338318437E-2
4.411114948E0,3.755054250E-2,-2.143843099E-2,-6.551371515E-2
4.413602812E0,3.435475379E-2,-2.250369452E-2,-6.764423847E-2
4.416090677E0,3.328948840E-2,-2.463422157E-2,-6.870950758E-2
4.418578542E0,3.009369783E-2,-2.676474862E-2,-7.084003091E-2
4.421066406E0,2.902843431E-2,-2.889527567E-2,-7.190529257E-2
4.423554271E0,2.689790726E-2,-3.102580272E-2,-7.190529257E-2
4.426042135E0,2.476738021E-2,-3.315633163E-2,-7.190529257E-2
4.428530000E0,2.370211668E-2,-3.635212034E-2,-7.190529257E-2
4.431017865E0,2.157158963E-2,-3.954791278E-2,-7.084003091E-2
4.433505729E0,2.050632425E-2,-4.061317816E-2,-6.977476925E-2
4.435993594E0,1.837579720E-2,-4.167843983E-2,-6.870950758E-2
4.438481458E0,1.624527015E-2,-4.167843983E-2,-6.764423847E-2
4.440969323E0,1.518000662E-2,-4.167843983E-2,-6.764423847E-2
4.443457187E0,1.411474310E-2,-4.061317816E-2,-6.764423847E-2
4.445945052E0,1.411474310E-2,-3.954791278E-2,-6.870950758E-2
4.448432917E0,1.304947957E-2,-3.848264739E-2,-6.764423847E-2
4.450920781E0,1.091895252E-2,-3.635212034E-2,-6.657897681E-2
4.453408646E0,9.853689000E-3,-3.422159329E-2,-6.444845349E-2
4.455896510E0,7.723161485E-3,-3.209106624E-2,-6.231792271E-2
4.458384375E0,5.592633970E-3,-2.996053919E-2,-6.018739566E-2
4.460872240E0,3.462106921E-3,-2.783001214E-2,-5.699160323E-2
4.463360104E0,3.462106921E-3,-2.676474862E-2,-5.379581451E-2
4.465847969E0,1.331579522E-3,-2.676474862E-2,-5.166528746E-2
4.468335833E0,2.663159103E-4,-2.676474862E-2,-4.846949503E-2
4.470823698E0,-7.989477599E-4,-2.889527567E-2,-4.740423337E-2
4.473311562E0,-1.864211401E-3,-3.209106624E-2,-4.740423337E-2
4.475799427E0,-7.989477599E-4,-3.635212034E-2,-4.633896798E-2
4.478287292E0,2.663159103E-4,-4.167843983E-2,-4.633896798E-2
4.480775156E0,2.663159103E-4,-4.593949392E-2,-4.633896798E-2
4.483263021E0,2.663159103E-4,-4.807002097E-2,-4.633896798E-2
4.485750885E0,2.663159103E-4,-5.233107507E-2,-4.633896798E-2
4.488238750E0,2.663159103E-4,-5.446160212E-2,-4.740423337E-2
4.490726615E0,2.663159103E-4,-5.659212917E-2,-4.740423337E-2
4.493214479E0,1.331579522E-3,-5.659212917E-2,-4.846949503E-2
4.495702344E0,2.396843163E-3,-5.765739456E-2,-4.846949503E-2
4.498190208E0,2.396843163E-3,-5.765739456E-2,-5.060002208E-2
4.500678073E0,3.462106921E-3,-5.765739456E-2,-5.060002208E-2
4.503165937E0,3.462106921E-3,-5.872265995E-2,-5.166528746E-2
4.505653802E0,4.527370445E-3,-5.872265995E-2,-5.379581451E-2
4.508141667E0,5.592633970E-3,-6.085318699E-2,-5.486107618E-2
4.510629531E0,5.592633970E-3,-6.191844866E-2,-5.486107618E-2
4.513117396E0,6.657897960E-3,-6.511423737E-2,-5.592634156E-2
4.515605260E0,7.723161485E-3,-6.831002980E-2,-5.592634156E-2
4.518093125E0,8.788425475E-3,-7.150582224E-2,-5.592634156E-2
4.520580990E0,9.853689000E-3,-7.576687634E-2,-5.592634156E-2
4.523068854E0,1.091895252E-2,-7.896266878E-2,-5.486107618E-2
4.525556719E0,1.198421605E-2,-8.109319210E-2,-5.379581451E-2
4.528044583E0,1.304947957E-2,-8.322372288E-2,-5.166528746E-2
4.530532448E0,1.411474310E-2,-8.322372288E-2,-4.953476042E-2
4.533020312E0,1.411474310E-2,-8.215846121E-2,-4.846949503E-2
4.535508177E0,1.411474310E-2,-7.896266878E-2,-4.633896798E-2
4.537996042E0,1.518000662E-2,-7.470161468E-2,-4.420844093E-2
4.540483906E0,1.624527015E-2,-6.937529147E-2,-4.314317927E-2
4.542971771E0,1.837579720E-2,-6.298371404E-2,-3.994738683E-2
4.545459635E0,2.050632425E-2,-5.659212917E-2,-3.888212144E-2
4.547947500E0,2.157158963E-2,-5.020054802E-2,-3.675159439E-2
4.550435365E0,2.263685316E-2,-4.487423226E-2,-3.355580568E-2
4.552923229E0,2.370211668E-2,-3.954791278E-2,-3.036001325E-2
4.555411094E0,2.476738021E-2,-3.315633163E-2,-2.822948620E-2
4.557898958E0,2.583264373E-2,-2.889527567E-2,-2.609895915E-2
4.560386823E0,2.689790726E-2,-2.463422157E-2,-2.290316857E-2
4.562874687E0,2.796317078E-2,-2.250369452E-2,-1.970737800E-2
4.565362552E0,2.902843431E-2,-2.037316747E-2,-1.757685095E-2
4.567850417E0,2.902843431E-2,-2.037316747E-2,-1.438105945E-2
4.570338281E0,2.902843431E-2,-2.143843099E-2,-1.225053146E-2
4.572826146E0,3.009369783E-2,-2.250369452E-2,-1.012000442E-2
4.575314010E0,3.009369783E-2,-2.569948509E-2,-6.924213842E-3
4.577801875E0,3.009369783E-2,-2.783001214E-2,-5.858949851E-3
4.580289740E0,3.009369783E-2,-2.996053919E-2,-4.793686327E-3
4.582777604E0,3.009369783E-2,-3.315633163E-2,-3.728422802E-3
4.585265469E0,3.009369783E-2,-3.635212034E-2,-2.663159044E-3
4.587753333E0,3.009369783E-2,-3.848264739E-2,-5.326318205E-4
4.590241198E0,3.009369783E-2,-4.061317816E-2,1.597895520E-3
4.592729062E0,3.009369783E-2,-4.380896688E-2,3.728422802E-3
4.595216927E0,2.902843431E-2,-4.487423226E-2,5.858949851E-3
4.597704792E0,2.902843431E-2,-4.593949392E-2,7.989477366E-3
4.600192656E0,2.796317078E-2,-4.700475931E-2,1.118526794E-2
4.602680521E0,2.689790726E-2,-4.700475931E-2,1.438105945E-2
4.605168385E0,2.583264373E-2,-4.700475931E-2,1.651158556E-2
4.607656250E0,2.476738021E-2,-4.487423226E-2,2.077264152E-2
4.610144115E0,2.476738021E-2,-4.274370521E-2,2.290316857E-2
4.612631979E0,2.263685316E-2,-3.954791278E-2,2.716422267E-2
4.615119844E0,2.050632425E-2,-3.422159329E-2,3.036001325E-2
4.617607708E0,2.050632425E-2,-2.783001214E-2,3.462106735E-2
4.620095573E0,1.837579720E-2,-2.143843099E-2,3.888212144E-2
4.622583437E0,1.731053367E-2,-1.504684892E-2,4.314317927E-2
4.625071302E0,1.518000662E-2,-9.720530361E-3,4.740423337E-2
4.627559167E0,1.411474310E-2,-5.459476262E-3,5.060002208E-2
4.630047031E0,1.304947957E-2,-1.198421582E-3,5.486107618E-2
4.632534896E0,1.304947957E-2,1.997369342E-3,5.699160323E-2
4.635022760E0,1.198421605E-2,6.258423906E-3,6.018739566E-2
4.637510625E0,1.198421605E-2,9.454214945E-3,6.231792271E-2
4.639998490E0,1.198421605E-2,1.265000552E-2,6.444845349E-2
4.642486354E0,1.091895252E-2,1.584579609E-2,6.657897681E-2
4.644974219E0,8.788425475E-3,1.904158667E-2,6.764423847E-2
4.647462083E0,6.657897960E-3,2.223737910E-2,6.870950758E-2
4.649949948E0,3.462106921E-3,2.543316968E-2,6.977476925E-2
4.652437812E0,1.331579522E-3,2.649843320E-2,6.977476925E-2
4.654925677E0,-7.989477599E-4,2.756369673E-2,6.977476925E-2
4.657413542E0,-2.929474926E-3,2.756369673E-2,7.084003091E-2
4.659901406E0,-5.060002208E-3,2.543316968E-2,7.084003091E-2
4.662389271E0,-9.321057238E-3,2.223737910E-2,7.084003091E-2
4.664877135E0,-1.251684781E-2,2.010685205E-2,7.084003091E-2
4.667365000E0,-1.677790284E-2,1.797632314E-2,7.084003091E-2
4.669852865E0,-2.103895694E-2,1.584579609E-2,7.084003091E-2
4.672340729E0,-2.530001104E-2,1.371526904E-2,6.977476925E-2
4.674828594E0,-2.956106514E-2,1.265000552E-2,6.870950758E-2
4.677316458E0,-3.488738462E-2,1.265000552E-2,6.977476925E-2
4.679804323E0,-3.914843872E-2,1.158474199E-2,6.977476925E-2
4.682292187E0,-4.554001987E-2,1.265000552E-2,6.977476925E-2
4.684780052E0,-5.193160102E-2,1.158474199E-2,6.977476925E-2
4.687267917E0,-5.938844755E-2,1.051947847E-2,6.870950758E-2
4.689755781E0,-6.578002870E-2,8.388951421E-3,6.764423847E-2
4.692243646E0,-7.217161357E-2,7.323687430E-3,6.551371515E-2
4.694731510E0,-7.856319100E-2,6.258423906E-3,6.231792271E-2
4.697219375E0,-8.495477587E-2,6.258423906E-3,5.912213027E-2
4.699707240E0,-9.134636074E-2,8.388951421E-3,5.699160323E-2
4.702195104E0,-9.880319983E-2,1.158474199E-2,5.486107618E-2
4.704682969E0,-1.062600464E-1,1.584579609E-2,5.273054913E-2
4.707170833E0,-1.147821546E-1,2.330264263E-2,5.166528746E-2
4.709658698E0,-1.233042628E-1,2.969422378E-2,4.953476042E-2
4.712146562E0,-1.318263710E-1,3.821633384E-2,4.846949503E-2
4.714634427E0,-1.414137483E-1,4.780370742E-2,4.740423337E-2
4.717122292E0,-1.488705873E-1,5.632581562E-2,4.633896798E-2
4.719610156E0,-1.563274413E-1,6.484792382E-2,4.633896798E-2
4.722098021E0,-1.637842804E-1,7.337003201E-2,4.633896798E-2
4.724585885E0,-1.691105962E-1,8.082687855E-2,4.740423337E-2
4.727073750E0,-1.755021811E-1,8.828372508E-2,4.740423337E-2
4.729561615E0,-1.797632426E-1,9.467530251E-2,4.846949503E-2
4.732049479E0,-1.850895584E-1,1.021321490E-1,4.953476042E-2
4.734537344E0,-1.882853508E-1,1.085237339E-1,4.846949503E-2
4.737025208E0,-1.925463974E-1,1.159805804E-1,4.846949503E-2
4.739513073E0,-1.957421899E-1,1.234374270E-1,4.740423337E-2
4.742000937E0,-1.989379823E-1,1.298290044E-1,4.633896798E-2
4.744488802E0,-2.021337748E-1,1.372858584E-1,4.527370632E-2
4.746976667E0,-2.053295672E-1,1.436774284E-1,4.314317927E-2
4.749464531E0,-2.085253596E-1,1.479384899E-1,3.994738683E-2
4.751952396E0,-2.106558830E-1,1.511342824E-1,3.781685978E-2
4.754440260E0,-2.117211521E-1,1.543300748E-1,3.355580568E-2
4.756928125E0,-2.127864063E-1,1.543300748E-1,3.036001325E-2
4.759415990E0,-2.117211521E-1,1.543300748E-1,2.716422267E-2
4.761903854E0,-2.117211521E-1,1.532648057E-1,2.290316857E-2
4.764391719E0,-2.106558830E-1,1.521995366E-1,1.757685095E-2
4.766879583E0,-2.095906287E-1,1.521995366E-1,1.225053146E-2
4.769367448E0,-2.085253596E-1,1.500690132E-1,7.989477366E-3
4.771855312E0,-2.085253596E-1,1.500690132E-1,2.663159044E-3
4.774343177E0,-2.074600905E-1,1.500690132E-1,-1.597895520E-3
4.776831042E0,-2.074600905E-1,1.490037590E-1,-6.924213842E-3
4.779318906E0,-2.074600905E-1,1.479384899E-1,-1.118526794E-2
4.781806771E0,-2.063948363E-1,1.458079666E-1,-1.651158556E-2
4.784294635E0,-2.042642981E-1,1.426121742E-1,-2.183790505E-2
4.786782500E0,-2.031990439E-1,1.383511126E-1,-2.716422267E-2
4.789270365E0,-2.021337748E-1,1.319595277E-1,-3.142527863E-2
4.791758229E0,-1.989379823E-1,1.255679578E-1,-3.675159439E-2
4.794246094E0,-1.968074590E-1,1.181111038E-1,-3.994738683E-2
4.796733958E0,-1.936116666E-1,1.117195264E-1,-4.420844093E-2
4.799221823E0,-1.904158741E-1,1.042626798E-1,-4.740423337E-2
4.801709687E0,-1.872200817E-1,9.787109494E-2,-5.060002208E-2
4.804197552E0,-1.840242893E-1,9.254477918E-2,-5.273054913E-2
4.806685417E0,-1.818937659E-1,8.721846342E-2,-5.592634156E-2
4.809173281E0,-1.786979735E-1,8.402267098E-2,-5.805686861E-2
4.811661146E0,-1.765674502E-1,8.189214021E-2,-6.125266105E-2
4.814149010E0,-1.733716577E-1,8.082687855E-2,-6.338318437E-2
4.816636875E0,-1.701758653E-1,8.082687855E-2,-6.764423847E-2
4.819124740E0,-1.669800729E-1,7.976161689E-2,-6.977476925E-2
4.821612604E0,-1.637842804E-1,8.189214021E-2,-7.190529257E-2
4.824100469E0,-1.605884880E-1,8.402267098E-2,-7.403582335E-2
4.826588333E0,-1.584579647E-1,8.721846342E-2,-7.510108501E-2
4.829076198E0,-1.552621722E-1,8.934898674E-2,-7.403582335E-2
4.831564062E0,-1.510011256E-1,9.254477918E-2,-7.403582335E-2
4.834051927E0,-1.478053331E-1,9.574057162E-2,-7.190529257E-2
4.836539792E0,-1.435442716E-1,1.000016257E-1,-6.977476925E-2
4.839027656E0,-1.403484792E-1,1.031974182E-1,-6.870950758E-2
4.841515521E0,-1.350221634E-1,1.063932031E-1,-6.657897681E-2
4.844003385E0,-1.296958476E-1,1.085237339E-1,-6.551371515E-2
4.846491250E0,-1.243695319E-1,1.117195264E-1,-6.444845349E-2
4.848979115E0,-1.190432087E-1,1.149153188E-1,-6.444845349E-2
4.851466979E0,-1.137168929E-1,1.170458421E-1,-6.338318437E-2
4.853954844E0,-1.073253155E-1,1.191763729E-1,-6.338318437E-2
4.856442708E0,-1.009337306E-1,1.213068962E-1,-6.338318437E-2
4.858930573E0,-9.560741484E-2,1.234374270E-1,-6.444845349E-2
4.861418437E0,-9.028109163E-2,1.234374270E-1,-6.444845349E-2
4.863906302E0,-8.495477587E-2,1.234374270E-1,-6.551371515E-2
4.866394167E0,-7.962846011E-2,1.213068962E-1,-6.551371515E-2
4.868882031E0,-7.430213690E-2,1.191763729E-1,-6.551371515E-2
4.871369896E0,-6.897582114E-2,1.138500497E-1,-6.551371515E-2
4.873857760E0,-6.364950538E-2,1.095889956E-1,-6.551371515E-2
4.876345625E0,-5.832318589E-2,1.031974182E-1,-6.551371515E-2
4.878833490E0,-5.193160102E-2,9.680583328E-2,-6.551371515E-2
4.881321354E0,-4.660528526E-2,9.041424841E-2,-6.551371515E-2
4.883809219E0,-4.127896577E-2,8.295740932E-2,-6.551371515E-2
4.886297083E0,-3.595264629E-2,7.550056279E-2,-6.551371515E-2
4.888784948E0,-2.956106514E-2,6.804371625E-2,-6.444845349E-2
4.891272812E0,-2.316948399E-2,5.952160433E-2,-6.338318437E-2
4.893760677E0,-1.571263932E-2,5.206476152E-2,-6.231792271E-2
4.896248542E0,-8.255792782E-3,4.567318037E-2,-6.018739566E-2
4.898736406E0,-7.989477599E-4,4.034686089E-2,-5.805686861E-2
4.901224271E0,5.592633970E-3,3.608580679E-2,-5.486107618E-2
4.903712135E0,1.198421605E-2,3.182475269E-2,-5.060002208E-2
4.906200000E0,1.837579720E-2,2.969422378E-2,-4.633896798E-2
4.908687865E0,2.476738021E-2,2.862896025E-2,-4.101264849E-2
4.911175729E0,3.222422674E-2,2.756369673E-2,-3.675159439E-2
4.913663594E0,3.968106955E-2,2.862896025E-2,-3.142527863E-2
4.916151458E0,4.713791609E-2,3.075948730E-2,-2.716422267E-2
4.918639323E0,5.566002429E-2,3.289001435E-2,-2.183790505E-2
4.921127187E0,6.418213248E-2,3.608580679E-2,-1.438105945E-2
4.923615052E0,7.163897902E-2,3.928159550E-2,-7.989477366E-3
4.926102917E0,8.016108721E-2,4.247738793E-2,-1.597895520E-3
4.928590781E0,8.761793375E-2,4.567318037E-2,6.924213842E-3
4.931078646E0,9.400951862E-2,4.886896908E-2,1.438105945E-2
4.933566510E0,1.025316268E-1,5.099949613E-2,2.290316857E-2
4.936054375E0,1.099884734E-1,5.419528857E-2,3.355580568E-2
4.938542240E0,1.174453199E-1,5.632581562E-2,4.420844093E-2
4.941030104E0,1.259674281E-1,5.952160433E-2,5.379581451E-2
4.943517969E0,1.323590130E-1,6.271740049E-2,6.444845349E-2
4.946005833E0,1.408811212E-1,6.697845459E-2,7.510108501E-2
4.948493698E0,1.472726911E-1,7.123950869E-2,8.575372398E-2
4.950981562E0,1.536642760E-1,7.763108611E-2,9.640636295E-2
4.953469427E0,1.600558609E-1,8.402267098E-2,1.059937328E-1
4.955957292E0,1.643169224E-1,9.254477918E-2,1.166463718E-1
4.958445156E0,1.685779691E-1,1.021321490E-1,1.262337416E-1
4.960933021E0,1.717737615E-1,1.117195264E-1,1.368863732E-1
4.963420885E0,1.739042848E-1,1.213068962E-1,1.454084814E-1
4.965908750E0,1.749695539E-1,1.319595277E-1,1.549958587E-1
4.968396615E0,1.760348231E-1,1.404816359E-1,1.635179669E-1
4.970884479E0,1.760348231E-1,1.479384899E-1,1.709748209E-1
4.973372344E0,1.749695539E-1,1.532648057E-1,1.773663908E-1
4.975860208E0,1.728390306E-1,1.585911214E-1,1.837579757E-1
4.978348073E0,1.717737615E-1,1.617869139E-1,1.890842915E-1
4.980835937E0,1.685779691E-1,1.639174372E-1,1.922800839E-1
4.983323802E0,1.664474458E-1,1.660479754E-1,1.954758763E-1
4.985811667E0,1.621863842E-1,1.671132296E-1,1.986716688E-1
4.988299531E0,1.579253376E-1,1.692437679E-1,2.018674612E-1
4.990787396E0,1.515337527E-1,1.713742912E-1,2.039979845E-1
4.993275260E0,1.451421678E-1,1.724395454E-1,2.050632536E-1
4.995763125E0,1.387505829E-1,1.735048145E-1,2.061285079E-1
4.998250990E0,1.312937438E-1,1.745700836E-1,2.061285079E-1
5.000738854E0,1.238368973E-1,1.745700836E-1,2.050632536E-1
5.003226719E0,1.153147891E-1,1.735048145E-1,2.039979845E-1
5.005714583E0,1.078579426E-1,1.724395454E-1,1.997369379E-1
5.008202448E0,1.004010960E-1,1.692437679E-1,1.944106072E-1
5.010690312E0,9.187898785E-2,1.660479754E-1,1.890842915E-1
5.013178177E0,8.229161799E-2,1.596563905E-1,1.837579757E-1
5.015666042E0,7.270424068E-2,1.532648057E-1,1.773663908E-1
5.018153906E0,6.311687082E-2,1.458079666E-1,1.699095517E-1
5.020641771E0,5.352949724E-2,1.362205893E-1,1.635179669E-1
5.023129635E0,4.500738904E-2,1.276984811E-1,1.571263820E-1
