"Time (s)","Gyroscope x (rad/s)","Gyroscope y (rad/s)","Gyroscope z (rad/s)"
9.134088500E-2,1.331579522E-3,-1.611211337E-2,-5.166528746E-2
9.382859400E-2,6.657897960E-3,-1.930790395E-2,-5.166528746E-2
9.631630200E-2,1.411474310E-2,-2.676474862E-2,-5.379581451E-2
9.880401000E-2,2.157158963E-2,-3.528685868E-2,-5.486107618E-2
1.012917190E-1,2.902843431E-2,-4.593949392E-2,-5.805686861E-2
1.037794270E-1,3.861580789E-2,-5.765739456E-2,-6.018739566E-2
1.062671350E-1,4.820318148E-2,-7.044056058E-2,-6.338318437E-2
1.087548440E-1,5.779055133E-2,-8.428898454E-2,-6.657897681E-2
1.112425520E-1,6.737792492E-2,-9.707214683E-2,-6.977476925E-2
1.137302600E-1,7.590003312E-2,-1.098553166E-1,-7.190529257E-2
1.162179690E-1,8.335687965E-2,-1.194426864E-1,-7.403582335E-2
1.187056770E-1,8.868319541E-2,-1.258342713E-1,-7.510108501E-2
1.211933850E-1,9.294424951E-2,-1.311605871E-1,-7.616634667E-2
1.236810940E-1,9.507478029E-2,-1.322258562E-1,-7.510108501E-2
1.261688020E-1,9.720530361E-2,-1.300953180E-1,-7.297056168E-2
1.286565100E-1,9.720530361E-2,-1.247690022E-1,-6.977476925E-2
1.311442190E-1,9.720530361E-2,-1.162468940E-1,-6.657897681E-2
1.336319270E-1,9.614004195E-2,-1.066595241E-1,-6.125266105E-2
1.361196350E-1,9.507478029E-2,-9.600688517E-2,-5.699160323E-2
1.386073440E-1,9.294424951E-2,-8.428898454E-2,-5.166528746E-2
1.410950520E-1,9.081372619E-2,-7.363634557E-2,-4.633896798E-2
1.435827600E-1,8.868319541E-2,-6.298371404E-2,-4.207791388E-2
1.460704690E-1,8.761793375E-2,-5.446160212E-2,-3.675159439E-2
1.485581770E-1,8.548741043E-2,-4.593949392E-2,-3.249054030E-2
1.510458850E-1,8.229161799E-2,-4.061317816E-2,-2.929474972E-2
1.535335940E-1,7.909582555E-2,-3.635212034E-2,-2.609895915E-2
1.560213020E-1,7.590003312E-2,-3.315633163E-2,-2.396843210E-2
1.585090100E-1,7.376950979E-2,-3.102580272E-2,-2.077264152E-2
1.609967710E-1,7.163897902E-2,-2.996053919E-2,-1.864211448E-2
1.634845310E-1,7.057371736E-2,-2.996053919E-2,-1.651158556E-2
1.659722920E-1,7.057371736E-2,-3.102580272E-2,-1.544632297E-2
1.684600520E-1,7.057371736E-2,-3.315633163E-2,-1.438105945E-2
1.709478120E-1,7.057371736E-2,-3.528685868E-2,-1.331579592E-2
1.734355730E-1,7.163897902E-2,-3.848264739E-2,-1.331579592E-2
1.759233330E-1,7.270424068E-2,-4.061317816E-2,-1.331579592E-2
1.784110940E-1,7.483477145E-2,-4.380896688E-2,-1.225053146E-2
1.808988540E-1,7.696529478E-2,-4.593949392E-2,-1.331579592E-2
1.833866140E-1,7.803056389E-2,-4.807002097E-2,-1.331579592E-2
1.858743750E-1,7.909582555E-2,-4.913528636E-2,-1.331579592E-2
1.883621350E-1,8.016108721E-2,-4.913528636E-2,-1.331579592E-2
1.908498960E-1,8.122635633E-2,-4.700475931E-2,-1.225053146E-2
1.933376560E-1,8.016108721E-2,-4.487423226E-2,-1.225053146E-2
1.958254170E-1,7.803056389E-2,-4.167843983E-2,-1.118526794E-2
1.983131770E-1,7.590003312E-2,-3.741738573E-2,-1.012000442E-2
2.008009370E-1,7.270424068E-2,-3.315633163E-2,-1.012000442E-2
2.032886980E-1,7.057371736E-2,-2.996053919E-2,-9.054740891E-3
2.057764580E-1,6.737792492E-2,-2.889527567E-2,-7.989477366E-3
2.082642190E-1,6.524740160E-2,-2.889527567E-2,-7.989477366E-3
2.107519790E-1,6.418213248E-2,-3.209106624E-2,-7.989477366E-3
2.132397390E-1,6.311687082E-2,-3.635212034E-2,-7.989477366E-3
2.157275000E-1,6.311687082E-2,-4.274370521E-2,-7.989477366E-3
2.182152600E-1,6.418213248E-2,-5.020054802E-2,-9.054740891E-3
2.207030210E-1,6.524740160E-2,-5.765739456E-2,-1.118526794E-2
2.231907810E-1,6.737792492E-2,-6.404897571E-2,-1.225053146E-2
2.256785420E-1,6.844318658E-2,-7.044056058E-2,-1.331579592E-2
2.281663020E-1,7.057371736E-2,-7.470161468E-2,-1.544632297E-2
2.306540620E-1,7.163897902E-2,-7.896266878E-2,-1.757685095E-2
2.331418230E-1,7.057371736E-2,-8.002793044E-2,-1.970737800E-2
2.356295830E-1,6.950845569E-2,-8.002793044E-2,-2.183790505E-2
2.381173440E-1,6.844318658E-2,-7.896266878E-2,-2.290316857E-2
2.406051040E-1,6.737792492E-2,-7.683213800E-2,-2.396843210E-2
2.430928640E-1,6.524740160E-2,-7.363634557E-2,-2.503369562E-2
2.455806250E-1,6.418213248E-2,-7.044056058E-2,-2.716422267E-2
2.480683850E-1,6.205160543E-2,-6.511423737E-2,-2.822948620E-2
2.505561460E-1,5.992107838E-2,-5.872265995E-2,-2.929474972E-2
2.530439060E-1,5.779055133E-2,-5.126581341E-2,-3.036001325E-2
2.555316670E-1,5.566002429E-2,-4.380896688E-2,-3.036001325E-2
2.580194270E-1,5.246423557E-2,-3.635212034E-2,-3.142527863E-2
2.605071870E-1,4.820318148E-2,-2.783001214E-2,-3.142527863E-2
2.629949480E-1,4.500738904E-2,-2.037316747E-2,-3.249054030E-2
2.654827080E-1,4.181159660E-2,-1.185105834E-2,-3.249054030E-2
2.679704690E-1,3.648528084E-2,-4.394212738E-3,-3.249054030E-2
2.704582290E-1,3.222422674E-2,3.062632866E-3,-3.142527863E-2
2.729459890E-1,2.689790726E-2,8.388951421E-3,-3.036001325E-2
2.754337500E-1,2.263685316E-2,1.265000552E-2,-2.929474972E-2
2.779215100E-1,1.837579720E-2,1.584579609E-2,-2.822948620E-2
2.804092710E-1,1.304947957E-2,1.691105962E-2,-2.716422267E-2
2.828970310E-1,7.723161485E-3,1.797632314E-2,-2.609895915E-2
2.853847920E-1,3.462106921E-3,1.691105962E-2,-2.396843210E-2
2.878725520E-1,-7.989477599E-4,1.478053257E-2,-2.396843210E-2
2.903603120E-1,-2.929474926E-3,1.158474199E-2,-2.503369562E-2
2.928480730E-1,-6.125265732E-3,7.323687430E-3,-2.503369562E-2
2.953358330E-1,-8.255792782E-3,4.127896391E-3,-2.609895915E-2
2.978235940E-1,-1.145158429E-2,-1.198421582E-3,-2.716422267E-2
3.003113540E-1,-1.251684781E-2,-7.590003312E-3,-2.822948620E-2
3.027991140E-1,-1.464737486E-2,-1.291632187E-2,-2.929474972E-2
3.052868750E-1,-1.677790284E-2,-1.930790395E-2,-3.249054030E-2
3.077746350E-1,-1.677790284E-2,-2.463422157E-2,-3.462106735E-2
3.102623960E-1,-1.571263932E-2,-3.209106624E-2,-3.781685978E-2
3.127501560E-1,-1.571263932E-2,-4.061317816E-2,-3.994738683E-2
3.152379170E-1,-1.464737486E-2,-4.913528636E-2,-4.314317927E-2
3.177256770E-1,-1.358211134E-2,-5.659212917E-2,-4.633896798E-2
3.202134370E-1,-1.145158429E-2,-6.511423737E-2,-4.846949503E-2
3.227011980E-1,-1.038632076E-2,-7.363634557E-2,-5.060002208E-2
3.251889580E-1,-8.255792782E-3,-8.109319210E-2,-5.273054913E-2
3.276767190E-1,-6.125265732E-3,-8.641951531E-2,-5.379581451E-2
3.301644790E-1,-2.929474926E-3,-9.068056941E-2,-5.486107618E-2
3.326522390E-1,-7.989477599E-4,-9.281109273E-2,-5.486107618E-2
3.351400000E-1,2.396843163E-3,-9.174583107E-2,-5.379581451E-2
3.376277600E-1,3.462106921E-3,-8.961530030E-2,-5.273054913E-2
3.401155210E-1,5.592633970E-3,-8.428898454E-2,-5.060002208E-2
3.426032810E-1,7.723161485E-3,-7.896266878E-2,-4.953476042E-2
3.450910420E-1,7.723161485E-3,-7.044056058E-2,-4.633896798E-2
3.475788020E-1,7.723161485E-3,-6.191844866E-2,-4.314317927E-2
3.500665620E-1,7.723161485E-3,-5.339634046E-2,-3.994738683E-2
3.525543230E-1,7.723161485E-3,-4.380896688E-2,-3.675159439E-2
3.550420830E-1,6.657897960E-3,-3.528685868E-2,-3.355580568E-2
3.575297920E-1,5.592633970E-3,-2.676474862E-2,-3.036001325E-2
3.600175000E-1,4.527370445E-3,-1.930790395E-2,-2.716422267E-2
3.625052080E-1,4.527370445E-3,-1.185105834E-2,-2.396843210E-2
3.649929170E-1,4.527370445E-3,-5.459476262E-3,-2.077264152E-2
3.674806250E-1,3.462106921E-3,-1.331579551E-4,-1.757685095E-2
3.699683330E-1,3.462106921E-3,3.062632866E-3,-1.544632297E-2
3.724560420E-1,2.396843163E-3,6.258423906E-3,-1.438105945E-2
3.749437500E-1,2.396843163E-3,6.258423906E-3,-1.225053146E-2
3.774314580E-1,1.331579522E-3,6.258423906E-3,-1.225053146E-2
3.799191670E-1,1.331579522E-3,5.193160381E-3,-1.331579592E-2
3.824068750E-1,1.331579522E-3,4.127896391E-3,-1.438105945E-2
3.848945830E-1,2.396843163E-3,9.321057005E-4,-1.651158556E-2
3.873822920E-1,2.396843163E-3,-1.198421582E-3,-1.864211448E-2
3.898700000E-1,2.396843163E-3,-3.328948980E-3,-2.077264152E-2
3.923577080E-1,2.396843163E-3,-6.524739787E-3,-2.290316857E-2
3.948454170E-1,3.462106921E-3,-9.720530361E-3,-2.609895915E-2
3.973331250E-1,3.462106921E-3,-1.185105834E-2,-2.822948620E-2
3.998208330E-1,3.462106921E-3,-1.611211337E-2,-3.142527863E-2
4.023085420E-1,3.462106921E-3,-2.143843099E-2,-3.355580568E-2
4.047962500E-1,4.527370445E-3,-2.569948509E-2,-3.675159439E-2
4.072839580E-1,4.527370445E-3,-3.209106624E-2,-3.994738683E-2
4.097716670E-1,4.527370445E-3,-3.741738573E-2,-4.207791388E-2
4.122593750E-1,4.527370445E-3,-4.274370521E-2,-4.420844093E-2
4.147470830E-1,4.527370445E-3,-4.593949392E-2,-4.633896798E-2
4.172347920E-1,4.527370445E-3,-4.913528636E-2,-4.846949503E-2
4.197225000E-1,4.527370445E-3,-5.233107507E-2,-4.953476042E-2
4.222102080E-1,3.462106921E-3,-5.339634046E-2,-5.060002208E-2
4.246979170E-1,3.462106921E-3,-5.339634046E-2,-5.166528746E-2
4.271856250E-1,3.462106921E-3,-5.233107507E-2,-5.060002208E-2
4.296733330E-1,1.331579522E-3,-5.233107507E-2,-4.953476042E-2
4.321610420E-1,1.331579522E-3,-5.020054802E-2,-4.953476042E-2
4.346487500E-1,1.331579522E-3,-4.913528636E-2,-4.846949503E-2
4.371364580E-1,2.663159103E-4,-4.700475931E-2,-4.633896798E-2
4.396241670E-1,-7.989477599E-4,-4.487423226E-2,-4.527370632E-2
4.421118750E-1,-1.864211401E-3,-4.274370521E-2,-4.314317927E-2
4.445995830E-1,-1.864211401E-3,-3.954791278E-2,-4.314317927E-2
4.470873440E-1,-2.929474926E-3,-3.741738573E-2,-4.207791388E-2
4.495751040E-1,-1.864211401E-3,-3.315633163E-2,-4.207791388E-2
4.520628640E-1,-2.929474926E-3,-2.783001214E-2,-4.207791388E-2
4.545506250E-1,-1.864211401E-3,-2.250369452E-2,-4.207791388E-2
4.570383850E-1,-2.929474926E-3,-1.717737690E-2,-4.207791388E-2
4.595261460E-1,-3.994738683E-3,-1.078579482E-2,-4.207791388E-2
4.620139060E-1,-6.125265732E-3,-5.459476262E-3,-4.207791388E-2
4.645016670E-1,-8.255792782E-3,-2.263685223E-3,-4.314317927E-2
4.669894270E-1,-1.145158429E-2,-1.331579551E-4,-4.420844093E-2
4.694771870E-1,-1.464737486E-2,9.321057005E-4,-4.420844093E-2
4.719649480E-1,-1.677790284E-2,9.321057005E-4,-4.527370632E-2
4.744527080E-1,-1.784316637E-2,-1.198421582E-3,-4.740423337E-2
4.769404690E-1,-1.890842989E-2,-5.459476262E-3,-4.740423337E-2
4.794282290E-1,-2.103895694E-2,-8.655266836E-3,-4.953476042E-2
4.819159890E-1,-2.103895694E-2,-1.185105834E-2,-5.060002208E-2
4.844037500E-1,-2.210422046E-2,-1.504684892E-2,-5.273054913E-2
4.868915100E-1,-2.210422046E-2,-1.930790395E-2,-5.486107618E-2
4.893792710E-1,-2.210422046E-2,-2.356895804E-2,-5.699160323E-2
4.918670310E-1,-2.210422046E-2,-2.676474862E-2,-6.018739566E-2
4.943547920E-1,-2.210422046E-2,-2.996053919E-2,-6.231792271E-2
4.968425520E-1,-2.210422046E-2,-3.315633163E-2,-6.551371515E-2
4.993303120E-1,-1.997369342E-2,-3.741738573E-2,-6.977476925E-2
5.018180730E-1,-1.890842989E-2,-4.061317816E-2,-7.297056168E-2
5.043058330E-1,-1.890842989E-2,-4.380896688E-2,-7.616634667E-2
5.067935940E-1,-1.677790284E-2,-4.593949392E-2,-7.829687744E-2
5.092813540E-1,-1.677790284E-2,-4.807002097E-2,-8.042740822E-2
5.117691140E-1,-1.571263932E-2,-4.913528636E-2,-8.255793154E-2
5.142568750E-1,-1.358211134E-2,-4.913528636E-2,-8.468846232E-2
5.167446350E-1,-1.358211134E-2,-4.913528636E-2,-8.468846232E-2
5.192323960E-1,-1.251684781E-2,-4.913528636E-2,-8.575372398E-2
5.217201560E-1,-1.251684781E-2,-4.913528636E-2,-8.575372398E-2
5.242079170E-1,-1.145158429E-2,-4.913528636E-2,-8.468846232E-2
5.266956770E-1,-1.145158429E-2,-5.020054802E-2,-8.362319320E-2
5.291834370E-1,-1.145158429E-2,-5.020054802E-2,-8.255793154E-2
5.316711980E-1,-1.038632076E-2,-5.126581341E-2,-8.149266988E-2
5.341589580E-1,-1.145158429E-2,-5.126581341E-2,-8.042740822E-2
5.366467190E-1,-1.145158429E-2,-5.233107507E-2,-7.936213911E-2
5.391344790E-1,-1.038632076E-2,-5.233107507E-2,-7.829687744E-2
5.416222390E-1,-9.321057238E-3,-5.020054802E-2,-7.723161578E-2
5.441100000E-1,-9.321057238E-3,-4.913528636E-2,-7.510108501E-2
5.465977600E-1,-9.321057238E-3,-4.700475931E-2,-7.510108501E-2
5.490855210E-1,-9.321057238E-3,-4.487423226E-2,-7.297056168E-2
5.515732810E-1,-1.038632076E-2,-4.274370521E-2,-7.297056168E-2
5.540610420E-1,-1.251684781E-2,-4.167843983E-2,-7.190529257E-2
5.565488020E-1,-1.464737486E-2,-4.061317816E-2,-7.190529257E-2
5.590365620E-1,-1.784316637E-2,-4.167843983E-2,-7.297056168E-2
5.615243230E-1,-1.997369342E-2,-4.274370521E-2,-7.403582335E-2
5.640120830E-1,-2.316948399E-2,-4.487423226E-2,-7.510108501E-2
5.664998440E-1,-2.423474751E-2,-4.913528636E-2,-7.616634667E-2
5.689876040E-1,-2.423474751E-2,-5.339634046E-2,-7.723161578E-2
5.714753640E-1,-2.423474751E-2,-5.872265995E-2,-7.829687744E-2
5.739631250E-1,-2.423474751E-2,-6.298371404E-2,-7.936213911E-2
5.764508850E-1,-2.530001104E-2,-6.831002980E-2,-8.042740822E-2
5.789386460E-1,-2.743053809E-2,-7.363634557E-2,-7.936213911E-2
5.814264060E-1,-2.956106514E-2,-8.002793044E-2,-7.936213911E-2
5.839141670E-1,-3.169159219E-2,-8.535424620E-2,-7.829687744E-2
5.864019270E-1,-3.382211924E-2,-9.068056941E-2,-7.723161578E-2
5.888896870E-1,-3.701791167E-2,-9.707214683E-2,-7.723161578E-2
5.913775000E-1,-3.808317333E-2,-1.023984700E-1,-7.723161578E-2
5.938653120E-1,-4.021370411E-2,-1.077247858E-1,-7.723161578E-2
5.963531250E-1,-4.234423116E-2,-1.141163707E-1,-7.936213911E-2
5.988409370E-1,-4.660528526E-2,-1.194426864E-1,-8.042740822E-2
6.013286980E-1,-5.086633936E-2,-1.247690022E-1,-8.149266988E-2
6.038164580E-1,-5.512739345E-2,-1.300953180E-1,-8.149266988E-2
6.063041670E-1,-6.045371294E-2,-1.343563795E-1,-8.362319320E-2
6.087918750E-1,-6.578002870E-2,-1.375521719E-1,-8.468846232E-2
6.112795830E-1,-7.004108280E-2,-1.407479644E-1,-8.681898564E-2
6.137672920E-1,-7.323687524E-2,-1.418132186E-1,-8.894951642E-2
6.162550000E-1,-7.430213690E-2,-1.439437568E-1,-9.214530140E-2
6.187427080E-1,-7.536740601E-2,-1.460742801E-1,-9.640636295E-2
6.212304170E-1,-7.430213690E-2,-1.492700726E-1,-1.017326787E-1
6.237181250E-1,-7.110634446E-2,-1.524658650E-1,-1.091895252E-1
6.262058330E-1,-6.791055948E-2,-1.577921808E-1,-1.145158410E-1
6.286935420E-1,-6.364950538E-2,-1.620532274E-1,-1.198421568E-1
6.311812500E-1,-5.832318589E-2,-1.641837656E-1,-1.262337416E-1
6.336689580E-1,-5.193160102E-2,-1.663142890E-1,-1.326253265E-1
6.361566670E-1,-4.234423116E-2,-1.652490199E-1,-1.390169114E-1
6.386443750E-1,-3.275685757E-2,-1.631184965E-1,-1.454084814E-1
6.411320830E-1,-1.997369342E-2,-1.609879732E-1,-1.518000662E-1
6.436197920E-1,-6.125265732E-3,-1.577921808E-1,-1.603221744E-1
6.461075000E-1,9.853689000E-3,-1.556616426E-1,-1.677790284E-1
6.485952080E-1,2.583264373E-2,-1.535311192E-1,-1.773663908E-1
6.510829170E-1,4.287686199E-2,-1.524658650E-1,-1.858884990E-1
6.535706250E-1,5.992107838E-2,-1.524658650E-1,-1.965411454E-1
6.560583330E-1,7.803056389E-2,-1.535311192E-1,-2.050632536E-1
6.585460420E-1,9.507478029E-2,-1.556616426E-1,-2.125200927E-1
6.610337500E-1,1.121189967E-1,-1.588574350E-1,-2.199769467E-1
6.635214580E-1,1.280979514E-1,-1.609879732E-1,-2.242379934E-1
6.660091670E-1,1.440769136E-1,-1.631184965E-1,-2.284990549E-1
6.684968750E-1,1.589905918E-1,-1.641837656E-1,-2.306295782E-1
6.709845830E-1,1.739042848E-1,-1.652490199E-1,-2.306295782E-1
6.734722920E-1,1.856221855E-1,-1.663142890E-1,-2.295643091E-1
6.759600000E-1,1.973400861E-1,-1.663142890E-1,-2.263685167E-1
6.784477080E-1,2.069274634E-1,-1.652490199E-1,-2.210422009E-1
6.809354170E-1,2.154495716E-1,-1.641837656E-1,-2.135853618E-1
6.834231250E-1,2.239716798E-1,-1.599227041E-1,-2.050632536E-1
6.859108330E-1,2.303632647E-1,-1.535311192E-1,-1.965411454E-1
6.883985420E-1,2.356895804E-1,-1.450090110E-1,-1.880190372E-1
6.908862500E-1,2.410158962E-1,-1.343563795E-1,-1.805621833E-1
6.933739580E-1,2.442116886E-1,-1.194426864E-1,-1.741705984E-1
6.958617190E-1,2.463422120E-1,-1.034637317E-1,-1.677790284E-1
6.983494790E-1,2.484727502E-1,-8.748477697E-2,-1.635179669E-1
7.008372390E-1,2.484727502E-1,-7.150582224E-2,-1.603221744E-1
7.033250000E-1,2.463422120E-1,-5.552686751E-2,-1.571263820E-1
7.058127600E-1,2.410158962E-1,-4.380896688E-2,-1.560611278E-1
7.083005210E-1,2.356895804E-1,-3.422159329E-2,-1.549958587E-1
7.107882810E-1,2.292979956E-1,-2.889527567E-2,-1.549958587E-1
7.132760420E-1,2.239716798E-1,-2.569948509E-2,-1.560611278E-1
7.157638020E-1,2.175800949E-1,-2.463422157E-2,-1.581916511E-1
7.182515620E-1,2.111885101E-1,-2.569948509E-2,-1.624527127E-1
7.207393230E-1,2.058621943E-1,-2.996053919E-2,-1.688442826E-1
7.232270830E-1,1.984053552E-1,-3.528685868E-2,-1.773663908E-1
7.257148440E-1,1.920137703E-1,-4.380896688E-2,-1.869537681E-1
7.282026040E-1,1.845569313E-1,-5.339634046E-2,-1.965411454E-1
7.306903640E-1,1.760348231E-1,-6.404897571E-2,-2.071937770E-1
7.331781250E-1,1.675127149E-1,-7.576687634E-2,-2.178464085E-1
7.356658850E-1,1.589905918E-1,-8.641951531E-2,-2.274337858E-1
7.381536460E-1,1.483379602E-1,-9.707214683E-2,-2.359558940E-1
7.406414060E-1,1.398158520E-1,-1.087900475E-1,-2.434127480E-1
7.431291670E-1,1.302284747E-1,-1.183774248E-1,-2.498043180E-1
7.456169270E-1,1.227716357E-1,-1.279647946E-1,-2.561959028E-1
7.481046870E-1,1.163800508E-1,-1.375521719E-1,-2.636527419E-1
7.505924480E-1,1.110537350E-1,-1.460742801E-1,-2.711096108E-1
7.530802080E-1,1.046621501E-1,-1.535311192E-1,-2.764359117E-1
7.555679690E-1,9.933583438E-2,-1.609879732E-1,-2.828274965E-1
7.580557290E-1,9.294424951E-2,-1.673795432E-1,-2.860232890E-1
7.605434890E-1,8.655267209E-2,-1.727058738E-1,-2.881538272E-1
7.630312500E-1,8.122635633E-2,-1.769669205E-1,-2.870885432E-1
7.655190100E-1,7.590003312E-2,-1.801627129E-1,-2.849580348E-1
7.680067710E-1,7.057371736E-2,-1.812279820E-1,-2.806969583E-1
7.704945310E-1,6.844318658E-2,-1.801627129E-1,-2.743053734E-1
7.729822920E-1,6.631266326E-2,-1.780321896E-1,-2.679138184E-1
7.754700520E-1,6.524740160E-2,-1.737711281E-1,-2.615222335E-1
7.779578120E-1,6.631266326E-2,-1.695100814E-1,-2.540653646E-1
7.804455730E-1,6.737792492E-2,-1.641837656E-1,-2.466085255E-1
7.829333330E-1,6.844318658E-2,-1.588574350E-1,-2.370211631E-1
7.854210940E-1,6.844318658E-2,-1.524658650E-1,-2.263685167E-1
7.879088540E-1,6.844318658E-2,-1.482048035E-1,-2.146506310E-1
7.903966140E-1,7.057371736E-2,-1.428784877E-1,-2.018674612E-1
7.928843750E-1,7.270424068E-2,-1.364869028E-1,-1.890842915E-1
7.953721350E-1,7.483477145E-2,-1.311605871E-1,-1.752358675E-1
7.978598960E-1,7.696529478E-2,-1.237037405E-1,-1.645832360E-1
8.003476560E-1,8.016108721E-2,-1.173121557E-1,-1.549958587E-1
8.028354170E-1,8.229161799E-2,-1.098553166E-1,-1.464737505E-1
8.053231770E-1,8.442214131E-2,-1.045289934E-1,-1.411474347E-1
8.078109370E-1,8.761793375E-2,-1.013332009E-1,-1.358211190E-1
8.102986980E-1,8.868319541E-2,-9.920267761E-2,-1.336905807E-1
8.127864580E-1,8.868319541E-2,-9.920267761E-2,-1.336905807E-1
8.152742190E-1,8.655267209E-2,-1.023984700E-1,-1.358211190E-1
8.177619790E-1,8.335687965E-2,-1.066595241E-1,-1.379516423E-1
8.202497390E-1,7.909582555E-2,-1.119858399E-1,-1.422126889E-1
8.227375000E-1,7.590003312E-2,-1.173121557E-1,-1.496695429E-1
8.252257290E-1,7.163897902E-2,-1.226384789E-1,-1.571263820E-1
8.277133330E-1,6.844318658E-2,-1.268995255E-1,-1.656484902E-1
8.302009370E-1,6.418213248E-2,-1.322258562E-1,-1.741705984E-1
8.326885420E-1,5.992107838E-2,-1.386174262E-1,-1.826927215E-1
8.351761460E-1,5.566002429E-2,-1.471395344E-1,-1.890842915E-1
8.376637500E-1,5.139897019E-2,-1.567269117E-1,-1.933453530E-1
8.401513540E-1,4.820318148E-2,-1.695100814E-1,-1.965411454E-1
8.426389580E-1,4.607265070E-2,-1.812279820E-1,-1.986716688E-1
8.451265620E-1,4.394212365E-2,-1.961416751E-1,-1.976063997E-1
8.476141670E-1,4.394212365E-2,-2.078595608E-1,-1.954758763E-1
8.501017710E-1,4.287686199E-2,-2.195774615E-1,-1.912148297E-1
8.525894270E-1,4.287686199E-2,-2.270343155E-1,-1.848232448E-1
8.550771350E-1,4.181159660E-2,-2.312953621E-1,-1.763011366E-1
8.575648960E-1,3.968106955E-2,-2.323606312E-1,-1.656484902E-1
8.600527080E-1,3.755054250E-2,-2.291648388E-1,-1.528653353E-1
8.625405210E-1,3.435475379E-2,-2.249037921E-1,-1.368863732E-1
8.650286460E-1,3.115896136E-2,-2.174469382E-1,-1.219726875E-1
8.675167710E-1,2.902843431E-2,-2.099900991E-1,-1.049284711E-1
8.700048960E-1,2.796317078E-2,-2.014679909E-1,-9.001477808E-2
8.724927080E-1,2.902843431E-2,-1.929458827E-1,-7.403582335E-2
8.749804690E-1,3.115896136E-2,-1.833585054E-1,-6.018739566E-2
8.774681770E-1,3.222422674E-2,-1.737711281E-1,-4.846949503E-2
8.799558850E-1,3.222422674E-2,-1.641837656E-1,-3.675159439E-2
8.824435940E-1,3.009369783E-2,-1.535311192E-1,-2.609895915E-2
8.849313020E-1,2.583264373E-2,-1.418132186E-1,-1.651158556E-2
8.874190100E-1,2.157158963E-2,-1.290300637E-1,-7.989477366E-3
8.899067190E-1,1.624527015E-2,-1.162468940E-1,-1.597895520E-3
8.923944270E-1,1.198421605E-2,-1.045289934E-1,4.793686327E-3
8.948821350E-1,8.788425475E-3,-9.494162351E-2,6.924213842E-3
8.973698440E-1,4.527370445E-3,-8.855003864E-2,5.858949851E-3
8.998575520E-1,2.663159103E-4,-8.855003864E-2,4.793686327E-3
9.023452600E-1,-5.060002208E-3,-9.494162351E-2,1.597895520E-3
9.048329690E-1,-1.251684781E-2,-1.045289934E-1,-5.326318205E-4
9.073206770E-1,-1.997369342E-2,-1.194426864E-1,-1.597895520E-3
9.098083850E-1,-2.743053809E-2,-1.343563795E-1,-5.326318205E-4
9.122960940E-1,-3.488738462E-2,-1.524658650E-1,5.326318205E-4
9.147838020E-1,-4.234423116E-2,-1.695100814E-1,4.793686327E-3
9.172715100E-1,-4.660528526E-2,-1.844237745E-1,7.989477366E-3
9.197592190E-1,-5.086633936E-2,-2.004027218E-1,1.118526794E-2
9.222469270E-1,-5.299686641E-2,-2.142511457E-1,1.225053146E-2
9.247346350E-1,-5.512739345E-2,-2.270343155E-1,1.438105945E-2
9.272223440E-1,-5.725792050E-2,-2.376869470E-1,1.651158556E-2
9.297100520E-1,-5.938844755E-2,-2.483395934E-1,1.970737800E-2
9.321977600E-1,-6.364950538E-2,-2.547311783E-1,2.503369562E-2
9.346854690E-1,-6.897582114E-2,-2.600574791E-1,3.462106735E-2
9.371731770E-1,-7.536740601E-2,-2.611227632E-1,4.527370632E-2
9.396608850E-1,-8.282424510E-2,-2.589922249E-1,5.805686861E-2
9.421485940E-1,-8.921582997E-2,-2.526006401E-1,7.190529257E-2
9.446363020E-1,-9.347688407E-2,-2.419480085E-1,8.681898564E-2
9.471240100E-1,-9.773793817E-2,-2.302301079E-1,9.960214794E-2
9.496117190E-1,-1.009337306E-1,-2.153164148E-1,1.123853177E-1
9.520994270E-1,-1.030642539E-1,-1.993374527E-1,1.241032109E-1
9.545871350E-1,-1.062600464E-1,-1.822932363E-1,1.336905807E-1
9.570748440E-1,-1.105211005E-1,-1.673795432E-1,1.432779580E-1
9.595625520E-1,-1.179779470E-1,-1.535311192E-1,1.507348120E-1
9.620502600E-1,-1.275653243E-1,-1.428784877E-1,1.581916511E-1
9.645379690E-1,-1.414137483E-1,-1.332911104E-1,1.677790284E-1
9.670256770E-1,-1.552621722E-1,-1.258342713E-1,1.773663908E-1
9.695133850E-1,-1.712411344E-1,-1.183774248E-1,1.869537681E-1
9.720011460E-1,-1.850895584E-1,-1.119858399E-1,1.986716688E-1
9.744889060E-1,-1.978727281E-1,-1.055942550E-1,2.103895694E-1
9.769766670E-1,-2.085253596E-1,-9.920267761E-2,2.199769467E-1
9.794644270E-1,-2.170474678E-1,-9.387636185E-2,2.284990549E-1
9.819521870E-1,-2.245043069E-1,-8.961530030E-2,2.359558940E-1
9.844399480E-1,-2.298306376E-1,-8.428898454E-2,2.402169555E-1
9.869277080E-1,-2.362222075E-1,-8.002793044E-2,2.423474789E-1
9.894154690E-1,-2.436790615E-1,-7.789740711E-2,2.444780022E-1
9.919032290E-1,-2.543317080E-1,-7.470161468E-2,2.476737946E-1
9.943909890E-1,-2.649843395E-1,-7.150582224E-2,2.519348562E-1
9.968787500E-1,-2.756369710E-1,-6.831002980E-2,2.561959028E-1
9.993665100E-1,-2.862896025E-1,-6.404897571E-2,2.615222335E-1
1.001854271E0,-2.937464416E-1,-5.978792161E-2,2.679138184E-1
1.004342031E0,-3.001380265E-1,-5.552686751E-2,2.732401192E-1
1.006829792E0,-3.065296113E-1,-5.126581341E-2,2.775011659E-1
1.009317552E0,-3.118559420E-1,-4.913528636E-2,2.817622423E-1
1.011805312E0,-3.171822429E-1,-4.700475931E-2,2.870885432E-1
1.014293073E0,-3.235738277E-1,-4.487423226E-2,2.924148738E-1
1.016780833E0,-3.289001584E-1,-4.274370521E-2,2.977411747E-1
1.019268594E0,-3.342264593E-1,-4.274370521E-2,3.030675054E-1
1.021756354E0,-3.395527899E-1,-4.274370521E-2,3.094590902E-1
1.024244114E0,-3.448790908E-1,-4.487423226E-2,3.158506751E-1
1.026731875E0,-3.502054214E-1,-5.020054802E-2,3.222422600E-1
1.029219635E0,-3.555317521E-1,-5.872265995E-2,3.286338449E-1
1.031707396E0,-3.619233072E-1,-6.937529147E-2,3.360906839E-1
1.034195156E0,-3.683148921E-1,-8.322372288E-2,3.424822688E-1
1.036682917E0,-3.757717609E-1,-9.707214683E-2,3.499391079E-1
1.039170677E0,-3.832286000E-1,-1.098553166E-1,3.573959470E-1
1.041658437E0,-3.906854391E-1,-1.215732098E-1,3.648527861E-1
1.044146198E0,-3.970770240E-1,-1.300953180E-1,3.712443709E-1
1.046633958E0,-4.024033546E-1,-1.364869028E-1,3.765707016E-1
1.049121719E0,-4.055991173E-1,-1.386174262E-1,3.818970025E-1
1.051609479E0,-4.087949097E-1,-1.386174262E-1,3.850927949E-1
1.054097239E0,-4.119907022E-1,-1.364869028E-1,3.893538713E-1
1.056585000E0,-4.173170328E-1,-1.343563795E-1,3.957454562E-1
1.059072760E0,-4.215780795E-1,-1.322258562E-1,4.042675495E-1
1.061560521E0,-4.279696643E-1,-1.311605871E-1,4.170507193E-1
1.064048281E0,-4.322307110E-1,-1.311605871E-1,4.340949357E-1
1.066536042E0,-4.354265034E-1,-1.343563795E-1,4.564654827E-1
1.069023802E0,-4.375570416E-1,-1.386174262E-1,4.809665382E-1
1.071511562E0,-4.375570416E-1,-1.460742801E-1,5.086634159E-1
1.073999323E0,-4.375570416E-1,-1.556616426E-1,5.384907722E-1
1.076487083E0,-4.364917874E-1,-1.673795432E-1,5.693834424E-1
1.078974844E0,-4.354265034E-1,-1.790974438E-1,6.024065614E-1
1.081462604E0,-4.332959950E-1,-1.897500902E-1,6.354297400E-1
1.083950364E0,-4.332959950E-1,-1.982721984E-1,6.705834866E-1
1.086438125E0,-4.311654568E-1,-2.035985142E-1,7.036066055E-1
1.088925885E0,-4.332959950E-1,-2.046637833E-1,7.344992757E-1
1.091413646E0,-4.375570416E-1,-2.025332451E-1,7.632613778E-1
1.093901406E0,-4.407528341E-1,-1.961416751E-1,7.898929715E-1
1.096389167E0,-4.428833723E-1,-1.876195520E-1,8.122635484E-1
1.098876927E0,-4.460791349E-1,-1.790974438E-1,8.293077350E-1
1.101364687E0,-4.492749274E-1,-1.695100814E-1,8.442214131E-1
1.103852448E0,-4.503402114E-1,-1.588574350E-1,8.548740745E-1
1.106340208E0,-4.492749274E-1,-1.492700726E-1,8.623309135E-1
1.108827969E0,-4.471444190E-1,-1.375521719E-1,8.633961678E-1
1.111315729E0,-4.428833723E-1,-1.258342713E-1,8.612656593E-1
1.113803489E0,-4.386222959E-1,-1.162468940E-1,8.559393287E-1
1.116291250E0,-4.364917874E-1,-1.077247858E-1,8.474172354E-1
1.118779010E0,-4.364917874E-1,-1.023984700E-1,8.378298283E-1
1.121266771E0,-4.407528341E-1,-9.920267761E-2,8.282424808E-1
1.123754531E0,-4.450138807E-1,-9.707214683E-2,8.207856417E-1
1.126242292E0,-4.492749274E-1,-9.707214683E-2,8.143940568E-1
1.128730052E0,-4.524707198E-1,-9.813741595E-2,8.101329803E-1
1.131217812E0,-4.535360038E-1,-1.013332009E-1,8.048067093E-1
1.133705573E0,-4.524707198E-1,-1.066595241E-1,7.984151244E-1
1.136193333E0,-4.524707198E-1,-1.162468940E-1,7.930887938E-1
1.138681094E0,-4.514054656E-1,-1.300953180E-1,7.877624631E-1
1.141168854E0,-4.514054656E-1,-1.471395344E-1,7.835013866E-1
1.143656614E0,-4.514054656E-1,-1.641837656E-1,7.803056240E-1
1.146144375E0,-4.503402114E-1,-1.812279820E-1,7.749792933E-1
1.148632083E0,-4.482096732E-1,-1.972069293E-1,7.685877085E-1
1.151119792E0,-4.450138807E-1,-2.089248300E-1,7.590003610E-1
1.153607500E0,-4.418180883E-1,-2.185122073E-1,7.462171912E-1
1.156095208E0,-4.407528341E-1,-2.238385230E-1,7.302381992E-1
1.158582917E0,-4.418180883E-1,-2.270343155E-1,7.131940126E-1
1.161070625E0,-4.460791349E-1,-2.249037921E-1,6.972150803E-1
1.163558333E0,-4.503402114E-1,-2.174469382E-1,6.833665967E-1
1.166046042E0,-4.556665123E-1,-2.078595608E-1,6.727139950E-1
1.168533750E0,-4.577970505E-1,-2.014679909E-1,6.620613337E-1
1.171021458E0,-4.609928429E-1,-1.961416751E-1,6.546044946E-1
1.173509167E0,-4.609928429E-1,-1.950764060E-1,6.471476555E-1
1.175996875E0,-4.577970505E-1,-1.940111369E-1,6.407560706E-1
1.178484583E0,-4.524707198E-1,-1.950764060E-1,6.354297400E-1
1.180972292E0,-4.482096732E-1,-1.982721984E-1,6.332992315E-1
1.183460000E0,-4.460791349E-1,-1.993374527E-1,6.332992315E-1
1.185947708E0,-4.439486265E-1,-2.004027218E-1,6.354297400E-1
1.188435417E0,-4.418180883E-1,-2.004027218E-1,6.386255622E-1
1.190923125E0,-4.407528341E-1,-2.004027218E-1,6.428865790E-1
1.193410833E0,-4.386222959E-1,-2.004027218E-1,6.492781639E-1
1.195898542E0,-4.386222959E-1,-1.950764060E-1,6.556697488E-1
1.198386250E0,-4.354265034E-1,-1.844237745E-1,6.620613337E-1
1.200873958E0,-4.386222959E-1,-1.918806136E-1,6.673876643E-1
1.203361667E0,-4.386222959E-1,-2.078595608E-1,6.695181727E-1
1.205849375E0,-4.322307110E-1,-2.259690464E-1,6.663224101E-1
1.208337083E0,-4.269044101E-1,-2.504701018E-1,6.588655710E-1
1.210824792E0,-4.247738719E-1,-2.824280262E-1,6.503434777E-1
1.213312500E0,-4.247738719E-1,-3.292996287E-1,6.396908164E-1
1.215800208E0,-4.258391261E-1,-3.857586086E-1,6.279729009E-1
1.218287917E0,-4.279696643E-1,-4.347607195E-1,6.173202991E-1
1.220775625E0,-4.258391261E-1,-4.720449448E-1,6.077328920E-1
1.223263333E0,-4.205128253E-1,-4.965460002E-1,5.970802903E-1
1.225751042E0,-4.162517786E-1,-5.157207847E-1,5.853623748E-1
1.228238750E0,-4.130559862E-1,-5.316997170E-1,5.747097135E-1
1.230726458E0,-4.130559862E-1,-5.455481410E-1,5.651223660E-1
1.233214167E0,-4.173170328E-1,-5.604618192E-1,5.587307811E-1
1.235701875E0,-4.258391261E-1,-5.721797347E-1,5.566002727E-1
1.238189583E0,-4.375570416E-1,-5.785713196E-1,5.555350184E-1
1.240677292E0,-4.503402114E-1,-5.870934129E-1,5.544697046E-1
1.243165052E0,-4.631233811E-1,-5.870934129E-1,5.555350184E-1
1.245652812E0,-4.748412669E-1,-5.689839721E-1,5.566002727E-1
1.248140573E0,-4.844286442E-1,-5.348954797E-1,5.587307811E-1
1.250628333E0,-4.940160215E-1,-4.912196994E-1,5.608612895E-1
1.253116094E0,-5.036033988E-1,-4.432828426E-1,5.629918575E-1
1.255603854E0,-5.153213143E-1,-3.942807019E-1,5.651223660E-1
1.258091614E0,-5.291697383E-1,-3.452785909E-1,5.683181286E-1
1.260579375E0,-5.419528484E-1,-2.984069884E-1,5.757750273E-1
1.263067135E0,-5.547360182E-1,-2.536658943E-1,5.853623748E-1
1.265554896E0,-5.653886795E-1,-2.110553533E-1,5.970802903E-1
1.268042656E0,-5.728455186E-1,-1.705753356E-1,6.077328920E-1
1.270530417E0,-5.781718493E-1,-1.322258562E-1,6.141244769E-1
1.273018177E0,-5.792371035E-1,-9.920267761E-2,6.151897311E-1
1.275505937E0,-5.803023577E-1,-7.044056058E-2,6.119939685E-1
1.277993698E0,-5.824328661E-1,-4.913528636E-2,6.034718752E-1
1.280481458E0,-5.856286883E-1,-3.315633163E-2,5.896234512E-1
1.282969219E0,-5.898897648E-1,-2.356895804E-2,5.725792050E-1
1.285456979E0,-5.909550190E-1,-2.143843099E-2,5.534044504E-1
1.287944739E0,-5.909550190E-1,-2.676474862E-2,5.363602638E-1
1.290432500E0,-5.866939425E-1,-3.635212034E-2,5.193160176E-1
1.292920260E0,-5.792371035E-1,-5.233107507E-2,5.022718310E-1
1.295408021E0,-5.707150102E-1,-7.470161468E-2,4.830970466E-1
1.297895781E0,-5.600623488E-1,-1.013332009E-1,4.617917836E-1
1.300383542E0,-5.472791791E-1,-1.247690022E-1,4.436823130E-1
1.302871302E0,-5.408875942E-1,-1.503353268E-1,4.298338890E-1
1.305359062E0,-5.408875942E-1,-1.886848211E-1,4.170507193E-1
1.307846823E0,-5.472791791E-1,-2.462090552E-1,4.074633420E-1
1.310334583E0,-5.536707640E-1,-2.994722426E-1,4.010717571E-1
1.312822344E0,-5.536707640E-1,-3.239732981E-1,4.000065029E-1
1.315310104E0,-5.419528484E-1,-3.165164590E-1,3.978759646E-1
1.317797864E0,-5.217128396E-1,-2.888196111E-1,3.936149180E-1
1.320285625E0,-4.982770681E-1,-2.515353858E-1,3.850927949E-1
1.322773385E0,-4.748412669E-1,-2.089248300E-1,3.744401634E-1
1.325261354E0,-4.524707198E-1,-1.641837656E-1,3.659180701E-1
1.327749323E0,-4.343612492E-1,-1.183774248E-1,3.637875319E-1
1.330237292E0,-4.162517786E-1,-7.257108390E-2,3.669833243E-1
1.332725052E0,-3.992075622E-1,-2.783001214E-2,3.733749092E-1
1.335212760E0,-3.810980618E-1,1.691105962E-2,3.818970025E-1
1.337700469E0,-3.619233072E-1,5.952160433E-2,3.861580789E-1
1.340188177E0,-3.406180441E-1,9.893636405E-2,3.872233331E-1
1.342675885E0,-3.193127811E-1,1.362205893E-1,3.829622865E-1
1.345163594E0,-2.990727723E-1,1.692437679E-1,3.733749092E-1
1.347651302E0,-2.788327634E-1,1.990711391E-1,3.605917394E-1
1.350139010E0,-2.607232630E-1,2.235722095E-1,3.456780612E-1
1.352626719E0,-2.426137924E-1,2.438122183E-1,3.296990991E-1
1.355114427E0,-2.234390527E-1,2.597911656E-1,3.126548827E-1
1.357602135E0,-2.042642981E-1,2.715090811E-1,2.934801280E-1
1.360089844E0,-1.861548275E-1,2.810964286E-1,2.743053734E-1
1.362577552E0,-1.680453420E-1,2.885532975E-1,2.508696020E-1
1.365065260E0,-1.520663798E-1,2.906838059E-1,2.253032625E-1
1.367552969E0,-1.392832249E-1,2.874880135E-1,1.976063997E-1
1.370040677E0,-1.275653243E-1,2.789659202E-1,1.709748209E-1
1.372528385E0,-1.190432087E-1,2.640522122E-1,1.475390196E-1
1.375016094E0,-1.115863696E-1,2.448774725E-1,1.272990108E-1
1.377503802E0,-1.030642539E-1,2.235722095E-1,1.123853177E-1
1.379991510E0,-9.560741484E-2,2.012016773E-1,1.017326787E-1
1.382479219E0,-8.708529919E-2,1.830921918E-1,9.427583218E-2
1.384966927E0,-7.749792933E-2,1.681784987E-1,9.108003974E-2
1.387454635E0,-6.897582114E-2,1.585911214E-1,8.788424730E-2
1.389942344E0,-6.151897460E-2,1.532648057E-1,8.788424730E-2
1.392430052E0,-5.725792050E-2,1.511342824E-1,8.894951642E-2
1.394917760E0,-5.406212807E-2,1.511342824E-1,9.321057051E-2
1.397405469E0,-5.193160102E-2,1.521995366E-1,9.960214794E-2
1.399893177E0,-5.086633936E-2,1.532648057E-1,1.091895252E-1
1.402380885E0,-4.873581231E-2,1.543300748E-1,1.209074259E-1
1.404868594E0,-4.447475821E-2,1.543300748E-1,1.326253265E-1
1.407356302E0,-3.914843872E-2,1.521995366E-1,1.443432271E-1
1.409844010E0,-3.169159219E-2,1.521995366E-1,1.560611278E-1
1.412331719E0,-2.423474751E-2,1.521995366E-1,1.656484902E-1
1.414819427E0,-1.571263932E-2,1.532648057E-1,1.720400751E-1
1.417307135E0,-8.255792782E-3,1.553953290E-1,1.752358675E-1
1.419794844E0,-7.989477599E-4,1.543300748E-1,1.741705984E-1
1.422282552E0,6.657897960E-3,1.521995366E-1,1.709748209E-1
1.424770260E0,1.304947957E-2,1.468732208E-1,1.645832360E-1
1.427257969E0,1.837579720E-2,1.383511126E-1,1.571263820E-1
1.429745729E0,2.157158963E-2,1.266332120E-1,1.507348120E-1
1.432233489E0,2.583264373E-2,1.138500497E-1,1.432779580E-1
1.434721250E0,2.902843431E-2,1.021321490E-1,1.379516423E-1
1.437209010E0,3.435475379E-2,9.254477918E-2,1.315600574E-1
1.439696771E0,3.755054250E-2,8.721846342E-2,1.262337416E-1
1.442184531E0,4.074633494E-2,8.721846342E-2,1.198421568E-1
1.444672292E0,4.287686199E-2,9.147951752E-2,1.134505793E-1
1.447160052E0,4.394212365E-2,1.021321490E-1,1.070589945E-1
1.449647812E0,4.394212365E-2,1.170458421E-1,1.006674170E-1
1.452135573E0,4.287686199E-2,1.351553202E-1,9.427583218E-2
1.454623333E0,4.181159660E-2,1.543300748E-1,8.894951642E-2
1.457111094E0,4.074633494E-2,1.745700836E-1,8.255793154E-2
1.459598854E0,3.968106955E-2,1.926795542E-1,7.936213911E-2
1.462086614E0,4.074633494E-2,2.097237855E-1,7.616634667E-2
1.464574375E0,4.074633494E-2,2.257027328E-1,7.403582335E-2
1.467062135E0,4.181159660E-2,2.384859025E-1,7.297056168E-2
1.469549896E0,4.287686199E-2,2.480732650E-1,7.297056168E-2
1.472037656E0,4.287686199E-2,2.533995807E-1,7.084003091E-2
1.474525417E0,4.287686199E-2,2.555301189E-1,6.870950758E-2
1.477013177E0,4.287686199E-2,2.533995807E-1,6.551371515E-2
1.479500937E0,4.287686199E-2,2.491385341E-1,6.231792271E-2
1.481988698E0,4.181159660E-2,2.406164259E-1,5.699160323E-2
1.484476458E0,4.181159660E-2,2.310290486E-1,5.273054913E-2
1.486964219E0,4.181159660E-2,2.193111479E-1,4.740423337E-2
1.489451979E0,4.287686199E-2,2.065279931E-1,4.314317927E-2
1.491939739E0,4.394212365E-2,1.905490309E-1,3.781685978E-2
1.494427500E0,4.500738904E-2,1.745700836E-1,3.249054030E-2
1.496915260E0,4.500738904E-2,1.596563905E-1,2.822948620E-2
1.499403021E0,4.394212365E-2,1.458079666E-1,2.396843210E-2
1.501890781E0,4.394212365E-2,1.340900660E-1,2.077264152E-2
1.504378542E0,4.181159660E-2,1.266332120E-1,1.864211448E-2
1.506866302E0,3.861580789E-2,1.223721579E-1,1.864211448E-2
1.509354062E0,3.542001545E-2,1.202416345E-1,2.183790505E-2
1.511841823E0,3.115896136E-2,1.202416345E-1,2.716422267E-2
1.514329583E0,2.796317078E-2,1.234374270E-1,3.249054030E-2
1.516817344E0,2.476738021E-2,1.298290044E-1,3.994738683E-2
1.519305104E0,2.157158963E-2,1.383511126E-1,4.740423337E-2
1.521792864E0,1.944106072E-2,1.490037590E-1,5.379581451E-2
1.524280625E0,1.731053367E-2,1.617869139E-1,6.018739566E-2
1.526768385E0,1.411474310E-2,1.745700836E-1,6.870950758E-2
1.529256146E0,1.198421605E-2,1.873532385E-1,7.723161578E-2
1.531743906E0,8.788425475E-3,2.012016773E-1,8.575372398E-2
1.534231667E0,7.723161485E-3,2.139848322E-1,9.534109384E-2
1.536719427E0,6.657897960E-3,2.278332561E-1,1.027979404E-1
1.539207187E0,7.723161485E-3,2.395511568E-1,1.102547869E-1
1.541694948E0,9.853689000E-3,2.502037883E-1,1.155811027E-1
1.544182708E0,1.304947957E-2,2.576606572E-1,1.177116334E-1
1.546670469E0,1.411474310E-2,2.640522122E-1,1.187768951E-1
1.549158229E0,1.837579720E-2,2.651174963E-1,1.155811027E-1
1.551645989E0,2.263685316E-2,2.629869580E-1,1.123853177E-1
1.554133750E0,2.689790726E-2,2.576606572E-1,1.081242561E-1
1.556621510E0,3.222422674E-2,2.491385341E-1,1.027979404E-1
1.559109271E0,3.755054250E-2,2.363553643E-1,9.853688627E-2
1.561597031E0,4.181159660E-2,2.225069404E-1,9.321057051E-2
1.564084792E0,4.713791609E-2,2.075932473E-1,8.788424730E-2
1.566572552E0,5.139897019E-2,1.916143000E-1,8.255793154E-2
1.569060312E0,5.566002429E-2,1.767006069E-1,7.723161578E-2
1.571548073E0,5.992107838E-2,1.607216448E-1,7.084003091E-2
1.574035833E0,6.205160543E-2,1.468732208E-1,6.444845349E-2
1.576523594E0,6.524740160E-2,1.319595277E-1,5.592634156E-2
1.579011354E0,6.524740160E-2,1.159805804E-1,4.740423337E-2
1.581499114E0,6.524740160E-2,1.010668874E-1,3.888212144E-2
1.583986875E0,6.418213248E-2,8.615319431E-2,3.142527863E-2
1.586474635E0,6.311687082E-2,7.123950869E-2,2.609895915E-2
1.588962396E0,6.205160543E-2,5.739107728E-2,2.183790505E-2
1.591451146E0,6.098634377E-2,4.673844203E-2,1.970737800E-2
1.593937917E0,5.885581672E-2,3.928159550E-2,1.864211448E-2
1.596424687E0,5.566002429E-2,3.608580679E-2,1.970737800E-2
1.598911510E0,5.246423557E-2,3.608580679E-2,2.290316857E-2
1.601398437E0,4.820318148E-2,4.034686089E-2,2.822948620E-2
1.603885469E0,4.287686199E-2,4.780370742E-2,3.462106735E-2
1.606372656E0,3.861580789E-2,5.632581562E-2,4.207791388E-2
1.608860000E0,3.328948840E-2,6.591318548E-2,5.060002208E-2
1.611347500E0,2.796317078E-2,7.656582445E-2,5.912213027E-2
1.613835156E0,2.370211668E-2,8.721846342E-2,6.870950758E-2
1.616322969E0,1.944106072E-2,9.787109494E-2,7.829687744E-2
1.618810937E0,1.731053367E-2,1.063932031E-1,8.788424730E-2
1.621299062E0,1.518000662E-2,1.138500497E-1,9.640636295E-2
1.623787292E0,1.518000662E-2,1.181111038E-1,1.049284711E-1
1.626275625E0,1.518000662E-2,1.191763729E-1,1.134505793E-1
1.628764010E0,1.624527015E-2,1.170458421E-1,1.198421568E-1
1.631252448E0,1.837579720E-2,1.127847880E-1,1.241032109E-1
1.633740885E0,2.157158963E-2,1.053279415E-1,1.262337416E-1
1.636229323E0,2.689790726E-2,9.787109494E-2,1.272990108E-1
1.638717292E0,3.222422674E-2,8.721846342E-2,1.262337416E-1
1.641205000E0,3.648528084E-2,7.443529367E-2,1.241032109E-1
1.643692708E0,4.287686199E-2,6.058686972E-2,1.198421568E-1
1.646180417E0,4.926844314E-2,4.567318037E-2,1.145158410E-1
1.648668125E0,5.672528967E-2,2.862896025E-2,1.081242561E-1
1.651155833E0,6.631266326E-2,1.051947847E-2,1.006674170E-1
1.653643542E0,7.590003312E-2,-8.655266836E-3,9.214530140E-2
1.656131250E0,8.548741043E-2,-2.676474862E-2,8.255793154E-2
1.658618958E0,9.614004195E-2,-4.380896688E-2,6.977476925E-2
1.661106667E0,1.078579426E-1,-5.978792161E-2,5.699160323E-2
1.663594375E0,1.195758432E-1,-7.257108390E-2,4.314317927E-2
1.666082083E0,1.334242672E-1,-8.215846121E-2,2.822948620E-2
1.668569792E0,1.462074369E-1,-8.855003864E-2,1.331579592E-2
1.671057500E0,1.579253376E-1,-9.387636185E-2,-2.663159044E-3
1.673545208E0,1.707084924E-1,-9.920267761E-2,-1.970737800E-2
1.676032917E0,1.834916621E-1,-1.045289934E-1,-3.781685978E-2
1.678520625E0,1.962748319E-1,-1.098553166E-1,-5.592634156E-2
1.681008333E0,2.111885101E-1,-1.141163707E-1,-7.616634667E-2
1.683496042E0,2.250369489E-1,-1.173121557E-1,-9.534109384E-2
1.685983750E0,2.399506420E-1,-1.183774248E-1,-1.155811027E-1
1.688471458E0,2.559295893E-1,-1.162468940E-1,-1.379516423E-1
1.690959167E0,2.719085515E-1,-1.087900475E-1,-1.603221744E-1
1.693446875E0,2.878875136E-1,-9.600688517E-2,-1.816274524E-1
1.695934583E0,3.028011918E-1,-7.683213800E-2,-2.050632536E-1
1.698422292E0,3.187801540E-1,-5.339634046E-2,-2.263685167E-1
1.700910000E0,3.326285779E-1,-2.569948509E-2,-2.476737946E-1
1.703397708E0,3.454117477E-1,4.127896391E-3,-2.700443268E-1
1.705885417E0,3.571296334E-1,3.289001435E-2,-2.913496196E-1
1.708373125E0,3.688475490E-1,6.165213138E-2,-3.126548827E-1
1.710860833E0,3.805654347E-1,8.615319431E-2,-3.350254297E-1
1.713348542E0,3.922833502E-1,1.053279415E-1,-3.563306928E-1
1.715836250E0,4.040012360E-1,1.213068962E-1,-3.765707016E-1
1.718323958E0,4.167844057E-1,1.298290044E-1,-3.957454562E-1
1.720811667E0,4.316980839E-1,1.351553202E-1,-4.159854650E-1
1.723299375E0,4.487423003E-1,1.383511126E-1,-4.351601899E-1
1.725787083E0,4.679170549E-1,1.372858584E-1,-4.554001987E-1
1.728274792E0,4.913528562E-1,1.340900660E-1,-4.767054915E-1
1.730762500E0,5.169191957E-1,1.276984811E-1,-5.001412630E-1
1.733250208E0,5.435507894E-1,1.181111038E-1,-5.257076025E-1
1.735737917E0,5.712476373E-1,1.053279415E-1,-5.534044504E-1
1.738225677E0,5.946834087E-1,8.721846342E-2,-5.811012983E-1
1.740713437E0,6.170539856E-1,6.697845459E-2,-6.098634601E-1
1.743201198E0,6.351634264E-1,4.780370742E-2,-6.364950538E-1
1.745688958E0,6.532729268E-1,3.395527974E-2,-6.599308252E-1
1.748176719E0,6.713824272E-1,2.756369673E-2,-6.823013425E-1
1.750664479E0,6.916224360E-1,3.182475269E-2,-7.046719193E-1
1.753152239E0,7.118624449E-1,4.354264960E-2,-7.259771824E-1
1.755640000E0,7.310371995E-1,6.165213138E-2,-7.462171912E-1
1.758127760E0,7.491466403E-1,8.189214021E-2,-7.675224543E-1
1.760615521E0,7.651256323E-1,9.893636405E-2,-7.877624631E-1
1.763103281E0,7.779088020E-1,1.106542572E-1,-8.048067093E-1
1.765591042E0,7.874961495E-1,1.159805804E-1,-8.197203875E-1
1.768078802E0,7.960182428E-1,1.191763729E-1,-8.282424808E-1
1.770566562E0,8.034750819E-1,1.213068962E-1,-8.325035572E-1
1.773054323E0,8.109319210E-1,1.298290044E-1,-8.303729892E-1
1.775542083E0,8.183888197E-1,1.468732208E-1,-8.261119723E-1
1.778029844E0,8.247803450E-1,1.745700836E-1,-8.186551332E-1
1.780517604E0,8.301066756E-1,2.139848322E-1,-8.111982346E-1
1.783005364E0,8.333024979E-1,2.640522122E-1,-8.058719635E-1
1.785493125E0,8.333024979E-1,3.205111921E-1,-8.016108871E-1
1.787980885E0,8.322372437E-1,3.780354261E-1,-7.984151244E-1
1.790468646E0,8.322372437E-1,4.323638678E-1,-7.962845564E-1
1.792956406E0,8.311719298E-1,4.792354703E-1,-7.952193022E-1
1.795444167E0,8.322372437E-1,5.143891573E-1,-7.941540480E-1
1.797931927E0,8.333024979E-1,5.367597342E-1,-7.941540480E-1
1.800419687E0,8.364982605E-1,5.495429039E-1,-7.941540480E-1
1.802907448E0,8.418245912E-1,5.548691750E-1,-7.941540480E-1
1.805395208E0,8.503466845E-1,5.580649972E-1,-7.962845564E-1
1.807882969E0,8.631298542E-1,5.601955056E-1,-8.016108871E-1
1.810370729E0,8.801741004E-1,5.623260736E-1,-8.101329803E-1
1.812858489E0,8.993488550E-1,5.655218363E-1,-8.239814043E-1
1.815346250E0,9.217193723E-1,5.655218363E-1,-8.410256505E-1
1.817834010E0,9.451551437E-1,5.623260736E-1,-8.612656593E-1
1.820321771E0,9.675257206E-1,5.527386665E-1,-8.836361766E-1
1.822809531E0,9.867004752E-1,5.356944799E-1,-9.070720077E-1
1.825297292E0,9.994835854E-1,5.122586489E-1,-9.305077791E-1
1.827785052E0,1.008005738E0,4.877575934E-1,-9.550088644E-1
1.830272812E0,1.012266755E0,4.685828388E-1,-9.784446359E-1
1.832760573E0,1.014397264E0,4.600607455E-1,-1.001880407E0
1.835248333E0,1.017593145E0,4.643217921E-1,-1.026381493E0
1.837736094E0,1.018658400E0,4.845618010E-1,-1.051947832E0
1.840223854E0,1.019723654E0,5.175849795E-1,-1.080709934E0
1.842711614E0,1.019723654E0,5.580649972E-1,-1.110537291E0
1.845199427E0,1.016527772E0,5.974797606E-1,-1.140364766E0
1.847687239E0,1.012266755E0,6.294376254E-1,-1.168061614E0
1.850175052E0,1.006940484E0,6.454166174E-1,-1.191497326E0
1.852662864E0,1.002679348E0,6.411555409E-1,-1.207476377E0
1.855150677E0,9.984183311E-1,6.145239472E-1,-1.214933157E0
1.857638489E0,9.962878227E-1,5.665870905E-1,-1.211737394E0
1.860126198E0,9.952225685E-1,4.973449707E-1,-1.197888970E0
1.862613906E0,9.962878227E-1,4.142543972E-1,-1.174453139E0
1.865101614E0,9.994835854E-1,3.205111921E-1,-1.143560529E0
1.867589323E0,1.003744721E0,2.246374637E-1,-1.105211020E0
1.870077031E0,1.012266755E0,1.308942735E-1,-1.062600493E0
1.872564739E0,1.025049925E0,4.354264960E-2,-1.016794205E0
1.875052448E0,1.041028857E0,-3.315633163E-2,-9.741836190E-1
1.877540156E0,1.061268926E0,-1.002679393E-1,-9.368993640E-1
1.880027864E0,1.081508875E0,-1.556616426E-1,-9.060067534E-1
1.882515573E0,1.100683689E0,-2.025332451E-1,-8.825709224E-1
1.885003437E0,1.113466859E0,-2.419480085E-1,-8.655267358E-1
1.887491302E0,1.119858384E0,-2.728406489E-1,-8.580698371E-1
1.889979114E0,1.117727876E0,-2.941459119E-1,-8.559393287E-1
1.892466823E0,1.110270977E0,-3.005374968E-1,-8.570045829E-1
1.894954531E0,1.098553181E0,-2.877543271E-1,-8.623309135E-1
1.897442239E0,1.085770011E0,-2.483395934E-1,-8.687224984E-1
1.899929948E0,1.075117350E0,-1.790974438E-1,-8.783098459E-1
1.902417656E0,1.066595197E0,-7.896266878E-2,-8.910930157E-1
1.904905364E0,1.061268926E0,4.567318037E-2,-9.081372619E-1
1.907393073E0,1.057007790E0,1.905490309E-1,-9.283772707E-1
1.909880781E0,1.051681519E0,3.450122476E-1,-9.539436102E-1
1.912368489E0,1.044224739E0,4.994754791E-1,-9.827057123E-1
1.914856198E0,1.030376315E0,6.422207952E-1,-1.011467814E0
1.917343906E0,1.011201501E0,7.625955939E-1,-1.039164662E0
1.919831614E0,9.877657294E-1,8.563387990E-1,-1.062600493E0
1.922319323E0,9.568730593E-1,9.191893935E-1,-1.080709934E0
1.924807031E0,9.206541181E-1,9.479514956E-1,-1.090297341E0
1.927294739E0,8.812393546E-1,9.447556734E-1,-1.090297341E0
1.929782448E0,8.375635147E-1,9.127978086E-1,-1.077514172E0
1.932270156E0,7.949529886E-1,8.563387990E-1,-1.054078341E0
1.934757864E0,7.555382252E-1,7.807050943E-1,-1.016794205E0
1.937245573E0,7.203845382E-1,6.922882199E-1,-9.699225426E-1
1.939733281E0,6.926876903E-1,5.974797606E-1,-9.134635925E-1
1.942220989E0,6.713824272E-1,5.005407333E-1,-8.516782522E-1
1.944708698E0,6.564686894E-1,4.078628123E-1,-7.856319547E-1
1.947196406E0,6.490118504E-1,3.226417303E-1,-7.163897753E-1
1.949684114E0,6.447508335E-1,2.459427416E-1,-6.492781639E-1
1.952171823E0,6.447508335E-1,1.798963994E-1,-5.842971206E-1
1.954659531E0,6.447508335E-1,1.223721579E-1,-5.246423483E-1
1.957147239E0,6.436855793E-1,7.443529367E-2,-4.724444151E-1
1.959634948E0,6.426202655E-1,3.395527974E-2,-4.266380966E-1
1.962122656E0,6.404897571E-1,3.062632866E-3,-3.872233331E-1
1.964610364E0,6.415550113E-1,-1.824264042E-2,-3.563306928E-1
1.967098073E0,6.479465961E-1,-2.569948509E-2,-3.307643533E-1
1.969585781E0,6.607297659E-1,-2.143843099E-2,-3.115896285E-1
1.972073489E0,6.799045205E-1,-7.590003312E-3,-2.977411747E-1
1.974561198E0,7.012097836E-1,9.454214945E-3,-2.913496196E-1
1.977048906E0,7.225150466E-1,2.436790615E-2,-2.913496196E-1
1.979536614E0,7.384940386E-1,3.395527974E-2,-2.977411747E-1
1.982024323E0,7.491466403E-1,3.395527974E-2,-3.094590902E-1
1.984512031E0,7.544729710E-1,2.649843320E-2,-3.265033066E-1
1.986999739E0,7.566034794E-1,1.904158667E-2,-3.456780612E-1
1.989487500E0,7.576687932E-1,1.478053257E-2,-3.659180701E-1
1.991975260E0,7.576687932E-1,1.904158667E-2,-3.850927949E-1
1.994463021E0,7.544729710E-1,3.821633384E-2,-4.000065029E-1
1.996950781E0,7.502118945E-1,7.656582445E-2,-4.117243886E-1
1.999438542E0,7.406245470E-1,1.351553202E-1,-4.213117659E-1
2.001926302E0,7.246456146E-1,2.129195631E-1,-4.287686050E-1
2.004414062E0,7.022750378E-1,3.098585606E-1,-4.351601899E-1
2.006901823E0,6.713824272E-1,4.195807278E-1,-4.404865205E-1
2.009389583E0,6.319676638E-1,5.356944799E-1,-4.468781054E-1
2.011877344E0,5.861613154E-1,6.496776342E-1,-4.554001987E-1
2.014365104E0,5.328981280E-1,7.540735006E-1,-4.660528302E-1
2.016852864E0,4.743086398E-1,8.403598666E-1,-4.777707458E-1
2.019340625E0,4.157191217E-1,9.032104015E-1,-4.873581231E-1
2.021828385E0,3.592601717E-1,9.394294024E-1,-4.948149621E-1
2.024316146E0,3.091927767E-1,9.447556734E-1,-4.990760088E-1
2.026803906E0,2.644517124E-1,9.223851562E-1,-4.969455004E-1
2.029291667E0,2.271674722E-1,8.723177910E-1,-4.894886315E-1
2.031779427E0,1.973400861E-1,8.020103574E-1,-4.756402075E-1
2.034267187E0,1.717737615E-1,7.167892456E-1,-4.543349445E-1
2.036754948E0,1.504684836E-1,6.230461001E-1,-4.266380966E-1
2.039242708E0,1.344895363E-1,5.271723270E-1,-3.946801722E-1
2.041730469E0,1.227716357E-1,4.355596602E-1,-3.584612012E-1
2.044218229E0,1.153147891E-1,3.524691164E-1,-3.233075142E-1
2.046705989E0,1.142495275E-1,2.800311744E-1,-2.902843356E-1
2.049193750E0,1.163800508E-1,2.193111479E-1,-2.604569495E-1
2.051681510E0,1.174453199E-1,1.660479754E-1,-2.380864173E-1
2.054169271E0,1.153147891E-1,1.149153188E-1,-2.253032625E-1
2.056657031E0,1.089232042E-1,6.378266215E-2,-2.231727391E-1
2.059144792E0,9.933583438E-2,1.371526904E-2,-2.306295782E-1
2.061632552E0,9.187898785E-2,-3.209106624E-2,-2.487390637E-1
2.064120312E0,8.868319541E-2,-6.617950648E-2,-2.743053734E-1
2.066608073E0,9.187898785E-2,-8.641951531E-2,-3.073285520E-1
2.069095833E0,1.025316268E-1,-8.748477697E-2,-3.435475230E-1
2.071583594E0,1.153147891E-1,-6.617950648E-2,-3.797664940E-1
2.074071354E0,1.249021590E-1,-2.569948509E-2,-4.138549268E-1
2.076559114E0,1.259674281E-1,3.182475269E-2,-4.436823130E-1
2.079046875E0,1.131842583E-1,1.021321490E-1,-4.681833684E-1
2.081534635E0,8.548741043E-2,1.788311303E-1,-4.873581231E-1
2.084022396E0,4.607265070E-2,2.555301189E-1,-5.001412630E-1
2.086510156E0,-1.864211401E-3,3.247722387E-1,-5.075981021E-1
2.088997917E0,-5.512739345E-2,3.833617568E-1,-5.075981021E-1
2.091486667E0,-1.083905771E-1,4.281028211E-1,-5.012065172E-1
2.093973854E0,-1.573926955E-1,4.547344148E-1,-4.884233773E-1
2.096461042E0,-2.021337748E-1,4.643217921E-1,-4.692486227E-1
2.098948229E0,-2.426137924E-1,4.568649530E-1,-4.426170290E-1
2.101435469E0,-2.777675092E-1,4.355596602E-1,-4.074633420E-1
2.103922760E0,-3.097254038E-1,4.036017656E-1,-3.659180701E-1
2.106410104E0,-3.384875357E-1,3.641870022E-1,-3.179811835E-1
2.108897552E0,-3.661843836E-1,3.205111921E-1,-2.657832801E-1
2.111385104E0,-3.906854391E-1,2.779006660E-1,-2.103895694E-1
2.113872760E0,-4.109254479E-1,2.374206334E-1,-1.549958587E-1
2.116360521E0,-4.279696643E-1,2.043974549E-1,-9.960214794E-2
2.118848385E0,-4.396875799E-1,1.756353378E-1,-4.953476042E-2
2.121336354E0,-4.450138807E-1,1.521995366E-1,-5.858949851E-3
2.123824375E0,-4.482096732E-1,1.330247968E-1,3.142527863E-2
2.126312448E0,-4.482096732E-1,1.127847880E-1,6.231792271E-2
2.128800573E0,-4.471444190E-1,8.828372508E-2,8.468846232E-2
2.131288698E0,-4.460791349E-1,5.632581562E-2,9.960214794E-2
2.133776823E0,-4.471444190E-1,1.691105962E-2,1.049284711E-1
2.136264948E0,-4.471444190E-1,-2.996053919E-2,1.017326787E-1
2.138753073E0,-4.439486265E-1,-8.109319210E-2,9.214530140E-2
2.141240937E0,-4.354265034E-1,-1.290300637E-1,7.936213911E-2
2.143728646E0,-4.215780795E-1,-1.631184965E-1,6.870950758E-2
2.146216354E0,-4.024033546E-1,-1.759016514E-1,6.125266105E-2
2.148704062E0,-3.821633458E-1,-1.631184965E-1,5.912213027E-2
2.151191771E0,-3.651190996E-1,-1.247690022E-1,6.125266105E-2
2.153679479E0,-3.544664681E-1,-6.298371404E-2,6.657897681E-2
2.156167187E0,-3.555317521E-1,1.265000552E-2,7.510108501E-2
2.158654896E0,-3.704454303E-1,9.147951752E-2,8.149266988E-2
2.161142604E0,-3.981422782E-1,1.628521830E-1,8.894951642E-2
2.163630312E0,-4.375570416E-1,2.182458937E-1,9.427583218E-2
2.166118021E0,-4.812328517E-1,2.565953732E-1,9.960214794E-2
2.168605729E0,-5.249086618E-1,2.768353820E-1,1.059937328E-1
2.171093437E0,-5.653886795E-1,2.800311744E-1,1.145158410E-1
2.173581146E0,-5.994771123E-1,2.693785429E-1,1.262337416E-1
2.176068854E0,-6.239781976E-1,2.491385341E-1,1.422126889E-1
2.178556562E0,-6.410223842E-1,2.278332561E-1,1.624527127E-1
2.181044271E0,-6.516750455E-1,2.054627240E-1,1.858884990E-1
2.183531979E0,-6.570013762E-1,1.862879843E-1,2.125200927E-1
2.186019687E0,-6.591318846E-1,1.724395454E-1,2.423474789E-1
2.188507396E0,-6.601971388E-1,1.617869139E-1,2.721748650E-1
2.190995104E0,-6.601971388E-1,1.564605981E-1,3.030675054E-1
2.193482812E0,-6.601971388E-1,1.532648057E-1,3.307643533E-1
2.195970521E0,-6.559360623E-1,1.479384899E-1,3.563306928E-1
2.198458229E0,-6.495444775E-1,1.415469050E-1,3.787012100E-1
2.200945937E0,-6.378266215E-1,1.308942735E-1,3.957454562E-1
2.203433646E0,-6.197171211E-1,1.159805804E-1,4.095938802E-1
2.205921354E0,-5.952160358E-1,9.574057162E-2,4.213117659E-1
2.208409062E0,-5.664539337E-1,7.230477035E-2,4.308991432E-1
2.210896771E0,-5.323655009E-1,4.460791498E-2,4.383559823E-1
2.213384479E0,-4.961465299E-1,1.371526904E-2,4.479433596E-1
2.215872187E0,-4.567317963E-1,-2.356895804E-2,4.575307369E-1
2.218359896E0,-4.162517786E-1,-6.617950648E-2,4.671181142E-1
2.220847604E0,-3.747064769E-1,-1.151816323E-1,4.777707458E-1
2.223335312E0,-3.310306668E-1,-1.705753356E-1,4.894886315E-1
2.225823021E0,-2.841590643E-1,-2.323606312E-1,5.001412630E-1
2.228310729E0,-2.340916842E-1,-2.952111959E-1,5.097286701E-1
2.230798437E0,-1.797632426E-1,-3.569964767E-1,5.193160176E-1
2.233286146E0,-1.222390011E-1,-4.113249183E-1,5.278381109E-1
2.235773854E0,-6.258423626E-2,-4.539354742E-1,5.384907722E-1
2.238261614E0,-3.994738683E-3,-4.805670679E-1,5.512739420E-1
2.240749375E0,5.459476262E-2,-4.837628603E-1,5.629918575E-1
2.243237135E0,1.110537350E-1,-4.645881057E-1,5.757750273E-1
2.245724896E0,1.621863842E-1,-4.230428338E-1,5.896234512E-1
2.248212656E0,2.058621943E-1,-3.633880615E-1,6.024065614E-1
2.250700417E0,2.420811653E-1,-2.909501195E-1,6.141244769E-1
2.253188177E0,2.697780132E-1,-2.121206224E-1,6.258423924E-1
2.255675937E0,2.900180221E-1,-1.322258562E-1,6.364950538E-1
2.258163698E0,3.059969842E-1,-5.659212917E-2,6.471476555E-1
2.260651458E0,3.177148700E-1,1.158474199E-2,6.556697488E-1
2.263139219E0,3.283675313E-1,7.230477035E-2,6.641919017E-1
2.265626979E0,3.368896246E-1,1.245026886E-1,6.705834866E-1
2.268114739E0,3.464770019E-1,1.713742912E-1,6.748445034E-1
2.270602500E0,3.549990952E-1,2.139848322E-1,6.769750714E-1
2.273090260E0,3.613906801E-1,2.565953732E-1,6.780403256E-1
2.275578021E0,3.656517565E-1,3.002711833E-1,6.759097576E-1
2.278065781E0,3.656517565E-1,3.471427858E-1,6.705834866E-1
2.280553542E0,3.624559641E-1,3.972101808E-1,6.620613337E-1
2.283041302E0,3.539338410E-1,4.494080842E-1,6.492781639E-1
2.285529062E0,3.422159553E-1,5.005407333E-1,6.332992315E-1
2.288016823E0,3.262369931E-1,5.495429039E-1,6.119939685E-1
2.290504583E0,3.081275225E-1,5.910881758E-1,5.874928832E-1
2.292992344E0,2.878875136E-1,6.219807863E-1,5.597960353E-1
2.295480104E0,2.687127590E-1,6.400902867E-1,5.267728567E-1
2.297967864E0,2.495380044E-1,6.432861090E-1,4.916191697E-1
2.300455625E0,2.324937880E-1,6.305029392E-1,4.532696903E-1
2.302943385E0,2.175800949E-1,6.017407775E-1,4.127896726E-1
2.305431146E0,2.037316710E-1,5.591302514E-1,3.733749092E-1
2.307918906E0,1.920137703E-1,5.037365556E-1,3.360906839E-1
2.310406667E0,1.802958697E-1,4.334291518E-1,2.998717129E-1
2.312894427E0,1.685779691E-1,3.524691164E-1,2.657832801E-1
2.315382187E0,1.579253376E-1,2.597911656E-1,2.327601016E-1
2.317869948E0,1.483379602E-1,1.564605981E-1,2.018674612E-1
2.320357708E0,1.387505829E-1,4.567318037E-2,1.720400751E-1
2.322845469E0,1.291632205E-1,-7.044056058E-2,1.422126889E-1
2.325333229E0,1.185105816E-1,-1.908153445E-1,1.145158410E-1
2.327820989E0,1.078579426E-1,-3.090596199E-1,8.681898564E-2
2.330308750E0,9.827057272E-2,-4.230428338E-1,6.018739566E-2
2.332796510E0,8.868319541E-2,-5.295692086E-1,3.568633273E-2
2.335284271E0,8.122635633E-2,-6.254429221E-1,1.118526794E-2
2.337772031E0,7.483477145E-2,-7.085334659E-1,-1.331579592E-2
2.340259792E0,7.163897902E-2,-7.788408995E-1,-3.781685978E-2
2.342747552E0,6.950845569E-2,-8.352998495E-1,-6.231792271E-2
2.345235312E0,6.844318658E-2,-8.779103756E-1,-8.681898564E-2
2.347723073E0,6.737792492E-2,-9.066725373E-1,-1.091895252E-1
2.350210833E0,6.524740160E-2,-9.194557071E-1,-1.294295341E-1
2.352698594E0,6.205160543E-2,-9.183903933E-1,-1.486042738E-1
2.355186354E0,5.566002429E-2,-9.024114609E-1,-1.645832360E-1
2.357674114E0,4.500738904E-2,-8.747146130E-1,-1.794969290E-1
2.360161875E0,3.328948840E-2,-8.363651037E-1,-1.922800839E-1
2.362649635E0,1.837579720E-2,-7.905587554E-1,-2.039979845E-1
2.365137396E0,2.396843163E-3,-7.394261360E-1,-2.135853618E-1
2.367625156E0,-1.571263932E-2,-6.850976944E-1,-2.231727391E-1
2.370112917E0,-3.595264629E-2,-6.307692528E-1,-2.316948473E-1
2.372600677E0,-5.725792050E-2,-5.796365738E-1,-2.391516864E-1
2.375088437E0,-8.069372177E-2,-5.295692086E-1,-2.455432713E-1
2.377576198E0,-1.030642539E-1,-4.858933687E-1,-2.508696020E-1
2.380063958E0,-1.254348010E-1,-4.464786351E-1,-2.551306486E-1
2.382551719E0,-1.467400640E-1,-4.134554565E-1,-2.583264410E-1
2.385039479E0,-1.659148186E-1,-3.846933246E-1,-2.593916953E-1
2.387527239E0,-1.861548275E-1,-3.612575233E-1,-2.583264410E-1
2.390015000E0,-2.053295672E-1,-3.410175145E-1,-2.572611570E-1
2.392502760E0,-2.255695760E-1,-3.250385821E-1,-2.540653646E-1
2.394990521E0,-2.468748540E-1,-3.143859208E-1,-2.508696020E-1
2.397478281E0,-2.681801319E-1,-3.058638275E-1,-2.476737946E-1
2.399966042E0,-2.884201407E-1,-3.005374968E-1,-2.444780022E-1
2.402453802E0,-3.097254038E-1,-2.984069884E-1,-2.391516864E-1
2.404941875E0,-3.289001584E-1,-2.994722426E-1,-2.348906398E-1
2.407429323E0,-3.470096290E-1,-3.026680350E-1,-2.295643091E-1
2.409916771E0,-3.608580530E-1,-3.079943359E-1,-2.253032625E-1
2.412404219E0,-3.725759685E-1,-3.165164590E-1,-2.189116776E-1
2.414891667E0,-3.810980618E-1,-3.282343447E-1,-2.146506310E-1
2.417379114E0,-3.853591084E-1,-3.410175145E-1,-2.082590461E-1
2.419866614E0,-3.885549009E-1,-3.569964767E-1,-2.018674612E-1
2.422354167E0,-3.885549009E-1,-3.751059473E-1,-1.954758763E-1
2.424841771E0,-3.874896467E-1,-3.942807019E-1,-1.869537681E-1
2.427329427E0,-3.864243925E-1,-4.134554565E-1,-1.763011366E-1
2.429817135E0,-3.832286000E-1,-4.315649271E-1,-1.645832360E-1
2.432304896E0,-3.779022694E-1,-4.475438893E-1,-1.518000662E-1
2.434792708E0,-3.725759685E-1,-4.603270590E-1,-1.358211190E-1
2.437280573E0,-3.640538454E-1,-4.709796906E-1,-1.198421568E-1
2.439768489E0,-3.534012139E-1,-4.773712754E-1,-1.027979404E-1
2.442256458E0,-3.406180441E-1,-4.816323221E-1,-8.468846232E-2
2.444744427E0,-3.267696202E-1,-4.848281145E-1,-6.551371515E-2
2.447232396E0,-3.107906580E-1,-4.826975763E-1,-4.633896798E-2
2.449720364E0,-2.926811874E-1,-4.763059914E-1,-2.716422267E-2
2.452208333E0,-2.735064328E-1,-4.656533599E-1,-7.989477366E-3
2.454696302E0,-2.522011697E-1,-4.507396817E-1,1.118526794E-2
2.457184167E0,-2.319611609E-1,-4.294344187E-1,3.036001325E-2
2.459671927E0,-2.117211521E-1,-4.028028250E-1,5.166528746E-2
2.462159635E0,-1.936116666E-1,-3.697796464E-1,7.297056168E-2
2.464647344E0,-1.755021811E-1,-3.324954212E-1,9.534109384E-2
2.467135052E0,-1.595232338E-1,-2.898848653E-1,1.177116334E-1
2.469622760E0,-1.446095407E-1,-2.451438010E-1,1.411474347E-1
2.472110469E0,-1.296958476E-1,-1.972069293E-1,1.624527127E-1
2.474598177E0,-1.158474237E-1,-1.482048035E-1,1.837579757E-1
2.477085885E0,-1.030642539E-1,-9.920267761E-2,2.039979845E-1
2.479573594E0,-9.134636074E-2,-5.126581341E-2,2.221074700E-1
2.482061302E0,-8.069372177E-2,-6.524739787E-3,2.402169555E-1
2.484549010E0,-7.217161357E-2,3.715106845E-2,2.561959028E-1
2.487036719E0,-6.364950538E-2,7.763108611E-2,2.700443268E-1
2.489524427E0,-5.725792050E-2,1.170458421E-1,2.828274965E-1
2.492012135E0,-4.980107397E-2,1.543300748E-1,2.945453823E-1
2.494499844E0,-4.340949282E-2,1.884185076E-1,3.030675054E-1
2.496987552E0,-3.701791167E-2,2.182458937E-1,3.105243444E-1
2.499475260E0,-3.062633052E-2,2.448774725E-1,3.147853911E-1
2.501962969E0,-2.316948399E-2,2.661827505E-1,3.169159293E-1
2.504450677E0,-1.677790284E-2,2.810964286E-1,3.169159293E-1
2.506938385E0,-8.255792782E-3,2.906838059E-1,3.158506751E-1
2.509426094E0,2.663159103E-4,2.928143442E-1,3.115896285E-1
2.511913802E0,9.853689000E-3,2.874880135E-1,3.062632978E-1
2.514401510E0,1.944106072E-2,2.768353820E-1,2.977411747E-1
2.516889219E0,2.902843431E-2,2.587259114E-1,2.870885432E-1
2.519376927E0,3.861580789E-2,2.363553643E-1,2.753706574E-1
2.521864635E0,4.926844314E-2,2.075932473E-1,2.615222335E-1
2.524352344E0,5.992107838E-2,1.745700836E-1,2.455432713E-1
2.526840052E0,6.950845569E-2,1.372858584E-1,2.274337858E-1
2.529327760E0,7.909582555E-2,9.574057162E-2,2.082590461E-1
2.531815469E0,8.974846452E-2,5.206476152E-2,1.880190372E-1
2.534303177E0,1.014663652E-1,8.388951421E-3,1.667137593E-1
2.536790885E0,1.142495275E-1,-3.315633163E-2,1.454084814E-1
2.539278594E0,1.270326823E-1,-7.150582224E-2,1.230379492E-1
2.541766302E0,1.387505829E-1,-1.077247858E-1,9.960214794E-2
2.544254010E0,1.483379602E-1,-1.396826953E-1,7.723161578E-2
2.546741719E0,1.579253376E-1,-1.673795432E-1,5.486107618E-2
2.549229427E0,1.643169224E-1,-1.908153445E-1,3.142527863E-2
2.551717135E0,1.696432382E-1,-2.099900991E-1,7.989477366E-3
2.554204896E0,1.728390306E-1,-2.259690464E-1,-1.544632297E-2
2.556692656E0,1.749695539E-1,-2.376869470E-1,-3.888212144E-2
2.559180417E0,1.749695539E-1,-2.472743243E-1,-6.338318437E-2
2.561668177E0,1.760348231E-1,-2.515353858E-1,-8.788424730E-2
2.564155937E0,1.749695539E-1,-2.526006401E-1,-1.113200486E-1
2.566643698E0,1.760348231E-1,-2.483395934E-1,-1.336905807E-1
2.569131458E0,1.749695539E-1,-2.430132627E-1,-1.528653353E-1
2.571619219E0,1.739042848E-1,-2.355564237E-1,-1.699095517E-1
2.574106979E0,1.707084924E-1,-2.280995846E-1,-1.837579757E-1
2.576594739E0,1.664474458E-1,-2.217079997E-1,-1.954758763E-1
2.579082500E0,1.600558609E-1,-2.174469382E-1,-2.029327303E-1
2.581570260E0,1.525990218E-1,-2.153164148E-1,-2.071937770E-1
2.584058021E0,1.419463754E-1,-2.174469382E-1,-2.093243003E-1
2.586545781E0,1.323590130E-1,-2.185122073E-1,-2.082590461E-1
2.589033542E0,1.227716357E-1,-2.206427306E-1,-2.050632536E-1
2.591522135E0,1.131842583E-1,-2.185122073E-1,-2.008021921E-1
2.594010052E0,1.046621501E-1,-2.153164148E-1,-1.965411454E-1
2.596497760E0,9.720530361E-2,-2.089248300E-1,-1.922800839E-1
2.598985469E0,8.974846452E-2,-1.982721984E-1,-1.890842915E-1
2.601473177E0,8.122635633E-2,-1.844237745E-1,-1.858884990E-1
2.603960885E0,7.163897902E-2,-1.663142890E-1,-1.816274524E-1
2.606448594E0,6.098634377E-2,-1.471395344E-1,-1.773663908E-1
2.608936302E0,4.713791609E-2,-1.247690022E-1,-1.720400751E-1
2.611424010E0,3.328948840E-2,-1.013332009E-1,-1.656484902E-1
2.613911719E0,1.944106072E-2,-7.683213800E-2,-1.592569202E-1
2.616399427E0,5.592633970E-3,-5.126581341E-2,-1.518000662E-1
2.618887135E0,-8.255792782E-3,-2.463422157E-2,-1.454084814E-1
2.621374844E0,-2.210422046E-2,-1.331579551E-4,-1.400821656E-1
2.623862552E0,-3.595264629E-2,2.330264263E-2,-1.358211190E-1
2.626350260E0,-4.873581231E-2,4.780370742E-2,-1.336905807E-1
2.628837969E0,-6.258423626E-2,7.123950869E-2,-1.315600574E-1
2.631325677E0,-7.536740601E-2,9.467530251E-2,-1.315600574E-1
2.633813385E0,-8.708529919E-2,1.170458421E-1,-1.326253265E-1
2.636301094E0,-9.986846894E-2,1.372858584E-1,-1.326253265E-1
2.638788802E0,-1.115863696E-1,1.543300748E-1,-1.326253265E-1
2.641276510E0,-1.211737394E-1,1.671132296E-1,-1.326253265E-1
2.643764219E0,-1.296958476E-1,1.767006069E-1,-1.315600574E-1
2.646251927E0,-1.339569092E-1,1.809616536E-1,-1.294295341E-1
2.648739635E0,-1.360874325E-1,1.809616536E-1,-1.262337416E-1
2.651227344E0,-1.350221634E-1,1.756353378E-1,-1.209074259E-1
2.653715052E0,-1.339569092E-1,1.671132296E-1,-1.145158410E-1
2.656202760E0,-1.318263710E-1,1.564605981E-1,-1.070589945E-1
2.658690469E0,-1.296958476E-1,1.447426975E-1,-9.853688627E-2
2.661178177E0,-1.275653243E-1,1.330247968E-1,-9.001477808E-2
2.663665885E0,-1.243695319E-1,1.234374270E-1,-8.149266988E-2
2.666153594E0,-1.211737394E-1,1.159805804E-1,-7.510108501E-2
2.668641302E0,-1.169126853E-1,1.106542572E-1,-6.870950758E-2
2.671129010E0,-1.105211005E-1,1.095889956E-1,-6.444845349E-2
2.673616719E0,-1.041295230E-1,1.095889956E-1,-6.018739566E-2
2.676104427E0,-9.773793817E-2,1.095889956E-1,-5.805686861E-2
2.678592135E0,-8.921582997E-2,1.106542572E-1,-5.805686861E-2
2.681079844E0,-8.069372177E-2,1.106542572E-1,-5.805686861E-2
2.683567552E0,-7.110634446E-2,1.074584723E-1,-5.805686861E-2
2.686055260E0,-6.151897460E-2,1.031974182E-1,-5.805686861E-2
2.688543021E0,-4.873581231E-2,9.680583328E-2,-5.912213027E-2
2.691030781E0,-3.382211924E-2,8.934898674E-2,-6.125266105E-2
2.693518542E0,-1.890842989E-2,8.082687855E-2,-6.444845349E-2
2.696006302E0,-1.864211401E-3,7.230477035E-2,-6.657897681E-2
2.698494062E0,1.411474310E-2,6.484792382E-2,-6.977476925E-2
2.700981823E0,2.902843431E-2,5.632581562E-2,-7.403582335E-2
2.703469583E0,4.181159660E-2,4.993423447E-2,-8.042740822E-2
2.705957344E0,5.246423557E-2,4.460791498E-2,-8.681898564E-2
2.708445104E0,6.205160543E-2,4.034686089E-2,-9.321057051E-2
2.710932864E0,7.057371736E-2,3.608580679E-2,-9.853688627E-2
2.713420625E0,7.909582555E-2,3.289001435E-2,-1.038632020E-1
2.715908385E0,8.868319541E-2,2.969422378E-2,-1.102547869E-1
2.718396146E0,9.933583438E-2,2.543316968E-2,-1.155811027E-1
2.720883906E0,1.121189967E-1,2.010685205E-2,-1.209074259E-1
2.723371667E0,1.259674281E-1,1.265000552E-2,-1.251684725E-1
2.725859427E0,1.419463754E-1,4.127896391E-3,-1.283642650E-1
2.728347187E0,1.579253376E-1,-7.590003312E-3,-1.304948032E-1
2.730834948E0,1.728390306E-1,-2.037316747E-2,-1.336905807E-1
2.733322708E0,1.845569313E-1,-3.422159329E-2,-1.336905807E-1
2.735810469E0,1.952095628E-1,-4.807002097E-2,-1.336905807E-1
2.738298229E0,2.026664019E-1,-5.978792161E-2,-1.315600574E-1
2.740785989E0,2.079927325E-1,-6.831002980E-2,-1.272990108E-1
2.743273750E0,2.143843025E-1,-7.363634557E-2,-1.230379492E-1
2.745761510E0,2.207758874E-1,-7.576687634E-2,-1.187768951E-1
2.748249271E0,2.282327414E-1,-7.470161468E-2,-1.145158410E-1
2.750737031E0,2.378201038E-1,-7.257108390E-2,-1.102547869E-1
2.753224792E0,2.474074811E-1,-6.831002980E-2,-1.070589945E-1
2.755712552E0,2.569948435E-1,-6.617950648E-2,-1.027979404E-1
2.758200312E0,2.623211741E-1,-6.511423737E-2,-9.853688627E-2
2.760688073E0,2.655169666E-1,-6.511423737E-2,-9.214530140E-2
2.763175833E0,2.655169666E-1,-6.511423737E-2,-8.468846232E-2
2.765663594E0,2.623211741E-1,-6.617950648E-2,-7.403582335E-2
2.768151354E0,2.559295893E-1,-6.724476814E-2,-6.444845349E-2
2.770639114E0,2.484727502E-1,-6.724476814E-2,-5.166528746E-2
2.773126875E0,2.378201038E-1,-6.404897571E-2,-4.101264849E-2
2.775614635E0,2.282327414E-1,-5.872265995E-2,-3.036001325E-2
2.778102396E0,2.186453640E-1,-5.233107507E-2,-2.077264152E-2
2.780590156E0,2.069274634E-1,-4.593949392E-2,-1.544632297E-2
2.783077917E0,1.973400861E-1,-4.167843983E-2,-1.225053146E-2
2.785565677E0,1.856221855E-1,-4.061317816E-2,-1.225053146E-2
2.788053437E0,1.739042848E-1,-4.487423226E-2,-1.331579592E-2
2.790541198E0,1.600558609E-1,-5.339634046E-2,-1.438105945E-2
2.793028958E0,1.462074369E-1,-6.831002980E-2,-1.651158556E-2
2.795516719E0,1.334242672E-1,-8.641951531E-2,-1.757685095E-2
2.798004479E0,1.217063740E-1,-1.066595241E-1,-1.864211448E-2
2.800492239E0,1.110537350E-1,-1.258342713E-1,-1.864211448E-2
2.802980000E0,1.014663652E-1,-1.439437568E-1,-1.757685095E-2
2.805467760E0,9.294424951E-2,-1.567269117E-1,-1.544632297E-2
2.807955521E0,8.442214131E-2,-1.652490199E-1,-1.331579592E-2
2.810443281E0,7.270424068E-2,-1.705753356E-1,-1.118526794E-2
2.812931042E0,5.779055133E-2,-1.727058738E-1,-7.989477366E-3
2.815418802E0,4.181159660E-2,-1.727058738E-1,-4.793686327E-3
2.817906562E0,2.370211668E-2,-1.705753356E-1,-1.597895520E-3
2.820394323E0,7.723161485E-3,-1.684448123E-1,2.663159044E-3
2.822882083E0,-6.125265732E-3,-1.652490199E-1,9.054740891E-3
2.825369844E0,-1.571263932E-2,-1.609879732E-1,1.544632297E-2
2.827857604E0,-2.530001104E-2,-1.577921808E-1,2.290316857E-2
2.830345364E0,-3.382211924E-2,-1.567269117E-1,3.249054030E-2
2.832833125E0,-4.554001987E-2,-1.545963883E-1,4.314317927E-2
2.835320885E0,-6.045371294E-2,-1.524658650E-1,5.805686861E-2
2.837808646E0,-7.856319100E-2,-1.503353268E-1,7.403582335E-2
2.840296406E0,-1.009337306E-1,-1.471395344E-1,9.321057051E-2
2.842784167E0,-1.233042628E-1,-1.439437568E-1,1.123853177E-1
2.845271927E0,-1.446095407E-1,-1.386174262E-1,1.326253265E-1
2.847759687E0,-1.627190262E-1,-1.343563795E-1,1.507348120E-1
2.850247448E0,-1.808284968E-1,-1.311605871E-1,1.667137593E-1
2.852735208E0,-1.946769357E-1,-1.290300637E-1,1.805621833E-1
2.855222969E0,-2.106558830E-1,-1.290300637E-1,1.922800839E-1
2.857710729E0,-2.266348451E-1,-1.322258562E-1,1.997369379E-1
2.860198489E0,-2.458095849E-1,-1.364869028E-1,2.050632536E-1
2.862686250E0,-2.671148479E-1,-1.375521719E-1,2.093243003E-1
2.865174010E0,-2.884201407E-1,-1.386174262E-1,2.125200927E-1
2.867661771E0,-3.107906580E-1,-1.364869028E-1,2.157158852E-1
2.870149479E0,-3.331612051E-1,-1.332911104E-1,2.199769467E-1
2.872637187E0,-3.587275445E-1,-1.268995255E-1,2.253032625E-1
2.875124896E0,-3.842938542E-1,-1.226384789E-1,2.338253707E-1
2.877612604E0,-4.087949097E-1,-1.183774248E-1,2.444780022E-1
2.880100312E0,-4.322307110E-1,-1.162468940E-1,2.583264410E-1
2.882588021E0,-4.546012580E-1,-1.173121557E-1,2.753706574E-1
2.885075729E0,-4.727107286E-1,-1.205079481E-1,2.956106663E-1
2.887563437E0,-4.886896908E-1,-1.237037405E-1,3.169159293E-1
2.890051146E0,-5.014728308E-1,-1.290300637E-1,3.392864764E-1
2.892538854E0,-5.131907463E-1,-1.343563795E-1,3.605917394E-1
2.895026562E0,-5.249086618E-1,-1.418132186E-1,3.818970025E-1
2.897514271E0,-5.398223400E-1,-1.503353268E-1,4.010717571E-1
2.900001979E0,-5.568665862E-1,-1.609879732E-1,4.202465117E-1
2.902489687E0,-5.749760270E-1,-1.737711281E-1,4.394212663E-1
2.904977396E0,-5.952160358E-1,-1.865542978E-1,4.564654827E-1
2.907465104E0,-6.143907905E-1,-1.982721984E-1,4.745749533E-1
2.909952812E0,-6.314350367E-1,-2.078595608E-1,4.926844239E-1
2.912440521E0,-6.452834606E-1,-2.153164148E-1,5.097286701E-1
2.914928229E0,-6.548708081E-1,-2.185122073E-1,5.267728567E-1
2.917415937E0,-6.601971388E-1,-2.185122073E-1,5.416865349E-1
2.919903646E0,-6.644582152E-1,-2.163816839E-1,5.544697046E-1
2.922391354E0,-6.687192321E-1,-2.131858915E-1,5.651223660E-1
2.924879062E0,-6.740455627E-1,-2.089248300E-1,5.736444592E-1
2.927366771E0,-6.825676560E-1,-2.057290375E-1,5.811012983E-1
2.929854479E0,-6.932203174E-1,-2.046637833E-1,5.864276290E-1
2.932342187E0,-7.038729787E-1,-2.046637833E-1,5.906887054E-1
2.934829896E0,-7.155908346E-1,-2.057290375E-1,5.949497223E-1
2.937317604E0,-7.230476737E-1,-2.067943066E-1,6.002760530E-1
2.939805312E0,-7.283740044E-1,-2.067943066E-1,6.077328920E-1
2.942293021E0,-7.294392586E-1,-2.046637833E-1,6.162550449E-1
2.944780729E0,-7.283740044E-1,-1.982721984E-1,6.269076467E-1
2.947268437E0,-7.241129875E-1,-1.897500902E-1,6.386255622E-1
2.949756146E0,-7.187866569E-1,-1.780321896E-1,6.514087319E-1
2.952243854E0,-7.123950720E-1,-1.673795432E-1,6.641919017E-1
2.954731562E0,-7.060034871E-1,-1.588574350E-1,6.759097576E-1
2.957219271E0,-7.017424107E-1,-1.524658650E-1,6.876276731E-1
2.959706979E0,-6.974813938E-1,-1.514005959E-1,6.982803345E-1
2.962194739E0,-6.974813938E-1,-1.556616426E-1,7.089329362E-1
2.964682500E0,-6.974813938E-1,-1.663142890E-1,7.195855975E-1
2.967170260E0,-6.996119022E-1,-1.790974438E-1,7.313035131E-1
2.969658021E0,-7.006771564E-1,-1.950764060E-1,7.451519370E-1
2.972145781E0,-7.017424107E-1,-2.121206224E-1,7.590003610E-1
2.974633542E0,-7.028076649E-1,-2.280995846E-1,7.739140391E-1
2.977121302E0,-7.038729787E-1,-2.440785319E-1,7.877624631E-1
2.979609062E0,-7.070687413E-1,-2.600574791E-1,8.005456328E-1
2.982096823E0,-7.134603262E-1,-2.781669796E-1,8.111982346E-1
2.984584583E0,-7.241129875E-1,-2.941459119E-1,8.218508959E-1
2.987072344E0,-7.358308434E-1,-3.133206666E-1,8.335688114E-1
2.989560104E0,-7.486140132E-1,-3.292996287E-1,8.442214131E-1
2.992047864E0,-7.624624372E-1,-3.463438451E-1,8.580698371E-1
2.994535625E0,-7.741803527E-1,-3.612575233E-1,8.708530068E-1
2.997023385E0,-7.848330140E-1,-3.729754388E-1,8.836361766E-1
2.999511146E0,-7.933551073E-1,-3.804322779E-1,8.953540921E-1
3.001998906E0,-8.018772006E-1,-3.846933246E-1,9.060067534E-1
3.004486667E0,-8.103992939E-1,-3.846933246E-1,9.145288467E-1
3.006974427E0,-8.199867010E-1,-3.804322779E-1,9.198551774E-1
3.009462187E0,-8.349003792E-1,-3.729754388E-1,9.230509400E-1
3.011949948E0,-8.551403880E-1,-3.655185997E-1,9.241161942E-1
3.014437708E0,-8.753803968E-1,-3.538006842E-1,9.251814485E-1
3.016925469E0,-8.956204057E-1,-3.399522603E-1,9.251814485E-1
3.019413229E0,-9.147951603E-1,-3.282343447E-1,9.262467623E-1
3.021900989E0,-9.318393469E-1,-3.165164590E-1,9.294425249E-1
3.024388750E0,-9.478183389E-1,-3.069290817E-1,9.337036014E-1
3.026876510E0,-9.616667628E-1,-2.984069884E-1,9.400951862E-1
3.029364271E0,-9.712541103E-1,-2.888196111E-1,9.443562031E-1
3.031852031E0,-9.755151868E-1,-2.771016955E-1,9.443562031E-1
3.034339792E0,-9.765804410E-1,-2.632532716E-1,9.411604404E-1
3.036827552E0,-9.765804410E-1,-2.494048476E-1,9.315730333E-1
3.039315312E0,-9.776456952E-1,-2.344911546E-1,9.187898636E-1
3.041803073E0,-9.819067717E-1,-2.195774615E-1,9.049414396E-1
3.044290833E0,-9.861677885E-1,-2.035985142E-1,8.932235837E-1
3.046778594E0,-9.914941192E-1,-1.876195520E-1,8.857667446E-1
3.049266354E0,-9.957551956E-1,-1.716406047E-1,8.815056682E-1
3.051754114E0,-9.989509583E-1,-1.588574350E-1,8.836361766E-1
3.054241875E0,-9.989509583E-1,-1.503353268E-1,8.868319988E-1
3.056729635E0,-9.957551956E-1,-1.471395344E-1,8.910930157E-1
3.059217396E0,-9.914941192E-1,-1.535311192E-1,8.932235837E-1
3.061705156E0,-9.861677885E-1,-1.673795432E-1,8.942888379E-1
3.064192917E0,-9.819067717E-1,-1.929458827E-1,8.942888379E-1
3.066680677E0,-9.808415174E-1,-2.291648388E-1,8.942888379E-1
3.069168437E0,-9.808415174E-1,-2.728406489E-1,8.964193463E-1
3.071656198E0,-9.840372801E-1,-3.239732981E-1,9.017456770E-1
3.074143958E0,-9.851025343E-1,-3.783017397E-1,9.092025161E-1
3.076631719E0,-9.861677885E-1,-4.304996729E-1,9.177246094E-1
3.079119479E0,-9.840372801E-1,-4.795017838E-1,9.273120165E-1
3.081607239E0,-9.797762632E-1,-5.199818015E-1,9.358341098E-1
3.084095000E0,-9.733846784E-1,-5.530049801E-1,9.390298724E-1
3.086582760E0,-9.669930935E-1,-5.764408112E-1,9.400951862E-1
3.089070521E0,-9.606015086E-1,-5.934849977E-1,9.379646182E-1
3.091558958E0,-9.563404322E-1,-6.052029133E-1,9.337036014E-1
3.094046406E0,-9.531446695E-1,-6.105292439E-1,9.305077791E-1
3.096533854E0,-9.510141015E-1,-6.105292439E-1,9.273120165E-1
3.099021302E0,-9.478183389E-1,-6.083986759E-1,9.262467623E-1
3.101508750E0,-9.446225166E-1,-6.052029133E-1,9.262467623E-1
3.103996198E0,-9.392961860E-1,-6.009418368E-1,9.273120165E-1
3.106483698E0,-9.318393469E-1,-5.977460742E-1,9.262467623E-1
3.108971250E0,-9.243825078E-1,-5.934849977E-1,9.251814485E-1
3.111458854E0,-9.147951603E-1,-5.902892351E-1,9.198551774E-1
3.113946510E0,-9.062730670E-1,-5.860281587E-1,9.145288467E-1
3.116434219E0,-8.977509141E-1,-5.817670822E-1,9.081372619E-1
3.118921979E0,-8.881635666E-1,-5.775060654E-1,9.006804228E-1
3.121409792E0,-8.775109053E-1,-5.721797347E-1,8.921582699E-1
3.123897656E0,-8.657930493E-1,-5.647228956E-1,8.836361766E-1
3.126385573E0,-8.519446254E-1,-5.551354885E-1,8.729835749E-1
3.128873542E0,-8.380961418E-1,-5.412870646E-1,8.612656593E-1
3.131361510E0,-8.231824636E-1,-5.263733864E-1,8.474172354E-1
3.133849479E0,-8.103992939E-1,-5.093291998E-1,8.314382434E-1
3.136337448E0,-7.986814380E-1,-4.890891612E-1,8.154593110E-1
3.138825417E0,-7.890940309E-1,-4.645881057E-1,8.016108871E-1
3.141313385E0,-7.784414291E-1,-4.336954653E-1,7.920235395E-1
3.143801250E0,-7.677887678E-1,-3.974764943E-1,7.856319547E-1
3.146289010E0,-7.571361065E-1,-3.569964767E-1,7.803056240E-1
3.148776719E0,-7.464835048E-1,-3.175817132E-1,7.728487849E-1
3.151264427E0,-7.379614115E-1,-2.834932804E-1,7.621961236E-1
3.153752135E0,-7.315698266E-1,-2.547311783E-1,7.472824454E-1
3.156239844E0,-7.230476737E-1,-2.302301079E-1,7.270424366E-1
3.158727552E0,-7.113298178E-1,-1.950764060E-1,7.057371736E-1
3.161215260E0,-7.060034871E-1,-1.663142890E-1,6.876276731E-1
3.163702969E0,-7.081339955E-1,-1.450090110E-1,6.737792492E-1
3.166190677E0,-7.123950720E-1,-1.354216337E-1,6.620613337E-1
3.168678385E0,-7.145255804E-1,-1.375521719E-1,6.503434777E-1
3.171166094E0,-7.123950720E-1,-1.471395344E-1,6.354297400E-1
3.173653802E0,-7.038729787E-1,-1.567269117E-1,6.151897311E-1
3.176141510E0,-6.889592409E-1,-1.588574350E-1,5.906887054E-1
3.178629219E0,-6.708498001E-1,-1.545963883E-1,5.629918575E-1
3.181116927E0,-6.506097913E-1,-1.450090110E-1,5.320991874E-1
3.183604635E0,-6.314350367E-1,-1.322258562E-1,5.001412630E-1
3.186092344E0,-6.143907905E-1,-1.205079481E-1,4.692486227E-1
3.188580052E0,-5.973466039E-1,-1.109205782E-1,4.415517747E-1
3.191067760E0,-5.813676119E-1,-1.055942550E-1,4.170507193E-1
3.193555469E0,-5.632581711E-1,-1.045289934E-1,3.936149180E-1
3.196043177E0,-5.419528484E-1,-1.077247858E-1,3.712443709E-1
3.198530885E0,-5.174518228E-1,-1.119858399E-1,3.456780612E-1
3.201018594E0,-4.908202291E-1,-1.162468940E-1,3.158506751E-1
3.203506302E0,-4.620580971E-1,-1.130511016E-1,2.849580348E-1
3.205994010E0,-4.343612492E-1,-1.034637317E-1,2.519348562E-1
3.208481719E0,-4.066644013E-1,-8.855003864E-2,2.199769467E-1
3.210969427E0,-3.800328076E-1,-7.150582224E-2,1.880190372E-1
3.213457135E0,-3.555317521E-1,-5.446160212E-2,1.592569202E-1
3.215944844E0,-3.352917433E-1,-4.380896688E-2,1.347558498E-1
3.218432552E0,-3.161169887E-1,-3.528685868E-2,1.113200486E-1
3.220920260E0,-2.980075181E-1,-3.102580272E-2,9.214530140E-2
3.223407969E0,-2.798980176E-1,-2.783001214E-2,7.616634667E-2
3.225895677E0,-2.628538013E-1,-2.250369452E-2,6.231792271E-2
3.228383385E0,-2.468748540E-1,-1.185105834E-2,5.273054913E-2
3.230871094E0,-2.330264151E-1,4.127896391E-3,4.527370632E-2
3.233358802E0,-2.223737836E-1,2.330264263E-2,4.101264849E-2
3.235846510E0,-2.127864063E-1,4.354264960E-2,3.994738683E-2
3.238334219E0,-2.053295672E-1,6.484792382E-2,3.888212144E-2
3.240821979E0,-1.989379823E-1,8.508793265E-2,3.781685978E-2
3.243309739E0,-1.946769357E-1,1.042626798E-1,3.675159439E-2
3.245797500E0,-1.893506050E-1,1.213068962E-1,3.462106735E-2
3.248285260E0,-1.840242893E-1,1.372858584E-1,3.249054030E-2
3.250773021E0,-1.797632426E-1,1.532648057E-1,2.929474972E-2
3.253260781E0,-1.744369268E-1,1.713742912E-1,2.503369562E-2
3.255748542E0,-1.691105962E-1,1.884185076E-1,2.077264152E-2
3.258236302E0,-1.648495495E-1,2.043974549E-1,1.438105945E-2
3.260724062E0,-1.595232338E-1,2.182458937E-1,5.858949851E-3
3.263211823E0,-1.552621722E-1,2.288985252E-1,-5.858949851E-3
3.265699583E0,-1.499358565E-1,2.342248410E-1,-1.757685095E-2
3.268187344E0,-1.435442716E-1,2.342248410E-1,-3.249054030E-2
3.270675104E0,-1.360874325E-1,2.288985252E-1,-4.740423337E-2
3.273162864E0,-1.286305785E-1,2.203764170E-1,-6.444845349E-2
3.275650625E0,-1.201084778E-1,2.086585164E-1,-8.362319320E-2
3.278138385E0,-1.115863696E-1,1.969406158E-1,-1.038632020E-1
3.280626146E0,-1.030642539E-1,1.852227151E-1,-1.251684725E-1
3.283113906E0,-9.667267650E-2,1.756353378E-1,-1.475390196E-1
3.285601667E0,-9.134636074E-2,1.671132296E-1,-1.677790284E-1
3.288089427E0,-8.708529919E-2,1.575258672E-1,-1.848232448E-1
3.290577187E0,-8.495477587E-2,1.479384899E-1,-1.986716688E-1
3.293064948E0,-8.495477587E-2,1.372858584E-1,-2.071937770E-1
3.295552708E0,-8.708529919E-2,1.255679578E-1,-2.125200927E-1
3.298040469E0,-8.921582997E-2,1.149153188E-1,-2.146506310E-1
3.300528229E0,-9.134636074E-2,1.063932031E-1,-2.135853618E-1
3.303015989E0,-9.454214573E-2,1.021321490E-1,-2.093243003E-1
3.305503750E0,-9.773793817E-2,1.010668874E-1,-2.029327303E-1
3.307991510E0,-1.030642539E-1,1.042626798E-1,-1.922800839E-1
3.310479271E0,-1.073253155E-1,1.117195264E-1,-1.784316599E-1
3.312967031E0,-1.126516312E-1,1.213068962E-1,-1.603221744E-1
3.315454792E0,-1.169126853E-1,1.330247968E-1,-1.400821656E-1
3.317942552E0,-1.222390011E-1,1.468732208E-1,-1.198421568E-1
3.320430312E0,-1.254348010E-1,1.617869139E-1,-9.960214794E-2
3.322918073E0,-1.275653243E-1,1.756353378E-1,-8.255793154E-2
3.325405833E0,-1.286305785E-1,1.884185076E-1,-6.764423847E-2
3.327893594E0,-1.275653243E-1,2.022669315E-1,-5.699160323E-2
3.330381354E0,-1.254348010E-1,2.139848322E-1,-4.953476042E-2
3.332869114E0,-1.233042628E-1,2.246374637E-1,-4.420844093E-2
3.335356875E0,-1.201084778E-1,2.331595868E-1,-4.101264849E-2
3.337844635E0,-1.169126853E-1,2.406164259E-1,-3.994738683E-2
3.340332396E0,-1.115863696E-1,2.448774725E-1,-3.994738683E-2
3.342820156E0,-1.051947847E-1,2.480732650E-1,-4.101264849E-2
3.345307917E0,-9.773793817E-2,2.502037883E-1,-4.314317927E-2
3.347795677E0,-9.134636074E-2,2.512690723E-1,-4.740423337E-2
3.350283437E0,-8.495477587E-2,2.512690723E-1,-5.379581451E-2
3.352771198E0,-7.856319100E-2,2.480732650E-1,-6.018739566E-2
3.355258958E0,-7.217161357E-2,2.438122183E-1,-6.977476925E-2
3.357746719E0,-6.684529036E-2,2.374206334E-1,-7.936213911E-2
3.360234479E0,-6.045371294E-2,2.299637944E-1,-8.788424730E-2
3.362722239E0,-5.512739345E-2,2.214416862E-1,-9.534109384E-2
3.365210000E0,-4.980107397E-2,2.118543088E-1,-9.960214794E-2
3.367697760E0,-4.660528526E-2,2.043974549E-1,-1.027979404E-1
3.370185521E0,-4.447475821E-2,1.958753467E-1,-1.027979404E-1
3.372673281E0,-4.234423116E-2,1.873532385E-1,-1.006674170E-1
3.375161042E0,-4.021370411E-2,1.820269227E-1,-9.640636295E-2
3.377648802E0,-3.808317333E-2,1.788311303E-1,-9.108003974E-2
3.380136562E0,-3.595264629E-2,1.777658761E-1,-8.575372398E-2
3.382624323E0,-3.382211924E-2,1.777658761E-1,-8.255793154E-2
3.385112083E0,-3.169159219E-2,1.777658761E-1,-8.042740822E-2
3.387599844E0,-3.275685757E-2,1.767006069E-1,-7.829687744E-2
3.390087604E0,-3.275685757E-2,1.756353378E-1,-7.723161578E-2
3.392575364E0,-3.382211924E-2,1.713742912E-1,-7.510108501E-2
3.395063125E0,-3.382211924E-2,1.649827063E-1,-7.403582335E-2
3.397550885E0,-3.169159219E-2,1.575258672E-1,-7.190529257E-2
3.400038646E0,-2.636527456E-2,1.458079666E-1,-7.190529257E-2
3.402526406E0,-1.890842989E-2,1.330247968E-1,-7.190529257E-2
3.405014167E0,-9.321057238E-3,1.202416345E-1,-7.403582335E-2
3.407501927E0,1.331579522E-3,1.053279415E-1,-7.616634667E-2
3.409989687E0,1.304947957E-2,9.254477918E-2,-8.042740822E-2
3.412477448E0,2.583264373E-2,8.082687855E-2,-8.788424730E-2
3.414965208E0,3.861580789E-2,7.123950869E-2,-9.747162461E-2
3.417452969E0,5.246423557E-2,6.484792382E-2,-1.070589945E-1
3.419940729E0,6.737792492E-2,6.271740049E-2,-1.198421568E-1
3.422428437E0,8.442214131E-2,6.378266215E-2,-1.336905807E-1
3.424916146E0,1.025316268E-1,6.697845459E-2,-1.486042738E-1
3.427403854E0,1.217063740E-1,7.443529367E-2,-1.635179669E-1
3.429891562E0,1.408811212E-1,8.402267098E-2,-1.794969290E-1
3.432379271E0,1.600558609E-1,9.787109494E-2,-1.944106072E-1
3.434866979E0,1.792306006E-1,1.138500497E-1,-2.114548385E-1
3.437354687E0,1.984053552E-1,1.340900660E-1,-2.284990549E-1
3.439842396E0,2.154495716E-1,1.553953290E-1,-2.466085255E-1
3.442330104E0,2.314285189E-1,1.767006069E-1,-2.668485343E-1
3.444817812E0,2.474074811E-1,1.969406158E-1,-2.892190814E-1
3.447305521E0,2.623211741E-1,2.129195631E-1,-3.126548827E-1
3.449793229E0,2.751043439E-1,2.246374637E-1,-3.360906839E-1
3.452280937E0,2.889527678E-1,2.331595868E-1,-3.595264852E-1
3.454768646E0,3.028011918E-1,2.363553643E-1,-3.829622865E-1
3.457256354E0,3.187801540E-1,2.352901101E-1,-4.063980877E-1
3.459744062E0,3.358243704E-1,2.288985252E-1,-4.287686050E-1
3.462231771E0,3.560643792E-1,2.161153555E-1,-4.522044063E-1
3.464719479E0,3.763043880E-1,1.980058849E-1,-4.767054915E-1
3.467207187E0,3.986749053E-1,1.745700836E-1,-5.022718310E-1
3.469694896E0,4.199801981E-1,1.479384899E-1,-5.289034247E-1
3.472182604E0,4.434159994E-1,1.213068962E-1,-5.576655269E-1
3.474670312E0,4.668518007E-1,9.467530251E-2,-5.874928832E-1
3.477158021E0,4.902876019E-1,7.017423958E-2,-6.194508076E-1
3.479645729E0,5.158539414E-1,4.780370742E-2,-6.503434777E-1
3.482133437E0,5.414202213E-1,3.075948730E-2,-6.823013425E-1
3.484621146E0,5.669865608E-1,1.584579609E-2,-7.121287584E-1
3.487108854E0,5.925529003E-1,1.997369342E-3,-7.387603521E-1
3.489596562E0,6.191844940E-1,-9.720530361E-3,-7.643266916E-1
3.492084271E0,6.458160877E-1,-2.143843099E-2,-7.856319547E-1
3.494571979E0,6.745781898E-1,-3.209106624E-2,-8.048067093E-1
3.497059687E0,7.065361142E-1,-4.061317816E-2,-8.229161501E-1
3.499547396E0,7.395592928E-1,-4.593949392E-2,-8.378298283E-1
3.502035104E0,7.747129798E-1,-4.807002097E-2,-8.516782522E-1
3.504522812E0,8.130624890E-1,-4.807002097E-2,-8.655267358E-1
3.507010521E0,8.503466845E-1,-4.380896688E-2,-8.783098459E-1
3.509498229E0,8.897614479E-1,-3.848264739E-2,-8.921582699E-1
3.511985937E0,9.313067198E-1,-2.889527567E-2,-9.060067534E-1
3.514473646E0,9.717867374E-1,-1.611211337E-2,-9.230509400E-1
3.516961406E0,1.012266755E0,-1.198421582E-3,-9.400951862E-1
3.519449167E0,1.051681519E0,1.584579609E-2,-9.582046270E-1
3.521936927E0,1.091096282E0,3.289001435E-2,-9.752488732E-1
3.524424687E0,1.128380537E0,4.886896908E-2,-9.954888821E-1
3.526912448E0,1.161403656E0,6.484792382E-2,-1.014663577E0
3.529400208E0,1.191231012E0,7.976161689E-2,-1.034903646E0
3.531887969E0,1.216797352E0,9.680583328E-2,-1.056208849E0
3.534375729E0,1.240233183E0,1.191763729E-1,-1.078579426E0
3.536863489E0,1.260473251E0,1.479384899E-1,-1.102015257E0
3.539351250E0,1.278582692E0,1.873532385E-1,-1.126516342E0
3.541839010E0,1.294561625E0,2.352901101E-1,-1.151017308E0
3.544326771E0,1.308410048E0,2.885532975E-1,-1.176583648E0
3.546814531E0,1.317997456E0,3.428817391E-1,-1.198954225E0
3.549302292E0,1.324388981E0,3.918838501E-1,-1.217063665E0
3.551790052E0,1.325454235E0,4.291680753E-1,-1.228781581E0
3.554277812E0,1.320127964E0,4.504733682E-1,-1.230912089E0
3.556765573E0,1.312671065E0,4.579302073E-1,-1.225585818E0
3.559253333E0,1.300953269E0,4.547344148E-1,-1.210672140E0
3.561741094E0,1.289235353E0,4.483428299E-1,-1.187236309E0
3.564228854E0,1.279647946E0,4.472775757E-1,-1.159539461E0
3.566716614E0,1.272191048E0,4.557996690E-1,-1.129712105E0
3.569204375E0,1.264734268E0,4.749744236E-1,-1.098819494E0
3.571692135E0,1.255146861E0,5.058670640E-1,-1.068992019E0
3.574179896E0,1.243428946E0,5.452818274E-1,-1.042360425E0
3.576667656E0,1.229580522E0,5.900229216E-1,-1.016794205E0
3.579155417E0,1.213601589E0,6.336987019E-1,-9.922930598E-1
3.581643177E0,1.197622657E0,6.709829569E-1,-9.688572884E-1
3.584130937E0,1.183774233E0,6.965492368E-1,-9.454214573E-1
3.586618698E0,1.173121572E0,7.093324065E-1,-9.198551774E-1
3.589106458E0,1.166730046E0,7.093324065E-1,-8.932235837E-1
3.591594739E0,1.163534164E0,6.976145506E-1,-8.655267358E-1
3.594082656E0,1.165664792E0,6.763092279E-1,-8.378298283E-1
3.596570417E0,1.169925809E0,6.486123800E-1,-8.122635484E-1
3.599058125E0,1.178447962E0,6.155892015E-1,-7.877624631E-1
3.601545833E0,1.190165758E0,5.804355145E-1,-7.696529627E-1
3.604033542E0,1.205079436E0,5.420860648E-1,-7.558045387E-1
3.606521250E0,1.222123742E0,4.973449707E-1,-7.494129539E-1
3.609008958E0,1.240233183E0,4.472775757E-1,-7.494129539E-1
3.611496667E0,1.255146861E0,3.918838501E-1,-7.547392845E-1
3.613984375E0,1.264734268E0,3.332943618E-1,-7.675224543E-1
3.616472083E0,1.270060539E0,2.779006660E-1,-7.845667005E-1
3.618959792E0,1.273256421E0,2.342248410E-1,-8.058719635E-1
3.621447500E0,1.274321675E0,2.107890397E-1,-8.293077350E-1
3.623935208E0,1.274321675E0,2.097237855E-1,-8.548740745E-1
3.626422917E0,1.274321675E0,2.342248410E-1,-8.836361766E-1
3.628910625E0,1.273256421E0,2.821617126E-1,-9.145288467E-1
3.631398333E0,1.270060539E0,3.450122476E-1,-9.464867711E-1
3.633886042E0,1.262603760E0,4.163849354E-1,-9.795098901E-1
3.636373750E0,1.251951098E0,4.834965467E-1,-1.011467814E0
3.638861458E0,1.239167929E0,5.399554968E-1,-1.039164662E0
3.641349167E0,1.219993234E0,5.740439296E-1,-1.059404731E0
3.643836875E0,1.197622657E0,5.793702602E-1,-1.070057273E0
3.646324583E0,1.170991063E0,5.538039207E-1,-1.071122646E0
3.648812292E0,1.139033198E0,4.962796867E-1,-1.059404731E0
3.651300000E0,1.104944706E0,4.163849354E-1,-1.031707883E0
3.653787708E0,1.074052095E0,3.205111921E-1,-9.901625514E-1
3.656275417E0,1.047420502E0,2.225069404E-1,-9.347688556E-1
3.658763125E0,1.028245687E0,1.287637353E-1,-8.697877526E-1
3.661250833E0,1.015462518E0,4.886896908E-2,-7.962845564E-1
3.663738542E0,1.006940484E0,-1.185105834E-2,-7.206508517E-1
3.666226250E0,1.002679348E0,-5.339634046E-2,-6.450171471E-1
3.668713958E0,1.001614094E0,-7.789740711E-2,-5.736444592E-1
3.671201667E0,9.994835854E-1,-8.748477697E-2,-5.065328479E-1
3.673689375E0,9.994835854E-1,-8.748477697E-2,-4.479433596E-1
3.676177083E0,9.994835854E-1,-8.535424620E-2,-3.989412189E-1
3.678664792E0,9.994835854E-1,-8.322372288E-2,-3.584612012E-1
3.681152500E0,1.001614094E0,-8.641951531E-2,-3.275685608E-1
3.683640208E0,1.004809976E0,-9.600688517E-2,-3.083938360E-1
3.686127917E0,1.010136247E0,-1.109205782E-1,-2.988064587E-1
3.688615625E0,1.017593145E0,-1.311605871E-1,-2.966759205E-1
3.691103333E0,1.026115179E0,-1.535311192E-1,-3.009369671E-1
3.693591094E0,1.032506824E0,-1.748363972E-1,-3.105243444E-1
3.696078854E0,1.034637332E0,-1.918806136E-1,-3.222422600E-1
3.698566614E0,1.032506824E0,-1.982721984E-1,-3.360906839E-1
3.701054375E0,1.025049925E0,-1.897500902E-1,-3.510043621E-1
3.703542135E0,1.014397264E0,-1.620532274E-1,-3.659180701E-1
3.706029896E0,1.000548840E0,-1.162468940E-1,-3.808317482E-1
3.708517656E0,9.845699072E-1,-5.552686751E-2,-3.978759646E-1
3.711005417E0,9.621993899E-1,1.478053257E-2,-4.159854650E-1
3.713493177E0,9.376983047E-1,8.508793265E-2,-4.340949357E-1
3.715980937E0,9.089362025E-1,1.479384899E-1,-4.532696903E-1
3.718468698E0,8.801741004E-1,1.990711391E-1,-4.713791609E-1
3.720956458E0,8.503466845E-1,2.320943177E-1,-4.862928391E-1
3.723444219E0,8.205193281E-1,2.448774725E-1,-4.958802164E-1
3.725931979E0,7.906919122E-1,2.374206334E-1,-5.022718310E-1
3.728419739E0,7.608645558E-1,2.118543088E-1,-5.033370852E-1
3.730907500E0,7.299718857E-1,1.713742912E-1,-4.980107546E-1
3.733395260E0,6.980140209E-1,1.234374270E-1,-4.862928391E-1
3.735883021E0,6.671213508E-1,7.230477035E-2,-4.692486227E-1
3.738370781E0,6.394245028E-1,2.223737910E-2,-4.479433596E-1
3.740858542E0,6.138581634E-1,-2.250369452E-2,-4.223770201E-1
3.743346302E0,5.914876461E-1,-6.085318699E-2,-3.946801722E-1
3.745834062E0,5.723128915E-1,-9.281109273E-2,-3.648527861E-1
3.748321823E0,5.552686453E-1,-1.205079481E-1,-3.360906839E-1
3.750809583E0,5.403549671E-1,-1.428784877E-1,-3.062632978E-1
3.753297344E0,5.275717974E-1,-1.663142890E-1,-2.785664499E-1
3.755785104E0,5.158539414E-1,-1.876195520E-1,-2.519348562E-1
3.758272864E0,5.094623566E-1,-2.099900991E-1,-2.284990549E-1
3.760760625E0,5.052012801E-1,-2.323606312E-1,-2.093243003E-1
3.763248385E0,5.052012801E-1,-2.515353858E-1,-1.944106072E-1
3.765736146E0,5.083971024E-1,-2.653838098E-1,-1.837579757E-1
3.768223906E0,5.126581192E-1,-2.728406489E-1,-1.784316599E-1
3.770711667E0,5.201149583E-1,-2.707101107E-1,-1.784316599E-1
3.773199427E0,5.275717974E-1,-2.557964325E-1,-1.837579757E-1
3.775687187E0,5.328981280E-1,-2.280995846E-1,-1.954758763E-1
3.778174948E0,5.360939503E-1,-1.876195520E-1,-2.135853618E-1
3.780662708E0,5.360939503E-1,-1.354216337E-1,-2.402169555E-1
3.783150469E0,5.307676196E-1,-7.363634557E-2,-2.689790726E-1
3.785638229E0,5.211802125E-1,-1.198421582E-3,-3.041327596E-1
3.788125989E0,5.062665343E-1,7.763108611E-2,-3.392864764E-1
3.790613750E0,4.881570637E-1,1.607216448E-1,-3.733749092E-1
3.793101510E0,4.668518007E-1,2.406164259E-1,-4.074633420E-1
3.795589271E0,4.423507154E-1,3.141196072E-1,-4.383559823E-1
3.798077031E0,4.167844057E-1,3.737743795E-1,-4.681833684E-1
3.800564792E0,3.890875578E-1,4.163849354E-1,-4.937497079E-1
3.803052552E0,3.592601717E-1,4.408859909E-1,-5.161202550E-1
3.805540312E0,3.294327855E-1,4.462123215E-1,-5.363602638E-1
3.808028073E0,3.017359376E-1,4.355596602E-1,-5.523391962E-1
3.810515833E0,2.751043439E-1,4.110586047E-1,-5.629918575E-1
3.813003594E0,2.506032586E-1,3.780354261E-1,-5.704486966E-1
3.815491354E0,2.271674722E-1,3.386206925E-1,-5.725792050E-1
3.817979114E0,2.058621943E-1,2.938795984E-1,-5.704486966E-1
3.820466875E0,1.856221855E-1,2.480732650E-1,-5.629918575E-1
3.822954635E0,1.675127149E-1,2.001364082E-1,-5.512739420E-1
3.825442396E0,1.483379602E-1,1.521995366E-1,-5.374255180E-1
3.827930156E0,1.323590130E-1,1.021321490E-1,-5.203812718E-1
3.830417917E0,1.174453199E-1,5.313002318E-2,-5.033370852E-1
3.832905677E0,1.057274193E-1,1.997369342E-3,-4.862928391E-1
3.835393437E0,9.720530361E-2,-5.126581341E-2,-4.692486227E-1
3.837881198E0,9.187898785E-2,-1.045289934E-1,-4.532696903E-1
3.840368958E0,9.081372619E-2,-1.556616426E-1,-4.415517747E-1
3.842856719E0,9.294424951E-2,-2.025332451E-1,-4.308991432E-1
3.845344479E0,9.720530361E-2,-2.430132627E-1,-4.234423041E-1
3.847832239E0,1.014663652E-1,-2.728406489E-1,-4.213117659E-1
3.850320000E0,1.067926809E-1,-2.898848653E-1,-4.223770201E-1
3.852807760E0,1.110537350E-1,-2.930806577E-1,-4.277033508E-1
3.855295521E0,1.142495275E-1,-2.802974880E-1,-4.362254739E-1
3.857783229E0,1.195758432E-1,-2.504701018E-1,-4.479433596E-1
3.860270937E0,1.238368973E-1,-2.057290375E-1,-4.617917836E-1
3.862758646E0,1.280979514E-1,-1.471395344E-1,-4.756402075E-1
3.865246927E0,1.323590130E-1,-8.002793044E-2,-4.873581231E-1
3.867734219E0,1.323590130E-1,-8.655266836E-3,-4.980107546E-1
3.870221510E0,1.280979514E-1,6.058686972E-2,-5.075981021E-1
3.872708802E0,1.206411049E-1,1.245026886E-1,-5.150549412E-1
3.875196146E0,1.089232042E-1,1.767006069E-1,-5.203812718E-1
3.877683542E0,9.507478029E-2,2.161153555E-1,-5.246423483E-1
3.880170989E0,8.229161799E-2,2.406164259E-1,-5.267728567E-1
3.882658489E0,6.950845569E-2,2.523343265E-1,-5.257076025E-1
3.885146042E0,5.992107838E-2,2.523343265E-1,-5.203812718E-1
3.887633646E0,5.246423557E-2,2.448774725E-1,-5.086634159E-1
3.890121354E0,4.607265070E-2,2.320943177E-1,-4.905539155E-1
3.892609114E0,4.181159660E-2,2.182458937E-1,-4.660528302E-1
3.895096927E0,3.861580789E-2,2.043974549E-1,-4.351601899E-1
3.897584792E0,3.648528084E-2,1.905490309E-1,-3.989412189E-1
3.900072708E0,3.648528084E-2,1.788311303E-1,-3.595264852E-1
3.902560677E0,3.861580789E-2,1.681784987E-1,-3.147853911E-1
3.905048698E0,4.287686199E-2,1.585911214E-1,-2.689790726E-1
3.907536771E0,5.033370852E-2,1.479384899E-1,-2.231727391E-1
3.910024844E0,5.992107838E-2,1.372858584E-1,-1.763011366E-1
3.912512917E0,7.163897902E-2,1.234374270E-1,-1.294295341E-1
3.915000989E0,8.442214131E-2,1.085237339E-1,-8.681898564E-2
3.917489010E0,9.933583438E-2,9.041424841E-2,-4.420844093E-2
3.919976771E0,1.163800508E-1,6.910897791E-2,-3.728422802E-3
3.922464531E0,1.344895363E-1,4.460791498E-2,3.355580568E-2
3.924952239E0,1.525990218E-1,1.904158667E-2,6.764423847E-2
3.927439948E0,1.696432382E-1,-7.590003312E-3,9.960214794E-2
3.929927656E0,1.834916621E-1,-3.315633163E-2,1.272990108E-1
3.932415364E0,1.994706094E-1,-5.446160212E-2,1.496695429E-1
3.934903073E0,2.154495716E-1,-6.511423737E-2,1.656484902E-1
3.937390781E0,2.335590571E-1,-6.191844866E-2,1.741705984E-1
3.939878489E0,2.548643351E-1,-4.167843983E-2,1.752358675E-1
3.942366198E0,2.783001363E-1,-1.331579551E-4,1.699095517E-1
3.944853906E0,3.028011918E-1,6.165213138E-2,1.603221744E-1
3.947341614E0,3.230412006E-1,1.436774284E-1,1.496695429E-1
3.949829323E0,3.379548788E-1,2.470080107E-1,1.390169114E-1
3.952317031E0,3.454117477E-1,3.641870022E-1,1.294295341E-1
3.954804739E0,3.400854170E-1,4.866923392E-1,1.219726875E-1
3.957292448E0,3.230412006E-1,6.060018539E-1,1.155811027E-1
3.959780156E0,2.942790687E-1,7.135934830E-1,1.123853177E-1
3.962267864E0,2.591253817E-1,8.009451032E-1,1.113200486E-1
3.964755573E0,2.218411565E-1,8.659262061E-1,1.134505793E-1
3.967243281E0,1.877527237E-1,9.042756557E-1,1.187768951E-1
3.969730989E0,1.589905918E-1,9.181240797E-1,1.294295341E-1
3.972218698E0,1.366200596E-1,9.106672406E-1,1.422126889E-1
3.974706406E0,1.206411049E-1,8.861662149E-1,1.603221744E-1
3.977194114E0,1.089232042E-1,8.510124683E-1,1.826927215E-1
3.979681823E0,1.004010960E-1,8.094671965E-1,2.071937770E-1
3.982169531E0,9.081372619E-2,7.647261620E-1,2.359558940E-1
3.984657239E0,8.229161799E-2,7.199850678E-1,2.668485343E-1
3.987144948E0,7.270424068E-2,6.773745418E-1,2.977411747E-1
3.989632656E0,6.311687082E-2,6.368945241E-1,3.286338449E-1
3.992120364E0,5.566002429E-2,5.953491926E-1,3.573959470E-1
3.994608073E0,5.246423557E-2,5.538039207E-1,3.840275407E-1
3.997095781E0,5.459476262E-2,5.122586489E-1,4.074633420E-1
3.999583489E0,6.205160543E-2,4.707133770E-1,4.298338890E-1
4.002071198E0,7.483477145E-2,4.291680753E-1,4.490086138E-1
4.004558906E0,9.187898785E-2,3.876228034E-1,4.671181142E-1
4.007046614E0,1.110537350E-1,3.460775316E-1,4.830970466E-1
4.009534323E0,1.312937438E-1,3.045322299E-1,4.969455004E-1
4.012022031E0,1.525990218E-1,2.629869580E-1,5.129244328E-1
4.014509739E0,1.728390306E-1,2.161153555E-1,5.278381109E-1
4.016997448E0,1.888179779E-1,1.639174372E-1,5.448823571E-1
4.019485156E0,2.026664019E-1,1.053279415E-1,5.619265437E-1
4.021972917E0,2.143843025E-1,3.928159550E-2,5.779055357E-1
4.024460677E0,2.282327414E-1,-3.102580272E-2,5.917539597E-1
4.026948437E0,2.484727502E-1,-1.002679393E-1,6.013413072E-1
4.029436198E0,2.740390599E-1,-1.631184965E-1,6.056023836E-1
4.031923958E0,3.081275225E-1,-2.142511457E-1,6.066676378E-1
4.034411719E0,3.432812095E-1,-2.440785319E-1,6.034718752E-1
4.036899479E0,3.741738498E-1,-2.472743243E-1,5.981455445E-1
4.039387239E0,3.965443969E-1,-2.206427306E-1,5.938844681E-1
4.041875000E0,4.040012360E-1,-1.631184965E-1,5.885581374E-1
4.044362760E0,3.944138587E-1,-7.683213800E-2,5.842971206E-1
4.046850521E0,3.709780574E-1,3.182475269E-2,5.811012983E-1
4.049338281E0,3.368896246E-1,1.553953290E-1,5.779055357E-1
4.051826042E0,2.942790687E-1,2.821617126E-1,5.736444592E-1
4.054313802E0,2.463422120E-1,4.025365114E-1,5.672528744E-1
4.056801562E0,1.952095628E-1,5.058670640E-1,5.587307811E-1
4.059289323E0,1.430116445E-1,5.889576077E-1,5.491434336E-1
4.061777083E0,9.187898785E-2,6.475471258E-1,5.395560265E-1
4.064264844E0,4.500738904E-2,6.827008128E-1,5.289034247E-1
4.066752604E0,2.396843163E-3,6.976145506E-1,5.193160176E-1
4.069240364E0,-3.595264629E-2,6.944187284E-1,5.097286701E-1
4.071728125E0,-7.110634446E-2,6.773745418E-1,5.012065172E-1
4.074215885E0,-1.019989923E-1,6.507429481E-1,4.926844239E-1
4.076703646E0,-1.296958476E-1,6.166545153E-1,4.841623306E-1
4.079191406E0,-1.552621722E-1,5.761744976E-1,4.735096991E-1
4.081679167E0,-1.786979735E-1,5.335639119E-1,4.617917836E-1
4.084166927E0,-2.000032514E-1,4.877575934E-1,4.458128214E-1
4.086654687E0,-2.191779912E-1,4.376901984E-1,4.277033508E-1
4.089142448E0,-2.351569533E-1,3.844270110E-1,4.074633420E-1
4.091630625E0,-2.458095849E-1,3.269027770E-1,3.850927949E-1
4.094118594E0,-2.511359155E-1,2.661827505E-1,3.605917394E-1
4.096606354E0,-2.479401082E-1,2.022669315E-1,3.339601457E-1
4.099094114E0,-2.383527458E-1,1.340900660E-1,3.083938360E-1
4.101581823E0,-2.245043069E-1,6.591318548E-2,2.828274965E-1
4.104069531E0,-2.063948363E-1,-1.198421582E-3,2.583264410E-1
4.106557239E0,-1.861548275E-1,-6.724476814E-2,2.370211631E-1
4.109044948E0,-1.669800729E-1,-1.300953180E-1,2.178464085E-1
4.111532656E0,-1.488705873E-1,-1.876195520E-1,2.029327303E-1
4.114020364E0,-1.328916401E-1,-2.398174703E-1,1.901495606E-1
4.116508073E0,-1.169126853E-1,-2.845585644E-1,1.794969290E-1
4.118995781E0,-1.030642539E-1,-3.197122514E-1,1.720400751E-1
4.121483489E0,-8.708529919E-2,-3.452785909E-1,1.667137593E-1
4.123971198E0,-7.110634446E-2,-3.569964767E-1,1.624527127E-1
4.126458906E0,-5.512739345E-2,-3.559312224E-1,1.603221744E-1
4.128946614E0,-4.127896577E-2,-3.431480527E-1,1.581916511E-1
4.131434323E0,-3.169159219E-2,-3.197122514E-1,1.571263820E-1
4.133922031E0,-2.636527456E-2,-2.888196111E-1,1.560611278E-1
4.136409739E0,-2.423474751E-2,-2.504701018E-1,1.549958587E-1
4.138897448E0,-2.530001104E-2,-2.121206224E-1,1.539305896E-1
4.141385156E0,-2.849580161E-2,-1.727058738E-1,1.507348120E-1
4.143872864E0,-3.275685757E-2,-1.375521719E-1,1.464737505E-1
4.146360573E0,-3.808317333E-2,-1.055942550E-1,1.411474347E-1
4.148848281E0,-4.234423116E-2,-7.789740711E-2,1.326253265E-1
4.151335989E0,-4.660528526E-2,-5.552686751E-2,1.219726875E-1
4.153823698E0,-5.086633936E-2,-3.528685868E-2,1.113200486E-1
4.156311406E0,-5.512739345E-2,-1.824264042E-2,9.960214794E-2
4.158799114E0,-5.938844755E-2,-4.394212738E-3,8.575372398E-2
4.161286823E0,-6.258423626E-2,6.258423906E-3,7.084003091E-2
4.163774531E0,-6.578002870E-2,1.265000552E-2,5.379581451E-2
4.166262239E0,-6.791055948E-2,1.478053257E-2,3.568633273E-2
4.168749948E0,-7.004108280E-2,1.051947847E-2,1.757685095E-2
4.171237656E0,-7.217161357E-2,-1.331579551E-4,-5.326318205E-4
4.173725364E0,-7.430213690E-2,-1.717737690E-2,-1.757685095E-2
4.176213073E0,-7.643266767E-2,-4.061317816E-2,-3.142527863E-2
4.178700781E0,-7.962846011E-2,-6.724476814E-2,-4.420844093E-2
4.181188489E0,-8.069372177E-2,-9.920267761E-2,-5.379581451E-2
4.183676198E0,-8.282424510E-2,-1.343563795E-1,-6.125266105E-2
4.186163906E0,-8.495477587E-2,-1.727058738E-1,-6.551371515E-2
4.188651614E0,-8.921582997E-2,-2.121206224E-1,-6.764423847E-2
4.191139323E0,-9.347688407E-2,-2.504701018E-1,-6.551371515E-2
4.193627031E0,-9.986846894E-2,-2.866890728E-1,-6.231792271E-2
4.196114739E0,-1.083905771E-1,-3.175817132E-1,-5.699160323E-2
4.198602448E0,-1.179779470E-1,-3.431480527E-1,-5.060002208E-2
4.201090208E0,-1.275653243E-1,-3.612575233E-1,-4.314317927E-2
4.203577969E0,-1.392832249E-1,-3.719101548E-1,-3.462106735E-2
4.206065729E0,-1.510011256E-1,-3.740406930E-1,-2.396843210E-2
4.208553489E0,-1.637842804E-1,-3.697796464E-1,-1.544632297E-2
4.211041250E0,-1.765674502E-1,-3.580617309E-1,-5.858949851E-3
4.213529010E0,-1.893506050E-1,-3.399522603E-1,3.728422802E-3
4.216016771E0,-2.031990439E-1,-3.186469972E-1,1.331579592E-2
4.218504531E0,-2.170474678E-1,-2.952111959E-1,2.290316857E-2
4.220992292E0,-2.308958918E-1,-2.728406489E-1,3.142527863E-2
4.223480052E0,-2.458095849E-1,-2.494048476E-1,4.101264849E-2
4.225967812E0,-2.585927546E-1,-2.291648388E-1,4.953476042E-2
4.228455573E0,-2.703106403E-1,-2.099900991E-1,5.699160323E-2
4.230943333E0,-2.798980176E-1,-1.950764060E-1,6.444845349E-2
4.233431094E0,-2.884201407E-1,-1.844237745E-1,7.084003091E-2
4.235918854E0,-2.969422340E-1,-1.759016514E-1,7.723161578E-2
4.238406614E0,-3.033338189E-1,-1.716406047E-1,8.255793154E-2
4.240894375E0,-3.097254038E-1,-1.716406047E-1,8.788424730E-2
4.243382135E0,-3.161169887E-1,-1.759016514E-1,9.321057051E-2
4.245869896E0,-3.203780353E-1,-1.812279820E-1,9.853688627E-2
4.248357656E0,-3.246390820E-1,-1.908153445E-1,1.049284711E-1
4.250845417E0,-3.278348744E-1,-2.014679909E-1,1.091895252E-1
4.253333177E0,-3.299654126E-1,-2.131858915E-1,1.145158410E-1
4.255820937E0,-3.320959508E-1,-2.249037921E-1,1.198421568E-1
4.258308698E0,-3.342264593E-1,-2.344911546E-1,1.251684725E-1
4.260796458E0,-3.342264593E-1,-2.419480085E-1,1.304948032E-1
4.263284219E0,-3.342264593E-1,-2.483395934E-1,1.368863732E-1
4.265771979E0,-3.342264593E-1,-2.536658943E-1,1.454084814E-1
4.268259739E0,-3.342264593E-1,-2.568616867E-1,1.539305896E-1
4.270747500E0,-3.363569975E-1,-2.589922249E-1,1.635179669E-1
4.273235260E0,-3.406180441E-1,-2.579269707E-1,1.731053442E-1
4.275723021E0,-3.448790908E-1,-2.536658943E-1,1.848232448E-1
4.278210781E0,-3.491401672E-1,-2.462090552E-1,1.954758763E-1
4.280698542E0,-3.544664681E-1,-2.387522161E-1,2.071937770E-1
4.283186302E0,-3.587275445E-1,-2.280995846E-1,2.178464085E-1
4.285674062E0,-3.608580530E-1,-2.174469382E-1,2.263685167E-1
4.288161823E0,-3.629885912E-1,-2.067943066E-1,2.359558940E-1
4.290649583E0,-3.640538454E-1,-1.972069293E-1,2.444780022E-1
4.293137344E0,-3.640538454E-1,-1.865542978E-1,2.530001104E-1
4.295625104E0,-3.629885912E-1,-1.769669205E-1,2.593916953E-1
4.298112864E0,-3.629885912E-1,-1.663142890E-1,2.657832801E-1
4.300600625E0,-3.629885912E-1,-1.567269117E-1,2.711096108E-1
4.303088385E0,-3.619233072E-1,-1.471395344E-1,2.743053734E-1
4.305576146E0,-3.629885912E-1,-1.375521719E-1,2.764359117E-1
4.308063906E0,-3.619233072E-1,-1.279647946E-1,2.775011659E-1
4.310551667E0,-3.608580530E-1,-1.173121557E-1,2.764359117E-1
4.313039427E0,-3.597927988E-1,-1.077247858E-1,2.753706574E-1
4.315527187E0,-3.555317521E-1,-1.002679393E-1,2.711096108E-1
4.318014948E0,-3.523359597E-1,-9.281109273E-2,2.657832801E-1
4.320502708E0,-3.459443748E-1,-8.748477697E-2,2.593916953E-1
4.322990469E0,-3.406180441E-1,-8.322372288E-2,2.498043180E-1
4.325478229E0,-3.331612051E-1,-8.002793044E-2,2.380864173E-1
4.327965989E0,-3.246390820E-1,-7.683213800E-2,2.231727391E-1
4.330453750E0,-3.150517344E-1,-7.470161468E-2,2.071937770E-1
4.332941510E0,-3.054643571E-1,-7.576687634E-2,1.901495606E-1
4.335429271E0,-2.969422340E-1,-7.896266878E-2,1.709748209E-1
4.337917031E0,-2.873548567E-1,-8.535424620E-2,1.518000662E-1
4.340404792E0,-2.777675092E-1,-9.281109273E-2,1.326253265E-1
4.342892552E0,-2.681801319E-1,-1.023984700E-1,1.155811027E-1
4.345380312E0,-2.596580088E-1,-1.151816323E-1,9.747162461E-2
4.347868073E0,-2.500706315E-1,-1.279647946E-1,8.042740822E-2
4.350355833E0,-2.383527458E-1,-1.418132186E-1,6.338318437E-2
4.352843542E0,-2.266348451E-1,-1.567269117E-1,4.633896798E-2
4.355331250E0,-2.149169445E-1,-1.727058738E-1,3.036001325E-2
4.357818958E0,-2.010685056E-1,-1.886848211E-1,1.438105945E-2
4.360306667E0,-1.882853508E-1,-2.046637833E-1,-1.597895520E-3
4.362794375E0,-1.744369268E-1,-2.195774615E-1,-1.651158556E-2
4.365282083E0,-1.605884880E-1,-2.334259003E-1,-3.355580568E-2
4.367769792E0,-1.467400640E-1,-2.472743243E-1,-4.953476042E-2
4.370257500E0,-1.339569092E-1,-2.589922249E-1,-6.551371515E-2
4.372745208E0,-1.222390011E-1,-2.696448565E-1,-8.255793154E-2
4.375232917E0,-1.105211005E-1,-2.824280262E-1,-9.853688627E-2
4.377720625E0,-9.880319983E-2,-2.962764502E-1,-1.145158410E-1
4.380208333E0,-8.921582997E-2,-3.111901283E-1,-1.294295341E-1
4.382696042E0,-7.856319100E-2,-3.271690905E-1,-1.443432271E-1
4.385184375E0,-6.684529036E-2,-3.431480527E-1,-1.560611278E-1
4.387671927E0,-5.512739345E-2,-3.591270149E-1,-1.688442826E-1
4.390159479E0,-4.234423116E-2,-3.729754388E-1,-1.794969290E-1
4.392647031E0,-2.849580161E-2,-3.846933246E-1,-1.890842915E-1
4.395134583E0,-1.677790284E-2,-3.932154477E-1,-1.976063997E-1
4.397622135E0,-3.994738683E-3,-3.974764943E-1,-2.050632536E-1
4.400109687E0,6.657897960E-3,-3.974764943E-1,-2.114548385E-1
4.402597239E0,1.624527015E-2,-3.942807019E-1,-2.157158852E-1
4.405084844E0,2.476738021E-2,-3.878891170E-1,-2.210422009E-1
4.407572500E0,3.222422674E-2,-3.804322779E-1,-2.242379934E-1
4.410060208E0,4.074633494E-2,-3.719101548E-1,-2.263685167E-1
4.412547969E0,4.713791609E-2,-3.612575233E-1,-2.284990549E-1
4.415035781E0,5.566002429E-2,-3.506048918E-1,-2.306295782E-1
4.417523594E0,6.205160543E-2,-3.388870060E-1,-2.316948473E-1
4.420011406E0,6.737792492E-2,-3.271690905E-1,-2.327601016E-1
4.422499219E0,7.270424068E-2,-3.154512048E-1,-2.338253707E-1
4.424987031E0,7.483477145E-2,-3.026680350E-1,-2.348906398E-1
4.427474844E0,7.590003312E-2,-2.866890728E-1,-2.348906398E-1
4.429962656E0,7.803056389E-2,-2.685796022E-1,-2.348906398E-1
4.432450469E0,7.803056389E-2,-2.472743243E-1,-2.348906398E-1
4.434938281E0,7.909582555E-2,-2.227732539E-1,-2.348906398E-1
4.437426094E0,7.909582555E-2,-1.929458827E-1,-2.338253707E-1
4.439913906E0,7.696529478E-2,-1.620532274E-1,-2.327601016E-1
4.442401719E0,7.376950979E-2,-1.290300637E-1,-2.316948473E-1
4.444889531E0,6.737792492E-2,-9.494162351E-2,-2.316948473E-1
4.447377344E0,5.885581672E-2,-6.298371404E-2,-2.316948473E-1
4.449865156E0,4.926844314E-2,-3.102580272E-2,-2.327601016E-1
4.452352969E0,4.074633494E-2,-2.263685223E-3,-2.338253707E-1
4.454840781E0,3.115896136E-2,2.223737910E-2,-2.359558940E-1
4.457328594E0,2.050632425E-2,4.460791498E-2,-2.359558940E-1
4.459816354E0,1.091895252E-2,6.165213138E-2,-2.348906398E-1
4.462304062E0,1.331579522E-3,7.443529367E-2,-2.316948473E-1
4.464791771E0,-7.190529723E-3,8.508793265E-2,-2.274337858E-1
4.467279479E0,-1.464737486E-2,9.041424841E-2,-2.199769467E-1
4.469767187E0,-2.103895694E-2,9.361004084E-2,-2.103895694E-1
4.472254896E0,-2.743053809E-2,9.254477918E-2,-1.986716688E-1
4.474742604E0,-3.275685757E-2,9.041424841E-2,-1.848232448E-1
4.477230312E0,-3.701791167E-2,8.615319431E-2,-1.688442826E-1
4.479718021E0,-4.127896577E-2,7.976161689E-2,-1.518000662E-1
4.482205729E0,-4.340949282E-2,7.337003201E-2,-1.336905807E-1
4.484693437E0,-4.340949282E-2,6.804371625E-2,-1.145158410E-1
4.487181146E0,-4.234423116E-2,6.058686972E-2,-9.640636295E-2
4.489668854E0,-3.914843872E-2,5.526055023E-2,-7.829687744E-2
4.492156562E0,-3.275685757E-2,5.206476152E-2,-6.231792271E-2
4.494644271E0,-2.423474751E-2,4.993423447E-2,-4.740423337E-2
4.497131979E0,-1.251684781E-2,5.099949613E-2,-3.568633273E-2
4.499619687E0,-7.989477599E-4,5.632581562E-2,-2.716422267E-2
4.502107396E0,1.091895252E-2,6.271740049E-2,-2.077264152E-2
4.504595104E0,2.263685316E-2,7.443529367E-2,-1.864211448E-2
4.507082812E0,3.542001545E-2,8.934898674E-2,-2.077264152E-2
4.509570521E0,4.820318148E-2,1.085237339E-1,-2.609895915E-2
4.512058229E0,6.098634377E-2,1.319595277E-1,-3.568633273E-2
4.514545937E0,7.270424068E-2,1.564605981E-1,-4.846949503E-2
4.517033646E0,8.548741043E-2,1.841574460E-1,-6.338318437E-2
4.519521354E0,9.614004195E-2,2.107890397E-1,-8.149266988E-2
4.522009062E0,1.057274193E-1,2.384859025E-1,-1.017326787E-1
4.524496771E0,1.121189967E-1,2.629869580E-1,-1.219726875E-1
4.526984479E0,1.163800508E-1,2.874880135E-1,-1.422126889E-1
4.529472187E0,1.163800508E-1,3.098585606E-1,-1.624527127E-1
4.531959896E0,1.142495275E-1,3.279680312E-1,-1.805621833E-1
4.534447604E0,1.099884734E-1,3.428817391E-1,-1.976063997E-1
4.536935312E0,1.046621501E-1,3.524691164E-1,-2.135853618E-1
4.539423021E0,9.933583438E-2,3.556649089E-1,-2.284990549E-1
4.541910729E0,9.614004195E-2,3.514038324E-1,-2.412822098E-1
4.544398437E0,9.187898785E-2,3.386206925E-1,-2.519348562E-1
4.546886146E0,9.081372619E-2,3.194459379E-1,-2.615222335E-1
4.549373854E0,9.081372619E-2,2.949448824E-1,-2.689790726E-1
4.551861562E0,9.507478029E-2,2.651174963E-1,-2.753706574E-1
4.554349271E0,9.933583438E-2,2.320943177E-1,-2.796317041E-1
4.556836979E0,1.046621501E-1,1.958753467E-1,-2.817622423E-1
4.559324687E0,1.099884734E-1,1.585911214E-1,-2.828274965E-1
4.561812396E0,1.153147891E-1,1.213068962E-1,-2.828274965E-1
4.564300104E0,1.217063740E-1,8.508793265E-2,-2.817622423E-1
4.566787864E0,1.302284747E-1,5.313002318E-2,-2.796317041E-1
4.569275625E0,1.376853287E-1,2.649843320E-2,-2.785664499E-1
4.571763385E0,1.494032294E-1,5.193160381E-3,-2.785664499E-1
4.574251146E0,1.611211300E-1,-9.720530361E-3,-2.806969583E-1
4.576738906E0,1.717737615E-1,-1.717737690E-2,-2.838927507E-1
4.579226667E0,1.834916621E-1,-1.824264042E-2,-2.913496196E-1
4.581714427E0,1.930790395E-1,-1.291632187E-2,-2.988064587E-1
4.584202187E0,2.016011477E-1,-1.198421582E-3,-3.083938360E-1
4.586689948E0,2.079927325E-1,1.478053257E-2,-3.211769760E-1
4.589177708E0,2.122537792E-1,3.395527974E-2,-3.328948915E-1
4.591665469E0,2.143843025E-1,5.739107728E-2,-3.446127772E-1
4.594153229E0,2.133190483E-1,8.082687855E-2,-3.573959470E-1
4.596640989E0,2.090579867E-1,1.053279415E-1,-3.680485785E-1
4.599128750E0,2.016011477E-1,1.276984811E-1,-3.797664940E-1
4.601616510E0,1.952095628E-1,1.500690132E-1,-3.893538713E-1
4.604104271E0,1.866874546E-1,1.681784987E-1,-3.989412189E-1
4.606592031E0,1.792306006E-1,1.809616536E-1,-4.074633420E-1
4.609079792E0,1.707084924E-1,1.862879843E-1,-4.138549268E-1
4.611567552E0,1.611211300E-1,1.841574460E-1,-4.181159735E-1
4.614055312E0,1.504684836E-1,1.735048145E-1,-4.213117659E-1
4.616543073E0,1.419463754E-1,1.532648057E-1,-4.213117659E-1
4.619030833E0,1.334242672E-1,1.276984811E-1,-4.191812575E-1
4.621518594E0,1.259674281E-1,9.893636405E-2,-4.127896726E-1
4.624006354E0,1.206411049E-1,6.591318548E-2,-4.063980877E-1
4.626494114E0,1.153147891E-1,3.395527974E-2,-3.978759646E-1
4.628981875E0,1.121189967E-1,4.127896391E-3,-3.872233331E-1
4.631469635E0,1.067926809E-1,-2.356895804E-2,-3.755054474E-1
4.633957396E0,1.014663652E-1,-4.700475931E-2,-3.616569936E-1
4.636445156E0,9.400951862E-2,-6.511423737E-2,-3.478085697E-1
4.638932917E0,8.442214131E-2,-7.789740711E-2,-3.318296373E-1
4.641420677E0,7.376950979E-2,-8.748477697E-2,-3.158506751E-1
4.643908437E0,6.311687082E-2,-9.281109273E-2,-2.988064587E-1
4.646396198E0,5.246423557E-2,-9.600688517E-2,-2.828274965E-1
4.648883958E0,4.181159660E-2,-9.813741595E-2,-2.679138184E-1
4.651371719E0,3.328948840E-2,-9.813741595E-2,-2.540653646E-1
4.653859479E0,2.476738021E-2,-9.600688517E-2,-2.412822098E-1
4.656347239E0,1.624527015E-2,-9.281109273E-2,-2.284990549E-1
4.658835000E0,4.527370445E-3,-8.641951531E-2,-2.157158852E-1
4.661322760E0,-9.321057238E-3,-7.789740711E-2,-2.018674612E-1
4.663810521E0,-2.636527456E-2,-6.511423737E-2,-1.880190372E-1
4.666298281E0,-4.554001987E-2,-4.700475931E-2,-1.720400751E-1
4.668786042E0,-6.791055948E-2,-2.356895804E-2,-1.560611278E-1
4.671273802E0,-9.134636074E-2,1.997369342E-3,-1.400821656E-1
4.673761562E0,-1.158474237E-1,2.649843320E-2,-1.230379492E-1
4.676249323E0,-1.371526867E-1,4.780370742E-2,-1.070589945E-1
4.678737083E0,-1.573926955E-1,6.271740049E-2,-9.214530140E-2
4.681224844E0,-1.755021811E-1,6.910897791E-2,-7.829687744E-2
4.683712604E0,-1.893506050E-1,6.591318548E-2,-6.444845349E-2
4.686200364E0,-2.021337748E-1,5.099949613E-2,-4.953476042E-2
4.688688125E0,-2.127864063E-1,2.649843320E-2,-3.355580568E-2
4.691175885E0,-2.202432603E-1,-5.459476262E-3,-1.544632297E-2
4.693663646E0,-2.245043069E-1,-4.167843983E-2,5.858949851E-3
4.696151406E0,-2.245043069E-1,-8.002793044E-2,2.822948620E-2
4.698639167E0,-2.202432603E-1,-1.183774248E-1,5.486107618E-2
4.701126927E0,-2.159821987E-1,-1.556616426E-1,8.255793154E-2
4.703614687E0,-2.127864063E-1,-1.908153445E-1,1.123853177E-1
4.706102448E0,-2.127864063E-1,-2.217079997E-1,1.443432271E-1
4.708590208E0,-2.170474678E-1,-2.451438010E-1,1.763011366E-1
4.711077917E0,-2.234390527E-1,-2.632532716E-1,2.093243003E-1
4.713565625E0,-2.330264151E-1,-2.749711871E-1,2.434127480E-1
4.716053333E0,-2.415485233E-1,-2.834932804E-1,2.753706574E-1
4.718541042E0,-2.500706315E-1,-2.909501195E-1,3.062632978E-1
4.721028750E0,-2.543317080E-1,-2.994722426E-1,3.350254297E-1
4.723516458E0,-2.564622164E-1,-3.058638275E-1,3.584612012E-1
4.726004167E0,-2.543317080E-1,-3.101248741E-1,3.797664940E-1
4.728491875E0,-2.522011697E-1,-3.101248741E-1,3.989412189E-1
4.730979583E0,-2.543317080E-1,-3.026680350E-1,4.159854650E-1
4.733467292E0,-2.617885470E-1,-2.898848653E-1,4.319643974E-1
4.735955000E0,-2.788327634E-1,-2.707101107E-1,4.479433596E-1
4.738442708E0,-3.022685647E-1,-2.483395934E-1,4.649875760E-1
4.740930417E0,-3.299654126E-1,-2.217079997E-1,4.830970466E-1
4.743418125E0,-3.597927988E-1,-1.918806136E-1,5.033370852E-1
4.745905833E0,-3.864243925E-1,-1.620532274E-1,5.235770941E-1
4.748393542E0,-4.098601937E-1,-1.332911104E-1,5.448823571E-1
4.750881250E0,-4.290349185E-1,-1.066595241E-1,5.651223660E-1
4.753368958E0,-4.450138807E-1,-8.322372288E-2,5.842971206E-1
4.755856667E0,-4.588623047E-1,-6.724476814E-2,5.992107987E-1
4.758344375E0,-4.727107286E-1,-6.085318699E-2,6.098634601E-1
4.760832083E0,-4.876244366E-1,-6.191844866E-2,6.183855534E-1
4.763319792E0,-5.036033988E-1,-7.257108390E-2,6.247771382E-1
4.765807500E0,-5.217128396E-1,-9.174583107E-2,6.290381551E-1
4.768295208E0,-5.408875942E-1,-1.173121557E-1,6.311687231E-1
4.770782917E0,-5.579318404E-1,-1.460742801E-1,6.332992315E-1
4.773270625E0,-5.717802644E-1,-1.780321896E-1,6.343644857E-1
4.775758333E0,-5.824328661E-1,-2.089248300E-1,6.343644857E-1
4.778246042E0,-5.898897648E-1,-2.387522161E-1,6.332992315E-1
4.780733750E0,-5.962813497E-1,-2.643185556E-1,6.301034689E-1
4.783221458E0,-6.016076207E-1,-2.898848653E-1,6.237118840E-1
4.785709167E0,-6.069339514E-1,-3.154512048E-1,6.173202991E-1
4.788196875E0,-6.154560447E-1,-3.410175145E-1,6.098634601E-1
4.790684583E0,-6.250434518E-1,-3.697796464E-1,6.024065614E-1
4.793172292E0,-6.378266215E-1,-3.974764943E-1,5.970802903E-1
4.795660000E0,-6.527402997E-1,-4.219775498E-1,5.928192139E-1
4.798147708E0,-6.676539779E-1,-4.443480968E-1,5.906887054E-1
4.800635417E0,-6.825676560E-1,-4.613923132E-1,5.896234512E-1
4.803123125E0,-6.974813938E-1,-4.720449448E-1,5.896234512E-1
4.805610833E0,-7.113298178E-1,-4.752407372E-1,5.906887054E-1
4.808098542E0,-7.241129875E-1,-4.720449448E-1,5.896234512E-1
4.810586250E0,-7.347655892E-1,-4.613923132E-1,5.864276290E-1
4.813073958E0,-7.432876825E-1,-4.432828426E-1,5.832318664E-1
4.815561667E0,-7.518098354E-1,-4.187817574E-1,5.789707899E-1
4.818049375E0,-7.624624372E-1,-3.900196552E-1,5.747097135E-1
4.820537135E0,-7.763108611E-1,-3.569964767E-1,5.725792050E-1
4.823024896E0,-7.965508699E-1,-3.197122514E-1,5.747097135E-1
4.825512656E0,-8.199867010E-1,-2.802974880E-1,5.832318664E-1
4.828000417E0,-8.487488031E-1,-2.366216928E-1,5.970802903E-1
4.830488177E0,-8.796414733E-1,-1.918806136E-1,6.183855534E-1
4.832975937E0,-9.105340838E-1,-1.450090110E-1,6.450171471E-1
4.835463698E0,-9.382309318E-1,-1.002679393E-1,6.748445034E-1
4.837951458E0,-9.616667628E-1,-6.191844866E-2,7.089329362E-1
4.840439219E0,-9.808415174E-1,-2.889527567E-2,7.451519370E-1
4.842926979E0,-9.957551956E-1,-4.394212738E-3,7.813708782E-1
4.845414739E0,-1.008538365E0,1.371526904E-2,8.165245652E-1
4.847902500E0,-1.018125772E0,2.649843320E-2,8.506129980E-1
4.850390260E0,-1.030908942E0,3.289001435E-2,8.847014308E-1
4.852878021E0,-1.045822620E0,3.502054140E-2,9.166593552E-1
4.855365781E0,-1.062866807E0,3.182475269E-2,9.464867711E-1
4.857853542E0,-1.082041502E0,2.223737910E-2,9.741836190E-1
4.860341302E0,-1.102281570E0,6.258423906E-3,9.986846447E-1
4.862829062E0,-1.120391011E0,-1.504684892E-2,1.021055222E0
4.865316823E0,-1.136369944E0,-4.061317816E-2,1.043425679E0
4.867804583E0,-1.147022605E0,-6.831002980E-2,1.063665748E0
4.870292344E0,-1.154479504E0,-9.707214683E-2,1.086036325E0
4.872780104E0,-1.164066792E0,-1.332911104E-1,1.107341528E0
4.875267864E0,-1.177915215E0,-1.748363972E-1,1.128646851E0
4.877755625E0,-1.189633131E0,-2.174469382E-1,1.148886800E0
4.880243385E0,-1.196024776E0,-2.611227632E-1,1.162735224E0
4.882731146E0,-1.201351047E0,-3.079943359E-1,1.170192122E0
4.885218906E0,-1.205612183E0,-3.601922691E-1,1.172322631E0
4.887706667E0,-1.210938454E0,-4.155859649E-1,1.168061614E0
4.890194427E0,-1.220525861E0,-4.741754830E-1,1.163800478E0
4.892682187E0,-1.231178403E0,-5.327649713E-1,1.157408953E0
4.895169948E0,-1.241831064E0,-5.892239809E-1,1.154213190E0
4.897657708E0,-1.251418471E0,-6.414218545E-1,1.152082682E0
4.900145469E0,-1.258875251E0,-6.850976944E-1,1.152082682E0
4.902633229E0,-1.265266895E0,-7.191861272E-1,1.152082682E0
4.905120989E0,-1.270593166E0,-7.436871529E-1,1.154213190E0
4.907608750E0,-1.276984811E0,-7.607313991E-1,1.159539461E0
4.910096510E0,-1.284441590E0,-7.724493146E-1,1.172322631E0
4.912584271E0,-1.294028997E0,-7.831019163E-1,1.194693208E0
4.915072031E0,-1.306812167E0,-7.948198318E-1,1.226651073E0
4.917559792E0,-1.323856354E0,-8.097335100E-1,1.268196344E0
4.920047552E0,-1.340900660E0,-8.267777562E-1,1.317198515E0
4.922535312E0,-1.359010100E0,-8.459525108E-1,1.371526957E0
4.925023073E0,-1.378184795E0,-8.640619516E-1,1.426920652E0
4.927510833E0,-1.396294355E0,-8.800409436E-1,1.479118586E0
4.929998594E0,-1.414403796E0,-8.928241134E-1,1.525990129E0
4.932486354E0,-1.430382729E0,-9.013462067E-1,1.564339638E0
4.934974114E0,-1.441035390E0,-9.066725373E-1,1.593101740E0
4.937461875E0,-1.448492289E0,-9.045419693E-1,1.612276554E0
4.939949635E0,-1.450622797E0,-8.960198760E-1,1.621863842E0
4.942437396E0,-1.448492289E0,-8.779103756E-1,1.621863842E0
4.944925156E0,-1.442100644E0,-8.544746041E-1,1.615472317E0
4.947412917E0,-1.432513237E0,-8.289082646E-1,1.600558639E0
4.949900677E0,-1.417599559E0,-8.065377474E-1,1.578188062E0
4.952388437E0,-1.401620626E0,-7.788408995E-1,1.550491214E0
4.954876198E0,-1.378184795E0,-7.404913902E-1,1.517468095E0
4.957363958E0,-1.350487947E0,-7.000113726E-1,1.480183840E0
4.959851719E0,-1.319595337E0,-6.659229398E-1,1.435442805E0
4.962339479E0,-1.285506845E0,-6.414218545E-1,1.381114364E0
4.964827187E0,-1.250353217E0,-6.307692528E-1,1.324655294E0
4.967314896E0,-1.214134216E0,-6.318345070E-1,1.263935328E0
4.969802604E0,-1.178980589E0,-6.424871087E-1,1.205345869E0
4.972290312E0,-1.140631080E0,-6.595313549E-1,1.145691037E0
4.974778021E0,-1.101216316E0,-6.808366179E-1,1.086036325E0
4.977265729E0,-1.062866807E0,-7.032071352E-1,1.025316238E0
4.979753437E0,-1.023452044E0,-7.266429663E-1,9.635309577E-1
4.982241146E0,-9.861677885E-1,-7.500787377E-1,8.996151686E-1
4.984728854E0,-9.510141015E-1,-7.809714079E-1,8.335688114E-1
4.987216562E0,-9.190561771E-1,-8.171903491E-1,7.675224543E-1
4.989704271E0,-8.892288208E-1,-8.395609260E-1,7.078676820E-1
4.992191979E0,-8.519446254E-1,-8.299735188E-1,6.567350626E-1
4.994679687E0,-8.072035313E-1,-7.884282470E-1,6.162550449E-1
4.997167396E0,-7.667235136E-1,-7.319692969E-1,5.832318664E-1
4.999655104E0,-7.337003350E-1,-6.723145247E-1,5.544697046E-1
5.002142812E0,-7.049382329E-1,-6.179860830E-1,5.278381109E-1
