"Time (s)","Gyroscope x (rad/s)","Gyroscope y (rad/s)","Gyroscope z (rad/s)"
9.841991400E-2,1.355548054E-1,2.288985252E-1,1.518000662E-1
1.009699140E-1,1.344895363E-1,2.363553643E-1,1.571263820E-1
1.035199140E-1,1.334242672E-1,2.459427416E-1,1.613874435E-1
1.060699140E-1,1.334242672E-1,2.565953732E-1,1.677790284E-1
1.086199140E-1,1.323590130E-1,2.693785429E-1,1.720400751E-1
1.111699140E-1,1.334242672E-1,2.821617126E-1,1.773663908E-1
1.137199140E-1,1.323590130E-1,2.938795984E-1,1.826927215E-1
1.162699140E-1,1.323590130E-1,3.045322299E-1,1.869537681E-1
1.188199140E-1,1.312937438E-1,3.141196072E-1,1.922800839E-1
1.213699140E-1,1.312937438E-1,3.226417303E-1,1.965411454E-1
1.239199140E-1,1.312937438E-1,3.311638236E-1,2.008021921E-1
1.264699140E-1,1.312937438E-1,3.386206925E-1,2.050632536E-1
1.290199140E-1,1.302284747E-1,3.450122476E-1,2.103895694E-1
1.315699140E-1,1.302284747E-1,3.503385782E-1,2.167811543E-1
1.341199140E-1,1.291632205E-1,3.535343707E-1,2.221074700E-1
1.366699140E-1,1.280979514E-1,3.556649089E-1,2.284990549E-1
1.392199140E-1,1.280979514E-1,3.556649089E-1,2.338253707E-1
1.417699140E-1,1.270326823E-1,3.535343707E-1,2.402169555E-1
1.443199140E-1,1.270326823E-1,3.482080400E-1,2.455432713E-1
1.468699140E-1,1.259674281E-1,3.407512009E-1,2.508696020E-1
1.494199140E-1,1.249021590E-1,3.290333152E-1,2.572611570E-1
1.519699140E-1,1.238368973E-1,3.151848912E-1,2.625874877E-1
1.545199140E-1,1.217063740E-1,2.992059290E-1,2.679138184E-1
1.570699140E-1,1.206411049E-1,2.842922211E-1,2.721748650E-1
1.596199140E-1,1.195758432E-1,2.672480047E-1,2.764359117E-1
1.621699140E-1,1.195758432E-1,2.512690723E-1,2.806969583E-1
1.647199140E-1,1.185105816E-1,2.342248410E-1,2.838927507E-1
1.672699140E-1,1.185105816E-1,2.193111479E-1,2.860232890E-1
1.698199140E-1,1.174453199E-1,2.043974549E-1,2.881538272E-1
1.723699140E-1,1.174453199E-1,1.894837767E-1,2.902843356E-1
1.749199140E-1,1.163800508E-1,1.756353378E-1,2.902843356E-1
1.774699140E-1,1.163800508E-1,1.607216448E-1,2.892190814E-1
1.799672580E-1,1.153147891E-1,1.479384899E-1,2.881538272E-1
1.824550700E-1,1.142495275E-1,1.372858584E-1,2.870885432E-1
1.849428830E-1,1.131842583E-1,1.287637353E-1,2.849580348E-1
1.874306950E-1,1.131842583E-1,1.234374270E-1,2.828274965E-1
1.899185080E-1,1.121189967E-1,1.202416345E-1,2.806969583E-1
1.924063200E-1,1.131842583E-1,1.202416345E-1,2.785664499E-1
1.948941330E-1,1.142495275E-1,1.223721579E-1,2.764359117E-1
1.973819450E-1,1.153147891E-1,1.255679578E-1,2.743053734E-1
1.998697580E-1,1.163800508E-1,1.287637353E-1,2.721748650E-1
2.023575700E-1,1.185105816E-1,1.340900660E-1,2.700443268E-1
2.048453830E-1,1.206411049E-1,1.383511126E-1,2.689790726E-1
2.073331950E-1,1.227716357E-1,1.426121742E-1,2.668485343E-1
2.098210080E-1,1.249021590E-1,1.458079666E-1,2.668485343E-1
2.123088200E-1,1.259674281E-1,1.468732208E-1,2.657832801E-1
2.147966330E-1,1.259674281E-1,1.479384899E-1,2.647180259E-1
2.172844450E-1,1.259674281E-1,1.479384899E-1,2.636527419E-1
2.197722580E-1,1.259674281E-1,1.490037590E-1,2.636527419E-1
2.222600700E-1,1.249021590E-1,1.479384899E-1,2.625874877E-1
2.247478830E-1,1.249021590E-1,1.490037590E-1,2.636527419E-1
2.272356950E-1,1.238368973E-1,1.490037590E-1,2.647180259E-1
2.297235080E-1,1.227716357E-1,1.500690132E-1,2.657832801E-1
2.322113200E-1,1.227716357E-1,1.511342824E-1,2.657832801E-1
2.346991330E-1,1.217063740E-1,1.521995366E-1,2.668485343E-1
2.371869450E-1,1.206411049E-1,1.532648057E-1,2.679138184E-1
2.396747580E-1,1.195758432E-1,1.532648057E-1,2.689790726E-1
2.421625700E-1,1.163800508E-1,1.532648057E-1,2.689790726E-1
2.446503830E-1,1.142495275E-1,1.511342824E-1,2.689790726E-1
2.471381950E-1,1.099884734E-1,1.468732208E-1,2.679138184E-1
2.496260080E-1,1.057274193E-1,1.404816359E-1,2.668485343E-1
2.521138200E-1,1.004010960E-1,1.340900660E-1,2.647180259E-1
2.546016330E-1,9.614004195E-2,1.287637353E-1,2.636527419E-1
2.570894450E-1,9.081372619E-2,1.234374270E-1,2.615222335E-1
2.595772580E-1,8.655267209E-2,1.191763729E-1,2.593916953E-1
2.620650700E-1,8.335687965E-2,1.181111038E-1,2.572611570E-1
2.645528830E-1,7.909582555E-2,1.191763729E-1,2.540653646E-1
2.670406950E-1,7.483477145E-2,1.223721579E-1,2.508696020E-1
2.695285080E-1,7.057371736E-2,1.266332120E-1,2.466085255E-1
2.720163200E-1,6.737792492E-2,1.330247968E-1,2.412822098E-1
2.745041330E-1,6.311687082E-2,1.394163817E-1,2.359558940E-1
2.769919450E-1,5.779055133E-2,1.447426975E-1,2.316948473E-1
2.794797580E-1,5.459476262E-2,1.500690132E-1,2.263685167E-1
2.819675700E-1,5.033370852E-2,1.532648057E-1,2.210422009E-1
2.844553830E-1,4.713791609E-2,1.564605981E-1,2.146506310E-1
2.869431950E-1,4.394212365E-2,1.607216448E-1,2.103895694E-1
2.894310080E-1,4.074633494E-2,1.649827063E-1,2.050632536E-1
2.919188200E-1,3.755054250E-2,1.703090221E-1,2.018674612E-1
2.944066330E-1,3.328948840E-2,1.788311303E-1,1.986716688E-1
2.968944450E-1,3.009369783E-2,1.884185076E-1,1.954758763E-1
2.993822580E-1,2.689790726E-2,2.012016773E-1,1.944106072E-1
3.018700700E-1,2.263685316E-2,2.139848322E-1,1.944106072E-1
3.043578830E-1,1.837579720E-2,2.299637944E-1,1.944106072E-1
3.068456950E-1,1.304947957E-2,2.470080107E-1,1.965411454E-1
3.093335080E-1,8.788425475E-3,2.629869580E-1,1.997369379E-1
3.118213200E-1,5.592633970E-3,2.789659202E-1,2.018674612E-1
3.143091330E-1,1.331579522E-3,2.928143442E-1,2.039979845E-1
3.167969450E-1,-7.989477599E-4,3.045322299E-1,2.071937770E-1
3.192847580E-1,-3.994738683E-3,3.130543530E-1,2.103895694E-1
3.217725700E-1,-6.125265732E-3,3.205111921E-1,2.125200927E-1
3.242603830E-1,-6.125265732E-3,3.247722387E-1,2.146506310E-1
3.267481950E-1,-7.190529723E-3,3.290333152E-1,2.157158852E-1
3.292360080E-1,-6.125265732E-3,3.343596160E-1,2.157158852E-1
3.317238200E-1,-6.125265732E-3,3.386206925E-1,2.157158852E-1
3.342116330E-1,-6.125265732E-3,3.439469934E-1,2.135853618E-1
3.366994450E-1,-7.190529723E-3,3.514038324E-1,2.125200927E-1
3.391872580E-1,-7.190529723E-3,3.588607013E-1,2.093243003E-1
3.416750700E-1,-9.321057238E-3,3.684480488E-1,2.061285079E-1
3.441628830E-1,-1.145158429E-2,3.759049177E-1,2.018674612E-1
3.466506950E-1,-1.464737486E-2,3.822965026E-1,1.976063997E-1
3.491385080E-1,-1.890842989E-2,3.876228034E-1,1.944106072E-1
3.516263200E-1,-2.210422046E-2,3.908185959E-1,1.890842915E-1
3.541141330E-1,-2.530001104E-2,3.929491341E-1,1.848232448E-1
3.566019450E-1,-2.849580161E-2,3.929491341E-1,1.805621833E-1
3.590897580E-1,-2.956106514E-2,3.929491341E-1,1.763011366E-1
3.615775700E-1,-3.169159219E-2,3.929491341E-1,1.731053442E-1
3.640653830E-1,-3.169159219E-2,3.918838501E-1,1.688442826E-1
3.665531950E-1,-3.062633052E-2,3.908185959E-1,1.645832360E-1
3.690410080E-1,-3.062633052E-2,3.886880577E-1,1.592569202E-1
3.715288200E-1,-2.956106514E-2,3.854922652E-1,1.549958587E-1
3.740166330E-1,-2.849580161E-2,3.812312186E-1,1.496695429E-1
3.765044450E-1,-2.743053809E-2,3.759049177E-1,1.443432271E-1
3.789922580E-1,-2.636527456E-2,3.684480488E-1,1.368863732E-1
3.814800700E-1,-2.530001104E-2,3.599259555E-1,1.304948032E-1
3.839678830E-1,-2.530001104E-2,3.492733240E-1,1.219726875E-1
3.864556950E-1,-2.530001104E-2,3.396859467E-1,1.145158410E-1
3.889435080E-1,-2.423474751E-2,3.290333152E-1,1.059937328E-1
3.914313200E-1,-2.316948399E-2,3.194459379E-1,9.747162461E-2
3.939191330E-1,-2.103895694E-2,3.098585606E-1,8.894951642E-2
3.964069970E-1,-1.890842989E-2,3.002711833E-1,8.042740822E-2
3.988948620E-1,-1.677790284E-2,2.928143442E-1,7.084003091E-2
4.013827270E-1,-1.358211134E-2,2.864227593E-1,6.231792271E-2
4.038705910E-1,-1.145158429E-2,2.800311744E-1,5.273054913E-2
4.063584560E-1,-9.321057238E-3,2.757701278E-1,4.420844093E-2
4.088463200E-1,-6.125265732E-3,2.747048736E-1,3.568633273E-2
4.113341850E-1,-3.994738683E-3,2.768353820E-1,2.716422267E-2
4.138220490E-1,-2.929474926E-3,2.821617126E-1,1.970737800E-2
4.163099140E-1,-1.864211401E-3,2.896185517E-1,1.225053146E-2
4.187977790E-1,-7.989477599E-4,3.002711833E-1,5.858949851E-3
4.212856430E-1,2.663159103E-4,3.141196072E-1,-5.326318205E-4
4.237735080E-1,2.663159103E-4,3.311638236E-1,-4.793686327E-3
4.262613720E-1,1.331579522E-3,3.492733240E-1,-1.012000442E-2
4.287492370E-1,2.396843163E-3,3.705785871E-1,-1.438105945E-2
4.312371020E-1,2.396843163E-3,3.908185959E-1,-1.757685095E-2
4.337249660E-1,2.396843163E-3,4.121238589E-1,-2.077264152E-2
4.362128310E-1,2.396843163E-3,4.334291518E-1,-2.290316857E-2
4.387006950E-1,4.527370445E-3,4.547344148E-1,-2.503369562E-2
4.411885600E-1,5.592633970E-3,4.760396779E-1,-2.822948620E-2
4.436764240E-1,6.657897960E-3,4.941491783E-1,-3.142527863E-2
4.461642890E-1,7.723161485E-3,5.101281404E-1,-3.462106735E-2
4.486521540E-1,8.788425475E-3,5.229113102E-1,-3.781685978E-2
4.511400180E-1,1.091895252E-2,5.335639119E-1,-4.314317927E-2
4.536278830E-1,1.091895252E-2,5.399554968E-1,-4.740423337E-2
4.561157470E-1,1.198421605E-2,5.410207510E-1,-5.166528746E-2
4.586036120E-1,1.091895252E-2,5.399554968E-1,-5.699160323E-2
4.610914770E-1,9.853689000E-3,5.356944799E-1,-6.338318437E-2
4.635793410E-1,7.723161485E-3,5.293028951E-1,-6.870950758E-2
4.660672060E-1,6.657897960E-3,5.218459964E-1,-7.297056168E-2
4.685550700E-1,4.527370445E-3,5.133239031E-1,-7.829687744E-2
4.710429350E-1,3.462106921E-3,5.037365556E-1,-8.149266988E-2
4.735307990E-1,3.462106921E-3,4.941491783E-1,-8.362319320E-2
4.760186640E-1,4.527370445E-3,4.834965467E-1,-8.681898564E-2
4.785064770E-1,4.527370445E-3,4.739091694E-1,-8.788424730E-2
4.809942890E-1,6.657897960E-3,4.632565379E-1,-8.894951642E-2
4.834821020E-1,6.657897960E-3,4.515386224E-1,-9.001477808E-2
4.859699140E-1,7.723161485E-3,4.387554526E-1,-9.001477808E-2
4.884577270E-1,8.788425475E-3,4.238417745E-1,-9.108003974E-2
4.909455390E-1,8.788425475E-3,4.078628123E-1,-9.108003974E-2
4.934333520E-1,1.091895252E-2,3.918838501E-1,-9.108003974E-2
4.959211640E-1,1.198421605E-2,3.759049177E-1,-9.108003974E-2
4.984089770E-1,1.411474310E-2,3.609912097E-1,-9.214530140E-2
5.008967890E-1,1.731053367E-2,3.471427858E-1,-9.214530140E-2
5.033846020E-1,1.944106072E-2,3.364901543E-1,-9.214530140E-2
5.058724140E-1,2.263685316E-2,3.290333152E-1,-9.214530140E-2
5.083602270E-1,2.476738021E-2,3.247722387E-1,-9.214530140E-2
5.108480390E-1,2.689790726E-2,3.269027770E-1,-9.321057051E-2
5.133358520E-1,2.902843431E-2,3.343596160E-1,-9.321057051E-2
5.158236640E-1,3.115896136E-2,3.482080400E-1,-9.534109384E-2
5.183114770E-1,3.435475379E-2,3.673827946E-1,-9.640636295E-2
5.207992890E-1,3.648528084E-2,3.929491341E-1,-9.853688627E-2
5.232871020E-1,3.755054250E-2,4.238417745E-1,-1.006674170E-1
5.257749140E-1,3.968106955E-2,4.611259997E-1,-1.038632020E-1
5.282627270E-1,4.181159660E-2,5.016059875E-1,-1.070589945E-1
5.307505390E-1,4.394212365E-2,5.463470817E-1,-1.102547869E-1
5.332383520E-1,4.500738904E-2,5.921534300E-1,-1.155811027E-1
5.357261640E-1,4.607265070E-2,6.411555409E-1,-1.198421568E-1
5.382139770E-1,4.713791609E-2,6.901576519E-1,-1.241032109E-1
5.407017890E-1,4.820318148E-2,7.370292544E-1,-1.294295341E-1
5.431896020E-1,4.820318148E-2,7.828356028E-1,-1.315600574E-1
5.456774140E-1,4.926844314E-2,8.243808746E-1,-1.347558498E-1
5.481652270E-1,5.033370852E-2,8.616651297E-1,-1.379516423E-1
5.506530390E-1,5.139897019E-2,8.936230540E-1,-1.400821656E-1
5.531408520E-1,5.246423557E-2,9.191893935E-1,-1.422126889E-1
5.556286640E-1,5.459476262E-2,9.394294024E-1,-1.432779580E-1
5.581164770E-1,5.672528967E-2,9.522125125E-1,-1.443432271E-1
5.606042890E-1,5.992107838E-2,9.586040974E-1,-1.454084814E-1
5.630921020E-1,6.418213248E-2,9.575388432E-1,-1.464737505E-1
5.655799140E-1,6.631266326E-2,9.511472583E-1,-1.464737505E-1
5.680677270E-1,6.737792492E-2,9.383640885E-1,-1.475390196E-1
5.705555390E-1,6.844318658E-2,9.223851562E-1,-1.475390196E-1
5.730433520E-1,6.950845569E-2,9.032104015E-1,-1.486042738E-1
5.755311640E-1,7.057371736E-2,8.808398843E-1,-1.496695429E-1
5.780189770E-1,7.163897902E-2,8.563387990E-1,-1.496695429E-1
5.805067890E-1,7.270424068E-2,8.307724595E-1,-1.486042738E-1
5.829946020E-1,7.270424068E-2,8.020103574E-1,-1.486042738E-1
5.854824140E-1,7.270424068E-2,7.721830010E-1,-1.464737505E-1
5.879702270E-1,7.270424068E-2,7.402250767E-1,-1.443432271E-1
5.904580390E-1,7.163897902E-2,7.082671523E-1,-1.422126889E-1
5.929458520E-1,7.057371736E-2,6.763092279E-1,-1.390169114E-1
5.954336640E-1,6.844318658E-2,6.454166174E-1,-1.358211190E-1
5.979214770E-1,6.737792492E-2,6.187850237E-1,-1.315600574E-1
6.004092890E-1,6.631266326E-2,5.964145064E-1,-1.262337416E-1
6.028971020E-1,6.524740160E-2,5.793702602E-1,-1.219726875E-1
6.053849140E-1,6.524740160E-2,5.676523447E-1,-1.177116334E-1
6.078727270E-1,6.524740160E-2,5.601955056E-1,-1.123853177E-1
6.103605390E-1,6.524740160E-2,5.569997430E-1,-1.081242561E-1
6.128483520E-1,6.524740160E-2,5.559344888E-1,-1.027979404E-1
6.153361640E-1,6.524740160E-2,5.580649972E-1,-9.853688627E-2
6.178239770E-1,6.524740160E-2,5.612607598E-1,-9.427583218E-2
6.203117890E-1,6.524740160E-2,5.655218363E-1,-9.108003974E-2
6.227996020E-1,6.524740160E-2,5.708481669E-1,-8.788424730E-2
6.252874140E-1,6.418213248E-2,5.761744976E-1,-8.468846232E-2
6.277752270E-1,6.311687082E-2,5.836313367E-1,-8.255793154E-2
6.302630390E-1,6.418213248E-2,5.900229216E-1,-7.936213911E-2
6.327508520E-1,6.418213248E-2,5.974797606E-1,-7.723161578E-2
6.352386640E-1,6.418213248E-2,6.028060913E-1,-7.510108501E-2
6.377264770E-1,6.418213248E-2,6.081323624E-1,-7.297056168E-2
6.402142890E-1,6.418213248E-2,6.113281846E-1,-7.084003091E-2
6.427021020E-1,6.524740160E-2,6.123934388E-1,-6.870950758E-2
6.451899140E-1,6.418213248E-2,6.113281846E-1,-6.764423847E-2
6.476777270E-1,6.205160543E-2,6.081323624E-1,-6.444845349E-2
6.501655390E-1,5.992107838E-2,6.006755233E-1,-6.231792271E-2
6.526533520E-1,5.779055133E-2,5.910881758E-1,-6.018739566E-2
6.551411640E-1,5.566002429E-2,5.783050060E-1,-5.805686861E-2
6.576289770E-1,5.459476262E-2,5.633913279E-1,-5.592634156E-2
6.601167890E-1,5.459476262E-2,5.463470817E-1,-5.273054913E-2
6.626046020E-1,5.352949724E-2,5.271723270E-1,-5.060002208E-2
6.650924140E-1,5.566002429E-2,5.069323182E-1,-4.846949503E-2
6.675802270E-1,5.779055133E-2,4.845618010E-1,-4.633896798E-2
6.700680390E-1,5.992107838E-2,4.600607455E-1,-4.527370632E-2
6.725558520E-1,6.205160543E-2,4.334291518E-1,-4.420844093E-2
6.750436640E-1,6.418213248E-2,4.046670198E-1,-4.314317927E-2
6.775314770E-1,6.418213248E-2,3.737743795E-1,-4.314317927E-2
6.800192890E-1,6.524740160E-2,3.396859467E-1,-4.314317927E-2
6.825071020E-1,6.524740160E-2,3.055975139E-1,-4.527370632E-2
6.849949140E-1,6.524740160E-2,2.704437971E-1,-4.527370632E-2
6.874827270E-1,6.524740160E-2,2.363553643E-1,-4.633896798E-2
6.899705390E-1,6.524740160E-2,2.033322006E-1,-4.633896798E-2
6.924583520E-1,6.418213248E-2,1.745700836E-1,-4.740423337E-2
6.949461640E-1,6.418213248E-2,1.490037590E-1,-4.846949503E-2
6.974339770E-1,6.418213248E-2,1.287637353E-1,-4.740423337E-2
6.999217890E-1,6.418213248E-2,1.138500497E-1,-4.740423337E-2
7.024096020E-1,6.311687082E-2,1.031974182E-1,-4.740423337E-2
7.048974140E-1,6.311687082E-2,9.574057162E-2,-4.633896798E-2
7.073852270E-1,6.098634377E-2,9.041424841E-2,-4.420844093E-2
7.098730390E-1,5.779055133E-2,8.508793265E-2,-4.314317927E-2
7.123608520E-1,5.566002429E-2,8.189214021E-2,-3.994738683E-2
7.148486640E-1,5.246423557E-2,7.869634777E-2,-3.675159439E-2
7.173364770E-1,4.926844314E-2,7.550056279E-2,-3.355580568E-2
7.198242890E-1,4.713791609E-2,7.017423958E-2,-2.929474972E-2
7.223121020E-1,4.607265070E-2,6.591318548E-2,-2.503369562E-2
7.247999140E-1,4.500738904E-2,6.165213138E-2,-2.077264152E-2
7.272877270E-1,4.500738904E-2,5.632581562E-2,-1.651158556E-2
7.297755390E-1,4.500738904E-2,5.206476152E-2,-1.331579592E-2
7.322633520E-1,4.607265070E-2,4.567318037E-2,-9.054740891E-3
7.347511640E-1,4.713791609E-2,4.141212255E-2,-5.858949851E-3
7.372389770E-1,4.713791609E-2,3.608580679E-2,-2.663159044E-3
7.397267890E-1,4.820318148E-2,3.075948730E-2,-5.326318205E-4
7.422146020E-1,4.820318148E-2,2.649843320E-2,1.597895520E-3
7.447024140E-1,4.820318148E-2,2.436790615E-2,2.663159044E-3
7.471902270E-1,4.713791609E-2,2.330264263E-2,2.663159044E-3
7.496780390E-1,4.607265070E-2,2.330264263E-2,2.663159044E-3
7.521659040E-1,4.607265070E-2,2.436790615E-2,2.663159044E-3
7.546537680E-1,4.500738904E-2,2.543316968E-2,2.663159044E-3
7.571416330E-1,4.287686199E-2,2.756369673E-2,1.597895520E-3
7.596294970E-1,4.181159660E-2,3.075948730E-2,-5.326318205E-4
7.621173620E-1,3.968106955E-2,3.395527974E-2,-2.663159044E-3
7.646052270E-1,3.861580789E-2,3.715106845E-2,-4.793686327E-3
7.670930910E-1,3.648528084E-2,4.034686089E-2,-6.924213842E-3
7.695809560E-1,3.435475379E-2,4.567318037E-2,-7.989477366E-3
7.720688200E-1,3.222422674E-2,5.099949613E-2,-1.012000442E-2
7.745566850E-1,2.902843431E-2,5.526055023E-2,-1.331579592E-2
7.770445490E-1,2.689790726E-2,5.845634267E-2,-1.544632297E-2
7.795324140E-1,2.476738021E-2,6.165213138E-2,-1.864211448E-2
7.820202790E-1,2.263685316E-2,6.271740049E-2,-2.077264152E-2
7.845081430E-1,2.157158963E-2,6.165213138E-2,-2.396843210E-2
7.869960080E-1,2.157158963E-2,5.845634267E-2,-2.716422267E-2
7.894838720E-1,2.263685316E-2,5.099949613E-2,-3.036001325E-2
7.919717370E-1,2.263685316E-2,4.141212255E-2,-3.355580568E-2
7.944596020E-1,2.263685316E-2,2.969422378E-2,-3.568633273E-2
7.969474660E-1,2.263685316E-2,1.478053257E-2,-3.888212144E-2
7.994353310E-1,2.050632425E-2,-1.198421582E-3,-4.101264849E-2
8.019231950E-1,1.944106072E-2,-1.611211337E-2,-4.314317927E-2
8.044110600E-1,1.731053367E-2,-2.996053919E-2,-4.527370632E-2
8.068989240E-1,1.411474310E-2,-4.274370521E-2,-4.633896798E-2
8.093867890E-1,1.198421605E-2,-5.233107507E-2,-4.633896798E-2
8.118746540E-1,9.853689000E-3,-5.978792161E-2,-4.527370632E-2
8.143625180E-1,7.723161485E-3,-6.404897571E-2,-4.420844093E-2
8.168503830E-1,5.592633970E-3,-6.617950648E-2,-4.207791388E-2
8.193382470E-1,4.527370445E-3,-6.724476814E-2,-3.888212144E-2
8.218261120E-1,4.527370445E-3,-6.831002980E-2,-3.675159439E-2
8.243139770E-1,2.396843163E-3,-6.937529147E-2,-3.462106735E-2
8.268018410E-1,1.331579522E-3,-7.257108390E-2,-3.142527863E-2
8.292896540E-1,-7.989477599E-4,-7.683213800E-2,-2.822948620E-2
8.317774660E-1,-1.864211401E-3,-8.109319210E-2,-2.609895915E-2
8.342652790E-1,-1.864211401E-3,-8.641951531E-2,-2.290316857E-2
8.367530910E-1,-2.929474926E-3,-9.068056941E-2,-2.077264152E-2
8.392409040E-1,-2.929474926E-3,-9.387636185E-2,-1.864211448E-2
8.417287160E-1,-2.929474926E-3,-9.494162351E-2,-1.651158556E-2
8.442165290E-1,-2.929474926E-3,-9.494162351E-2,-1.544632297E-2
8.467043410E-1,-1.864211401E-3,-9.281109273E-2,-1.331579592E-2
8.491921540E-1,-7.989477599E-4,-9.068056941E-2,-1.331579592E-2
8.516799660E-1,-7.989477599E-4,-8.748477697E-2,-1.225053146E-2
8.541677790E-1,-7.989477599E-4,-8.322372288E-2,-1.331579592E-2
8.566555910E-1,2.663159103E-4,-8.002793044E-2,-1.438105945E-2
8.591434040E-1,2.663159103E-4,-7.683213800E-2,-1.544632297E-2
8.616312160E-1,1.331579522E-3,-7.257108390E-2,-1.864211448E-2
8.641190290E-1,1.331579522E-3,-6.831002980E-2,-2.183790505E-2
8.666068410E-1,2.396843163E-3,-6.298371404E-2,-2.503369562E-2
8.690946540E-1,3.462106921E-3,-5.659212917E-2,-2.929474972E-2
8.715824660E-1,4.527370445E-3,-4.807002097E-2,-3.355580568E-2
8.740702790E-1,4.527370445E-3,-3.954791278E-2,-3.888212144E-2
8.765580910E-1,4.527370445E-3,-2.996053919E-2,-4.314317927E-2
8.790459040E-1,4.527370445E-3,-1.930790395E-2,-4.740423337E-2
8.815337160E-1,4.527370445E-3,-9.720530361E-3,-5.166528746E-2
8.840215290E-1,4.527370445E-3,-1.198421582E-3,-5.486107618E-2
8.865093410E-1,4.527370445E-3,6.258423906E-3,-5.805686861E-2
8.889971540E-1,4.527370445E-3,1.265000552E-2,-6.125266105E-2
8.914849660E-1,4.527370445E-3,1.691105962E-2,-6.444845349E-2
8.939727790E-1,3.462106921E-3,1.584579609E-2,-6.764423847E-2
8.964605910E-1,4.527370445E-3,1.265000552E-2,-7.084003091E-2
8.989484040E-1,4.527370445E-3,5.193160381E-3,-7.510108501E-2
9.014362160E-1,5.592633970E-3,-4.394212738E-3,-7.936213911E-2
9.039240290E-1,6.657897960E-3,-1.611211337E-2,-8.255793154E-2
9.064118410E-1,6.657897960E-3,-2.996053919E-2,-8.575372398E-2
9.088996540E-1,6.657897960E-3,-4.380896688E-2,-8.894951642E-2
9.113874660E-1,5.592633970E-3,-5.872265995E-2,-9.214530140E-2
9.138752790E-1,4.527370445E-3,-7.150582224E-2,-9.321057051E-2
9.163630910E-1,3.462106921E-3,-8.535424620E-2,-9.534109384E-2
9.188509040E-1,2.396843163E-3,-9.813741595E-2,-9.747162461E-2
9.213387160E-1,3.462106921E-3,-1.109205782E-1,-9.960214794E-2
9.238265290E-1,3.462106921E-3,-1.226384789E-1,-9.853688627E-2
9.263143410E-1,4.527370445E-3,-1.343563795E-1,-9.960214794E-2
9.288021540E-1,5.592633970E-3,-1.460742801E-1,-9.960214794E-2
9.312899660E-1,6.657897960E-3,-1.577921808E-1,-9.853688627E-2
9.337777790E-1,7.723161485E-3,-1.684448123E-1,-9.853688627E-2
9.362655910E-1,7.723161485E-3,-1.780321896E-1,-9.747162461E-2
9.387534040E-1,6.657897960E-3,-1.854890287E-1,-9.747162461E-2
9.412412160E-1,5.592633970E-3,-1.918806136E-1,-9.534109384E-2
9.437290290E-1,2.396843163E-3,-1.940111369E-1,-9.321057051E-2
9.462168410E-1,-7.989477599E-4,-1.929458827E-1,-9.108003974E-2
9.487046540E-1,-3.994738683E-3,-1.876195520E-1,-8.788424730E-2
9.511924660E-1,-7.190529723E-3,-1.780321896E-1,-8.468846232E-2
9.536802790E-1,-9.321057238E-3,-1.641837656E-1,-8.149266988E-2
9.561680910E-1,-1.358211134E-2,-1.471395344E-1,-7.723161578E-2
9.586559040E-1,-1.571263932E-2,-1.279647946E-1,-7.190529257E-2
9.611437160E-1,-1.784316637E-2,-1.077247858E-1,-6.764423847E-2
9.636315290E-1,-1.890842989E-2,-8.748477697E-2,-6.231792271E-2
9.661193410E-1,-1.890842989E-2,-6.937529147E-2,-5.699160323E-2
9.686071540E-1,-1.997369342E-2,-5.339634046E-2,-5.273054913E-2
9.710949660E-1,-2.103895694E-2,-3.954791278E-2,-4.846949503E-2
9.735827790E-1,-2.316948399E-2,-2.996053919E-2,-4.314317927E-2
9.760705910E-1,-2.423474751E-2,-2.356895804E-2,-3.888212144E-2
9.785584040E-1,-2.530001104E-2,-2.037316747E-2,-3.355580568E-2
9.810462160E-1,-2.530001104E-2,-2.037316747E-2,-3.036001325E-2
9.835340290E-1,-2.636527456E-2,-2.356895804E-2,-2.609895915E-2
9.860218410E-1,-2.636527456E-2,-2.889527567E-2,-2.396843210E-2
9.885096540E-1,-2.956106514E-2,-3.741738573E-2,-2.077264152E-2
9.909974660E-1,-3.169159219E-2,-4.807002097E-2,-1.757685095E-2
9.934852790E-1,-3.382211924E-2,-5.978792161E-2,-1.544632297E-2
9.959730910E-1,-3.595264629E-2,-7.257108390E-2,-1.438105945E-2
9.984609040E-1,-3.808317333E-2,-8.535424620E-2,-1.331579592E-2
1.000948716E0,-3.914843872E-2,-9.813741595E-2,-1.331579592E-2
1.003436529E0,-4.021370411E-2,-1.109205782E-1,-1.225053146E-2
1.005924341E0,-4.021370411E-2,-1.226384789E-1,-1.331579592E-2
1.008412154E0,-3.914843872E-2,-1.343563795E-1,-1.438105945E-2
1.010899966E0,-3.808317333E-2,-1.460742801E-1,-1.651158556E-2
1.013387779E0,-3.701791167E-2,-1.567269117E-1,-1.970737800E-2
1.015875591E0,-3.488738462E-2,-1.684448123E-1,-2.183790505E-2
1.018363404E0,-3.382211924E-2,-1.790974438E-1,-2.503369562E-2
1.020851216E0,-3.275685757E-2,-1.897500902E-1,-2.716422267E-2
1.023339029E0,-3.275685757E-2,-1.993374527E-1,-2.929474972E-2
1.025826841E0,-3.275685757E-2,-2.067943066E-1,-3.142527863E-2
1.028314654E0,-3.488738462E-2,-2.131858915E-1,-3.142527863E-2
1.030802466E0,-3.595264629E-2,-2.142511457E-1,-3.249054030E-2
1.033290279E0,-3.808317333E-2,-2.131858915E-1,-3.142527863E-2
1.035778091E0,-3.914843872E-2,-2.089248300E-1,-2.929474972E-2
1.038265904E0,-4.127896577E-2,-2.004027218E-1,-2.716422267E-2
1.040753716E0,-4.340949282E-2,-1.897500902E-1,-2.503369562E-2
1.043241529E0,-4.447475821E-2,-1.759016514E-1,-2.183790505E-2
1.045729341E0,-4.554001987E-2,-1.609879732E-1,-1.757685095E-2
1.048217154E0,-4.660528526E-2,-1.439437568E-1,-1.438105945E-2
1.050704966E0,-4.767054692E-2,-1.268995255E-1,-1.118526794E-2
1.053192779E0,-4.873581231E-2,-1.109205782E-1,-6.924213842E-3
1.055680591E0,-5.086633936E-2,-9.600688517E-2,-5.858949851E-3
1.058168404E0,-5.299686641E-2,-8.109319210E-2,-3.728422802E-3
1.060656216E0,-5.512739345E-2,-6.937529147E-2,-2.663159044E-3
1.063144029E0,-5.725792050E-2,-5.872265995E-2,-1.597895520E-3
1.065631841E0,-6.045371294E-2,-5.126581341E-2,-5.326318205E-4
1.068119654E0,-6.258423626E-2,-4.593949392E-2,-5.326318205E-4
1.070607466E0,-6.471476704E-2,-4.380896688E-2,-5.326318205E-4
1.073095279E0,-6.578002870E-2,-4.380896688E-2,-5.326318205E-4
1.075583091E0,-6.578002870E-2,-4.593949392E-2,-5.326318205E-4
1.078070904E0,-6.471476704E-2,-5.020054802E-2,-5.326318205E-4
1.080558716E0,-6.258423626E-2,-5.765739456E-2,1.597895520E-3
1.083046529E0,-6.151897460E-2,-6.724476814E-2,2.663159044E-3
1.085534341E0,-6.045371294E-2,-7.896266878E-2,4.793686327E-3
1.088022154E0,-5.938844755E-2,-9.387636185E-2,6.924213842E-3
1.090509966E0,-6.045371294E-2,-1.087900475E-1,9.054740891E-3
1.092997779E0,-6.151897460E-2,-1.247690022E-1,1.118526794E-2
1.095485591E0,-6.258423626E-2,-1.418132186E-1,1.225053146E-2
1.097973404E0,-6.364950538E-2,-1.577921808E-1,1.544632297E-2
1.100461216E0,-6.578002870E-2,-1.748363972E-1,1.651158556E-2
1.102949029E0,-6.684529036E-2,-1.897500902E-1,1.757685095E-2
1.105436841E0,-6.791055948E-2,-2.025332451E-1,1.864211448E-2
1.107924654E0,-6.791055948E-2,-2.121206224E-1,1.757685095E-2
1.110412466E0,-6.897582114E-2,-2.185122073E-1,1.544632297E-2
1.112900279E0,-6.897582114E-2,-2.217079997E-1,1.331579592E-2
1.115388091E0,-7.004108280E-2,-2.217079997E-1,1.012000442E-2
1.117875904E0,-7.110634446E-2,-2.195774615E-1,5.858949851E-3
1.120363716E0,-7.217161357E-2,-2.153164148E-1,5.326318205E-4
1.122851529E0,-7.536740601E-2,-2.099900991E-1,-6.924213842E-3
1.125339341E0,-7.962846011E-2,-2.035985142E-1,-1.331579592E-2
1.127827154E0,-8.282424510E-2,-1.961416751E-1,-2.183790505E-2
1.130314966E0,-8.708529919E-2,-1.876195520E-1,-2.929474972E-2
1.132802779E0,-9.134636074E-2,-1.780321896E-1,-3.888212144E-2
1.135290591E0,-9.560741484E-2,-1.684448123E-1,-4.740423337E-2
1.137778404E0,-9.986846894E-2,-1.577921808E-1,-5.486107618E-2
1.140266216E0,-1.030642539E-1,-1.460742801E-1,-6.231792271E-2
1.142754029E0,-1.073253155E-1,-1.332911104E-1,-6.977476925E-2
1.145241841E0,-1.094558388E-1,-1.205079481E-1,-7.510108501E-2
1.147729654E0,-1.126516312E-1,-1.087900475E-1,-8.149266988E-2
1.150217466E0,-1.147821546E-1,-9.813741595E-2,-8.681898564E-2
1.152705279E0,-1.169126853E-1,-8.855003864E-2,-9.001477808E-2
1.155193143E0,-1.190432087E-1,-8.109319210E-2,-9.321057051E-2
1.157681008E0,-1.201084778E-1,-7.576687634E-2,-9.534109384E-2
1.160168872E0,-1.233042628E-1,-7.363634557E-2,-9.640636295E-2
1.162656737E0,-1.243695319E-1,-7.363634557E-2,-9.747162461E-2
1.165144602E0,-1.265000552E-1,-7.576687634E-2,-9.747162461E-2
1.167632466E0,-1.275653243E-1,-8.002793044E-2,-9.747162461E-2
1.170120331E0,-1.286305785E-1,-8.535424620E-2,-9.640636295E-2
1.172608195E0,-1.296958476E-1,-9.281109273E-2,-9.534109384E-2
1.175096060E0,-1.307611167E-1,-9.920267761E-2,-9.427583218E-2
1.177583924E0,-1.328916401E-1,-1.055942550E-1,-9.321057051E-2
1.180071789E0,-1.339569092E-1,-1.109205782E-1,-9.108003974E-2
1.182559654E0,-1.360874325E-1,-1.141163707E-1,-9.108003974E-2
1.185047518E0,-1.371526867E-1,-1.141163707E-1,-9.001477808E-2
1.187535383E0,-1.392832249E-1,-1.109205782E-1,-9.001477808E-2
1.190023247E0,-1.414137483E-1,-1.055942550E-1,-8.894951642E-2
1.192511112E0,-1.435442716E-1,-9.707214683E-2,-8.894951642E-2
1.194998977E0,-1.467400640E-1,-8.428898454E-2,-8.788424730E-2
1.197486841E0,-1.499358565E-1,-6.831002980E-2,-8.894951642E-2
1.199974706E0,-1.541969180E-1,-5.126581341E-2,-8.894951642E-2
1.202462570E0,-1.584579647E-1,-3.102580272E-2,-9.001477808E-2
1.204950435E0,-1.637842804E-1,-9.720530361E-3,-9.001477808E-2
1.207438299E0,-1.691105962E-1,1.158474199E-2,-9.108003974E-2
1.209926164E0,-1.744369268E-1,3.289001435E-2,-9.001477808E-2
1.212414029E0,-1.808284968E-1,5.313002318E-2,-9.001477808E-2
1.214901893E0,-1.872200817E-1,7.337003201E-2,-8.894951642E-2
1.217389758E0,-1.936116666E-1,9.361004084E-2,-8.894951642E-2
1.219877622E0,-1.989379823E-1,1.127847880E-1,-8.788424730E-2
1.222365487E0,-2.031990439E-1,1.308942735E-1,-8.575372398E-2
1.224853352E0,-2.085253596E-1,1.490037590E-1,-8.362319320E-2
1.227341216E0,-2.127864063E-1,1.649827063E-1,-8.255793154E-2
1.229829029E0,-2.181127369E-1,1.809616536E-1,-8.042740822E-2
1.232316841E0,-2.223737836E-1,1.948100924E-1,-7.936213911E-2
1.234804654E0,-2.277000993E-1,2.065279931E-1,-7.829687744E-2
1.237292466E0,-2.319611609E-1,2.161153555E-1,-7.723161578E-2
1.239780279E0,-2.372874767E-1,2.225069404E-1,-7.723161578E-2
1.242268091E0,-2.415485233E-1,2.267680019E-1,-7.723161578E-2
1.244755904E0,-2.468748540E-1,2.278332561E-1,-7.723161578E-2
1.247243716E0,-2.511359155E-1,2.267680019E-1,-7.723161578E-2
1.249731529E0,-2.564622164E-1,2.235722095E-1,-7.936213911E-2
1.252219341E0,-2.617885470E-1,2.182458937E-1,-8.149266988E-2
1.254707154E0,-2.660495937E-1,2.118543088E-1,-8.362319320E-2
1.257194966E0,-2.703106403E-1,2.054627240E-1,-8.681898564E-2
1.259682779E0,-2.756369710E-1,1.969406158E-1,-9.001477808E-2
1.262170591E0,-2.809632719E-1,1.894837767E-1,-9.427583218E-2
1.264658404E0,-2.852243483E-1,1.820269227E-1,-9.747162461E-2
1.267146216E0,-2.916159332E-1,1.745700836E-1,-1.017326787E-1
1.269634029E0,-2.958769798E-1,1.660479754E-1,-1.059937328E-1
1.272121841E0,-3.012032807E-1,1.575258672E-1,-1.113200486E-1
1.274609654E0,-3.065296113E-1,1.490037590E-1,-1.166463718E-1
1.277097466E0,-3.118559420E-1,1.404816359E-1,-1.219726875E-1
1.279585279E0,-3.161169887E-1,1.319595277E-1,-1.262337416E-1
1.282073091E0,-3.203780353E-1,1.245026886E-1,-1.326253265E-1
1.284560904E0,-3.257043660E-1,1.170458421E-1,-1.379516423E-1
1.287048716E0,-3.310306668E-1,1.106542572E-1,-1.432779580E-1
1.289536529E0,-3.352917433E-1,1.063932031E-1,-1.496695429E-1
1.292024341E0,-3.406180441E-1,1.053279415E-1,-1.549958587E-1
1.294512154E0,-3.448790908E-1,1.063932031E-1,-1.603221744E-1
1.296999966E0,-3.491401672E-1,1.106542572E-1,-1.656484902E-1
1.299487779E0,-3.534012139E-1,1.181111038E-1,-1.709748209E-1
1.301975591E0,-3.576622605E-1,1.276984811E-1,-1.752358675E-1
1.304463404E0,-3.619233072E-1,1.383511126E-1,-1.805621833E-1
1.306951216E0,-3.661843836E-1,1.511342824E-1,-1.837579757E-1
1.309439029E0,-3.693801761E-1,1.628521830E-1,-1.869537681E-1
1.311926841E0,-3.725759685E-1,1.745700836E-1,-1.901495606E-1
1.314414654E0,-3.779022694E-1,1.852227151E-1,-1.922800839E-1
1.316902466E0,-3.810980618E-1,1.937448233E-1,-1.944106072E-1
1.319390279E0,-3.842938542E-1,2.022669315E-1,-1.954758763E-1
1.321878091E0,-3.874896467E-1,2.086585164E-1,-1.954758763E-1
1.324365904E0,-3.906854391E-1,2.150501013E-1,-1.954758763E-1
1.326853716E0,-3.938812315E-1,2.182458937E-1,-1.954758763E-1
1.329341529E0,-3.970770240E-1,2.214416862E-1,-1.944106072E-1
1.331829341E0,-4.002728164E-1,2.235722095E-1,-1.944106072E-1
1.334317154E0,-4.045338631E-1,2.235722095E-1,-1.922800839E-1
1.336804966E0,-4.087949097E-1,2.235722095E-1,-1.922800839E-1
1.339292779E0,-4.130559862E-1,2.235722095E-1,-1.912148297E-1
1.341780591E0,-4.183822870E-1,2.246374637E-1,-1.901495606E-1
1.344268404E0,-4.237086177E-1,2.246374637E-1,-1.901495606E-1
1.346756216E0,-4.290349185E-1,2.257027328E-1,-1.912148297E-1
1.349244029E0,-4.364917874E-1,2.278332561E-1,-1.922800839E-1
1.351731841E0,-4.439486265E-1,2.320943177E-1,-1.944106072E-1
1.354219654E0,-4.514054656E-1,2.384859025E-1,-1.965411454E-1
1.356707466E0,-4.599275887E-1,2.480732650E-1,-1.997369379E-1
1.359195279E0,-4.684496820E-1,2.608564198E-1,-2.008021921E-1
1.361683091E0,-4.769718051E-1,2.789659202E-1,-2.029327303E-1
1.364170904E0,-4.865591824E-1,3.013364673E-1,-2.050632536E-1
1.366658716E0,-4.961465299E-1,3.269027770E-1,-2.061285079E-1
1.369146529E0,-5.057339072E-1,3.567301631E-1,-2.071937770E-1
1.371634341E0,-5.142560005E-1,3.908185959E-1,-2.071937770E-1
1.374122154E0,-5.206475854E-1,4.270375669E-1,-2.071937770E-1
1.376609966E0,-5.270391703E-1,4.643217921E-1,-2.061285079E-1
1.379097779E0,-5.334307551E-1,5.026713014E-1,-2.039979845E-1
1.381585591E0,-5.376918316E-1,5.420860648E-1,-2.018674612E-1
1.384073404E0,-5.419528484E-1,5.793702602E-1,-1.976063997E-1
1.386561216E0,-5.430181623E-1,6.166545153E-1,-1.933453530E-1
1.389049029E0,-5.440834165E-1,6.518082023E-1,-1.880190372E-1
1.391536841E0,-5.451486707E-1,6.848313808E-1,-1.816274524E-1
1.394024654E0,-5.451486707E-1,7.135934830E-1,-1.752358675E-1
1.396512466E0,-5.451486707E-1,7.391598225E-1,-1.677790284E-1
1.399000279E0,-5.440834165E-1,7.604650855E-1,-1.603221744E-1
1.401488091E0,-5.440834165E-1,7.775092721E-1,-1.528653353E-1
1.403975904E0,-5.440834165E-1,7.892271876E-1,-1.443432271E-1
1.406463716E0,-5.430181623E-1,7.934882641E-1,-1.368863732E-1
1.408951529E0,-5.398223400E-1,7.924230099E-1,-1.283642650E-1
1.411439341E0,-5.355613232E-1,7.849661708E-1,-1.219726875E-1
1.413927154E0,-5.270391703E-1,7.700524330E-1,-1.155811027E-1
1.416414966E0,-5.163865685E-1,7.508777380E-1,-1.102547869E-1
1.418902779E0,-5.025381446E-1,7.231808305E-1,-1.059937328E-1
1.421390591E0,-4.865591824E-1,6.912229657E-1,-1.017326787E-1
1.423878404E0,-4.716454744E-1,6.550039649E-1,-1.006674170E-1
1.426366216E0,-4.567317963E-1,6.134586930E-1,-1.006674170E-1
1.428854029E0,-4.428833723E-1,5.708481669E-1,-1.027979404E-1
1.431341841E0,-4.311654568E-1,5.261070728E-1,-1.070589945E-1
1.433829654E0,-4.205128253E-1,4.803007543E-1,-1.134505793E-1
1.436317466E0,-4.119907022E-1,4.344944060E-1,-1.209074259E-1
1.438805279E0,-4.034686089E-1,3.886880577E-1,-1.294295341E-1
1.441293091E0,-3.970770240E-1,3.450122476E-1,-1.368863732E-1
1.443780904E0,-3.928159773E-1,3.055975139E-1,-1.464737505E-1
1.446268716E0,-3.874896467E-1,2.693785429E-1,-1.528653353E-1
1.448756529E0,-3.842938542E-1,2.384859025E-1,-1.581916511E-1
1.451244341E0,-3.810980618E-1,2.139848322E-1,-1.613874435E-1
1.453732154E0,-3.789675534E-1,1.948100924E-1,-1.635179669E-1
1.456219966E0,-3.757717609E-1,1.809616536E-1,-1.624527127E-1
1.458707779E0,-3.736412227E-1,1.713742912E-1,-1.581916511E-1
1.461195591E0,-3.704454303E-1,1.649827063E-1,-1.518000662E-1
1.463683404E0,-3.672496378E-1,1.607216448E-1,-1.422126889E-1
1.466171216E0,-3.619233072E-1,1.585911214E-1,-1.315600574E-1
1.468659029E0,-3.565970063E-1,1.585911214E-1,-1.198421568E-1
1.471146841E0,-3.512706757E-1,1.585911214E-1,-1.059937328E-1
1.473634654E0,-3.459443748E-1,1.585911214E-1,-9.321057051E-2
1.476122466E0,-3.406180441E-1,1.585911214E-1,-8.149266988E-2
1.478610279E0,-3.374222517E-1,1.575258672E-1,-6.870950758E-2
1.481098091E0,-3.363569975E-1,1.564605981E-1,-5.805686861E-2
1.483585904E0,-3.352917433E-1,1.564605981E-1,-4.846949503E-2
1.486073716E0,-3.363569975E-1,1.575258672E-1,-3.994738683E-2
1.488561529E0,-3.363569975E-1,1.607216448E-1,-3.355580568E-2
1.491049341E0,-3.352917433E-1,1.649827063E-1,-2.929474972E-2
1.493537154E0,-3.342264593E-1,1.703090221E-1,-2.716422267E-2
1.496024966E0,-3.310306668E-1,1.788311303E-1,-2.609895915E-2
1.498512779E0,-3.267696202E-1,1.905490309E-1,-2.609895915E-2
1.501000591E0,-3.225085735E-1,2.033322006E-1,-2.716422267E-2
1.503488404E0,-3.171822429E-1,2.171806246E-1,-2.929474972E-2
1.505976216E0,-3.129211962E-1,2.320943177E-1,-3.249054030E-2
1.508464029E0,-3.086601496E-1,2.470080107E-1,-3.675159439E-2
1.510951841E0,-3.033338189E-1,2.629869580E-1,-4.101264849E-2
1.513439654E0,-2.980075181E-1,2.779006660E-1,-4.633896798E-2
1.515927466E0,-2.937464416E-1,2.938795984E-1,-5.060002208E-2
1.518415279E0,-2.884201407E-1,3.066627681E-1,-5.592634156E-2
1.520903091E0,-2.830938101E-1,3.183806837E-1,-6.231792271E-2
1.523390904E0,-2.788327634E-1,3.279680312E-1,-6.764423847E-2
1.525878716E0,-2.745717168E-1,3.332943618E-1,-7.510108501E-2
1.528366529E0,-2.713759243E-1,3.364901543E-1,-8.255793154E-2
1.530854341E0,-2.703106403E-1,3.354249001E-1,-9.214530140E-2
1.533342154E0,-2.692453861E-1,3.300985694E-1,-1.027979404E-1
1.535829966E0,-2.692453861E-1,3.226417303E-1,-1.134505793E-1
1.538317779E0,-2.703106403E-1,3.109238148E-1,-1.262337416E-1
1.540805591E0,-2.713759243E-1,2.960101366E-1,-1.400821656E-1
1.543293404E0,-2.713759243E-1,2.779006660E-1,-1.539305896E-1
1.545781216E0,-2.735064328E-1,2.576606572E-1,-1.688442826E-1
1.548269029E0,-2.767022252E-1,2.363553643E-1,-1.826927215E-1
1.550756841E0,-2.798980176E-1,2.129195631E-1,-1.954758763E-1
1.553244654E0,-2.830938101E-1,1.894837767E-1,-2.050632536E-1
1.555732466E0,-2.862896025E-1,1.681784987E-1,-2.135853618E-1
1.558220279E0,-2.894853950E-1,1.468732208E-1,-2.189116776E-1
1.560708091E0,-2.926811874E-1,1.287637353E-1,-2.199769467E-1
1.563195956E0,-2.948117256E-1,1.127847880E-1,-2.199769467E-1
1.565683820E0,-2.948117256E-1,9.893636405E-2,-2.178464085E-1
1.568171685E0,-2.937464416E-1,8.615319431E-2,-2.146506310E-1
1.570659549E0,-2.905506492E-1,7.550056279E-2,-2.114548385E-1
1.573147414E0,-2.862896025E-1,6.697845459E-2,-2.082590461E-1
1.575635279E0,-2.830938101E-1,5.952160433E-2,-2.039979845E-1
1.578123143E0,-2.777675092E-1,5.099949613E-2,-1.997369379E-1
1.580611008E0,-2.745717168E-1,4.460791498E-2,-1.954758763E-1
1.583098872E0,-2.692453861E-1,3.928159550E-2,-1.922800839E-1
1.585586737E0,-2.660495937E-1,3.395527974E-2,-1.869537681E-1
1.588074602E0,-2.628538013E-1,3.182475269E-2,-1.826927215E-1
1.590562466E0,-2.596580088E-1,3.075948730E-2,-1.784316599E-1
1.593050331E0,-2.575274706E-1,3.182475269E-2,-1.709748209E-1
1.595538195E0,-2.553969622E-1,3.502054140E-2,-1.656484902E-1
1.598026060E0,-2.522011697E-1,3.928159550E-2,-1.592569202E-1
1.600513924E0,-2.500706315E-1,4.354264960E-2,-1.539305896E-1
1.603001789E0,-2.479401082E-1,4.886896908E-2,-1.475390196E-1
1.605489654E0,-2.458095849E-1,5.419528857E-2,-1.422126889E-1
1.607977518E0,-2.458095849E-1,5.952160433E-2,-1.368863732E-1
1.610465383E0,-2.458095849E-1,6.484792382E-2,-1.315600574E-1
1.612953247E0,-2.468748540E-1,7.123950869E-2,-1.262337416E-1
1.615441112E0,-2.490053773E-1,7.763108611E-2,-1.219726875E-1
1.617928977E0,-2.522011697E-1,8.508793265E-2,-1.166463718E-1
1.620416841E0,-2.543317080E-1,9.254477918E-2,-1.091895252E-1
1.622904706E0,-2.553969622E-1,1.010668874E-1,-1.038632020E-1
1.625392570E0,-2.553969622E-1,1.095889956E-1,-9.853688627E-2
1.627880435E0,-2.564622164E-1,1.181111038E-1,-9.214530140E-2
1.630368299E0,-2.553969622E-1,1.266332120E-1,-8.681898564E-2
1.632856164E0,-2.553969622E-1,1.330247968E-1,-8.042740822E-2
1.635344029E0,-2.553969622E-1,1.394163817E-1,-7.616634667E-2
1.637831841E0,-2.553969622E-1,1.415469050E-1,-7.190529257E-2
1.640319654E0,-2.543317080E-1,1.426121742E-1,-6.764423847E-2
1.642807466E0,-2.543317080E-1,1.394163817E-1,-6.551371515E-2
1.645295279E0,-2.543317080E-1,1.340900660E-1,-6.444845349E-2
1.647783091E0,-2.543317080E-1,1.255679578E-1,-6.444845349E-2
1.650270904E0,-2.532664239E-1,1.159805804E-1,-6.551371515E-2
1.652758716E0,-2.532664239E-1,1.053279415E-1,-6.551371515E-2
1.655246529E0,-2.543317080E-1,9.254477918E-2,-6.551371515E-2
1.657734341E0,-2.553969622E-1,7.869634777E-2,-6.657897681E-2
1.660222154E0,-2.564622164E-1,6.484792382E-2,-6.764423847E-2
1.662709966E0,-2.575274706E-1,5.099949613E-2,-6.870950758E-2
1.665197779E0,-2.585927546E-1,3.715106845E-2,-7.084003091E-2
1.667685591E0,-2.596580088E-1,2.543316968E-2,-7.297056168E-2
1.670173404E0,-2.607232630E-1,1.478053257E-2,-7.510108501E-2
1.672661216E0,-2.607232630E-1,5.193160381E-3,-7.723161578E-2
1.675149029E0,-2.617885470E-1,-2.263685223E-3,-7.936213911E-2
1.677636841E0,-2.628538013E-1,-6.524739787E-3,-8.255793154E-2
1.680124654E0,-2.628538013E-1,-6.524739787E-3,-8.362319320E-2
1.682612466E0,-2.639190555E-1,-4.394212738E-3,-8.575372398E-2
1.685100279E0,-2.639190555E-1,1.997369342E-3,-8.681898564E-2
1.687588091E0,-2.628538013E-1,1.265000552E-2,-8.788424730E-2
1.690075904E0,-2.617885470E-1,2.543316968E-2,-8.788424730E-2
1.692563716E0,-2.585927546E-1,4.034686089E-2,-8.788424730E-2
1.695051529E0,-2.564622164E-1,5.739107728E-2,-8.788424730E-2
1.697539341E0,-2.543317080E-1,7.550056279E-2,-8.681898564E-2
1.700027154E0,-2.522011697E-1,9.467530251E-2,-8.575372398E-2
1.702514966E0,-2.490053773E-1,1.138500497E-1,-8.468846232E-2
1.705002779E0,-2.468748540E-1,1.308942735E-1,-8.255793154E-2
1.707490591E0,-2.436790615E-1,1.490037590E-1,-7.936213911E-2
1.709978404E0,-2.404832691E-1,1.639174372E-1,-7.723161578E-2
1.712466216E0,-2.383527458E-1,1.777658761E-1,-7.297056168E-2
1.714954029E0,-2.351569533E-1,1.884185076E-1,-6.870950758E-2
1.717441841E0,-2.319611609E-1,1.969406158E-1,-6.338318437E-2
1.719929654E0,-2.287653685E-1,2.033322006E-1,-5.805686861E-2
1.722417466E0,-2.245043069E-1,2.065279931E-1,-5.379581451E-2
1.724905279E0,-2.202432603E-1,2.065279931E-1,-4.953476042E-2
1.727393091E0,-2.159821987E-1,2.022669315E-1,-4.527370632E-2
1.729880904E0,-2.117211521E-1,1.958753467E-1,-4.101264849E-2
1.732368716E0,-2.074600905E-1,1.873532385E-1,-3.888212144E-2
1.734856529E0,-2.042642981E-1,1.756353378E-1,-3.675159439E-2
1.737344341E0,-2.010685056E-1,1.617869139E-1,-3.462106735E-2
1.739832154E0,-1.989379823E-1,1.458079666E-1,-3.462106735E-2
1.742319966E0,-1.957421899E-1,1.298290044E-1,-3.568633273E-2
1.744807779E0,-1.936116666E-1,1.138500497E-1,-3.675159439E-2
1.747295591E0,-1.914811432E-1,9.893636405E-2,-3.994738683E-2
1.749783404E0,-1.904158741E-1,8.402267098E-2,-4.314317927E-2
1.752271216E0,-1.882853508E-1,7.123950869E-2,-4.740423337E-2
1.754759029E0,-1.882853508E-1,5.952160433E-2,-5.166528746E-2
1.757246841E0,-1.882853508E-1,5.099949613E-2,-5.805686861E-2
1.759734654E0,-1.893506050E-1,4.247738793E-2,-6.338318437E-2
1.762222466E0,-1.904158741E-1,3.821633384E-2,-6.977476925E-2
1.764710279E0,-1.914811432E-1,3.395527974E-2,-7.403582335E-2
1.767198091E0,-1.925463974E-1,3.182475269E-2,-7.829687744E-2
1.769685904E0,-1.946769357E-1,3.075948730E-2,-8.042740822E-2
1.772173716E0,-1.957421899E-1,3.075948730E-2,-8.255793154E-2
1.774661529E0,-1.978727281E-1,3.182475269E-2,-8.468846232E-2
1.777149341E0,-1.989379823E-1,3.395527974E-2,-8.575372398E-2
1.779637154E0,-2.010685056E-1,3.608580679E-2,-8.575372398E-2
1.782124966E0,-2.031990439E-1,3.821633384E-2,-8.468846232E-2
1.784612779E0,-2.063948363E-1,3.928159550E-2,-8.255793154E-2
1.787100591E0,-2.085253596E-1,4.034686089E-2,-7.936213911E-2
1.789588404E0,-2.117211521E-1,4.141212255E-2,-7.510108501E-2
1.792076216E0,-2.149169445E-1,4.354264960E-2,-6.977476925E-2
1.794564029E0,-2.170474678E-1,4.673844203E-2,-6.231792271E-2
1.797051841E0,-2.202432603E-1,5.099949613E-2,-5.379581451E-2
1.799539654E0,-2.213085145E-1,5.526055023E-2,-4.527370632E-2
1.802027466E0,-2.213085145E-1,6.271740049E-2,-3.568633273E-2
1.804515279E0,-2.213085145E-1,7.017423958E-2,-2.716422267E-2
1.807003091E0,-2.202432603E-1,7.869634777E-2,-1.757685095E-2
1.809490904E0,-2.181127369E-1,9.041424841E-2,-9.054740891E-3
1.811978716E0,-2.149169445E-1,1.031974182E-1,-1.597895520E-3
1.814466529E0,-2.106558830E-1,1.159805804E-1,4.793686327E-3
1.816954341E0,-2.053295672E-1,1.298290044E-1,7.989477366E-3
1.819442154E0,-1.989379823E-1,1.426121742E-1,9.054740891E-3
1.821929966E0,-1.925463974E-1,1.532648057E-1,6.924213842E-3
1.824417779E0,-1.861548275E-1,1.617869139E-1,2.663159044E-3
1.826905591E0,-1.786979735E-1,1.692437679E-1,-3.728422802E-3
1.829393404E0,-1.723063886E-1,1.724395454E-1,-1.118526794E-2
1.831881216E0,-1.669800729E-1,1.724395454E-1,-2.077264152E-2
1.834369029E0,-1.616537571E-1,1.703090221E-1,-3.036001325E-2
1.836856841E0,-1.573926955E-1,1.660479754E-1,-3.781685978E-2
1.839344654E0,-1.552621722E-1,1.596563905E-1,-4.633896798E-2
1.841832466E0,-1.531316489E-1,1.521995366E-1,-5.273054913E-2
1.844320279E0,-1.520663798E-1,1.447426975E-1,-5.699160323E-2
1.846808091E0,-1.520663798E-1,1.362205893E-1,-6.018739566E-2
1.849295904E0,-1.520663798E-1,1.276984811E-1,-6.338318437E-2
1.851783716E0,-1.531316489E-1,1.213068962E-1,-6.551371515E-2
1.854271529E0,-1.541969180E-1,1.149153188E-1,-6.657897681E-2
1.856759341E0,-1.563274413E-1,1.106542572E-1,-6.657897681E-2
1.859247154E0,-1.584579647E-1,1.074584723E-1,-6.657897681E-2
1.861734966E0,-1.627190262E-1,1.053279415E-1,-6.657897681E-2
1.864222779E0,-1.669800729E-1,1.042626798E-1,-6.764423847E-2
1.866710591E0,-1.701758653E-1,1.053279415E-1,-6.764423847E-2
1.869198404E0,-1.755021811E-1,1.074584723E-1,-6.764423847E-2
1.871686216E0,-1.797632426E-1,1.127847880E-1,-6.657897681E-2
1.874174029E0,-1.861548275E-1,1.191763729E-1,-6.764423847E-2
1.876661841E0,-1.904158741E-1,1.276984811E-1,-6.764423847E-2
1.879149654E0,-1.957421899E-1,1.372858584E-1,-6.870950758E-2
1.881637466E0,-2.000032514E-1,1.468732208E-1,-7.084003091E-2
1.884125279E0,-2.042642981E-1,1.575258672E-1,-7.297056168E-2
1.886613091E0,-2.085253596E-1,1.681784987E-1,-7.403582335E-2
1.889100904E0,-2.117211521E-1,1.777658761E-1,-7.723161578E-2
1.891588716E0,-2.149169445E-1,1.873532385E-1,-7.829687744E-2
1.894076529E0,-2.170474678E-1,1.958753467E-1,-7.936213911E-2
1.896564341E0,-2.181127369E-1,2.043974549E-1,-8.042740822E-2
1.899052154E0,-2.181127369E-1,2.129195631E-1,-7.936213911E-2
1.901539966E0,-2.170474678E-1,2.203764170E-1,-7.936213911E-2
1.904027779E0,-2.138516754E-1,2.267680019E-1,-7.936213911E-2
1.906515591E0,-2.106558830E-1,2.299637944E-1,-7.936213911E-2
1.909003404E0,-2.063948363E-1,2.310290486E-1,-7.829687744E-2
1.911491216E0,-2.031990439E-1,2.288985252E-1,-7.829687744E-2
1.913979029E0,-2.000032514E-1,2.235722095E-1,-7.723161578E-2
1.916466841E0,-1.968074590E-1,2.139848322E-1,-7.616634667E-2
1.918954654E0,-1.946769357E-1,2.012016773E-1,-7.403582335E-2
1.921442466E0,-1.914811432E-1,1.830921918E-1,-7.190529257E-2
1.923930279E0,-1.882853508E-1,1.628521830E-1,-6.764423847E-2
1.926418091E0,-1.861548275E-1,1.383511126E-1,-6.125266105E-2
1.928905904E0,-1.840242893E-1,1.127847880E-1,-5.486107618E-2
1.931393716E0,-1.818937659E-1,8.508793265E-2,-4.740423337E-2
1.933881529E0,-1.808284968E-1,5.632581562E-2,-3.888212144E-2
1.936369341E0,-1.808284968E-1,2.862896025E-2,-3.036001325E-2
1.938857154E0,-1.797632426E-1,3.062632866E-3,-2.183790505E-2
1.941344966E0,-1.797632426E-1,-2.037316747E-2,-1.225053146E-2
1.943832779E0,-1.797632426E-1,-3.954791278E-2,-2.663159044E-3
1.946320643E0,-1.797632426E-1,-5.552686751E-2,7.989477366E-3
1.948808508E0,-1.786979735E-1,-6.617950648E-2,1.757685095E-2
1.951296372E0,-1.765674502E-1,-7.044056058E-2,2.716422267E-2
1.953784237E0,-1.755021811E-1,-7.257108390E-2,3.462106735E-2
1.956272102E0,-1.733716577E-1,-6.937529147E-2,4.101264849E-2
1.958759966E0,-1.723063886E-1,-6.191844866E-2,4.527370632E-2
1.961247831E0,-1.712411344E-1,-5.233107507E-2,4.740423337E-2
1.963735695E0,-1.712411344E-1,-3.848264739E-2,4.953476042E-2
1.966223560E0,-1.712411344E-1,-2.463422157E-2,4.846949503E-2
1.968711424E0,-1.723063886E-1,-8.655266836E-3,4.633896798E-2
1.971199289E0,-1.755021811E-1,7.323687430E-3,4.207791388E-2
1.973687154E0,-1.776327193E-1,2.330264263E-2,3.781685978E-2
1.976175018E0,-1.797632426E-1,3.821633384E-2,3.142527863E-2
1.978662883E0,-1.829590350E-1,5.206476152E-2,2.503369562E-2
1.981150747E0,-1.850895584E-1,6.484792382E-2,1.651158556E-2
1.983638612E0,-1.872200817E-1,7.763108611E-2,7.989477366E-3
1.986126477E0,-1.882853508E-1,8.934898674E-2,-5.326318205E-4
1.988614341E0,-1.904158741E-1,1.010668874E-1,-9.054740891E-3
1.991102206E0,-1.925463974E-1,1.117195264E-1,-1.757685095E-2
1.993590070E0,-1.936116666E-1,1.213068962E-1,-2.609895915E-2
1.996077935E0,-1.946769357E-1,1.298290044E-1,-3.462106735E-2
1.998565799E0,-1.957421899E-1,1.372858584E-1,-4.207791388E-2
2.001053664E0,-1.946769357E-1,1.426121742E-1,-4.953476042E-2
2.003541529E0,-1.936116666E-1,1.468732208E-1,-5.592634156E-2
2.006029393E0,-1.914811432E-1,1.490037590E-1,-6.125266105E-2
2.008517258E0,-1.893506050E-1,1.479384899E-1,-6.338318437E-2
2.011005122E0,-1.861548275E-1,1.468732208E-1,-6.551371515E-2
2.013492987E0,-1.818937659E-1,1.426121742E-1,-6.551371515E-2
2.015980852E0,-1.776327193E-1,1.372858584E-1,-6.338318437E-2
2.018468716E0,-1.733716577E-1,1.308942735E-1,-6.018739566E-2
2.020956529E0,-1.680453420E-1,1.245026886E-1,-5.592634156E-2
2.023444341E0,-1.616537571E-1,1.170458421E-1,-4.953476042E-2
2.025932154E0,-1.573926955E-1,1.095889956E-1,-4.314317927E-2
2.028419966E0,-1.520663798E-1,1.010668874E-1,-3.568633273E-2
2.030907779E0,-1.467400640E-1,9.254477918E-2,-2.929474972E-2
2.033395591E0,-1.414137483E-1,8.402267098E-2,-2.183790505E-2
2.035883404E0,-1.350221634E-1,7.550056279E-2,-1.651158556E-2
2.038371216E0,-1.296958476E-1,6.697845459E-2,-1.118526794E-2
2.040859029E0,-1.233042628E-1,5.845634267E-2,-6.924213842E-3
2.043346841E0,-1.169126853E-1,5.099949613E-2,-3.728422802E-3
2.045834654E0,-1.115863696E-1,4.354264960E-2,-2.663159044E-3
2.048322466E0,-1.051947847E-1,3.715106845E-2,-2.663159044E-3
2.050810279E0,-1.009337306E-1,3.075948730E-2,-3.728422802E-3
2.053298091E0,-9.667267650E-2,2.543316968E-2,-6.924213842E-3
2.055785904E0,-9.454214573E-2,1.904158667E-2,-1.118526794E-2
2.058273716E0,-9.241162241E-2,1.371526904E-2,-1.757685095E-2
2.060761529E0,-9.241162241E-2,8.388951421E-3,-2.609895915E-2
2.063249341E0,-9.241162241E-2,3.062632866E-3,-3.355580568E-2
2.065737154E0,-9.560741484E-2,-1.198421582E-3,-4.420844093E-2
2.068224966E0,-9.773793817E-2,-3.328948980E-3,-5.379581451E-2
2.070712779E0,-1.019989923E-1,-4.394212738E-3,-6.444845349E-2
2.073200591E0,-1.073253155E-1,-4.394212738E-3,-7.403582335E-2
2.075688404E0,-1.115863696E-1,-3.328948980E-3,-8.362319320E-2
2.078176216E0,-1.158474237E-1,-2.263685223E-3,-9.321057051E-2
2.080664029E0,-1.201084778E-1,-1.198421582E-3,-1.017326787E-1
2.083151841E0,-1.243695319E-1,9.321057005E-4,-1.102547869E-1
2.085639654E0,-1.296958476E-1,1.997369342E-3,-1.166463718E-1
2.088127466E0,-1.350221634E-1,1.997369342E-3,-1.230379492E-1
2.090615279E0,-1.414137483E-1,1.997369342E-3,-1.283642650E-1
2.093103091E0,-1.478053331E-1,-1.331579551E-4,-1.326253265E-1
2.095590904E0,-1.541969180E-1,-2.263685223E-3,-1.326253265E-1
2.098078716E0,-1.605884880E-1,-5.459476262E-3,-1.315600574E-1
2.100566529E0,-1.669800729E-1,-7.590003312E-3,-1.272990108E-1
2.103054341E0,-1.712411344E-1,-8.655266836E-3,-1.198421568E-1
2.105542154E0,-1.744369268E-1,-9.720530361E-3,-1.091895252E-1
2.108029966E0,-1.765674502E-1,-6.524739787E-3,-9.534109384E-2
2.110517779E0,-1.765674502E-1,-2.263685223E-3,-8.042740822E-2
2.113005591E0,-1.744369268E-1,6.258423906E-3,-6.444845349E-2
2.115493404E0,-1.712411344E-1,1.691105962E-2,-4.633896798E-2
2.117981216E0,-1.659148186E-1,3.075948730E-2,-2.929474972E-2
2.120469029E0,-1.605884880E-1,4.673844203E-2,-1.225053146E-2
2.122956841E0,-1.541969180E-1,6.484792382E-2,2.663159044E-3
2.125444654E0,-1.478053331E-1,8.508793265E-2,1.757685095E-2
2.127932466E0,-1.414137483E-1,1.063932031E-1,3.036001325E-2
2.130420279E0,-1.339569092E-1,1.276984811E-1,4.101264849E-2
2.132908091E0,-1.265000552E-1,1.490037590E-1,4.846949503E-2
2.135395904E0,-1.201084778E-1,1.692437679E-1,5.379581451E-2
2.137883716E0,-1.126516312E-1,1.852227151E-1,5.699160323E-2
2.140371529E0,-1.041295230E-1,2.001364082E-1,5.805686861E-2
2.142859341E0,-9.667267650E-2,2.097237855E-1,5.699160323E-2
2.145347154E0,-8.815056831E-2,2.150501013E-1,5.486107618E-2
2.147834966E0,-8.175898343E-2,2.150501013E-1,5.060002208E-2
2.150322779E0,-7.430213690E-2,2.107890397E-1,4.633896798E-2
2.152810591E0,-6.791055948E-2,2.012016773E-1,4.101264849E-2
2.155298404E0,-6.258423626E-2,1.852227151E-1,3.675159439E-2
2.157786216E0,-5.619265884E-2,1.649827063E-1,3.036001325E-2
2.160274029E0,-5.193160102E-2,1.415469050E-1,2.396843210E-2
2.162761841E0,-4.767054692E-2,1.149153188E-1,1.757685095E-2
2.165249654E0,-4.554001987E-2,8.402267098E-2,1.012000442E-2
2.167737466E0,-4.447475821E-2,5.099949613E-2,1.597895520E-3
2.170225279E0,-4.554001987E-2,1.584579609E-2,-5.858949851E-3
2.172713091E0,-4.767054692E-2,-2.037316747E-2,-1.331579592E-2
2.175200904E0,-5.086633936E-2,-5.659212917E-2,-2.077264152E-2
2.177688716E0,-5.406212807E-2,-9.068056941E-2,-2.716422267E-2
2.180176529E0,-5.832318589E-2,-1.226384789E-1,-3.142527863E-2
2.182664341E0,-6.258423626E-2,-1.514005959E-1,-3.355580568E-2
2.185152154E0,-6.471476704E-2,-1.759016514E-1,-3.462106735E-2
2.187639966E0,-6.684529036E-2,-1.940111369E-1,-3.462106735E-2
2.190127779E0,-7.004108280E-2,-2.067943066E-1,-3.355580568E-2
2.192615591E0,-7.110634446E-2,-2.142511457E-1,-3.142527863E-2
2.195103404E0,-7.217161357E-2,-2.163816839E-1,-2.929474972E-2
2.197591216E0,-7.217161357E-2,-2.121206224E-1,-2.609895915E-2
2.200079029E0,-7.323687524E-2,-2.035985142E-1,-2.503369562E-2
2.202566841E0,-7.323687524E-2,-1.897500902E-1,-2.290316857E-2
2.205054654E0,-7.217161357E-2,-1.727058738E-1,-2.077264152E-2
2.207542466E0,-7.110634446E-2,-1.514005959E-1,-1.864211448E-2
2.210030279E0,-7.004108280E-2,-1.290300637E-1,-1.651158556E-2
2.212518091E0,-6.897582114E-2,-1.034637317E-1,-1.438105945E-2
2.215005904E0,-6.684529036E-2,-7.789740711E-2,-1.012000442E-2
2.217493716E0,-6.364950538E-2,-5.339634046E-2,-6.924213842E-3
2.219981529E0,-6.151897460E-2,-2.996053919E-2,-2.663159044E-3
2.222469341E0,-5.725792050E-2,-8.655266836E-3,1.597895520E-3
2.224957154E0,-5.299686641E-2,1.051947847E-2,5.858949851E-3
2.227444966E0,-4.980107397E-2,2.543316968E-2,1.118526794E-2
2.229932779E0,-4.554001987E-2,3.715106845E-2,1.544632297E-2
2.232420591E0,-4.234423116E-2,4.567318037E-2,1.864211448E-2
2.234908404E0,-3.808317333E-2,5.206476152E-2,2.183790505E-2
2.237396216E0,-3.488738462E-2,5.632581562E-2,2.396843210E-2
2.239884029E0,-3.062633052E-2,5.845634267E-2,2.503369562E-2
2.242371841E0,-2.530001104E-2,6.058686972E-2,2.396843210E-2
2.244859654E0,-1.890842989E-2,6.058686972E-2,2.290316857E-2
2.247347466E0,-1.464737486E-2,5.952160433E-2,1.970737800E-2
2.249835279E0,-9.321057238E-3,5.632581562E-2,1.651158556E-2
2.252323091E0,-5.060002208E-3,5.206476152E-2,1.118526794E-2
2.254810904E0,-7.989477599E-4,4.673844203E-2,5.858949851E-3
2.257298716E0,2.396843163E-3,3.928159550E-2,-5.326318205E-4
2.259786529E0,5.592633970E-3,3.075948730E-2,-5.858949851E-3
2.262274341E0,8.788425475E-3,2.117211558E-2,-1.118526794E-2
2.264762154E0,1.198421605E-2,9.454214945E-3,-1.438105945E-2
2.267249966E0,1.411474310E-2,-2.263685223E-3,-1.757685095E-2
2.269737779E0,1.624527015E-2,-1.611211337E-2,-1.864211448E-2
2.272225591E0,1.837579720E-2,-2.889527567E-2,-1.970737800E-2
2.274713404E0,1.944106072E-2,-4.167843983E-2,-2.077264152E-2
2.277201216E0,1.944106072E-2,-5.552686751E-2,-1.970737800E-2
2.279689029E0,1.944106072E-2,-6.831002980E-2,-1.864211448E-2
2.282176841E0,1.837579720E-2,-8.109319210E-2,-1.651158556E-2
2.284664654E0,1.624527015E-2,-9.281109273E-2,-1.438105945E-2
2.287152466E0,1.411474310E-2,-1.023984700E-1,-1.118526794E-2
2.289640279E0,1.198421605E-2,-1.098553166E-1,-6.924213842E-3
2.292128091E0,1.091895252E-2,-1.151816323E-1,-5.326318205E-4
2.294615904E0,8.788425475E-3,-1.183774248E-1,4.793686327E-3
2.297103716E0,7.723161485E-3,-1.173121557E-1,1.118526794E-2
2.299591529E0,6.657897960E-3,-1.130511016E-1,1.864211448E-2
2.302079341E0,5.592633970E-3,-1.055942550E-1,2.503369562E-2
2.304567154E0,6.657897960E-3,-9.600688517E-2,3.355580568E-2
2.307054966E0,7.723161485E-3,-8.322372288E-2,3.994738683E-2
2.309542779E0,8.788425475E-3,-6.937529147E-2,4.633896798E-2
2.312030591E0,8.788425475E-3,-5.552686751E-2,5.166528746E-2
2.314518404E0,9.853689000E-3,-3.954791278E-2,5.592634156E-2
2.317006216E0,9.853689000E-3,-2.463422157E-2,6.018739566E-2
2.319494029E0,8.788425475E-3,-9.720530361E-3,6.338318437E-2
2.321981841E0,8.788425475E-3,4.127896391E-3,6.551371515E-2
2.324469654E0,7.723161485E-3,1.478053257E-2,6.764423847E-2
2.326957518E0,7.723161485E-3,2.330264263E-2,6.977476925E-2
2.329445383E0,6.657897960E-3,2.969422378E-2,7.190529257E-2
2.331933247E0,6.657897960E-3,3.502054140E-2,7.190529257E-2
2.334421112E0,4.527370445E-3,3.821633384E-2,7.084003091E-2
2.336908977E0,3.462106921E-3,4.141212255E-2,7.084003091E-2
2.339396841E0,2.396843163E-3,4.247738793E-2,6.870950758E-2
2.341884706E0,2.663159103E-4,4.354264960E-2,6.764423847E-2
2.344372570E0,-2.929474926E-3,4.673844203E-2,6.551371515E-2
2.346860435E0,-5.060002208E-3,4.993423447E-2,6.338318437E-2
2.349348299E0,-8.255792782E-3,5.526055023E-2,6.231792271E-2
2.351836164E0,-1.145158429E-2,6.271740049E-2,6.231792271E-2
2.354324029E0,-1.358211134E-2,7.230477035E-2,6.231792271E-2
2.356811893E0,-1.464737486E-2,8.508793265E-2,6.231792271E-2
2.359299758E0,-1.571263932E-2,9.893636405E-2,6.444845349E-2
2.361787622E0,-1.571263932E-2,1.159805804E-1,6.764423847E-2
2.364275487E0,-1.464737486E-2,1.351553202E-1,7.084003091E-2
2.366763352E0,-1.251684781E-2,1.543300748E-1,7.510108501E-2
2.369251216E0,-1.038632076E-2,1.745700836E-1,7.829687744E-2
2.371739081E0,-9.321057238E-3,1.937448233E-1,8.255793154E-2
2.374226945E0,-6.125265732E-3,2.129195631E-1,8.788424730E-2
2.376714810E0,-3.994738683E-3,2.288985252E-1,9.214530140E-2
2.379202674E0,2.663159103E-4,2.438122183E-1,9.640636295E-2
2.381690539E0,4.527370445E-3,2.565953732E-1,1.017326787E-1
2.384178404E0,9.853689000E-3,2.672480047E-1,1.070589945E-1
2.386666268E0,1.411474310E-2,2.736395895E-1,1.113200486E-1
2.389154133E0,1.944106072E-2,2.789659202E-1,1.155811027E-1
2.391641997E0,2.370211668E-2,2.810964286E-1,1.198421568E-1
2.394129862E0,2.902843431E-2,2.800311744E-1,1.230379492E-1
2.396617727E0,3.435475379E-2,2.779006660E-1,1.262337416E-1
2.399105591E0,3.755054250E-2,2.725743353E-1,1.272990108E-1
2.401593404E0,4.181159660E-2,2.640522122E-1,1.283642650E-1
2.404081216E0,4.394212365E-2,2.533995807E-1,1.272990108E-1
2.406569029E0,4.607265070E-2,2.395511568E-1,1.241032109E-1
2.409056841E0,4.820318148E-2,2.235722095E-1,1.198421568E-1
2.411544654E0,4.820318148E-2,2.054627240E-1,1.145158410E-1
2.414032466E0,4.926844314E-2,1.884185076E-1,1.091895252E-1
2.416520279E0,4.926844314E-2,1.703090221E-1,1.027979404E-1
2.419008091E0,4.820318148E-2,1.511342824E-1,9.640636295E-2
2.421495904E0,4.713791609E-2,1.330247968E-1,9.001477808E-2
2.423983716E0,4.607265070E-2,1.159805804E-1,8.149266988E-2
2.426471529E0,4.500738904E-2,1.010668874E-1,7.510108501E-2
2.428959341E0,4.287686199E-2,8.615319431E-2,6.870950758E-2
2.431447154E0,4.074633494E-2,7.337003201E-2,6.338318437E-2
2.433934966E0,3.861580789E-2,6.378266215E-2,6.018739566E-2
2.436422779E0,3.648528084E-2,5.526055023E-2,5.699160323E-2
2.438910591E0,3.328948840E-2,4.993423447E-2,5.592634156E-2
2.441398404E0,3.115896136E-2,4.673844203E-2,5.486107618E-2
2.443886216E0,2.902843431E-2,4.460791498E-2,5.699160323E-2
2.446374029E0,2.902843431E-2,4.460791498E-2,6.018739566E-2
2.448861841E0,2.796317078E-2,4.673844203E-2,6.551371515E-2
2.451349654E0,2.796317078E-2,5.099949613E-2,7.084003091E-2
2.453837466E0,2.796317078E-2,5.526055023E-2,7.616634667E-2
2.456325279E0,2.902843431E-2,6.165213138E-2,8.255793154E-2
2.458813091E0,2.902843431E-2,6.910897791E-2,8.894951642E-2
2.461300904E0,3.009369783E-2,7.869634777E-2,9.747162461E-2
2.463788716E0,3.328948840E-2,8.828372508E-2,1.049284711E-1
2.466276529E0,3.648528084E-2,1.000016257E-1,1.123853177E-1
2.468764341E0,4.074633494E-2,1.127847880E-1,1.187768951E-1
2.471252154E0,4.500738904E-2,1.255679578E-1,1.241032109E-1
2.473739966E0,4.926844314E-2,1.383511126E-1,1.283642650E-1
2.476227779E0,5.352949724E-2,1.521995366E-1,1.326253265E-1
2.478715591E0,5.779055133E-2,1.639174372E-1,1.336905807E-1
2.481203404E0,6.098634377E-2,1.756353378E-1,1.347558498E-1
2.483691216E0,6.418213248E-2,1.830921918E-1,1.336905807E-1
2.486179029E0,6.737792492E-2,1.905490309E-1,1.315600574E-1
2.488666841E0,6.950845569E-2,1.937448233E-1,1.272990108E-1
2.491154654E0,7.163897902E-2,1.948100924E-1,1.230379492E-1
2.493642466E0,7.270424068E-2,1.916143000E-1,1.177116334E-1
2.496130279E0,7.376950979E-2,1.862879843E-1,1.123853177E-1
2.498618091E0,7.270424068E-2,1.788311303E-1,1.059937328E-1
2.501105904E0,7.057371736E-2,1.692437679E-1,9.960214794E-2
2.503593716E0,6.844318658E-2,1.575258672E-1,9.214530140E-2
2.506081529E0,6.524740160E-2,1.447426975E-1,8.468846232E-2
2.508569341E0,6.418213248E-2,1.308942735E-1,8.042740822E-2
2.511057154E0,6.205160543E-2,1.159805804E-1,7.616634667E-2
2.513544966E0,5.885581672E-2,9.893636405E-2,7.297056168E-2
2.516032779E0,5.779055133E-2,8.295740932E-2,7.084003091E-2
2.518520591E0,5.566002429E-2,6.591318548E-2,6.977476925E-2
2.521008404E0,5.459476262E-2,4.886896908E-2,6.870950758E-2
2.523496216E0,5.246423557E-2,3.608580679E-2,6.870950758E-2
2.525984029E0,5.033370852E-2,2.330264263E-2,6.977476925E-2
2.528471841E0,4.820318148E-2,1.371526904E-2,6.977476925E-2
2.530959654E0,4.394212365E-2,6.258423906E-3,7.190529257E-2
2.533447466E0,4.181159660E-2,3.062632866E-3,7.403582335E-2
2.535935279E0,3.861580789E-2,1.997369342E-3,7.829687744E-2
2.538423091E0,3.648528084E-2,5.193160381E-3,8.255793154E-2
2.540910904E0,3.542001545E-2,1.158474199E-2,8.788424730E-2
2.543398716E0,3.435475379E-2,2.010685205E-2,9.427583218E-2
2.545886529E0,3.542001545E-2,3.075948730E-2,1.017326787E-1
2.548374341E0,3.542001545E-2,4.247738793E-2,1.091895252E-1
2.550862154E0,3.755054250E-2,5.526055023E-2,1.166463718E-1
2.553349966E0,4.074633494E-2,6.804371625E-2,1.230379492E-1
2.555837779E0,4.500738904E-2,7.976161689E-2,1.294295341E-1
2.558325591E0,5.033370852E-2,8.934898674E-2,1.347558498E-1
2.560813404E0,5.566002429E-2,9.787109494E-2,1.379516423E-1
2.563301216E0,5.992107838E-2,1.031974182E-1,1.390169114E-1
2.565789029E0,6.524740160E-2,1.063932031E-1,1.390169114E-1
2.568276841E0,6.950845569E-2,1.063932031E-1,1.358211190E-1
2.570764654E0,7.270424068E-2,1.042626798E-1,1.326253265E-1
2.573252466E0,7.590003312E-2,9.893636405E-2,1.272990108E-1
2.575740279E0,7.803056389E-2,9.041424841E-2,1.209074259E-1
2.578228091E0,8.122635633E-2,7.976161689E-2,1.145158410E-1
2.580715904E0,8.335687965E-2,6.804371625E-2,1.081242561E-1
2.583203716E0,8.442214131E-2,5.313002318E-2,1.017326787E-1
2.585691529E0,8.548741043E-2,3.821633384E-2,9.640636295E-2
2.588179341E0,8.548741043E-2,2.223737910E-2,9.108003974E-2
2.590667154E0,8.442214131E-2,7.323687430E-3,8.468846232E-2
2.593154966E0,8.122635633E-2,-7.590003312E-3,8.149266988E-2
2.595642779E0,7.696529478E-2,-2.143843099E-2,7.829687744E-2
2.598130591E0,7.270424068E-2,-3.315633163E-2,7.616634667E-2
2.600618404E0,6.844318658E-2,-4.167843983E-2,7.510108501E-2
2.603106216E0,6.418213248E-2,-4.807002097E-2,7.510108501E-2
2.605594029E0,5.992107838E-2,-5.233107507E-2,7.616634667E-2
2.608081841E0,5.672528967E-2,-5.339634046E-2,7.723161578E-2
2.610569654E0,5.566002429E-2,-5.233107507E-2,7.936213911E-2
2.613057466E0,5.459476262E-2,-4.913528636E-2,8.362319320E-2
2.615545279E0,5.459476262E-2,-4.380896688E-2,8.681898564E-2
2.618033091E0,5.672528967E-2,-3.848264739E-2,9.321057051E-2
2.620520904E0,5.992107838E-2,-3.209106624E-2,9.853688627E-2
2.623008716E0,6.524740160E-2,-2.463422157E-2,1.038632020E-1
2.625496529E0,7.057371736E-2,-1.824264042E-2,1.091895252E-1
2.627984341E0,7.696529478E-2,-1.291632187E-2,1.134505793E-1
2.630472154E0,8.335687965E-2,-8.655266836E-3,1.166463718E-1
2.632959966E0,8.974846452E-2,-5.459476262E-3,1.187768951E-1
2.635447779E0,9.827057272E-2,-6.524739787E-3,1.209074259E-1
2.637935591E0,1.057274193E-1,-9.720530361E-3,1.219726875E-1
2.640423404E0,1.131842583E-1,-1.611211337E-2,1.209074259E-1
2.642911216E0,1.195758432E-1,-2.569948509E-2,1.198421568E-1
2.645399029E0,1.259674281E-1,-3.954791278E-2,1.187768951E-1
2.647886841E0,1.302284747E-1,-5.872265995E-2,1.145158410E-1
2.650374654E0,1.323590130E-1,-8.109319210E-2,1.091895252E-1
2.652862466E0,1.323590130E-1,-1.066595241E-1,1.027979404E-1
2.655350279E0,1.291632205E-1,-1.354216337E-1,9.534109384E-2
2.657838091E0,1.249021590E-1,-1.652490199E-1,8.681898564E-2
2.660325904E0,1.163800508E-1,-1.982721984E-1,7.936213911E-2
2.662813716E0,1.057274193E-1,-2.323606312E-1,7.190529257E-2
2.665301529E0,9.294424951E-2,-2.675143182E-1,6.551371515E-2
2.667789341E0,7.909582555E-2,-3.037332892E-1,5.912213027E-2
2.670277154E0,6.418213248E-2,-3.388870060E-1,5.592634156E-2
2.672764966E0,4.926844314E-2,-3.729754388E-1,5.379581451E-2
2.675252779E0,3.542001545E-2,-4.028028250E-1,5.379581451E-2
2.677740591E0,2.050632425E-2,-4.283691347E-1,5.592634156E-2
2.680228404E0,5.592633970E-3,-4.475438893E-1,6.018739566E-2
2.682716216E0,-7.190529723E-3,-4.592617750E-1,6.444845349E-2
2.685204029E0,-2.103895694E-2,-4.624575675E-1,7.084003091E-2
2.687691841E0,-3.382211924E-2,-4.550007284E-1,8.042740822E-2
2.690179654E0,-4.554001987E-2,-4.368912578E-1,8.788424730E-2
2.692667466E0,-5.725792050E-2,-4.102596641E-1,9.853688627E-2
2.695155279E0,-6.791055948E-2,-3.719101548E-1,1.102547869E-1
2.697643091E0,-7.749792933E-2,-3.261038363E-1,1.230379492E-1
2.700130904E0,-8.602003753E-2,-2.717753947E-1,1.368863732E-1
2.702618716E0,-9.241162241E-2,-2.142511457E-1,1.528653353E-1
2.705106529E0,-9.773793817E-2,-1.524658650E-1,1.688442826E-1
2.707594341E0,-1.009337306E-1,-8.961530030E-2,1.858884990E-1
2.710082154E0,-1.019989923E-1,-2.996053919E-2,2.039979845E-1
2.712569966E0,-1.019989923E-1,2.649843320E-2,2.199769467E-1
2.715057779E0,-9.986846894E-2,7.656582445E-2,2.359558940E-1
2.717545591E0,-9.667267650E-2,1.202416345E-1,2.498043180E-1
2.720033404E0,-9.241162241E-2,1.564605981E-1,2.636527419E-1
2.722521216E0,-8.602003753E-2,1.841574460E-1,2.732401192E-1
2.725009029E0,-7.962846011E-2,2.043974549E-1,2.817622423E-1
2.727496841E0,-7.323687524E-2,2.161153555E-1,2.881538272E-1
2.729984654E0,-6.471476704E-2,2.203764170E-1,2.913496196E-1
2.732472466E0,-5.725792050E-2,2.182458937E-1,2.924148738E-1
2.734960279E0,-4.873581231E-2,2.107890397E-1,2.913496196E-1
2.737448091E0,-4.234423116E-2,1.969406158E-1,2.881538272E-1
2.739935904E0,-3.701791167E-2,1.767006069E-1,2.817622423E-1
2.742423716E0,-3.382211924E-2,1.511342824E-1,2.753706574E-1
2.744911529E0,-3.275685757E-2,1.202416345E-1,2.668485343E-1
2.747399341E0,-3.382211924E-2,8.508793265E-2,2.572611570E-1
2.749887154E0,-3.595264629E-2,4.567318037E-2,2.455432713E-1
2.752375018E0,-3.914843872E-2,4.127896391E-3,2.348906398E-1
2.754862883E0,-4.340949282E-2,-3.635212034E-2,2.263685167E-1
2.757350747E0,-4.767054692E-2,-7.576687634E-2,2.189116776E-1
2.759838612E0,-5.086633936E-2,-1.119858399E-1,2.135853618E-1
2.762326477E0,-5.406212807E-2,-1.450090110E-1,2.103895694E-1
2.764814341E0,-5.619265884E-2,-1.727058738E-1,2.082590461E-1
2.767302206E0,-6.045371294E-2,-1.961416751E-1,2.071937770E-1
2.769790070E0,-6.364950538E-2,-2.153164148E-1,2.061285079E-1
2.772277935E0,-6.684529036E-2,-2.312953621E-1,2.029327303E-1
2.774765799E0,-7.110634446E-2,-2.430132627E-1,1.997369379E-1
2.777253664E0,-7.643266767E-2,-2.515353858E-1,1.954758763E-1
2.779741529E0,-8.069372177E-2,-2.579269707E-1,1.901495606E-1
2.782229393E0,-8.708529919E-2,-2.611227632E-1,1.848232448E-1
2.784717258E0,-9.134636074E-2,-2.621880174E-1,1.805621833E-1
2.787205122E0,-9.560741484E-2,-2.589922249E-1,1.784316599E-1
2.789692987E0,-9.986846894E-2,-2.536658943E-1,1.773663908E-1
2.792180852E0,-1.019989923E-1,-2.462090552E-1,1.784316599E-1
2.794668716E0,-1.030642539E-1,-2.344911546E-1,1.794969290E-1
2.797156581E0,-1.030642539E-1,-2.217079997E-1,1.816274524E-1
2.799644445E0,-1.019989923E-1,-2.057290375E-1,1.837579757E-1
2.802132310E0,-1.009337306E-1,-1.886848211E-1,1.858884990E-1
2.804620174E0,-9.667267650E-2,-1.705753356E-1,1.880190372E-1
2.807108039E0,-9.454214573E-2,-1.524658650E-1,1.890842915E-1
2.809595904E0,-9.134636074E-2,-1.354216337E-1,1.901495606E-1
2.812083768E0,-8.815056831E-2,-1.205079481E-1,1.912148297E-1
2.814571633E0,-8.388951421E-2,-1.055942550E-1,1.933453530E-1
2.817059497E0,-7.856319100E-2,-9.387636185E-2,1.954758763E-1
2.819547362E0,-7.430213690E-2,-8.322372288E-2,1.986716688E-1
2.822035227E0,-6.791055948E-2,-7.576687634E-2,1.997369379E-1
2.824523039E0,-6.151897460E-2,-6.937529147E-2,2.018674612E-1
2.827010852E0,-5.299686641E-2,-6.617950648E-2,2.018674612E-1
2.829498664E0,-4.340949282E-2,-6.617950648E-2,2.008021921E-1
2.831986477E0,-3.382211924E-2,-6.831002980E-2,1.965411454E-1
2.834474289E0,-2.423474751E-2,-7.363634557E-2,1.912148297E-1
2.836962102E0,-1.358211134E-2,-8.215846121E-2,1.837579757E-1
2.839449914E0,-5.060002208E-3,-9.494162351E-2,1.731053442E-1
2.841937727E0,1.331579522E-3,-1.109205782E-1,1.624527127E-1
2.844425539E0,7.723161485E-3,-1.332911104E-1,1.486042738E-1
2.846913352E0,1.304947957E-2,-1.577921808E-1,1.358211190E-1
2.849401164E0,1.731053367E-2,-1.876195520E-1,1.230379492E-1
2.851888977E0,2.050632425E-2,-2.217079997E-1,1.123853177E-1
2.854376789E0,2.263685316E-2,-2.579269707E-1,1.027979404E-1
2.856864602E0,2.476738021E-2,-2.952111959E-1,9.534109384E-2
2.859352414E0,2.583264373E-2,-3.324954212E-1,9.001477808E-2
2.861840227E0,2.689790726E-2,-3.697796464E-1,8.362319320E-2
2.864328039E0,2.796317078E-2,-4.049333334E-1,7.723161578E-2
2.866815852E0,2.689790726E-2,-4.390217662E-1,7.084003091E-2
2.869303664E0,2.583264373E-2,-4.720449448E-1,6.231792271E-2
2.871791477E0,2.263685316E-2,-5.029376149E-1,5.273054913E-2
2.874279289E0,1.837579720E-2,-5.316997170E-1,4.207791388E-2
2.876767102E0,1.304947957E-2,-5.562008023E-1,3.142527863E-2
2.879254914E0,8.788425475E-3,-5.775060654E-1,2.396843210E-2
2.881742727E0,2.396843163E-3,-5.924197435E-1,1.864211448E-2
2.884230539E0,-2.929474926E-3,-6.020070910E-1,1.864211448E-2
2.886718352E0,-8.255792782E-3,-6.062681675E-1,2.077264152E-2
2.889206164E0,-1.251684781E-2,-6.041376591E-1,2.716422267E-2
2.891693977E0,-1.677790284E-2,-5.956155062E-1,3.781685978E-2
2.894181789E0,-1.997369342E-2,-5.807018280E-1,4.846949503E-2
2.896669602E0,-2.210422046E-2,-5.615270734E-1,6.125266105E-2
2.899157414E0,-2.423474751E-2,-5.391565561E-1,7.403582335E-2
2.901645227E0,-2.423474751E-2,-5.135902166E-1,8.894951642E-2
2.904133039E0,-2.316948399E-2,-4.858933687E-1,1.038632020E-1
2.906620852E0,-1.997369342E-2,-4.550007284E-1,1.177116334E-1
2.909108664E0,-1.464737486E-2,-4.241080880E-1,1.336905807E-1
2.911596477E0,-7.190529723E-3,-3.932154477E-1,1.507348120E-1
2.914084289E0,1.331579522E-3,-3.633880615E-1,1.667137593E-1
2.916572102E0,1.091895252E-2,-3.335606754E-1,1.837579757E-1
2.919059914E0,2.050632425E-2,-3.069290817E-1,1.986716688E-1
2.921547727E0,3.222422674E-2,-2.834932804E-1,2.135853618E-1
2.924035539E0,4.607265070E-2,-2.643185556E-1,2.253032625E-1
2.926523352E0,5.992107838E-2,-2.494048476E-1,2.359558940E-1
2.929011164E0,7.483477145E-2,-2.408827394E-1,2.434127480E-1
2.931498977E0,9.081372619E-2,-2.376869470E-1,2.498043180E-1
2.933986789E0,1.078579426E-1,-2.408827394E-1,2.530001104E-1
2.936474602E0,1.270326823E-1,-2.536658943E-1,2.540653646E-1
2.938962414E0,1.462074369E-1,-2.728406489E-1,2.519348562E-1
2.941450227E0,1.653821766E-1,-2.984069884E-1,2.466085255E-1
2.943938039E0,1.845569313E-1,-3.324954212E-1,2.391516864E-1
2.946425852E0,2.037316710E-1,-3.729754388E-1,2.284990549E-1
2.948913664E0,2.218411565E-1,-4.219775498E-1,2.135853618E-1
2.951401477E0,2.378201038E-1,-4.763059914E-1,1.933453530E-1
2.953889289E0,2.516685426E-1,-5.348954797E-1,1.667137593E-1
2.956377102E0,2.623211741E-1,-5.956155062E-1,1.368863732E-1
2.958864914E0,2.719085515E-1,-6.574008465E-1,1.017326787E-1
2.961352727E0,2.804306448E-1,-7.149250507E-1,6.338318437E-2
2.963840539E0,2.878875136E-1,-7.660577297E-1,2.396843210E-2
2.966328352E0,2.953443527E-1,-8.065377474E-1,-1.544632297E-2
2.968816164E0,3.006706536E-1,-8.331693411E-1,-5.273054913E-2
2.971303977E0,3.070622385E-1,-8.438219428E-1,-8.575372398E-2
2.973791789E0,3.113232851E-1,-8.384956717E-1,-1.145158410E-1
2.976279602E0,3.166496158E-1,-8.171903491E-1,-1.390169114E-1
2.978767414E0,3.198454082E-1,-7.831019163E-1,-1.581916511E-1
2.981255227E0,3.251717389E-1,-7.372955680E-1,-1.741705984E-1
2.983743039E0,3.283675313E-1,-6.850976944E-1,-1.858884990E-1
2.986230852E0,3.326285779E-1,-6.286386847E-1,-1.954758763E-1
2.988718664E0,3.368896246E-1,-5.732449889E-1,-2.039979845E-1
2.991206477E0,3.411506712E-1,-5.210470557E-1,-2.103895694E-1
2.993694289E0,3.443464637E-1,-4.763059914E-1,-2.167811543E-1
2.996182102E0,3.464770019E-1,-4.358259737E-1,-2.199769467E-1
2.998669914E0,3.496727943E-1,-4.049333334E-1,-2.221074700E-1
3.001157727E0,3.507380486E-1,-3.814975321E-1,-2.231727391E-1
3.003645539E0,3.528685868E-1,-3.655185997E-1,-2.210422009E-1
3.006133352E0,3.549990952E-1,-3.559312224E-1,-2.167811543E-1
3.008621164E0,3.581948876E-1,-3.506048918E-1,-2.093243003E-1
3.011108977E0,3.635212183E-1,-3.506048918E-1,-1.997369379E-1
3.013596789E0,3.699128032E-1,-3.506048918E-1,-1.869537681E-1
3.016084602E0,3.805654347E-1,-3.527354300E-1,-1.720400751E-1
3.018572414E0,3.922833502E-1,-3.538006842E-1,-1.571263820E-1
3.021060227E0,4.061317742E-1,-3.538006842E-1,-1.422126889E-1
3.023548039E0,4.210454524E-1,-3.527354300E-1,-1.294295341E-1
3.026035852E0,4.380896688E-1,-3.506048918E-1,-1.187768951E-1
3.028523664E0,4.530033767E-1,-3.474090993E-1,-1.113200486E-1
3.031011477E0,4.700475931E-1,-3.431480527E-1,-1.049284711E-1
3.033499289E0,4.849612713E-1,-3.399522603E-1,-1.006674170E-1
3.035987102E0,4.998749495E-1,-3.367564678E-1,-9.747162461E-2
3.038474914E0,5.147886276E-1,-3.367564678E-1,-9.640636295E-2
3.040962727E0,5.318328738E-1,-3.388870060E-1,-9.534109384E-2
3.043450539E0,5.478118062E-1,-3.442133069E-1,-9.534109384E-2
3.045938352E0,5.648560524E-1,-3.527354300E-1,-9.534109384E-2
3.048426164E0,5.829655528E-1,-3.655185997E-1,-9.640636295E-2
3.050913977E0,6.010749936E-1,-3.814975321E-1,-9.747162461E-2
3.053401789E0,6.202497482E-1,-4.006722867E-1,-9.960214794E-2
3.055889602E0,6.383592486E-1,-4.209122956E-1,-1.027979404E-1
3.058377414E0,6.554034352E-1,-4.422175586E-1,-1.070589945E-1
3.060865227E0,6.724476814E-1,-4.656533599E-1,-1.134505793E-1
3.063353039E0,6.884266138E-1,-4.901544452E-1,-1.219726875E-1
3.065840852E0,7.033402920E-1,-5.146554708E-1,-1.315600574E-1
3.068328664E0,7.161234617E-1,-5.380913019E-1,-1.422126889E-1
3.070816477E0,7.267761230E-1,-5.593965650E-1,-1.539305896E-1
3.073304289E0,7.352982163E-1,-5.785713196E-1,-1.656484902E-1
3.075792102E0,7.438203096E-1,-5.924197435E-1,-1.773663908E-1
3.078279914E0,7.512772083E-1,-6.020070910E-1,-1.901495606E-1
3.080767727E0,7.587340474E-1,-6.062681675E-1,-2.008021921E-1
3.083255539E0,7.661908865E-1,-6.052029133E-1,-2.093243003E-1
3.085743352E0,7.725824714E-1,-5.977460742E-1,-2.167811543E-1
3.088231164E0,7.800393105E-1,-5.860281587E-1,-2.210422009E-1
3.090718977E0,7.874961495E-1,-5.700492263E-1,-2.242379934E-1
3.093206789E0,7.928224802E-1,-5.519397259E-1,-2.242379934E-1
3.095694602E0,7.992140651E-1,-5.316997170E-1,-2.221074700E-1
3.098182414E0,8.045403361E-1,-5.103944540E-1,-2.178464085E-1
3.100670227E0,8.109319210E-1,-4.890891612E-1,-2.114548385E-1
3.103158039E0,8.151929975E-1,-4.699144363E-1,-2.029327303E-1
3.105645852E0,8.205193281E-1,-4.518049359E-1,-1.922800839E-1
3.108133664E0,8.258456588E-1,-4.368912578E-1,-1.794969290E-1
3.110621477E0,8.311719298E-1,-4.241080880E-1,-1.667137593E-1
3.113109289E0,8.375635147E-1,-4.145207107E-1,-1.518000662E-1
3.115597102E0,8.428898454E-1,-4.081291258E-1,-1.379516423E-1
3.118084914E0,8.482161760E-1,-4.049333334E-1,-1.230379492E-1
3.120572727E0,8.535425067E-1,-4.049333334E-1,-1.081242561E-1
3.123060539E0,8.588688374E-1,-4.091944098E-1,-9.534109384E-2
3.125548352E0,8.631298542E-1,-4.145207107E-1,-8.468846232E-2
3.128036164E0,8.663256764E-1,-4.219775498E-1,-7.297056168E-2
3.130523977E0,8.684561849E-1,-4.304996729E-1,-6.338318437E-2
3.133011789E0,8.705866933E-1,-4.411523044E-1,-5.486107618E-2
3.135499602E0,8.716519475E-1,-4.518049359E-1,-4.740423337E-2
3.137987414E0,8.727172613E-1,-4.624575675E-1,-4.207791388E-2
3.140475227E0,8.727172613E-1,-4.709796906E-1,-3.781685978E-2
3.142963039E0,8.716519475E-1,-4.795017838E-1,-3.355580568E-2
3.145450852E0,8.695214391E-1,-4.869586527E-1,-3.142527863E-2
3.147938664E0,8.673909307E-1,-4.933502376E-1,-2.929474972E-2
3.150426477E0,8.641951084E-1,-4.976112843E-1,-2.822948620E-2
3.152914289E0,8.620646000E-1,-5.029376149E-1,-2.822948620E-2
3.155402102E0,8.588688374E-1,-5.071986318E-1,-2.929474972E-2
3.157889914E0,8.578035235E-1,-5.114597082E-1,-3.355580568E-2
3.160377727E0,8.556730151E-1,-5.167860389E-1,-3.675159439E-2
3.162865539E0,8.535425067E-1,-5.231776237E-1,-4.101264849E-2
3.165353352E0,8.514119387E-1,-5.306344628E-1,-4.633896798E-2
3.167841164E0,8.482161760E-1,-5.370260477E-1,-5.273054913E-2
3.170328977E0,8.450203538E-1,-5.423523784E-1,-6.125266105E-2
3.172816789E0,8.418245912E-1,-5.455481410E-1,-6.870950758E-2
3.175304602E0,8.364982605E-1,-5.466133952E-1,-7.723161578E-2
3.177792414E0,8.301066756E-1,-5.466133952E-1,-8.362319320E-2
3.180280227E0,8.226498365E-1,-5.455481410E-1,-8.894951642E-2
3.182768039E0,8.141277432E-1,-5.423523784E-1,-9.321057051E-2
3.185255852E0,8.056056499E-1,-5.380913019E-1,-9.640636295E-2
3.187743664E0,7.970834970E-1,-5.327649713E-1,-9.747162461E-2
3.190231477E0,7.874961495E-1,-5.274386406E-1,-9.747162461E-2
3.192719289E0,7.789740562E-1,-5.221123695E-1,-9.534109384E-2
3.195207102E0,7.672561407E-1,-5.178512931E-1,-9.214530140E-2
3.197694914E0,7.555382252E-1,-5.135902166E-1,-8.894951642E-2
3.200182727E0,7.427550554E-1,-5.103944540E-1,-8.362319320E-2
3.202670539E0,7.278413773E-1,-5.093291998E-1,-7.936213911E-2
3.205158352E0,7.107971907E-1,-5.103944540E-1,-7.403582335E-2
3.207646164E0,6.916224360E-1,-5.125249624E-1,-6.870950758E-2
3.210133977E0,6.703171730E-1,-5.146554708E-1,-6.444845349E-2
3.212621789E0,6.490118504E-1,-5.157207847E-1,-5.912213027E-2
3.215109602E0,6.255760789E-1,-5.167860389E-1,-5.379581451E-2
3.217597414E0,6.010749936E-1,-5.146554708E-1,-4.953476042E-2
3.220085227E0,5.765739679E-1,-5.082638860E-1,-4.527370632E-2
3.222573039E0,5.520728827E-1,-4.954807460E-1,-4.207791388E-2
3.225060852E0,5.286371112E-1,-4.752407372E-1,-3.994738683E-2
3.227548664E0,5.052012801E-1,-4.464786351E-1,-3.781685978E-2
3.230036477E0,4.849612713E-1,-4.113249183E-1,-3.568633273E-2
3.232524289E0,4.668518007E-1,-3.665838540E-1,-3.462106735E-2
3.235012102E0,4.519380927E-1,-3.154512048E-1,-3.462106735E-2
3.237499914E0,4.391549230E-1,-2.600574791E-1,-3.462106735E-2
3.239987727E0,4.274370372E-1,-1.993374527E-1,-3.462106735E-2
3.242475539E0,4.189149141E-1,-1.364869028E-1,-3.568633273E-2
3.244963352E0,4.103928208E-1,-7.257108390E-2,-3.675159439E-2
3.247451164E0,4.018706977E-1,-7.590003312E-3,-3.781685978E-2
3.249938977E0,3.922833502E-1,5.526055023E-2,-3.994738683E-2
3.252426789E0,3.795001805E-1,1.170458421E-1,-4.314317927E-2
3.254914602E0,3.645864725E-1,1.756353378E-1,-4.527370632E-2
3.257402414E0,3.464770019E-1,2.310290486E-1,-4.846949503E-2
3.259890227E0,3.262369931E-1,2.821617126E-1,-4.953476042E-2
3.262378039E0,3.038664460E-1,3.300985694E-1,-4.953476042E-2
3.264865852E0,2.783001363E-1,3.737743795E-1,-4.740423337E-2
3.267353664E0,2.506032586E-1,4.110586047E-1,-4.314317927E-2
3.269841477E0,2.186453640E-1,4.419512451E-1,-3.675159439E-2
3.272329289E0,1.856221855E-1,4.653870463E-1,-2.609895915E-2
3.274817102E0,1.515337527E-1,4.813660085E-1,-1.118526794E-2
3.277304914E0,1.174453199E-1,4.888228476E-1,6.924213842E-3
3.279792727E0,8.548741043E-2,4.888228476E-1,2.929474972E-2
3.282280539E0,5.566002429E-2,4.781702161E-1,5.805686861E-2
3.284768352E0,3.009369783E-2,4.568649530E-1,9.001477808E-2
3.287256164E0,5.592633970E-3,4.238417745E-1,1.262337416E-1
3.289743977E0,-1.358211134E-2,3.780354261E-1,1.667137593E-1
3.292231789E0,-3.169159219E-2,3.194459379E-1,2.103895694E-1
3.294719602E0,-4.660528526E-2,2.491385341E-1,2.572611570E-1
3.297207414E0,-6.151897460E-2,1.692437679E-1,3.062632978E-1
3.299695227E0,-7.430213690E-2,7.976161689E-2,3.573959470E-1
3.302183039E0,-8.815056831E-2,-1.398158539E-2,4.106591344E-1
3.304670852E0,-1.041295230E-1,-1.119858399E-1,4.649875760E-1
3.307158716E0,-1.233042628E-1,-2.067943066E-1,5.214465261E-1
3.309646581E0,-1.456748098E-1,-2.962764502E-1,5.789707899E-1
3.312134445E0,-1.691105962E-1,-3.740406930E-1,6.386255622E-1
3.314622310E0,-1.946769357E-1,-4.390217662E-1,6.993455887E-1
3.317110174E0,-2.202432603E-1,-4.869586527E-1,7.590003610E-1
3.319598039E0,-2.436790615E-1,-5.157207847E-1,8.165245652E-1
3.322085904E0,-2.639190555E-1,-5.285038948E-1,8.676572442E-1
3.324573768E0,-2.809632719E-1,-5.242428780E-1,9.123983383E-1
3.327061633E0,-2.926811874E-1,-5.061333776E-1,9.475520253E-1
3.329549497E0,-2.990727723E-1,-4.773712754E-1,9.720530510E-1
3.332037362E0,-3.022685647E-1,-4.400870502E-1,9.837709665E-1
3.334525227E0,-3.022685647E-1,-3.974764943E-1,9.816404581E-1
3.337013091E0,-3.001380265E-1,-3.506048918E-1,9.667267799E-1
3.339500956E0,-2.958769798E-1,-3.026680350E-1,9.411604404E-1
3.341988820E0,-2.916159332E-1,-2.536658943E-1,9.049414396E-1
3.344476685E0,-2.873548567E-1,-2.067943066E-1,8.602004051E-1
3.346964549E0,-2.830938101E-1,-1.609879732E-1,8.090677261E-1
3.349452414E0,-2.788327634E-1,-1.194426864E-1,7.547392845E-1
3.351940279E0,-2.735064328E-1,-8.215846121E-2,6.982803345E-1
3.354428143E0,-2.681801319E-1,-5.020054802E-2,6.418213248E-1
3.356916008E0,-2.617885470E-1,-2.356895804E-2,5.842971206E-1
3.359403872E0,-2.522011697E-1,-2.263685223E-3,5.299686790E-1
3.361891737E0,-2.415485233E-1,1.158474199E-2,4.777707458E-1
3.364379602E0,-2.298306376E-1,1.904158667E-2,4.277033508E-1
3.366867466E0,-2.181127369E-1,2.010685205E-2,3.808317482E-1
3.369355331E0,-2.063948363E-1,1.584579609E-2,3.350254297E-1
3.371843195E0,-1.946769357E-1,5.193160381E-3,2.924148738E-1
3.374331060E0,-1.818937659E-1,-8.655266836E-3,2.519348562E-1
3.376818872E0,-1.691105962E-1,-2.996053919E-2,2.114548385E-1
3.379306685E0,-1.563274413E-1,-5.339634046E-2,1.731053442E-1
3.381794497E0,-1.414137483E-1,-8.002793044E-2,1.347558498E-1
3.384282310E0,-1.265000552E-1,-1.098553166E-1,9.853688627E-2
3.386770122E0,-1.094558388E-1,-1.428784877E-1,6.231792271E-2
3.389257935E0,-9.134636074E-2,-1.780321896E-1,2.609895915E-2
3.391745747E0,-7.430213690E-2,-2.142511457E-1,-9.054740891E-3
3.394233560E0,-5.832318589E-2,-2.494048476E-1,-4.207791388E-2
3.396721372E0,-4.234423116E-2,-2.834932804E-1,-7.616634667E-2
3.399209185E0,-2.849580161E-2,-3.154512048E-1,-1.059937328E-1
3.401696997E0,-1.571263932E-2,-3.410175145E-1,-1.347558498E-1
3.404184810E0,-5.060002208E-3,-3.612575233E-1,-1.603221744E-1
3.406672622E0,4.527370445E-3,-3.740406930E-1,-1.826927215E-1
3.409160435E0,1.198421605E-2,-3.804322779E-1,-2.008021921E-1
3.411648247E0,1.837579720E-2,-3.793670237E-1,-2.157158852E-1
3.414136060E0,2.476738021E-2,-3.719101548E-1,-2.263685167E-1
3.416623872E0,3.009369783E-2,-3.580617309E-1,-2.327601016E-1
3.419111685E0,3.648528084E-2,-3.388870060E-1,-2.348906398E-1
3.421599497E0,4.181159660E-2,-3.143859208E-1,-2.327601016E-1
3.424087310E0,4.820318148E-2,-2.888196111E-1,-2.263685167E-1
3.426575122E0,5.459476262E-2,-2.611227632E-1,-2.157158852E-1
3.429062935E0,6.098634377E-2,-2.344911546E-1,-2.018674612E-1
3.431550747E0,6.631266326E-2,-2.099900991E-1,-1.869537681E-1
3.434038560E0,7.057371736E-2,-1.876195520E-1,-1.688442826E-1
3.436526372E0,7.483477145E-2,-1.684448123E-1,-1.486042738E-1
3.439014185E0,7.909582555E-2,-1.535311192E-1,-1.283642650E-1
3.441501997E0,8.229161799E-2,-1.418132186E-1,-1.059937328E-1
3.443989810E0,8.548741043E-2,-1.332911104E-1,-8.468846232E-2
3.446477622E0,8.974846452E-2,-1.290300637E-1,-6.444845349E-2
3.448965435E0,9.400951862E-2,-1.268995255E-1,-4.633896798E-2
3.451453247E0,9.720530361E-2,-1.279647946E-1,-2.929474972E-2
3.453941060E0,1.004010960E-1,-1.311605871E-1,-1.331579592E-2
3.456428872E0,1.025316268E-1,-1.354216337E-1,5.326318205E-4
3.458916685E0,1.035968885E-1,-1.396826953E-1,1.225053146E-2
3.461404497E0,1.057274193E-1,-1.428784877E-1,2.290316857E-2
3.463892310E0,1.057274193E-1,-1.460742801E-1,3.142527863E-2
3.466380122E0,1.057274193E-1,-1.482048035E-1,3.888212144E-2
3.468867935E0,1.057274193E-1,-1.482048035E-1,4.420844093E-2
3.471355747E0,1.046621501E-1,-1.460742801E-1,4.740423337E-2
3.473843560E0,1.035968885E-1,-1.407479644E-1,5.166528746E-2
3.476331372E0,1.025316268E-1,-1.343563795E-1,5.486107618E-2
3.478819185E0,9.933583438E-2,-1.268995255E-1,5.699160323E-2
3.481306997E0,9.614004195E-2,-1.183774248E-1,6.018739566E-2
3.483794810E0,9.187898785E-2,-1.098553166E-1,6.231792271E-2
3.486282622E0,8.655267209E-2,-1.013332009E-1,6.551371515E-2
3.488770435E0,8.229161799E-2,-9.174583107E-2,6.870950758E-2
3.491258247E0,7.803056389E-2,-8.322372288E-2,7.190529257E-2
3.493746060E0,7.270424068E-2,-7.576687634E-2,7.616634667E-2
3.496233872E0,6.844318658E-2,-6.937529147E-2,7.936213911E-2
3.498721685E0,6.418213248E-2,-6.511423737E-2,8.362319320E-2
3.501209497E0,5.992107838E-2,-6.298371404E-2,8.894951642E-2
3.503697310E0,5.566002429E-2,-6.404897571E-2,9.427583218E-2
3.506185122E0,5.033370852E-2,-6.831002980E-2,9.853688627E-2
3.508672935E0,4.926844314E-2,-7.683213800E-2,1.038632020E-1
3.511160747E0,4.713791609E-2,-8.855003864E-2,1.081242561E-1
3.513648560E0,4.713791609E-2,-1.034637317E-1,1.123853177E-1
3.516136372E0,4.713791609E-2,-1.205079481E-1,1.166463718E-1
3.518624185E0,4.713791609E-2,-1.386174262E-1,1.187768951E-1
3.521111997E0,4.820318148E-2,-1.567269117E-1,1.209074259E-1
3.523599810E0,4.926844314E-2,-1.748363972E-1,1.230379492E-1
3.526087622E0,5.033370852E-2,-1.908153445E-1,1.230379492E-1
3.528575435E0,5.139897019E-2,-2.046637833E-1,1.209074259E-1
3.531063247E0,5.246423557E-2,-2.163816839E-1,1.177116334E-1
3.533551060E0,5.459476262E-2,-2.238385230E-1,1.145158410E-1
3.536038872E0,5.779055133E-2,-2.249037921E-1,1.102547869E-1
3.538526685E0,6.205160543E-2,-2.217079997E-1,1.038632020E-1
3.541014497E0,6.631266326E-2,-2.121206224E-1,9.747162461E-2
3.543502310E0,7.163897902E-2,-1.961416751E-1,8.894951642E-2
3.545990122E0,7.803056389E-2,-1.759016514E-1,8.042740822E-2
3.548477935E0,8.442214131E-2,-1.503353268E-1,7.297056168E-2
3.550965747E0,9.187898785E-2,-1.215732098E-1,6.444845349E-2
3.553453560E0,9.933583438E-2,-9.174583107E-2,5.592634156E-2
3.555941372E0,1.057274193E-1,-6.085318699E-2,4.633896798E-2
3.558429185E0,1.121189967E-1,-3.209106624E-2,3.781685978E-2
3.560916997E0,1.195758432E-1,-4.394212738E-3,2.716422267E-2
3.563404810E0,1.259674281E-1,2.010685205E-2,1.651158556E-2
3.565892622E0,1.323590130E-1,3.928159550E-2,5.858949851E-3
3.568380435E0,1.387505829E-1,5.632581562E-2,-5.858949851E-3
3.570868247E0,1.440769136E-1,6.697845459E-2,-1.651158556E-2
3.573356060E0,1.472726911E-1,7.230477035E-2,-2.929474972E-2
3.575843872E0,1.494032294E-1,7.337003201E-2,-4.101264849E-2
3.578331685E0,1.515337527E-1,7.123950869E-2,-5.166528746E-2
3.580819497E0,1.536642760E-1,6.484792382E-2,-6.125266105E-2
3.583307310E0,1.536642760E-1,5.632581562E-2,-6.977476925E-2
3.585795122E0,1.547295451E-1,4.460791498E-2,-7.723161578E-2
3.588282935E0,1.547295451E-1,3.075948730E-2,-8.468846232E-2
3.590770747E0,1.536642760E-1,1.371526904E-2,-9.108003974E-2
3.593258560E0,1.525990218E-1,-3.328948980E-3,-9.640636295E-2
3.595746372E0,1.515337527E-1,-2.356895804E-2,-1.027979404E-1
3.598234185E0,1.504684836E-1,-4.380896688E-2,-1.081242561E-1
3.600721997E0,1.472726911E-1,-6.511423737E-2,-1.134505793E-1
3.603209810E0,1.440769136E-1,-8.748477697E-2,-1.198421568E-1
3.605697622E0,1.398158520E-1,-1.077247858E-1,-1.241032109E-1
3.608185435E0,1.355548054E-1,-1.247690022E-1,-1.294295341E-1
3.610673247E0,1.302284747E-1,-1.386174262E-1,-1.336905807E-1
3.613161060E0,1.238368973E-1,-1.482048035E-1,-1.358211190E-1
3.615648872E0,1.185105816E-1,-1.524658650E-1,-1.368863732E-1
3.618136685E0,1.131842583E-1,-1.503353268E-1,-1.368863732E-1
3.620624497E0,1.078579426E-1,-1.418132186E-1,-1.358211190E-1
3.623112310E0,1.035968885E-1,-1.279647946E-1,-1.315600574E-1
3.625600122E0,1.004010960E-1,-1.077247858E-1,-1.272990108E-1
3.628087935E0,9.933583438E-2,-8.109319210E-2,-1.219726875E-1
3.630575747E0,9.933583438E-2,-5.233107507E-2,-1.155811027E-1
3.633063560E0,1.004010960E-1,-1.824264042E-2,-1.070589945E-1
3.635551372E0,1.014663652E-1,1.904158667E-2,-9.853688627E-2
3.638039185E0,1.025316268E-1,5.632581562E-2,-9.001477808E-2
3.640526997E0,1.035968885E-1,9.467530251E-2,-8.149266988E-2
3.643014810E0,1.057274193E-1,1.330247968E-1,-7.190529257E-2
3.645502622E0,1.078579426E-1,1.692437679E-1,-6.338318437E-2
3.647990435E0,1.089232042E-1,2.054627240E-1,-5.486107618E-2
3.650478247E0,1.110537350E-1,2.374206334E-1,-4.740423337E-2
3.652966060E0,1.121189967E-1,2.672480047E-1,-3.994738683E-2
3.655453872E0,1.121189967E-1,2.928143442E-1,-3.249054030E-2
3.657941685E0,1.131842583E-1,3.141196072E-1,-2.716422267E-2
3.660429497E0,1.131842583E-1,3.322291076E-1,-2.077264152E-2
3.662917310E0,1.142495275E-1,3.450122476E-1,-1.651158556E-2
3.665405122E0,1.153147891E-1,3.535343707E-1,-1.331579592E-2
3.667892935E0,1.153147891E-1,3.545996249E-1,-1.012000442E-2
3.670380747E0,1.163800508E-1,3.524691164E-1,-9.054740891E-3
3.672868560E0,1.174453199E-1,3.418164849E-1,-7.989477366E-3
3.675356372E0,1.185105816E-1,3.258375227E-1,-9.054740891E-3
3.677844185E0,1.185105816E-1,3.045322299E-1,-1.118526794E-2
3.680331997E0,1.195758432E-1,2.779006660E-1,-1.438105945E-2
3.682819810E0,1.195758432E-1,2.448774725E-1,-1.970737800E-2
3.685307622E0,1.195758432E-1,2.086585164E-1,-2.609895915E-2
3.687795435E0,1.195758432E-1,1.692437679E-1,-3.355580568E-2
3.690283247E0,1.185105816E-1,1.276984811E-1,-4.101264849E-2
3.692771060E0,1.163800508E-1,8.508793265E-2,-4.846949503E-2
3.695258872E0,1.131842583E-1,4.354264960E-2,-5.699160323E-2
3.697746685E0,1.110537350E-1,4.127896391E-3,-6.444845349E-2
3.700234497E0,1.089232042E-1,-3.209106624E-2,-7.190529257E-2
3.702722310E0,1.078579426E-1,-6.511423737E-2,-7.829687744E-2
3.705210122E0,1.057274193E-1,-9.281109273E-2,-8.255793154E-2
3.707697935E0,1.035968885E-1,-1.162468940E-1,-8.681898564E-2
3.710185747E0,1.025316268E-1,-1.354216337E-1,-9.001477808E-2
3.712673560E0,1.025316268E-1,-1.503353268E-1,-9.001477808E-2
3.715161372E0,1.025316268E-1,-1.599227041E-1,-9.001477808E-2
3.717649185E0,1.035968885E-1,-1.652490199E-1,-8.894951642E-2
3.720136997E0,1.046621501E-1,-1.652490199E-1,-8.681898564E-2
3.722624810E0,1.046621501E-1,-1.609879732E-1,-8.362319320E-2
3.725112622E0,1.046621501E-1,-1.524658650E-1,-7.829687744E-2
3.727600435E0,1.046621501E-1,-1.396826953E-1,-7.403582335E-2
3.730088247E0,1.046621501E-1,-1.237037405E-1,-6.870950758E-2
3.732576060E0,1.057274193E-1,-1.045289934E-1,-6.338318437E-2
3.735063872E0,1.057274193E-1,-8.215846121E-2,-5.805686861E-2
3.737551685E0,1.057274193E-1,-5.872265995E-2,-5.273054913E-2
3.740039497E0,1.046621501E-1,-3.422159329E-2,-4.846949503E-2
3.742527310E0,1.035968885E-1,-1.078579482E-2,-4.527370632E-2
3.745015122E0,1.025316268E-1,1.158474199E-2,-4.101264849E-2
3.747502935E0,1.004010960E-1,3.395527974E-2,-3.888212144E-2
3.749990747E0,9.827057272E-2,5.526055023E-2,-3.568633273E-2
3.752478560E0,9.614004195E-2,7.656582445E-2,-3.462106735E-2
3.754966372E0,9.507478029E-2,9.680583328E-2,-3.355580568E-2
3.757454185E0,9.507478029E-2,1.138500497E-1,-3.355580568E-2
3.759941997E0,9.507478029E-2,1.287637353E-1,-3.249054030E-2
3.762429810E0,9.614004195E-2,1.404816359E-1,-3.462106735E-2
3.764917622E0,9.614004195E-2,1.479384899E-1,-3.675159439E-2
3.767405435E0,9.614004195E-2,1.521995366E-1,-3.994738683E-2
3.769893247E0,9.507478029E-2,1.511342824E-1,-4.420844093E-2
3.772381060E0,9.294424951E-2,1.458079666E-1,-4.846949503E-2
3.774868872E0,8.974846452E-2,1.383511126E-1,-5.379581451E-2
3.777356685E0,8.761793375E-2,1.276984811E-1,-5.805686861E-2
3.779844497E0,8.548741043E-2,1.149153188E-1,-6.231792271E-2
3.782332310E0,8.335687965E-2,1.000016257E-1,-6.444845349E-2
3.784820122E0,8.122635633E-2,8.402267098E-2,-6.657897681E-2
3.787307935E0,8.016108721E-2,6.697845459E-2,-6.870950758E-2
3.789795747E0,7.803056389E-2,4.780370742E-2,-7.084003091E-2
3.792283560E0,7.696529478E-2,2.649843320E-2,-7.084003091E-2
3.794771372E0,7.590003312E-2,4.127896391E-3,-7.190529257E-2
3.797259185E0,7.590003312E-2,-2.037316747E-2,-7.190529257E-2
3.799746997E0,7.376950979E-2,-4.700475931E-2,-6.977476925E-2
3.802234810E0,7.163897902E-2,-7.363634557E-2,-6.870950758E-2
3.804722622E0,6.950845569E-2,-1.002679393E-1,-6.657897681E-2
3.807210435E0,6.737792492E-2,-1.247690022E-1,-6.338318437E-2
3.809698247E0,6.524740160E-2,-1.460742801E-1,-6.018739566E-2
3.812186060E0,6.418213248E-2,-1.652490199E-1,-5.699160323E-2
3.814673872E0,6.311687082E-2,-1.801627129E-1,-5.379581451E-2
3.817161685E0,6.205160543E-2,-1.918806136E-1,-4.953476042E-2
3.819649497E0,6.098634377E-2,-1.982721984E-1,-4.527370632E-2
3.822137310E0,5.992107838E-2,-2.014679909E-1,-4.207791388E-2
3.824625122E0,5.885581672E-2,-2.004027218E-1,-3.781685978E-2
3.827112935E0,5.885581672E-2,-1.972069293E-1,-3.355580568E-2
3.829600747E0,5.885581672E-2,-1.908153445E-1,-2.929474972E-2
3.832088560E0,5.885581672E-2,-1.812279820E-1,-2.396843210E-2
3.834576372E0,5.779055133E-2,-1.705753356E-1,-1.970737800E-2
3.837064185E0,5.566002429E-2,-1.588574350E-1,-1.438105945E-2
3.839551997E0,5.566002429E-2,-1.460742801E-1,-1.012000442E-2
3.842039810E0,5.459476262E-2,-1.332911104E-1,-4.793686327E-3
3.844527622E0,5.246423557E-2,-1.194426864E-1,-5.326318205E-4
3.847015435E0,5.139897019E-2,-1.055942550E-1,2.663159044E-3
3.849503247E0,5.033370852E-2,-9.281109273E-2,7.989477366E-3
3.851991060E0,5.033370852E-2,-8.109319210E-2,1.118526794E-2
3.854478872E0,4.926844314E-2,-6.831002980E-2,1.331579592E-2
3.856966685E0,4.820318148E-2,-5.872265995E-2,1.544632297E-2
3.859454497E0,4.607265070E-2,-4.807002097E-2,1.864211448E-2
3.861942362E0,4.394212365E-2,-3.954791278E-2,1.970737800E-2
3.864430227E0,4.181159660E-2,-3.102580272E-2,2.077264152E-2
3.866918091E0,3.968106955E-2,-2.250369452E-2,2.077264152E-2
3.869405956E0,3.861580789E-2,-1.504684892E-2,1.970737800E-2
3.871893820E0,3.648528084E-2,-8.655266836E-3,1.864211448E-2
3.874381685E0,3.648528084E-2,-2.263685223E-3,1.651158556E-2
3.876869549E0,3.648528084E-2,1.997369342E-3,1.331579592E-2
3.879357414E0,3.542001545E-2,4.127896391E-3,9.054740891E-3
3.881845279E0,3.435475379E-2,4.127896391E-3,4.793686327E-3
3.884333143E0,3.435475379E-2,3.062632866E-3,-1.597895520E-3
3.886821008E0,3.222422674E-2,-1.198421582E-3,-7.989477366E-3
3.889308872E0,3.009369783E-2,-7.590003312E-3,-1.438105945E-2
3.891796737E0,2.689790726E-2,-1.398158539E-2,-2.183790505E-2
3.894284602E0,2.370211668E-2,-2.037316747E-2,-2.716422267E-2
3.896772466E0,2.157158963E-2,-2.676474862E-2,-3.249054030E-2
3.899260331E0,2.050632425E-2,-3.209106624E-2,-3.675159439E-2
3.901748195E0,1.837579720E-2,-3.635212034E-2,-4.101264849E-2
3.904236060E0,1.731053367E-2,-3.848264739E-2,-4.420844093E-2
3.906723924E0,1.518000662E-2,-3.954791278E-2,-4.633896798E-2
3.909211789E0,1.411474310E-2,-3.848264739E-2,-4.740423337E-2
3.911699654E0,1.198421605E-2,-3.528685868E-2,-4.740423337E-2
3.914187518E0,9.853689000E-3,-3.102580272E-2,-4.740423337E-2
3.916675383E0,7.723161485E-3,-2.569948509E-2,-4.633896798E-2
3.919163247E0,5.592633970E-3,-1.930790395E-2,-4.314317927E-2
3.921651112E0,3.462106921E-3,-1.185105834E-2,-3.994738683E-2
3.924138977E0,2.663159103E-4,-4.394212738E-3,-3.568633273E-2
3.926626841E0,-7.989477599E-4,1.997369342E-3,-3.249054030E-2
3.929114706E0,-2.929474926E-3,8.388951421E-3,-2.716422267E-2
3.931602570E0,-3.994738683E-3,1.371526904E-2,-2.290316857E-2
3.934090383E0,-3.994738683E-3,1.904158667E-2,-1.864211448E-2
3.936578195E0,-3.994738683E-3,2.330264263E-2,-1.438105945E-2
3.939066008E0,-3.994738683E-3,2.756369673E-2,-1.118526794E-2
3.941553820E0,-5.060002208E-3,3.075948730E-2,-9.054740891E-3
3.944041633E0,-6.125265732E-3,3.395527974E-2,-5.858949851E-3
3.946529445E0,-7.190529723E-3,3.608580679E-2,-4.793686327E-3
3.949017258E0,-9.321057238E-3,3.928159550E-2,-4.793686327E-3
3.951505070E0,-1.038632076E-2,4.247738793E-2,-4.793686327E-3
3.953992883E0,-1.038632076E-2,4.673844203E-2,-5.858949851E-3
3.956480695E0,-1.145158429E-2,4.993423447E-2,-6.924213842E-3
3.958968508E0,-1.038632076E-2,5.419528857E-2,-1.012000442E-2
3.961456320E0,-9.321057238E-3,5.739107728E-2,-1.225053146E-2
3.963944133E0,-8.255792782E-3,5.952160433E-2,-1.651158556E-2
3.966431945E0,-7.190529723E-3,6.165213138E-2,-1.970737800E-2
3.968919758E0,-6.125265732E-3,6.165213138E-2,-2.396843210E-2
3.971407570E0,-6.125265732E-3,6.058686972E-2,-2.716422267E-2
3.973895383E0,-6.125265732E-3,5.845634267E-2,-3.142527863E-2
3.976383195E0,-6.125265732E-3,5.526055023E-2,-3.568633273E-2
3.978871008E0,-7.190529723E-3,5.206476152E-2,-3.994738683E-2
3.981358820E0,-7.190529723E-3,4.780370742E-2,-4.314317927E-2
3.983846633E0,-7.190529723E-3,4.567318037E-2,-4.740423337E-2
3.986334445E0,-7.190529723E-3,4.354264960E-2,-5.060002208E-2
3.988822258E0,-7.190529723E-3,4.141212255E-2,-5.379581451E-2
3.991310070E0,-8.255792782E-3,4.034686089E-2,-5.486107618E-2
3.993797883E0,-8.255792782E-3,3.821633384E-2,-5.699160323E-2
3.996285695E0,-9.321057238E-3,3.821633384E-2,-5.912213027E-2
3.998773508E0,-1.038632076E-2,3.608580679E-2,-6.018739566E-2
4.001261320E0,-1.145158429E-2,3.395527974E-2,-6.125266105E-2
4.003749133E0,-1.251684781E-2,3.182475269E-2,-6.125266105E-2
4.006236945E0,-1.464737486E-2,2.862896025E-2,-6.018739566E-2
4.008724758E0,-1.571263932E-2,2.436790615E-2,-5.912213027E-2
4.011212570E0,-1.677790284E-2,2.117211558E-2,-5.699160323E-2
4.013700383E0,-1.890842989E-2,1.691105962E-2,-5.379581451E-2
4.016188195E0,-1.997369342E-2,1.371526904E-2,-5.166528746E-2
4.018676008E0,-2.103895694E-2,1.158474199E-2,-4.846949503E-2
4.021163820E0,-2.103895694E-2,9.454214945E-3,-4.420844093E-2
4.023651633E0,-2.103895694E-2,7.323687430E-3,-4.101264849E-2
4.026139445E0,-2.210422046E-2,4.127896391E-3,-3.675159439E-2
4.028627258E0,-2.210422046E-2,1.997369342E-3,-3.355580568E-2
4.031115070E0,-2.210422046E-2,-1.331579551E-4,-3.142527863E-2
4.033602883E0,-2.210422046E-2,-3.328948980E-3,-2.822948620E-2
4.036090695E0,-2.316948399E-2,-5.459476262E-3,-2.503369562E-2
4.038578508E0,-2.423474751E-2,-7.590003312E-3,-2.290316857E-2
4.041066320E0,-2.423474751E-2,-1.078579482E-2,-2.183790505E-2
4.043554133E0,-2.530001104E-2,-1.185105834E-2,-1.864211448E-2
4.046041945E0,-2.530001104E-2,-1.185105834E-2,-1.651158556E-2
4.048529758E0,-2.530001104E-2,-9.720530361E-3,-1.331579592E-2
4.051017570E0,-2.636527456E-2,-7.590003312E-3,-9.054740891E-3
4.053505383E0,-2.743053809E-2,-2.263685223E-3,-5.858949851E-3
4.055993195E0,-2.743053809E-2,3.062632866E-3,-2.663159044E-3
4.058481008E0,-2.743053809E-2,9.454214945E-3,5.326318205E-4
4.060968820E0,-2.743053809E-2,1.691105962E-2,3.728422802E-3
4.063456633E0,-2.743053809E-2,2.436790615E-2,7.989477366E-3
4.065944445E0,-2.636527456E-2,3.075948730E-2,1.012000442E-2
4.068432258E0,-2.636527456E-2,3.502054140E-2,1.225053146E-2
4.070920070E0,-2.530001104E-2,3.821633384E-2,1.331579592E-2
4.073407883E0,-2.530001104E-2,4.034686089E-2,1.438105945E-2
4.075895695E0,-2.316948399E-2,4.034686089E-2,1.438105945E-2
4.078383508E0,-2.103895694E-2,3.715106845E-2,1.331579592E-2
4.080871320E0,-1.890842989E-2,3.289001435E-2,1.225053146E-2
4.083359133E0,-1.784316637E-2,2.543316968E-2,1.012000442E-2
4.085846945E0,-1.571263932E-2,1.691105962E-2,7.989477366E-3
4.088334758E0,-1.464737486E-2,6.258423906E-3,4.793686327E-3
4.090822570E0,-1.251684781E-2,-6.524739787E-3,1.597895520E-3
4.093310383E0,-1.038632076E-2,-2.037316747E-2,-1.597895520E-3
4.095798195E0,-9.321057238E-3,-3.422159329E-2,-3.728422802E-3
4.098286008E0,-9.321057238E-3,-4.913528636E-2,-6.924213842E-3
4.100773820E0,-9.321057238E-3,-6.511423737E-2,-9.054740891E-3
4.103261633E0,-8.255792782E-3,-7.896266878E-2,-1.225053146E-2
4.105749445E0,-6.125265732E-3,-9.281109273E-2,-1.438105945E-2
4.108237258E0,-5.060002208E-3,-1.034637317E-1,-1.544632297E-2
4.110725070E0,-3.994738683E-3,-1.151816323E-1,-1.544632297E-2
4.113212883E0,-1.864211401E-3,-1.247690022E-1,-1.651158556E-2
4.115700695E0,2.663159103E-4,-1.322258562E-1,-1.544632297E-2
4.118188508E0,2.396843163E-3,-1.386174262E-1,-1.544632297E-2
4.120676320E0,4.527370445E-3,-1.439437568E-1,-1.544632297E-2
4.123164133E0,4.527370445E-3,-1.471395344E-1,-1.438105945E-2
4.125651945E0,5.592633970E-3,-1.492700726E-1,-1.438105945E-2
4.128139758E0,5.592633970E-3,-1.503353268E-1,-1.438105945E-2
4.130627570E0,5.592633970E-3,-1.492700726E-1,-1.331579592E-2
4.133115383E0,5.592633970E-3,-1.482048035E-1,-1.331579592E-2
4.135603195E0,5.592633970E-3,-1.439437568E-1,-1.331579592E-2
4.138091008E0,6.657897960E-3,-1.386174262E-1,-1.225053146E-2
4.140578820E0,6.657897960E-3,-1.300953180E-1,-1.012000442E-2
4.143066633E0,8.788425475E-3,-1.205079481E-1,-9.054740891E-3
4.145554445E0,9.853689000E-3,-1.098553166E-1,-6.924213842E-3
4.148042258E0,1.198421605E-2,-9.813741595E-2,-4.793686327E-3
4.150530070E0,1.304947957E-2,-8.641951531E-2,-1.597895520E-3
4.153017883E0,1.411474310E-2,-7.470161468E-2,1.597895520E-3
4.155505695E0,1.518000662E-2,-6.404897571E-2,4.793686327E-3
4.157993508E0,1.518000662E-2,-5.233107507E-2,5.858949851E-3
4.160481320E0,1.624527015E-2,-4.167843983E-2,9.054740891E-3
4.162969133E0,1.731053367E-2,-3.209106624E-2,1.012000442E-2
4.165456945E0,1.837579720E-2,-2.250369452E-2,1.225053146E-2
4.167944758E0,1.837579720E-2,-1.398158539E-2,1.331579592E-2
4.170432570E0,1.944106072E-2,-5.459476262E-3,1.331579592E-2
4.172920383E0,2.050632425E-2,9.321057005E-4,1.331579592E-2
4.175408195E0,2.157158963E-2,6.258423906E-3,1.331579592E-2
4.177896008E0,2.263685316E-2,1.158474199E-2,1.225053146E-2
4.180383820E0,2.476738021E-2,1.584579609E-2,1.118526794E-2
4.182871633E0,2.689790726E-2,1.797632314E-2,9.054740891E-3
4.185359445E0,2.796317078E-2,1.797632314E-2,5.858949851E-3
4.187847258E0,2.902843431E-2,1.797632314E-2,2.663159044E-3
4.190335070E0,3.009369783E-2,1.691105962E-2,-1.597895520E-3
4.192822883E0,3.009369783E-2,1.371526904E-2,-4.793686327E-3
4.195310695E0,3.115896136E-2,9.454214945E-3,-7.989477366E-3
4.197798508E0,3.222422674E-2,4.127896391E-3,-1.118526794E-2
4.200286320E0,3.328948840E-2,-1.331579551E-4,-1.438105945E-2
4.202774133E0,3.328948840E-2,-7.590003312E-3,-1.651158556E-2
4.205261945E0,3.435475379E-2,-1.504684892E-2,-1.864211448E-2
4.207749758E0,3.435475379E-2,-2.250369452E-2,-2.077264152E-2
4.210237570E0,3.435475379E-2,-3.209106624E-2,-2.290316857E-2
4.212725383E0,3.435475379E-2,-4.274370521E-2,-2.503369562E-2
4.215213195E0,3.435475379E-2,-5.446160212E-2,-2.503369562E-2
4.217701008E0,3.435475379E-2,-6.511423737E-2,-2.609895915E-2
4.220188820E0,3.435475379E-2,-7.576687634E-2,-2.716422267E-2
4.222676633E0,3.435475379E-2,-8.641951531E-2,-2.822948620E-2
4.225164445E0,3.435475379E-2,-9.600688517E-2,-2.716422267E-2
4.227652258E0,3.542001545E-2,-1.034637317E-1,-2.716422267E-2
4.230140070E0,3.542001545E-2,-1.087900475E-1,-2.609895915E-2
4.232627883E0,3.435475379E-2,-1.130511016E-1,-2.503369562E-2
4.235115695E0,3.435475379E-2,-1.162468940E-1,-2.396843210E-2
4.237603508E0,3.435475379E-2,-1.173121557E-1,-2.290316857E-2
4.240091320E0,3.435475379E-2,-1.162468940E-1,-2.077264152E-2
4.242579133E0,3.435475379E-2,-1.130511016E-1,-1.757685095E-2
4.245066945E0,3.435475379E-2,-1.077247858E-1,-1.438105945E-2
4.247554758E0,3.435475379E-2,-1.013332009E-1,-1.012000442E-2
4.250042570E0,3.435475379E-2,-9.281109273E-2,-6.924213842E-3
4.252530383E0,3.435475379E-2,-8.322372288E-2,-2.663159044E-3
4.255018195E0,3.435475379E-2,-7.150582224E-2,2.663159044E-3
4.257506008E0,3.542001545E-2,-5.978792161E-2,6.924213842E-3
4.259993820E0,3.542001545E-2,-4.700475931E-2,1.118526794E-2
4.262481633E0,3.542001545E-2,-3.315633163E-2,1.438105945E-2
4.264969445E0,3.435475379E-2,-1.930790395E-2,1.864211448E-2
4.267457258E0,3.435475379E-2,-6.524739787E-3,2.183790505E-2
4.269945070E0,3.542001545E-2,5.193160381E-3,2.396843210E-2
4.272432883E0,3.435475379E-2,1.584579609E-2,2.609895915E-2
4.274920695E0,3.435475379E-2,2.543316968E-2,2.609895915E-2
4.277408508E0,3.435475379E-2,3.395527974E-2,2.609895915E-2
4.279896320E0,3.435475379E-2,4.034686089E-2,2.609895915E-2
4.282384133E0,3.648528084E-2,4.460791498E-2,2.396843210E-2
4.284871945E0,3.648528084E-2,4.673844203E-2,2.183790505E-2
4.287359758E0,3.755054250E-2,4.567318037E-2,1.970737800E-2
4.289847570E0,3.968106955E-2,4.460791498E-2,1.544632297E-2
4.292335383E0,3.968106955E-2,4.034686089E-2,1.118526794E-2
4.294823195E0,4.074633494E-2,3.502054140E-2,7.989477366E-3
4.297311060E0,4.074633494E-2,2.649843320E-2,4.793686327E-3
4.299798924E0,4.074633494E-2,1.691105962E-2,5.326318205E-4
4.302286789E0,4.074633494E-2,5.193160381E-3,-2.663159044E-3
4.304774654E0,3.861580789E-2,-8.655266836E-3,-5.858949851E-3
4.307262518E0,3.755054250E-2,-2.356895804E-2,-9.054740891E-3
4.309750383E0,3.648528084E-2,-3.848264739E-2,-1.225053146E-2
4.312238247E0,3.435475379E-2,-5.339634046E-2,-1.438105945E-2
4.314726112E0,3.435475379E-2,-6.831002980E-2,-1.544632297E-2
4.317213977E0,3.222422674E-2,-8.215846121E-2,-1.544632297E-2
4.319701841E0,3.115896136E-2,-9.494162351E-2,-1.651158556E-2
4.322189706E0,2.902843431E-2,-1.055942550E-1,-1.651158556E-2
4.324677570E0,2.796317078E-2,-1.130511016E-1,-1.651158556E-2
4.327165435E0,2.583264373E-2,-1.183774248E-1,-1.544632297E-2
4.329653299E0,2.263685316E-2,-1.215732098E-1,-1.438105945E-2
4.332141164E0,1.944106072E-2,-1.215732098E-1,-1.331579592E-2
4.334629029E0,1.624527015E-2,-1.205079481E-1,-1.118526794E-2
4.337116893E0,1.411474310E-2,-1.173121557E-1,-7.989477366E-3
4.339604758E0,1.198421605E-2,-1.109205782E-1,-5.858949851E-3
4.342092622E0,1.091895252E-2,-1.045289934E-1,-3.728422802E-3
4.344580487E0,1.091895252E-2,-9.600688517E-2,-5.326318205E-4
4.347068352E0,9.853689000E-3,-8.748477697E-2,1.597895520E-3
4.349556216E0,8.788425475E-3,-7.789740711E-2,4.793686327E-3
4.352044081E0,8.788425475E-3,-6.831002980E-2,6.924213842E-3
4.354531945E0,8.788425475E-3,-5.872265995E-2,1.012000442E-2
4.357019810E0,8.788425475E-3,-4.807002097E-2,1.225053146E-2
4.359507674E0,7.723161485E-3,-3.741738573E-2,1.438105945E-2
4.361995539E0,7.723161485E-3,-2.676474862E-2,1.651158556E-2
4.364483404E0,7.723161485E-3,-1.504684892E-2,1.757685095E-2
4.366971268E0,6.657897960E-3,-3.328948980E-3,1.970737800E-2
4.369459133E0,5.592633970E-3,6.258423906E-3,1.970737800E-2
4.371946945E0,4.527370445E-3,1.691105962E-2,2.183790505E-2
4.374434758E0,4.527370445E-3,2.543316968E-2,2.183790505E-2
4.376922570E0,4.527370445E-3,3.289001435E-2,2.183790505E-2
4.379410383E0,4.527370445E-3,3.821633384E-2,2.183790505E-2
4.381898195E0,5.592633970E-3,4.247738793E-2,2.183790505E-2
4.384386008E0,6.657897960E-3,4.354264960E-2,2.077264152E-2
4.386873820E0,7.723161485E-3,4.354264960E-2,1.864211448E-2
4.389361633E0,7.723161485E-3,4.034686089E-2,1.651158556E-2
4.391849445E0,8.788425475E-3,3.608580679E-2,1.438105945E-2
4.394337258E0,9.853689000E-3,2.969422378E-2,1.225053146E-2
4.396825070E0,9.853689000E-3,2.330264263E-2,9.054740891E-3
4.399312883E0,9.853689000E-3,1.584579609E-2,5.858949851E-3
4.401800695E0,9.853689000E-3,9.454214945E-3,2.663159044E-3
4.404288508E0,9.853689000E-3,3.062632866E-3,-5.326318205E-4
4.406776320E0,8.788425475E-3,-3.328948980E-3,-3.728422802E-3
4.409264133E0,9.853689000E-3,-8.655266836E-3,-6.924213842E-3
4.411751945E0,9.853689000E-3,-1.291632187E-2,-7.989477366E-3
4.414239758E0,9.853689000E-3,-1.717737690E-2,-9.054740891E-3
4.416727570E0,1.091895252E-2,-2.037316747E-2,-1.012000442E-2
4.419215383E0,1.198421605E-2,-2.356895804E-2,-1.118526794E-2
4.421703195E0,1.198421605E-2,-2.569948509E-2,-1.118526794E-2
4.424191008E0,1.304947957E-2,-2.783001214E-2,-1.012000442E-2
4.426678820E0,1.304947957E-2,-2.889527567E-2,-1.012000442E-2
4.429166633E0,1.198421605E-2,-2.996053919E-2,-9.054740891E-3
4.431654445E0,1.091895252E-2,-2.889527567E-2,-7.989477366E-3
4.434142258E0,9.853689000E-3,-2.783001214E-2,-6.924213842E-3
4.436630070E0,8.788425475E-3,-2.569948509E-2,-4.793686327E-3
4.439117883E0,6.657897960E-3,-2.250369452E-2,-2.663159044E-3
4.441605695E0,5.592633970E-3,-1.930790395E-2,-5.326318205E-4
4.444093508E0,4.527370445E-3,-1.504684892E-2,2.663159044E-3
4.446581320E0,4.527370445E-3,-1.185105834E-2,4.793686327E-3
4.449069133E0,3.462106921E-3,-7.590003312E-3,7.989477366E-3
4.451556945E0,2.396843163E-3,-4.394212738E-3,1.118526794E-2
4.454044758E0,2.396843163E-3,-1.331579551E-4,1.438105945E-2
4.456532570E0,1.331579522E-3,3.062632866E-3,1.651158556E-2
4.459020383E0,-7.989477599E-4,6.258423906E-3,1.864211448E-2
4.461508195E0,-1.864211401E-3,8.388951421E-3,2.077264152E-2
4.463996008E0,-1.864211401E-3,1.051947847E-2,2.290316857E-2
4.466483820E0,-2.929474926E-3,1.265000552E-2,2.396843210E-2
4.468971633E0,-1.864211401E-3,1.584579609E-2,2.396843210E-2
4.471459445E0,-1.864211401E-3,1.691105962E-2,2.503369562E-2
4.473947258E0,-1.864211401E-3,1.797632314E-2,2.396843210E-2
4.476435070E0,-7.989477599E-4,1.797632314E-2,2.396843210E-2
4.478922883E0,-1.864211401E-3,1.797632314E-2,2.290316857E-2
4.481410695E0,-1.864211401E-3,1.584579609E-2,2.183790505E-2
4.483898508E0,-2.929474926E-3,1.265000552E-2,1.970737800E-2
4.486386320E0,-2.929474926E-3,8.388951421E-3,1.757685095E-2
4.488874133E0,-3.994738683E-3,3.062632866E-3,1.544632297E-2
4.491361945E0,-3.994738683E-3,-1.198421582E-3,1.331579592E-2
4.493849758E0,-3.994738683E-3,-6.524739787E-3,1.012000442E-2
4.496337570E0,-3.994738683E-3,-9.720530361E-3,9.054740891E-3
4.498825383E0,-3.994738683E-3,-1.398158539E-2,6.924213842E-3
4.501313195E0,-3.994738683E-3,-1.824264042E-2,4.793686327E-3
4.503801008E0,-3.994738683E-3,-2.143843099E-2,2.663159044E-3
4.506288820E0,-3.994738683E-3,-2.250369452E-2,5.326318205E-4
4.508776633E0,-2.929474926E-3,-2.463422157E-2,-5.326318205E-4
4.511264445E0,-2.929474926E-3,-2.569948509E-2,-2.663159044E-3
4.513752258E0,-2.929474926E-3,-2.569948509E-2,-3.728422802E-3
4.516240070E0,-3.994738683E-3,-2.569948509E-2,-4.793686327E-3
4.518727883E0,-3.994738683E-3,-2.569948509E-2,-5.858949851E-3
4.521215695E0,-3.994738683E-3,-2.463422157E-2,-5.858949851E-3
4.523703508E0,-3.994738683E-3,-2.463422157E-2,-5.858949851E-3
4.526191320E0,-5.060002208E-3,-2.463422157E-2,-5.858949851E-3
4.528679133E0,-5.060002208E-3,-2.463422157E-2,-4.793686327E-3
4.531166945E0,-3.994738683E-3,-2.463422157E-2,-3.728422802E-3
4.533654758E0,-3.994738683E-3,-2.569948509E-2,-2.663159044E-3
4.536142570E0,-3.994738683E-3,-2.676474862E-2,-1.597895520E-3
4.538630383E0,-2.929474926E-3,-2.889527567E-2,-5.326318205E-4
4.541118195E0,-2.929474926E-3,-3.102580272E-2,5.326318205E-4
4.543606008E0,-2.929474926E-3,-3.422159329E-2,1.597895520E-3
4.546093820E0,-2.929474926E-3,-3.741738573E-2,2.663159044E-3
4.548581633E0,-3.994738683E-3,-3.954791278E-2,3.728422802E-3
4.551069445E0,-3.994738683E-3,-4.167843983E-2,3.728422802E-3
4.553557258E0,-2.929474926E-3,-4.380896688E-2,3.728422802E-3
4.556045070E0,-2.929474926E-3,-4.593949392E-2,3.728422802E-3
4.558532883E0,-3.994738683E-3,-4.700475931E-2,3.728422802E-3
4.561020695E0,-5.060002208E-3,-4.807002097E-2,3.728422802E-3
4.563508508E0,-5.060002208E-3,-4.913528636E-2,2.663159044E-3
4.565996320E0,-6.125265732E-3,-4.913528636E-2,2.663159044E-3
4.568484133E0,-7.190529723E-3,-4.913528636E-2,2.663159044E-3
4.570971945E0,-9.321057238E-3,-4.913528636E-2,1.597895520E-3
4.573459758E0,-9.321057238E-3,-4.913528636E-2,1.597895520E-3
4.575947570E0,-9.321057238E-3,-4.700475931E-2,5.326318205E-4
4.578435383E0,-1.038632076E-2,-4.700475931E-2,5.326318205E-4
4.580923195E0,-1.145158429E-2,-4.593949392E-2,5.326318205E-4
4.583411008E0,-1.145158429E-2,-4.593949392E-2,5.326318205E-4
4.585898820E0,-1.145158429E-2,-4.700475931E-2,5.326318205E-4
4.588386633E0,-1.145158429E-2,-4.700475931E-2,5.326318205E-4
4.590874445E0,-1.145158429E-2,-4.807002097E-2,5.326318205E-4
4.593362258E0,-1.145158429E-2,-5.020054802E-2,-5.326318205E-4
4.595850070E0,-1.145158429E-2,-5.233107507E-2,-5.326318205E-4
4.598337883E0,-1.251684781E-2,-5.339634046E-2,-1.597895520E-3
4.600825695E0,-1.358211134E-2,-5.659212917E-2,-1.597895520E-3
4.603313508E0,-1.251684781E-2,-5.872265995E-2,-3.728422802E-3
4.605801320E0,-1.251684781E-2,-6.191844866E-2,-4.793686327E-3
4.608289133E0,-1.251684781E-2,-6.404897571E-2,-6.924213842E-3
4.610776945E0,-1.145158429E-2,-6.831002980E-2,-7.989477366E-3
4.613264758E0,-1.145158429E-2,-7.150582224E-2,-7.989477366E-3
4.615752570E0,-1.145158429E-2,-7.470161468E-2,-1.012000442E-2
4.618240383E0,-1.251684781E-2,-7.896266878E-2,-1.012000442E-2
4.620728195E0,-1.251684781E-2,-8.215846121E-2,-1.118526794E-2
4.623216008E0,-1.464737486E-2,-8.535424620E-2,-1.225053146E-2
4.625703820E0,-1.571263932E-2,-8.855003864E-2,-1.225053146E-2
4.628191633E0,-1.677790284E-2,-9.174583107E-2,-1.331579592E-2
4.630679445E0,-1.784316637E-2,-9.387636185E-2,-1.331579592E-2
4.633167258E0,-1.890842989E-2,-9.494162351E-2,-1.225053146E-2
4.635655070E0,-1.997369342E-2,-9.494162351E-2,-1.225053146E-2
4.638142883E0,-2.103895694E-2,-9.387636185E-2,-1.118526794E-2
4.640630695E0,-2.103895694E-2,-9.174583107E-2,-1.012000442E-2
4.643118508E0,-2.103895694E-2,-8.855003864E-2,-9.054740891E-3
4.645606320E0,-2.210422046E-2,-8.535424620E-2,-7.989477366E-3
4.648094133E0,-2.103895694E-2,-8.002793044E-2,-5.858949851E-3
4.650581945E0,-2.210422046E-2,-7.576687634E-2,-4.793686327E-3
4.653069758E0,-2.316948399E-2,-7.150582224E-2,-3.728422802E-3
4.655557570E0,-2.316948399E-2,-6.724476814E-2,-1.597895520E-3
4.658045383E0,-2.423474751E-2,-6.298371404E-2,-5.326318205E-4
4.660533195E0,-2.530001104E-2,-5.872265995E-2,1.597895520E-3
4.663021060E0,-2.636527456E-2,-5.339634046E-2,3.728422802E-3
4.665508924E0,-2.636527456E-2,-4.807002097E-2,5.858949851E-3
4.667996789E0,-2.636527456E-2,-4.380896688E-2,6.924213842E-3
4.670484654E0,-2.636527456E-2,-3.741738573E-2,9.054740891E-3
4.672972518E0,-2.636527456E-2,-3.209106624E-2,1.012000442E-2
4.675460383E0,-2.530001104E-2,-2.569948509E-2,1.118526794E-2
4.677948247E0,-2.530001104E-2,-2.037316747E-2,1.225053146E-2
4.680436112E0,-2.530001104E-2,-1.504684892E-2,1.225053146E-2
4.682923977E0,-2.423474751E-2,-9.720530361E-3,1.331579592E-2
4.685411841E0,-2.423474751E-2,-6.524739787E-3,1.331579592E-2
4.687899706E0,-2.423474751E-2,-3.328948980E-3,1.331579592E-2
4.690387570E0,-2.423474751E-2,-1.198421582E-3,1.438105945E-2
4.692875435E0,-2.316948399E-2,9.321057005E-4,1.438105945E-2
4.695363299E0,-2.210422046E-2,-1.331579551E-4,1.331579592E-2
4.697851164E0,-2.103895694E-2,-2.263685223E-3,1.331579592E-2
4.700339029E0,-2.103895694E-2,-6.524739787E-3,1.225053146E-2
4.702826893E0,-2.103895694E-2,-1.185105834E-2,1.118526794E-2
4.705314758E0,-2.103895694E-2,-1.824264042E-2,1.012000442E-2
4.707802622E0,-2.103895694E-2,-2.569948509E-2,9.054740891E-3
4.710290487E0,-2.103895694E-2,-3.315633163E-2,7.989477366E-3
4.712778352E0,-1.890842989E-2,-3.954791278E-2,5.858949851E-3
4.715266216E0,-1.784316637E-2,-4.593949392E-2,5.858949851E-3
4.717754081E0,-1.784316637E-2,-5.126581341E-2,4.793686327E-3
4.720241945E0,-1.784316637E-2,-5.659212917E-2,2.663159044E-3
4.722729810E0,-1.677790284E-2,-6.085318699E-2,2.663159044E-3
4.725217674E0,-1.677790284E-2,-6.617950648E-2,1.597895520E-3
4.727705539E0,-1.784316637E-2,-6.937529147E-2,1.597895520E-3
4.730193404E0,-1.784316637E-2,-7.470161468E-2,5.326318205E-4
4.732681268E0,-1.784316637E-2,-7.683213800E-2,5.326318205E-4
4.735169133E0,-1.784316637E-2,-7.896266878E-2,-5.326318205E-4
4.737656997E0,-1.677790284E-2,-8.002793044E-2,-5.326318205E-4
4.740144810E0,-1.571263932E-2,-7.896266878E-2,-5.326318205E-4
4.742632622E0,-1.464737486E-2,-7.789740711E-2,5.326318205E-4
4.745120435E0,-1.358211134E-2,-7.576687634E-2,5.326318205E-4
4.747608247E0,-1.251684781E-2,-7.257108390E-2,1.597895520E-3
4.750096060E0,-1.251684781E-2,-7.044056058E-2,2.663159044E-3
4.752583872E0,-1.251684781E-2,-6.831002980E-2,2.663159044E-3
4.755071685E0,-1.145158429E-2,-6.724476814E-2,3.728422802E-3
4.757559497E0,-1.145158429E-2,-6.511423737E-2,4.793686327E-3
4.760047310E0,-1.145158429E-2,-6.404897571E-2,4.793686327E-3
4.762535122E0,-1.145158429E-2,-6.298371404E-2,5.858949851E-3
4.765022935E0,-1.251684781E-2,-6.085318699E-2,6.924213842E-3
4.767510747E0,-1.251684781E-2,-5.765739456E-2,9.054740891E-3
4.769998560E0,-1.251684781E-2,-5.446160212E-2,9.054740891E-3
4.772486372E0,-1.251684781E-2,-4.913528636E-2,1.118526794E-2
4.774974185E0,-1.358211134E-2,-4.380896688E-2,1.118526794E-2
4.777461997E0,-1.358211134E-2,-3.848264739E-2,1.225053146E-2
4.779949810E0,-1.358211134E-2,-3.209106624E-2,1.225053146E-2
4.782437622E0,-1.358211134E-2,-2.783001214E-2,1.225053146E-2
4.784925435E0,-1.251684781E-2,-2.250369452E-2,1.225053146E-2
4.787413247E0,-1.251684781E-2,-1.930790395E-2,1.225053146E-2
4.789901060E0,-1.145158429E-2,-1.717737690E-2,1.225053146E-2
4.792388872E0,-9.321057238E-3,-1.611211337E-2,1.225053146E-2
4.794876685E0,-8.255792782E-3,-1.611211337E-2,1.225053146E-2
4.797364497E0,-6.125265732E-3,-1.717737690E-2,1.225053146E-2
4.799852310E0,-5.060002208E-3,-2.037316747E-2,1.118526794E-2
4.802340122E0,-3.994738683E-3,-2.356895804E-2,1.012000442E-2
4.804827935E0,-3.994738683E-3,-2.889527567E-2,9.054740891E-3
4.807315747E0,-3.994738683E-3,-3.315633163E-2,9.054740891E-3
4.809803560E0,-3.994738683E-3,-3.741738573E-2,7.989477366E-3
4.812291372E0,-3.994738683E-3,-4.167843983E-2,6.924213842E-3
4.814779185E0,-3.994738683E-3,-4.487423226E-2,7.989477366E-3
4.817266997E0,-3.994738683E-3,-4.807002097E-2,7.989477366E-3
4.819754810E0,-2.929474926E-3,-5.020054802E-2,6.924213842E-3
4.822242622E0,-2.929474926E-3,-5.233107507E-2,6.924213842E-3
4.824730435E0,-1.864211401E-3,-5.552686751E-2,5.858949851E-3
4.827218247E0,-1.864211401E-3,-5.872265995E-2,4.793686327E-3
4.829706060E0,-7.989477599E-4,-6.191844866E-2,3.728422802E-3
4.832193872E0,2.663159103E-4,-6.511423737E-2,2.663159044E-3
4.834681685E0,1.331579522E-3,-6.937529147E-2,1.597895520E-3
4.837169497E0,2.396843163E-3,-7.257108390E-2,5.326318205E-4
4.839657310E0,2.396843163E-3,-7.470161468E-2,-5.326318205E-4
4.842145122E0,3.462106921E-3,-7.683213800E-2,-1.597895520E-3
4.844632935E0,2.396843163E-3,-7.683213800E-2,-1.597895520E-3
4.847120747E0,2.396843163E-3,-7.470161468E-2,-2.663159044E-3
4.849608560E0,3.462106921E-3,-7.150582224E-2,-2.663159044E-3
4.852096372E0,2.396843163E-3,-6.511423737E-2,-1.597895520E-3
4.854584185E0,2.396843163E-3,-5.765739456E-2,-5.326318205E-4
4.857071997E0,2.396843163E-3,-4.807002097E-2,5.326318205E-4
4.859559810E0,3.462106921E-3,-3.741738573E-2,2.663159044E-3
4.862047622E0,3.462106921E-3,-2.569948509E-2,4.793686327E-3
4.864535435E0,4.527370445E-3,-1.291632187E-2,5.858949851E-3
4.867023247E0,5.592633970E-3,-1.198421582E-3,5.858949851E-3
4.869511060E0,5.592633970E-3,9.454214945E-3,6.924213842E-3
4.871998872E0,6.657897960E-3,2.010685205E-2,6.924213842E-3
4.874486685E0,6.657897960E-3,2.649843320E-2,7.989477366E-3
4.876974497E0,6.657897960E-3,3.289001435E-2,7.989477366E-3
4.879462310E0,6.657897960E-3,3.608580679E-2,7.989477366E-3
4.881950122E0,5.592633970E-3,4.034686089E-2,6.924213842E-3
4.884437935E0,5.592633970E-3,4.141212255E-2,6.924213842E-3
4.886925747E0,5.592633970E-3,4.354264960E-2,5.858949851E-3
4.889413560E0,5.592633970E-3,4.460791498E-2,4.793686327E-3
4.891901372E0,6.657897960E-3,4.567318037E-2,3.728422802E-3
4.894389185E0,7.723161485E-3,4.673844203E-2,1.597895520E-3
4.896876997E0,8.788425475E-3,4.673844203E-2,-5.326318205E-4
4.899364810E0,1.091895252E-2,4.780370742E-2,-2.663159044E-3
4.901852622E0,1.304947957E-2,4.673844203E-2,-5.858949851E-3
4.904340435E0,1.411474310E-2,4.460791498E-2,-1.012000442E-2
4.906828247E0,1.624527015E-2,4.247738793E-2,-1.438105945E-2
4.909316060E0,1.837579720E-2,3.928159550E-2,-1.970737800E-2
4.911803872E0,2.050632425E-2,3.395527974E-2,-2.503369562E-2
4.914291685E0,2.157158963E-2,2.756369673E-2,-2.929474972E-2
4.916779497E0,2.263685316E-2,2.010685205E-2,-3.462106735E-2
4.919267310E0,2.370211668E-2,1.265000552E-2,-3.888212144E-2
4.921755122E0,2.476738021E-2,4.127896391E-3,-4.314317927E-2
4.924242935E0,2.583264373E-2,-4.394212738E-3,-4.633896798E-2
4.926730747E0,2.689790726E-2,-1.185105834E-2,-4.953476042E-2
4.929218560E0,2.796317078E-2,-1.930790395E-2,-5.273054913E-2
4.931706372E0,2.902843431E-2,-2.463422157E-2,-5.379581451E-2
4.934194185E0,2.902843431E-2,-2.996053919E-2,-5.486107618E-2
4.936681997E0,2.796317078E-2,-3.422159329E-2,-5.486107618E-2
4.939169810E0,2.796317078E-2,-3.635212034E-2,-5.379581451E-2
4.941657622E0,2.796317078E-2,-3.848264739E-2,-5.273054913E-2
4.944145435E0,2.689790726E-2,-3.848264739E-2,-5.166528746E-2
4.946633247E0,2.583264373E-2,-3.848264739E-2,-5.060002208E-2
4.949121060E0,2.476738021E-2,-3.635212034E-2,-4.740423337E-2
4.951608872E0,2.370211668E-2,-3.422159329E-2,-4.420844093E-2
4.954096685E0,2.370211668E-2,-2.996053919E-2,-3.994738683E-2
4.956584497E0,2.263685316E-2,-2.676474862E-2,-3.568633273E-2
4.959072310E0,2.263685316E-2,-2.143843099E-2,-3.249054030E-2
4.961560122E0,2.263685316E-2,-1.611211337E-2,-2.929474972E-2
4.964047935E0,2.157158963E-2,-9.720530361E-3,-2.609895915E-2
4.966535747E0,2.050632425E-2,-1.198421582E-3,-2.290316857E-2
4.969023560E0,2.050632425E-2,6.258423906E-3,-1.970737800E-2
4.971511372E0,1.944106072E-2,1.478053257E-2,-1.651158556E-2
4.973999185E0,1.944106072E-2,2.330264263E-2,-1.438105945E-2
4.976486997E0,1.837579720E-2,3.182475269E-2,-1.118526794E-2
4.978974810E0,1.731053367E-2,4.141212255E-2,-9.054740891E-3
4.981462622E0,1.624527015E-2,4.886896908E-2,-5.858949851E-3
4.983950435E0,1.624527015E-2,5.632581562E-2,-2.663159044E-3
4.986438247E0,1.624527015E-2,6.165213138E-2,5.326318205E-4
4.988926060E0,1.731053367E-2,6.484792382E-2,2.663159044E-3
4.991413872E0,1.837579720E-2,6.697845459E-2,4.793686327E-3
4.993901685E0,1.944106072E-2,6.697845459E-2,4.793686327E-3
4.996389497E0,2.157158963E-2,6.484792382E-2,4.793686327E-3
4.998877310E0,2.370211668E-2,6.271740049E-2,3.728422802E-3
5.001365122E0,2.476738021E-2,5.845634267E-2,3.728422802E-3
5.003852935E0,2.583264373E-2,5.206476152E-2,1.597895520E-3
5.006340799E0,2.583264373E-2,4.567318037E-2,-5.326318205E-4
5.008828664E0,2.583264373E-2,4.034686089E-2,-3.728422802E-3
