"Time (s)","Acceleration x (m/s^2)","Acceleration y (m/s^2)","Acceleration z (m/s^2)"
3.800517400E-2,-2.862268209E0,-8.655637741E0,1.573589087E0
4.050064300E-2,-2.838326216E0,-8.636484146E0,1.564012289E0
4.299611200E-2,-2.819172382E0,-8.598176956E0,1.535281897E0
4.549158100E-2,-2.814383984E0,-8.583811760E0,1.540070295E0
4.798704900E-2,-2.752134800E0,-8.559869766E0,1.559223890E0
5.048257000E-2,-2.713827610E0,-8.545504570E0,1.573589087E0
5.297814300E-2,-2.661155224E0,-8.545504570E0,1.592742682E0
5.547376800E-2,-2.579752445E0,-8.535927773E0,1.607107878E0
5.796944500E-2,-2.474407434E0,-8.555081367E0,1.645415068E0
6.046517400E-2,-2.369062662E0,-8.579023361E0,1.712452769E0
6.296095600E-2,-2.258929253E0,-8.617330551E0,1.745971560E0
6.546481000E-2,-2.144007683E0,-8.665214539E0,1.803432465E0
6.791481000E-2,-1.957259893E0,-8.775347710E0,1.860893250E0
7.041736200E-2,-1.875856996E0,-8.828020096E0,1.832162857E0
7.291991400E-2,-1.832761407E0,-8.899846077E0,1.813009262E0
7.546991400E-2,-1.789665818E0,-8.966883659E0,1.769913554E0
7.801991400E-2,-1.775300503E0,-9.019556046E0,1.736394763E0
8.056991400E-2,-1.741781712E0,-9.091382027E0,1.693299174E0
8.311991400E-2,-1.717839718E0,-9.148842812E0,1.640626669E0
8.566991400E-2,-1.713051319E0,-9.182361603E0,1.568800688E0
8.821991400E-2,-1.722628117E0,-9.239823341E0,1.487397790E0
9.076991400E-2,-1.741781712E0,-9.278130531E0,1.401206493E0
9.331991400E-2,-1.736993313E0,-9.321226120E0,1.343745708E0
9.586991400E-2,-1.765723705E0,-9.349956512E0,1.305438519E0
9.841991400E-2,-1.804031014E0,-9.373898506E0,1.267131209E0
1.009699140E-1,-1.823184609E0,-9.402628899E0,1.252766013E0
1.035199140E-1,-1.880645394E0,-9.431359291E0,1.271919608E0
1.060699140E-1,-1.933317900E0,-9.436147690E0,1.295861721E0
1.086199140E-1,-1.985990286E0,-9.455301285E0,1.286284804E0
1.111699140E-1,-2.033874273E0,-9.460089684E0,1.276708007E0
1.137199140E-1,-2.096123695E0,-9.474454880E0,1.257554412E0
1.162699140E-1,-2.167949677E0,-9.488820076E0,1.247977614E0
1.188199140E-1,-2.263717651E0,-9.488820076E0,1.262342811E0
1.213699140E-1,-2.345120668E0,-9.512762070E0,1.281496406E0
1.239199140E-1,-2.397793055E0,-9.522338867E0,1.319803715E0
1.264699140E-1,-2.464830637E0,-9.517550468E0,1.353322506E0
1.290199140E-1,-2.522291422E0,-9.507973671E0,1.358110905E0
1.315699140E-1,-2.551021814E0,-9.507973671E0,1.358110905E0
1.341199140E-1,-2.570175409E0,-9.517550468E0,1.377264500E0
1.366699140E-1,-2.560598612E0,-9.503185272E0,1.415571809E0
1.392199140E-1,-2.555810213E0,-9.484031677E0,1.449090600E0
1.417699140E-1,-2.536656618E0,-9.464878082E0,1.516128182E0
1.443199140E-1,-2.541445017E0,-9.455301285E0,1.564012289E0
1.468699140E-1,-2.522291422E0,-9.436147690E0,1.592742682E0
1.494199140E-1,-2.517503023E0,-9.416994095E0,1.611896276E0
1.519699140E-1,-2.498349428E0,-9.393052101E0,1.631049871E0
1.545199140E-1,-2.488772631E0,-9.335591316E0,1.674145579E0
1.570699140E-1,-2.488772631E0,-9.316437721E0,1.702875972E0
1.596199140E-1,-2.464830637E0,-9.282918930E0,1.722029567E0
1.621699140E-1,-2.436100245E0,-9.244611740E0,1.736394763E0
1.647199140E-1,-2.412158251E0,-9.211092949E0,1.726817966E0
1.672699140E-1,-2.393004656E0,-9.201516151E0,1.726817966E0
1.698199140E-1,-2.359485865E0,-9.177573204E0,1.717241168E0
1.723699140E-1,-2.330755472E0,-9.158419609E0,1.678933978E0
1.749199140E-1,-2.311601639E0,-9.129689217E0,1.626261473E0
1.774699140E-1,-2.287659645E0,-9.115324020E0,1.587954283E0
1.799672580E-1,-2.278082848E0,-9.077016830E0,1.564012289E0
1.824550700E-1,-2.249352455E0,-9.033921242E0,1.506551385E0
1.849428830E-1,-2.215833664E0,-9.019556046E0,1.482609391E0
1.874306950E-1,-2.196680069E0,-9.005190849E0,1.482609391E0
1.899185080E-1,-2.163161278E0,-8.981248856E0,1.482609391E0
1.924063200E-1,-2.129642487E0,-8.976460457E0,1.477820992E0
1.948941330E-1,-2.072181463E0,-8.981248856E0,1.506551385E0
1.973819450E-1,-2.005143881E0,-8.966883659E0,1.520916581E0
1.998697580E-1,-1.923741102E0,-8.971672058E0,1.554435492E0
2.023575700E-1,-1.871068597E0,-8.971672058E0,1.587954283E0
2.048453830E-1,-1.827973008E0,-8.976460457E0,1.573589087E0
2.073331950E-1,-1.775300503E0,-8.986037254E0,1.559223890E0
2.098210080E-1,-1.756146908E0,-8.981248856E0,1.525704980E0
2.123088200E-1,-1.708262920E0,-8.971672058E0,1.492186189E0
2.147966330E-1,-1.674744129E0,-8.962095261E0,1.473032594E0
2.172844450E-1,-1.655590534E0,-8.962095261E0,1.453878999E0
2.197722580E-1,-1.631648421E0,-8.938153267E0,1.434725404E0
2.222600700E-1,-1.631648421E0,-8.957306862E0,1.405994892E0
2.247478830E-1,-1.641225219E0,-8.933364868E0,1.396418095E0
2.272356950E-1,-1.631648421E0,-8.942941666E0,1.405994892E0
2.297235080E-1,-1.655590534E0,-8.947730064E0,1.405994892E0
2.322113200E-1,-1.641225219E0,-8.976460457E0,1.391629696E0
2.346991330E-1,-1.626860023E0,-8.995614052E0,1.396418095E0
2.371869450E-1,-1.636436820E0,-9.029132843E0,1.372476101E0
2.396747580E-1,-1.626860023E0,-9.067440033E0,1.343745708E0
2.421625700E-1,-1.612494826E0,-9.091382027E0,1.305438519E0
2.446503830E-1,-1.598129630E0,-9.124900818E0,1.267131209E0
2.471381950E-1,-1.607706428E0,-9.120112419E0,1.195305228E0
2.496260080E-1,-1.626860023E0,-9.129689217E0,1.243189216E0
2.521138200E-1,-1.650802016E0,-9.110535622E0,1.147421122E0
2.546016330E-1,-1.665167332E0,-9.139266014E0,1.200093627E0
2.570894450E-1,-1.674744129E0,-9.139266014E0,1.056441545E0
2.595772580E-1,-1.669955730E0,-9.134477615E0,1.118690729E0
2.620650700E-1,-1.684320927E0,-9.129689217E0,9.558850527E-1
2.645528830E-1,-1.679532528E0,-9.139266014E0,1.042076349E0
2.670406950E-1,-1.679532528E0,-9.148842812E0,8.984242082E-1
2.695285080E-1,-1.665167332E0,-9.172784805E0,9.989806414E-1
2.720163200E-1,-1.631648421E0,-9.187150002E0,8.649053574E-1
2.745041330E-1,-1.593341231E0,-9.206304550E0,9.750386477E-1
2.769919450E-1,-1.569399238E0,-9.225458145E0,8.553285599E-1
2.794797580E-1,-1.531091928E0,-9.273342133E0,9.941922426E-1
2.819675700E-1,-1.473631144E0,-9.292495728E0,8.696937561E-1
2.844553830E-1,-1.435323954E0,-9.349956512E0,1.027711034E0
2.869431950E-1,-1.382651448E0,-9.393052101E0,9.319429994E-1
2.894310080E-1,-1.363497853E0,-9.464878082E0,1.066018343E0
2.919188200E-1,-1.339555860E0,-9.493608475E0,9.702502489E-1
2.944066330E-1,-1.339555860E0,-9.536704063E0,1.099537134E0
2.968944450E-1,-1.349132657E0,-9.551069260E0,9.941922426E-1
2.993822580E-1,-1.339555860E0,-9.584588051E0,1.080383539E0
3.018700700E-1,-1.325190663E0,-9.603741646E0,9.654618502E-1
3.043578830E-1,-1.306037068E0,-9.646837234E0,1.042076349E0
3.068456950E-1,-1.253364563E0,-9.651625633E0,9.941922426E-1
3.093335080E-1,-1.224634171E0,-9.685144424E0,1.056441545E0
3.118213200E-1,-1.181538582E0,-9.685144424E0,1.027711034E0
3.143091330E-1,-1.152808070E0,-9.713874817E0,1.070806742E0
3.167969450E-1,-1.138442874E0,-9.704298019E0,1.056441545E0
3.192847580E-1,-1.138442874E0,-9.733028412E0,1.128267527E0
3.217725700E-1,-1.143231273E0,-9.718663216E0,1.113902330E0
3.242603830E-1,-1.191115379E0,-9.733028412E0,1.152209520E0
3.267481950E-1,-1.210268974E0,-9.723451614E0,1.137844324E0
3.292360080E-1,-1.258152962E0,-9.733028412E0,1.118690729E0
3.317238200E-1,-1.296460271E0,-9.723451614E0,1.123479128E0
3.342116330E-1,-1.329979062E0,-9.713874817E0,1.094748735E0
3.366994450E-1,-1.377863050E0,-9.718663216E0,1.142632723E0
3.391872580E-1,-1.411381960E0,-9.694721222E0,1.137844324E0
3.416750700E-1,-1.449689150E0,-9.680356026E0,1.224035621E0
3.441628830E-1,-1.492784739E0,-9.665990829E0,1.204882026E0
3.466506950E-1,-1.550245643E0,-9.670779228E0,1.281496406E0
3.491385080E-1,-1.626860023E0,-9.646837234E0,1.247977614E0
3.516263200E-1,-1.698686123E0,-9.618106842E0,1.377264500E0
3.541141330E-1,-1.756146908E0,-9.594164848E0,1.348534107E0
3.566019450E-1,-1.813607812E0,-9.584588051E0,1.482609391E0
3.590897580E-1,-1.875856996E0,-9.546280861E0,1.420360208E0
3.615775700E-1,-1.909375906E0,-9.531915665E0,1.540070295E0
3.640653830E-1,-1.952471495E0,-9.493608475E0,1.444302201E0
3.665531950E-1,-1.962048292E0,-9.488820076E0,1.621473074E0
3.690410080E-1,-1.971625090E0,-9.450512886E0,1.506551385E0
3.715288200E-1,-2.000355482E0,-9.450512886E0,1.650203466E0
3.740166330E-1,-1.995567083E0,-9.440936089E0,1.520916581E0
3.765044450E-1,-1.995567083E0,-9.445724487E0,1.645415068E0
3.789922580E-1,-1.981201887E0,-9.416994095E0,1.482609391E0
3.814800700E-1,-1.990778685E0,-9.407417297E0,1.631049871E0
3.839678830E-1,-1.990778685E0,-9.373898506E0,1.453878999E0
3.864556950E-1,-1.985990286E0,-9.373898506E0,1.597531080E0
3.889435080E-1,-1.957259893E0,-9.340379715E0,1.477820992E0
3.914313200E-1,-1.942894697E0,-9.345168114E0,1.645415068E0
3.939191330E-1,-1.914164305E0,-9.335591316E0,1.516128182E0
3.964069970E-1,-1.880645394E0,-9.354744911E0,1.616684675E0
3.988948620E-1,-1.842338204E0,-9.330802917E0,1.444302201E0
4.013827270E-1,-1.813607812E0,-9.340379715E0,1.540070295E0
4.038705910E-1,-1.780089021E0,-9.321226120E0,1.391629696E0
4.063584560E-1,-1.760935307E0,-9.359533310E0,1.477820992E0
4.088463200E-1,-1.708262920E0,-9.340379715E0,1.348534107E0
4.113341850E-1,-1.684320927E0,-9.349956512E0,1.415571809E0
4.138220490E-1,-1.631648421E0,-9.335591316E0,1.324592113E0
4.163099140E-1,-1.622071624E0,-9.335591316E0,1.396418095E0
4.187977790E-1,-1.583764434E0,-9.340379715E0,1.329380512E0
4.212856430E-1,-1.559822440E0,-9.364321709E0,1.386841297E0
4.237735080E-1,-1.540668845E0,-9.349956512E0,1.396418095E0
4.262613720E-1,-1.535880446E0,-9.364321709E0,1.463455796E0
4.287492370E-1,-1.507149935E0,-9.364321709E0,1.458667397E0
4.312371020E-1,-1.497573137E0,-9.364321709E0,1.487397790E0
4.337249660E-1,-1.502361536E0,-9.364321709E0,1.506551385E0
4.362128310E-1,-1.516726732E0,-9.359533310E0,1.554435492E0
4.387006950E-1,-1.526303530E0,-9.345168114E0,1.645415068E0
4.411885600E-1,-1.559822440E0,-9.326014519E0,1.645415068E0
4.436764240E-1,-1.574187636E0,-9.311649323E0,1.717241168E0
4.461642890E-1,-1.617283225E0,-9.287707329E0,1.669357181E0
4.486521540E-1,-1.665167332E0,-9.297284126E0,1.745971560E0
4.511400180E-1,-1.717839718E0,-9.292495728E0,1.659780383E0
4.536278830E-1,-1.775300503E0,-9.297284126E0,1.688510776E0
4.561157470E-1,-1.847126603E0,-9.268553734E0,1.506551385E0
4.586036120E-1,-1.928529501E0,-9.278130531E0,1.568800688E0
4.610914770E-1,-2.033874273E0,-9.258976936E0,1.386841297E0
4.635793410E-1,-2.139219284E0,-9.258976936E0,1.468244195E0
4.660672060E-1,-2.230198860E0,-9.258976936E0,1.348534107E0
4.685550700E-1,-2.306813240E0,-9.263765335E0,1.477820992E0
4.710429350E-1,-2.378639460E0,-9.244611740E0,1.343745708E0
4.735307990E-1,-2.431311846E0,-9.263765335E0,1.501762986E0
4.760186640E-1,-2.450465441E0,-9.249400139E0,1.396418095E0
4.785064770E-1,-2.455253839E0,-9.244611740E0,1.564012289E0
4.809942890E-1,-2.445677042E0,-9.239823341E0,1.444302201E0
4.834821020E-1,-2.421735048E0,-9.273342133E0,1.611896276E0
4.859699140E-1,-2.364274263E0,-9.268553734E0,1.511339784E0
4.884577270E-1,-2.321178436E0,-9.287707329E0,1.688510776E0
4.909455390E-1,-2.258929253E0,-9.302072525E0,1.573589087E0
4.934333520E-1,-2.211045265E0,-9.306860924E0,1.755548358E0
4.959211640E-1,-2.153584480E0,-9.321226120E0,1.607107878E0
4.984089770E-1,-2.100912094E0,-9.340379715E0,1.693299174E0
5.008967890E-1,-2.057816267E0,-9.335591316E0,1.511339784E0
5.033846020E-1,-1.995567083E0,-9.340379715E0,1.525704980E0
5.058724140E-1,-1.923741102E0,-9.340379715E0,1.324592113E0
5.083602270E-1,-1.885433793E0,-9.359533310E0,1.391629696E0
5.108480390E-1,-1.823184609E0,-9.340379715E0,1.243189216E0
5.133358520E-1,-1.756146908E0,-9.364321709E0,1.281496406E0
5.158236640E-1,-1.679532528E0,-9.369110107E0,1.180940032E0
5.183114770E-1,-1.617283225E0,-9.388263702E0,1.224035621E0
5.207992890E-1,-1.531091928E0,-9.397840500E0,1.176151633E0
5.232871020E-1,-1.478419542E0,-9.426570892E0,1.262342811E0
5.257749140E-1,-1.440112352E0,-9.436147690E0,1.243189216E0
5.282627270E-1,-1.411381960E0,-9.455301285E0,1.276708007E0
5.307505390E-1,-1.392228246E0,-9.455301285E0,1.267131209E0
5.332383520E-1,-1.416170359E0,-9.479243279E0,1.247977614E0
5.357261640E-1,-1.435323954E0,-9.479243279E0,1.238400817E0
5.382139770E-1,-1.502361536E0,-9.464878082E0,1.224035621E0
5.407017890E-1,-1.593341231E0,-9.445724487E0,1.238400817E0
5.431896020E-1,-1.684320927E0,-9.426570892E0,1.190516829E0
5.456774140E-1,-1.775300503E0,-9.397840500E0,1.243189216E0
5.481652270E-1,-1.880645394E0,-9.349956512E0,1.204882026E0
5.506530390E-1,-2.000355482E0,-9.311649323E0,1.291073322E0
5.531408520E-1,-2.115277290E0,-9.287707329E0,1.238400817E0
5.556286640E-1,-2.234987259E0,-9.254188538E0,1.386841297E0
5.581164770E-1,-2.359485865E0,-9.220669746E0,1.343745708E0
5.606042890E-1,-2.455253839E0,-9.206304550E0,1.463455796E0
5.630921020E-1,-2.555810213E0,-9.187150002E0,1.348534107E0
5.655799140E-1,-2.646790028E0,-9.177573204E0,1.473032594E0
5.680677270E-1,-2.737769604E0,-9.139266014E0,1.367687702E0
5.705555390E-1,-2.795230389E0,-9.134477615E0,1.564012289E0
5.730433520E-1,-2.862268209E0,-9.100958824E0,1.487397790E0
5.755311640E-1,-2.900575399E0,-9.100958824E0,1.683722377E0
5.780189770E-1,-2.934094191E0,-9.062651634E0,1.626261473E0
5.805067890E-1,-2.938882589E0,-9.062651634E0,1.827374458E0
5.829946020E-1,-2.919728994E0,-9.048286438E0,1.731606364E0
5.854824140E-1,-2.881421804E0,-9.048286438E0,1.889623642E0
5.879702270E-1,-2.857479811E0,-9.014767647E0,1.741183162E0
5.904580390E-1,-2.809595585E0,-9.019556046E0,1.894412041E0
5.929458520E-1,-2.742558002E0,-8.981248856E0,1.741183162E0
5.954336640E-1,-2.689885616E0,-8.995614052E0,1.880046844E0
5.979214770E-1,-2.598906040E0,-8.986037254E0,1.745971560E0
6.004092890E-1,-2.536656618E0,-8.990825653E0,1.856104851E0
6.028971020E-1,-2.455253839E0,-9.009979248E0,1.722029567E0
6.053849140E-1,-2.364274263E0,-9.024344444E0,1.846528053E0
6.078727270E-1,-2.273294449E0,-9.033921242E0,1.726817966E0
6.103605390E-1,-2.196680069E0,-9.062651634E0,1.822586060E0
6.128483520E-1,-2.096123695E0,-9.072228432E0,1.722029567E0
6.153361640E-1,-2.038662672E0,-9.091382027E0,1.846528053E0
6.178239770E-1,-1.990778685E0,-9.091382027E0,1.731606364E0
6.203117890E-1,-1.942894697E0,-9.115324020E0,1.784278870E0
6.227996020E-1,-1.928529501E0,-9.115324020E0,1.698087573E0
6.252874140E-1,-1.938106298E0,-9.139266014E0,1.750759959E0
6.277752270E-1,-1.947683096E0,-9.139266014E0,1.693299174E0
6.302630390E-1,-2.005143881E0,-9.148842812E0,1.722029567E0
6.327508520E-1,-2.057816267E0,-9.148842812E0,1.654991984E0
6.352386640E-1,-2.129642487E0,-9.163208008E0,1.621473074E0
6.377264770E-1,-2.191891670E0,-9.187150002E0,1.626261473E0
6.402142890E-1,-2.263717651E0,-9.220669746E0,1.573589087E0
6.427021020E-1,-2.349909067E0,-9.239823341E0,1.587954283E0
6.451899140E-1,-2.440888643E0,-9.263765335E0,1.511339784E0
6.476777270E-1,-2.527079821E0,-9.263765335E0,1.554435492E0
6.501655390E-1,-2.627636433E0,-9.268553734E0,1.473032594E0
6.526533520E-1,-2.723404408E0,-9.263765335E0,1.549647093E0
6.551411640E-1,-2.838326216E0,-9.273342133E0,1.501762986E0
6.576289770E-1,-2.958036184E0,-9.254188538E0,1.626261473E0
6.601167890E-1,-3.063380957E0,-9.220669746E0,1.559223890E0
6.626046020E-1,-3.125630379E0,-9.206304550E0,1.669357181E0
6.650924140E-1,-3.187879562E0,-9.196727753E0,1.568800688E0
6.675802270E-1,-3.192667961E0,-9.182361603E0,1.712452769E0
6.700680390E-1,-3.187879562E0,-9.167996407E0,1.607107878E0
6.725558520E-1,-3.178302765E0,-9.167996407E0,1.765125155E0
6.750436640E-1,-3.149572372E0,-9.139266014E0,1.654991984E0
6.775314770E-1,-3.120841980E0,-9.144054413E0,1.817797661E0
6.800192890E-1,-3.077746391E0,-9.120112419E0,1.688510776E0
6.825071020E-1,-3.044227362E0,-9.110535622E0,1.846528053E0
6.849949140E-1,-3.005920172E0,-9.077016830E0,1.693299174E0
6.874827270E-1,-2.967612982E0,-9.077016830E0,1.784278870E0
6.899705390E-1,-2.919728994E0,-9.067440033E0,1.592742682E0
6.924583520E-1,-2.871845007E0,-9.081805229E0,1.707664371E0
6.949461640E-1,-2.809595585E0,-9.091382027E0,1.549647093E0
6.974339770E-1,-2.737769604E0,-9.110535622E0,1.688510776E0
6.999217890E-1,-2.665943623E0,-9.105747223E0,1.564012289E0
7.024096020E-1,-2.598906040E0,-9.124900818E0,1.688510776E0
7.048974140E-1,-2.517503023E0,-9.124900818E0,1.554435492E0
7.073852270E-1,-2.440888643E0,-9.158419609E0,1.678933978E0
7.098730390E-1,-2.373851061E0,-9.167996407E0,1.544858694E0
7.123608520E-1,-2.311601639E0,-9.196727753E0,1.678933978E0
7.148486640E-1,-2.249352455E0,-9.196727753E0,1.602319479E0
7.173364770E-1,-2.220622063E0,-9.211092949E0,1.712452769E0
7.198242890E-1,-2.172738075E0,-9.196727753E0,1.654991984E0
7.223121020E-1,-2.153584480E0,-9.220669746E0,1.750759959E0
7.247999140E-1,-2.129642487E0,-9.211092949E0,1.678933978E0
7.272877270E-1,-2.096123695E0,-9.220669746E0,1.717241168E0
7.297755390E-1,-2.053027868E0,-9.230246544E0,1.631049871E0
7.322633520E-1,-2.048239470E0,-9.249400139E0,1.640626669E0
7.347511640E-1,-2.000355482E0,-9.244611740E0,1.592742682E0
7.372389770E-1,-2.000355482E0,-9.254188538E0,1.530493379E0
7.397267890E-1,-2.005143881E0,-9.263765335E0,1.487397790E0
7.422146020E-1,-2.019509077E0,-9.263765335E0,1.449090600E0
7.447024140E-1,-2.029085875E0,-9.263765335E0,1.453878999E0
7.471902270E-1,-2.038662672E0,-9.263765335E0,1.391629696E0
7.496780390E-1,-2.057816267E0,-9.254188538E0,1.367687702E0
7.521659040E-1,-2.062604666E0,-9.254188538E0,1.310226917E0
7.546537680E-1,-2.096123695E0,-9.258976936E0,1.247977614E0
7.571416330E-1,-2.124854088E0,-9.249400139E0,1.200093627E0
7.596294970E-1,-2.139219284E0,-9.239823341E0,1.152209520E0
7.621173620E-1,-2.187103271E0,-9.225458145E0,1.118690729E0
7.646052270E-1,-2.244564056E0,-9.211092949E0,1.056441545E0
7.670930910E-1,-2.302024841E0,-9.191938400E0,9.846154451E-1
7.695809560E-1,-2.369062662E0,-9.163208008E0,9.415197968E-1
7.720688200E-1,-2.402581453E0,-9.158419609E0,9.271546006E-1
7.745566850E-1,-2.445677042E0,-9.134477615E0,9.175778031E-1
7.770445490E-1,-2.483984232E0,-9.124900818E0,9.271546006E-1
7.795324140E-1,-2.493561029E0,-9.110535622E0,9.894038439E-1
7.820202790E-1,-2.498349428E0,-9.120112419E0,1.051653147E0
7.845081430E-1,-2.507926226E0,-9.115324020E0,1.123479128E0
7.869960080E-1,-2.460042238E0,-9.115324020E0,1.195305228E0
7.894838720E-1,-2.436100245E0,-9.124900818E0,1.238400817E0
7.919717370E-1,-2.407369852E0,-9.139266014E0,1.286284804E0
7.944596020E-1,-2.378639460E0,-9.144054413E0,1.286284804E0
7.969474660E-1,-2.340332270E0,-9.158419609E0,1.276708007E0
7.994353310E-1,-2.321178436E0,-9.163208008E0,1.262342811E0
8.019231950E-1,-2.311601639E0,-9.163208008E0,1.238400817E0
8.044110600E-1,-2.292448044E0,-9.153631210E0,1.185728431E0
8.068989240E-1,-2.297236443E0,-9.144054413E0,1.171363235E0
8.093867890E-1,-2.282871246E0,-9.124900818E0,1.176151633E0
8.118746540E-1,-2.234987259E0,-9.105747223E0,1.180940032E0
8.143625180E-1,-2.182314873E0,-9.105747223E0,1.195305228E0
8.168503830E-1,-2.124854088E0,-9.110535622E0,1.228824019E0
8.193382470E-1,-2.057816267E0,-9.124900818E0,1.257554412E0
8.218261120E-1,-1.990778685E0,-9.139266014E0,1.295861721E0
8.243139770E-1,-1.918952703E0,-9.158419609E0,1.338957310E0
8.268018410E-1,-1.875856996E0,-9.177573204E0,1.348534107E0
8.292896540E-1,-1.861491799E0,-9.206304550E0,1.367687702E0
8.317774660E-1,-1.823184609E0,-9.206304550E0,1.348534107E0
8.342652790E-1,-1.813607812E0,-9.230246544E0,1.338957310E0
8.367530910E-1,-1.827973008E0,-9.244611740E0,1.310226917E0
8.392409040E-1,-1.832761407E0,-9.254188538E0,1.300650120E0
8.417287160E-1,-1.823184609E0,-9.287707329E0,1.267131209E0
8.442165290E-1,-1.847126603E0,-9.311649323E0,1.257554412E0
8.467043410E-1,-1.856703401E0,-9.335591316E0,1.204882026E0
8.491921540E-1,-1.856703401E0,-9.369110107E0,1.195305228E0
8.516799660E-1,-1.866280198E0,-9.378686905E0,1.171363235E0
8.541677790E-1,-1.856703401E0,-9.402628899E0,1.185728431E0
8.566555910E-1,-1.866280198E0,-9.445724487E0,1.185728431E0
8.591434040E-1,-1.875856996E0,-9.464878082E0,1.200093627E0
8.616312160E-1,-1.890222192E0,-9.493608475E0,1.209670424E0
8.641190290E-1,-1.923741102E0,-9.527127266E0,1.219247222E0
8.666068410E-1,-1.971625090E0,-9.551069260E0,1.219247222E0
8.690946540E-1,-2.014720678E0,-9.570222855E0,1.228824019E0
8.715824660E-1,-2.076969862E0,-9.584588051E0,1.267131209E0
8.740702790E-1,-2.148796082E0,-9.579799652E0,1.281496406E0
8.765580910E-1,-2.225410461E0,-9.594164848E0,1.271919608E0
8.790459040E-1,-2.311601639E0,-9.589376450E0,1.286284804E0
8.815337160E-1,-2.393004656E0,-9.579799652E0,1.300650120E0
8.840215290E-1,-2.436100245E0,-9.565434456E0,1.315015316E0
8.865093410E-1,-2.493561029E0,-9.555857658E0,1.334168911E0
8.889971540E-1,-2.531868219E0,-9.527127266E0,1.362899303E0
8.914849660E-1,-2.579752445E0,-9.517550468E0,1.377264500E0
8.939727790E-1,-2.622848034E0,-9.488820076E0,1.410783410E0
8.964605910E-1,-2.685097218E0,-9.469666481E0,1.429937005E0
8.989484040E-1,-2.728192806E0,-9.440936089E0,1.434725404E0
9.014362160E-1,-2.785653591E0,-9.402628899E0,1.382052898E0
9.039240290E-1,-2.852691412E0,-9.364321709E0,1.353322506E0
9.064118410E-1,-2.905363798E0,-9.364321709E0,1.305438519E0
9.088996540E-1,-2.958036184E0,-9.340379715E0,1.310226917E0
9.113874660E-1,-2.986766577E0,-9.345168114E0,1.329380512E0
9.138752790E-1,-2.996343374E0,-9.335591316E0,1.353322506E0
9.163630910E-1,-2.991554976E0,-9.335591316E0,1.420360208E0
9.188509040E-1,-2.943670988E0,-9.345168114E0,1.516128182E0
9.213387160E-1,-2.886210203E0,-9.359533310E0,1.621473074E0
9.238265290E-1,-2.790441990E0,-9.378686905E0,1.722029567E0
9.263143410E-1,-2.670732021E0,-9.388263702E0,1.832162857E0
9.288021540E-1,-2.560598612E0,-9.388263702E0,1.927930951E0
9.312899660E-1,-2.469619036E0,-9.383475304E0,1.980603337E0
9.337777790E-1,-2.364274263E0,-9.397840500E0,1.975814939E0
9.362655910E-1,-2.297236443E0,-9.388263702E0,1.966238141E0
9.387534040E-1,-2.249352455E0,-9.373898506E0,1.932719350E0
9.412412160E-1,-2.206256866E0,-9.340379715E0,1.903988957E0
9.437290290E-1,-2.182314873E0,-9.330802917E0,1.822586060E0
9.462168410E-1,-2.196680069E0,-9.311649323E0,1.750759959E0
9.487046540E-1,-2.201468468E0,-9.292495728E0,1.669357181E0
9.511924660E-1,-2.201468468E0,-9.278130531E0,1.597531080E0
9.536802790E-1,-2.211045265E0,-9.268553734E0,1.525704980E0
9.561680910E-1,-2.234987259E0,-9.239823341E0,1.449090600E0
9.586559040E-1,-2.249352455E0,-9.235034943E0,1.401206493E0
9.611437160E-1,-2.254140854E0,-9.258976936E0,1.396418095E0
9.636315290E-1,-2.263717651E0,-9.287707329E0,1.401206493E0
9.661193410E-1,-2.273294449E0,-9.297284126E0,1.453878999E0
9.686071540E-1,-2.292448044E0,-9.321226120E0,1.487397790E0
9.710949660E-1,-2.321178436E0,-9.349956512E0,1.530493379E0
9.735827790E-1,-2.364274263E0,-9.378686905E0,1.568800688E0
9.760705910E-1,-2.402581453E0,-9.407417297E0,1.626261473E0
9.785584040E-1,-2.440888643E0,-9.431359291E0,1.669357181E0
9.810462160E-1,-2.469619036E0,-9.450512886E0,1.688510776E0
9.835340290E-1,-2.522291422E0,-9.464878082E0,1.669357181E0
9.860218410E-1,-2.579752445E0,-9.464878082E0,1.640626669E0
9.885096540E-1,-2.642001629E0,-9.445724487E0,1.611896276E0
9.909974660E-1,-2.670732021E0,-9.402628899E0,1.554435492E0
9.934852790E-1,-2.732981205E0,-9.378686905E0,1.516128182E0
9.959730910E-1,-2.771288395E0,-9.321226120E0,1.468244195E0
9.984609040E-1,-2.804807186E0,-9.278130531E0,1.473032594E0
1.000948716E0,-2.814383984E0,-9.225458145E0,1.468244195E0
1.003436529E0,-2.800018787E0,-9.177573204E0,1.468244195E0
1.005924341E0,-2.771288395E0,-9.144054413E0,1.511339784E0
1.008412154E0,-2.728192806E0,-9.115324020E0,1.592742682E0
1.010899966E0,-2.685097218E0,-9.091382027E0,1.650203466E0
1.013387779E0,-2.632424831E0,-9.072228432E0,1.669357181E0
1.015875591E0,-2.570175409E0,-9.077016830E0,1.693299174E0
1.018363404E0,-2.503137827E0,-9.072228432E0,1.741183162E0
1.020851216E0,-2.445677042E0,-9.067440033E0,1.760336757E0
1.023339029E0,-2.397793055E0,-9.062651634E0,1.765125155E0
1.025826841E0,-2.340332270E0,-9.062651634E0,1.745971560E0
1.028314654E0,-2.282871246E0,-9.038709641E0,1.750759959E0
1.030802466E0,-2.244564056E0,-9.038709641E0,1.736394763E0
1.033290279E0,-2.187103271E0,-9.038709641E0,1.736394763E0
1.035778091E0,-2.129642487E0,-9.048286438E0,1.726817966E0
1.038265904E0,-2.096123695E0,-9.062651634E0,1.745971560E0
1.040753716E0,-2.053027868E0,-9.062651634E0,1.741183162E0
1.043241529E0,-2.014720678E0,-9.077016830E0,1.741183162E0
1.045729341E0,-2.000355482E0,-9.110535622E0,1.745971560E0
1.048217154E0,-1.966836691E0,-9.115324020E0,1.760336757E0
1.050704966E0,-1.942894697E0,-9.139266014E0,1.784278870E0
1.053192779E0,-1.909375906E0,-9.187150002E0,1.808220863E0
1.055680591E0,-1.890222192E0,-9.230246544E0,1.817797661E0
1.058168404E0,-1.871068597E0,-9.287707329E0,1.836951256E0
1.060656216E0,-1.861491799E0,-9.354744911E0,1.860893250E0
1.063144029E0,-1.856703401E0,-9.426570892E0,1.875258446E0
1.065631841E0,-1.885433793E0,-9.498396873E0,1.923142552E0
1.068119654E0,-1.885433793E0,-9.579799652E0,1.937507749E0
1.070607466E0,-1.871068597E0,-9.661202431E0,1.956661344E0
1.073095279E0,-1.875856996E0,-9.742605209E0,2.009333849E0
1.075583091E0,-1.875856996E0,-9.819219589E0,2.105101824E0
1.078070904E0,-1.866280198E0,-9.900622368E0,2.109890223E0
1.080558716E0,-1.861491799E0,-9.948506355E0,2.090736628E0
1.083046529E0,-1.875856996E0,-1.000117874E1,2.047641039E0
1.085534341E0,-1.861491799E0,-1.005385113E1,1.985391736E0
1.088022154E0,-1.851915002E0,-1.007779312E1,1.918354154E0
1.090509966E0,-1.856703401E0,-1.008258152E1,1.856104851E0
1.092997779E0,-1.861491799E0,-1.008736992E1,1.808220863E0
1.095485591E0,-1.861491799E0,-1.005863953E1,1.765125155E0
1.097973404E0,-1.866280198E0,-1.002512074E1,1.674145579E0
1.100461216E0,-1.899798989E0,-9.977236748E0,1.607107878E0
1.102949029E0,-1.904587507E0,-9.924564362E0,1.530493379E0
1.105436841E0,-1.895010591E0,-9.871891975E0,1.473032594E0
1.107924654E0,-1.899798989E0,-9.814431190E0,1.401206493E0
1.110412466E0,-1.871068597E0,-9.747393608E0,1.362899303E0
1.112900279E0,-1.847126603E0,-9.704298019E0,1.343745708E0
1.115388091E0,-1.808819413E0,-9.646837234E0,1.338957310E0
1.117875904E0,-1.784877419E0,-9.613318443E0,1.358110905E0
1.120363716E0,-1.751358509E0,-9.584588051E0,1.377264500E0
1.122851529E0,-1.722628117E0,-9.536704063E0,1.401206493E0
1.125339341E0,-1.751358509E0,-9.479243279E0,1.439513803E0
1.127827154E0,-1.770512104E0,-9.431359291E0,1.449090600E0
1.130314966E0,-1.794454217E0,-9.378686905E0,1.473032594E0
1.132802779E0,-1.823184609E0,-9.349956512E0,1.468244195E0
1.135290591E0,-1.837549806E0,-9.278130531E0,1.453878999E0
1.137778404E0,-1.875856996E0,-9.201516151E0,1.487397790E0
1.140266216E0,-1.890222192E0,-9.134477615E0,1.540070295E0
1.142754029E0,-1.890222192E0,-9.072228432E0,1.602319479E0
1.145241841E0,-1.880645394E0,-8.990825653E0,1.693299174E0
1.147729654E0,-1.866280198E0,-8.928576469E0,1.803432465E0
1.150217466E0,-1.851915002E0,-8.847173691E0,1.884835243E0
1.152705279E0,-1.842338204E0,-8.780136108E0,1.942296147E0
1.155193143E0,-1.827973008E0,-8.717886925E0,2.014122248E0
1.157681008E0,-1.784877419E0,-8.660426140E0,2.076371431E0
1.160168872E0,-1.765723705E0,-8.598176956E0,2.105101824E0
1.162656737E0,-1.722628117E0,-8.511985779E0,2.152985811E0
1.165144602E0,-1.708262920E0,-8.444948196E0,2.176927805E0
1.167632466E0,-1.689109325E0,-8.392275810E0,2.196081400E0
1.170120331E0,-1.669955730E0,-8.325238228E0,2.181716204E0
1.172608195E0,-1.646013618E0,-8.267777443E0,2.129043818E0
1.175096060E0,-1.626860023E0,-8.195950508E0,2.071583033E0
1.177583924E0,-1.626860023E0,-8.133701324E0,1.994968534E0
1.180071789E0,-1.612494826E0,-8.071452141E0,1.918354154E0
1.182559654E0,-1.578976035E0,-8.023568153E0,1.846528053E0
1.185047518E0,-1.545457244E0,-7.970896244E0,1.769913554E0
1.187535383E0,-1.507149935E0,-7.913434982E0,1.698087573E0
1.190023247E0,-1.464054346E0,-7.870339394E0,1.621473074E0
1.192511112E0,-1.420958757E0,-7.841609001E0,1.573589087E0
1.194998977E0,-1.363497853E0,-7.803301811E0,1.525704980E0
1.197486841E0,-1.329979062E0,-7.760206223E0,1.477820992E0
1.199974706E0,-1.277306557E0,-7.726687431E0,1.458667397E0
1.202462570E0,-1.238999367E0,-7.693168640E0,1.425148606E0
1.204950435E0,-1.224634171E0,-7.650073051E0,1.396418095E0
1.207438299E0,-1.195903778E0,-7.611765862E0,1.367687702E0
1.209926164E0,-1.176750183E0,-7.568670273E0,1.353322506E0
1.212414029E0,-1.195903778E0,-7.511209488E0,1.324592113E0
1.214901893E0,-1.195903778E0,-7.453748226E0,1.334168911E0
1.217389758E0,-1.200692177E0,-7.401075840E0,1.329380512E0
1.219877622E0,-1.191115379E0,-7.362768650E0,1.291073322E0
1.222365487E0,-1.200692177E0,-7.305307865E0,1.267131209E0
1.224853352E0,-1.219845772E0,-7.243058681E0,1.257554412E0
1.227341216E0,-1.229422569E0,-7.195174694E0,1.262342811E0
1.229829029E0,-1.258152962E0,-7.161655903E0,1.267131209E0
1.232316841E0,-1.267729759E0,-7.108983517E0,1.286284804E0
1.234804654E0,-1.262941360E0,-7.061099529E0,1.305438519E0
1.237292466E0,-1.277306557E0,-7.018003941E0,1.319803715E0
1.239780279E0,-1.301248670E0,-6.960542679E0,1.310226917E0
1.242268091E0,-1.320402265E0,-6.927023888E0,1.276708007E0
1.244755904E0,-1.349132657E0,-6.874351501E0,1.243189216E0
1.247243716E0,-1.382651448E0,-6.821679115E0,1.214458823E0
1.249731529E0,-1.420958757E0,-6.769006729E0,1.166574836E0
1.252219341E0,-1.454477549E0,-6.706757545E0,1.113902330E0
1.254707154E0,-1.478419542E0,-6.639719963E0,1.066018343E0
1.257194966E0,-1.487996340E0,-6.577470779E0,1.027711034E0
1.259682779E0,-1.497573137E0,-6.520009995E0,1.003769040E0
1.262170591E0,-1.516726732E0,-6.462548733E0,9.606734514E-1
1.264658404E0,-1.540668845E0,-6.376357555E0,9.798270464E-1
1.267146216E0,-1.531091928E0,-6.328473568E0,9.798270464E-1
1.269634029E0,-1.540668845E0,-6.266224384E0,9.606734514E-1
1.272121841E0,-1.521515131E0,-6.203975201E0,9.846154451E-1
1.274609654E0,-1.502361536E0,-6.146514416E0,9.846154451E-1
1.277097466E0,-1.478419542E0,-6.089053631E0,9.750386477E-1
1.279585279E0,-1.444900751E0,-6.041169643E0,9.510966539E-1
1.282073091E0,-1.401805043E0,-5.983708382E0,9.271546006E-1
1.284560904E0,-1.377863050E0,-5.926247597E0,9.032126069E-1
1.287048716E0,-1.353921056E0,-5.887940407E0,8.888474107E-1
1.289536529E0,-1.310825467E0,-5.844844818E0,8.792705536E-1
1.292024341E0,-1.301248670E0,-5.811326027E0,8.696937561E-1
1.294512154E0,-1.243787766E0,-5.787384033E0,8.553285599E-1
1.296999966E0,-1.195903778E0,-5.777807236E0,8.553285599E-1
1.299487779E0,-1.143231273E0,-5.758653641E0,8.601169586E-1
1.301975591E0,-1.085770488E0,-5.782595634E0,9.127894044E-1
1.304463404E0,-1.018732786E0,-5.811326027E0,9.606734514E-1
1.306951216E0,-9.469067454E-1,-5.840056419E0,1.013345838E0
1.309439029E0,-8.990227580E-1,-5.878363609E0,1.037287831E0
1.311926841E0,-8.415619135E-1,-5.940612793E0,1.042076349E0
1.314414654E0,-8.176198602E-1,-5.993285179E0,1.046864748E0
1.316902466E0,-7.888894677E-1,-6.050746441E0,1.075595140E0
1.319390279E0,-7.745242715E-1,-6.112995625E0,1.066018343E0
1.321878091E0,-7.793126702E-1,-6.180033207E0,1.037287831E0
1.324365904E0,-7.984662652E-1,-6.232705593E0,9.941922426E-1
1.326853716E0,-8.176198602E-1,-6.299743176E0,9.606734514E-1
1.329341529E0,-8.367735147E-1,-6.371569157E0,8.936358094E-1
1.331829341E0,-8.607155085E-1,-6.429029942E0,7.835025191E-1
1.334317154E0,-8.559271097E-1,-6.515221596E0,6.733692288E-1
1.336804966E0,-8.750807047E-1,-6.582259178E0,5.584475398E-1
1.339292779E0,-8.750807047E-1,-6.654085159E0,4.483142793E-1
1.341780591E0,-8.655039072E-1,-6.740276337E0,3.286041915E-1
1.344268404E0,-8.750807047E-1,-6.821679115E0,2.041056901E-1
1.346756216E0,-8.798691034E-1,-6.907870293E0,8.439560980E-2
1.349244029E0,-8.846575022E-1,-6.989273548E0,-2.573766746E-2
1.351731841E0,-9.038111567E-1,-7.046734333E0,-9.277531505E-2
1.354219654E0,-9.229647517E-1,-7.123348713E0,-1.502361596E-1
1.356707466E0,-9.612720013E-1,-7.176021099E0,-2.460042238E-1
1.359195279E0,-1.018732786E0,-7.243058681E0,-3.226186931E-1
1.361683091E0,-1.061828494E0,-7.314884663E0,-3.992331326E-1
1.364170904E0,-1.114500880E0,-7.381922245E0,-4.183867574E-1
1.366658716E0,-1.157596469E0,-7.410652637E0,-4.088099301E-1
1.369146529E0,-1.186326981E0,-7.472901821E0,-3.848679364E-1
1.371634341E0,-1.224634171E0,-7.511209488E0,-3.513490856E-1
1.374122154E0,-1.291671872E0,-7.539939880E0,-3.034650683E-1
1.376609966E0,-1.353921056E0,-7.559093475E0,-2.603694201E-1
1.379097779E0,-1.440112352E0,-7.563881874E0,-1.502361596E-1
1.381585591E0,-1.516726732E0,-7.525574684E0,-1.616086066E-2
1.384073404E0,-1.583764434E0,-7.468113422E0,7.481880486E-2
1.386561216E0,-1.660378933E0,-7.439383030E0,1.801636815E-1
1.389049029E0,-1.727416515E0,-7.401075840E0,2.328361124E-1
1.391536841E0,-1.770512104E0,-7.362768650E0,2.424129248E-1
1.394024654E0,-1.823184609E0,-7.329249859E0,2.615665495E-1
1.396512466E0,-1.842338204E0,-7.300519466E0,2.998737693E-1
1.399000279E0,-1.847126603E0,-7.276577473E0,2.998737693E-1
1.401488091E0,-1.832761407E0,-7.271789074E0,2.902969420E-1
1.403975904E0,-1.842338204E0,-7.252635479E0,2.807201445E-1
1.406463716E0,-1.823184609E0,-7.233481884E0,3.477577865E-1
1.408951529E0,-1.789665818E0,-7.238270283E0,4.866214991E-1
1.411439341E0,-1.741781712E0,-7.252635479E0,6.542156339E-1
1.413927154E0,-1.703474522E0,-7.281365871E0,7.739257216E-1
1.416414966E0,-1.655590534E0,-7.305307865E0,8.361749649E-1
1.418902779E0,-1.593341231E0,-7.357980251E0,8.601169586E-1
1.421390591E0,-1.492784739E0,-7.415441036E0,8.505401611E-1
1.423878404E0,-1.392228246E0,-7.472901821E0,8.026561141E-1
1.426366216E0,-1.277306557E0,-7.559093475E0,7.308300734E-1
1.428854029E0,-1.171961784E0,-7.669226646E0,6.781576276E-1
1.431341841E0,-1.080982089E0,-7.760206223E0,6.590040326E-1
1.433829654E0,-1.004367590E0,-7.860762596E0,6.063315868E-1
1.436317466E0,-9.660604000E-1,-7.951742172E0,5.536591411E-1
1.438805279E0,-9.852139950E-1,-8.047510147E0,4.914098978E-1
1.441293091E0,-1.018732786E0,-8.124124527E0,3.956418335E-1
1.443780904E0,-1.071405292E0,-8.219893456E0,2.759317458E-1
1.446268716E0,-1.152808070E0,-8.277354240E0,1.179144308E-1
1.448756529E0,-1.243787766E0,-8.330026627E0,-4.010287672E-2
1.451244341E0,-1.315613866E0,-8.373122215E0,-1.933317930E-1
1.453732154E0,-1.397016644E0,-8.401852608E0,-3.417722881E-1
1.456219966E0,-1.487996340E0,-8.397064209E0,-4.614823759E-1
1.458707779E0,-1.559822440E0,-8.401852608E0,-5.620388389E-1
1.461195591E0,-1.602918029E0,-8.406641006E0,-6.482301354E-1
1.463683404E0,-1.631648421E0,-8.401852608E0,-7.009025216E-1
1.466171216E0,-1.646013618E0,-8.392275810E0,-7.152677774E-1
1.468659029E0,-1.646013618E0,-8.406641006E0,-7.392097712E-1
1.471146841E0,-1.641225219E0,-8.421006203E0,-7.823054194E-1
1.473634654E0,-1.626860023E0,-8.444948196E0,-8.684966564E-1
1.476122466E0,-1.602918029E0,-8.459313393E0,-9.834183455E-1
1.478610279E0,-1.583764434E0,-8.507197380E0,-1.117493629E0
1.481098091E0,-1.574187636E0,-8.555081367E0,-1.232415318E0
1.483585904E0,-1.555034041E0,-8.612542152E0,-1.318606615E0
1.486073716E0,-1.545457244E0,-8.684368134E0,-1.342548609E0
1.488561529E0,-1.555034041E0,-8.737040520E0,-1.337760210E0
1.491049341E0,-1.569399238E0,-8.804078102E0,-1.309029818E0
1.493537154E0,-1.588552833E0,-8.847173691E0,-1.270722508E0
1.496024966E0,-1.578976035E0,-8.899846077E0,-1.213261724E0
1.498512779E0,-1.588552833E0,-8.966883659E0,-1.151012421E0
1.501000591E0,-1.602918029E0,-9.014767647E0,-1.103128433E0
1.503488404E0,-1.617283225E0,-9.067440033E0,-1.083974838E0
1.505976216E0,-1.612494826E0,-9.115324020E0,-1.040879130E0
1.508464029E0,-1.602918029E0,-9.148842812E0,-9.307458997E-1
1.510951841E0,-1.626860023E0,-9.187150002E0,-8.014590144E-1
1.513439654E0,-1.612494826E0,-9.220669746E0,-6.482301354E-1
1.515927466E0,-1.641225219E0,-9.244611740E0,-4.997895956E-1
1.518415279E0,-1.646013618E0,-9.258976936E0,-3.513490856E-1
1.520903091E0,-1.646013618E0,-9.263765335E0,-2.555810213E-1
1.523390904E0,-1.636436820E0,-9.278130531E0,-1.646013707E-1
1.525878716E0,-1.631648421E0,-9.287707329E0,-1.310825497E-1
1.528366529E0,-1.607706428E0,-9.297284126E0,-1.262941360E-1
1.530854341E0,-1.588552833E0,-9.297284126E0,-1.167173311E-1
1.533342154E0,-1.574187636E0,-9.282918930E0,-9.277531505E-2
1.535829966E0,-1.559822440E0,-9.263765335E0,-9.277531505E-2
1.538317779E0,-1.540668845E0,-9.263765335E0,-1.023521200E-1
1.540805591E0,-1.526303530E0,-9.230246544E0,-1.406593472E-1
1.543293404E0,-1.531091928E0,-9.206304550E0,-2.220622003E-1
1.545781216E0,-1.583764434E0,-9.172784805E0,-3.513490856E-1
1.548269029E0,-1.684320927E0,-9.153631210E0,-4.806360006E-1
1.550756841E0,-1.775300503E0,-9.110535622E0,-6.003460884E-1
1.553244654E0,-1.904587507E0,-9.086593628E0,-7.248445749E-1
1.555732466E0,-2.005143881E0,-9.062651634E0,-8.541314602E-1
1.558220279E0,-2.072181463E0,-9.081805229E0,-9.451110959E-1
1.560708091E0,-2.100912094E0,-9.115324020E0,-1.007360339E0
1.563195956E0,-2.067393064E0,-9.163208008E0,-1.016937137E0
1.565683820E0,-2.009932280E0,-9.211092949E0,-1.007360339E0
1.568171685E0,-1.938106298E0,-9.263765335E0,-9.690531492E-1
1.570659549E0,-1.851915002E0,-9.316437721E0,-9.115923047E-1
1.573147414E0,-1.765723705E0,-9.359533310E0,-8.589198589E-1
1.575635279E0,-1.698686123E0,-9.378686905E0,-8.493430614E-1
1.578123143E0,-1.679532528E0,-9.421782494E0,-8.541314602E-1
1.580611008E0,-1.669955730E0,-9.445724487E0,-8.589198589E-1
1.583098872E0,-1.669955730E0,-9.460089684E0,-8.589198589E-1
1.585586737E0,-1.679532528E0,-9.464878082E0,-8.397662640E-1
1.588074602E0,-1.693897724E0,-9.479243279E0,-8.349778652E-1
1.590562466E0,-1.703474522E0,-9.484031677E0,-7.966706157E-1
1.593050331E0,-1.669955730E0,-9.488820076E0,-7.392097712E-1
1.595538195E0,-1.617283225E0,-9.503185272E0,-6.913257241E-1
1.598026060E0,-1.574187636E0,-9.493608475E0,-6.242880821E-1
1.600513924E0,-1.531091928E0,-9.488820076E0,-5.716156363E-1
1.603001789E0,-1.492784739E0,-9.464878082E0,-5.668272376E-1
1.605489654E0,-1.468842745E0,-9.445724487E0,-5.764040351E-1
1.607977518E0,-1.444900751E0,-9.393052101E0,-6.099228859E-1
1.610465383E0,-1.440112352E0,-9.349956512E0,-6.242880821E-1
1.612953247E0,-1.468842745E0,-9.321226120E0,-6.386532784E-1
1.615441112E0,-1.521515131E0,-9.282918930E0,-6.386532784E-1
1.617928977E0,-1.559822440E0,-9.225458145E0,-6.578069329E-1
1.620416841E0,-1.593341231E0,-9.215881348E0,-6.625953317E-1
1.622904706E0,-1.626860023E0,-9.191938400E0,-6.769605279E-1
1.625392570E0,-1.660378933E0,-9.196727753E0,-7.104793787E-1
1.627880435E0,-1.693897724E0,-9.211092949E0,-7.583633661E-1
1.630368299E0,-1.708262920E0,-9.230246544E0,-7.918822169E-1
1.632856164E0,-1.722628117E0,-9.273342133E0,-8.445546627E-1
1.635344029E0,-1.689109325E0,-9.321226120E0,-8.780734539E-1
1.637831841E0,-1.660378933E0,-9.369110107E0,-8.780734539E-1
1.640319654E0,-1.626860023E0,-9.450512886E0,-8.732850552E-1
1.642807466E0,-1.593341231E0,-9.503185272E0,-8.493430614E-1
1.645295279E0,-1.555034041E0,-9.570222855E0,-7.966706157E-1
1.647783091E0,-1.550245643E0,-9.613318443E0,-7.775170207E-1
1.650270904E0,-1.535880446E0,-9.651625633E0,-7.535749674E-1
1.652758716E0,-1.531091928E0,-9.661202431E0,-7.487865686E-1
1.655246529E0,-1.516726732E0,-9.689932823E0,-7.775170207E-1
1.657734341E0,-1.497573137E0,-9.718663216E0,-7.775170207E-1
1.660222154E0,-1.464054346E0,-9.718663216E0,-7.727286220E-1
1.662709966E0,-1.416170359E0,-9.728240013E0,-7.775170207E-1
1.665197779E0,-1.353921056E0,-9.733028412E0,-7.775170207E-1
1.667685591E0,-1.310825467E0,-9.737816811E0,-7.679402232E-1
1.670173404E0,-1.272518158E0,-9.728240013E0,-7.918822169E-1
1.672661216E0,-1.248576164E0,-9.723451614E0,-8.254010081E-1
1.675149029E0,-1.234210968E0,-9.718663216E0,-8.493430614E-1
1.677636841E0,-1.238999367E0,-9.675567627E0,-8.684966564E-1
1.680124654E0,-1.243787766E0,-9.637260437E0,-8.924387097E-1
1.682612466E0,-1.238999367E0,-9.627683640E0,-8.972271085E-1
1.685100279E0,-1.253364563E0,-9.598953247E0,-8.637082577E-1
1.687588091E0,-1.243787766E0,-9.579799652E0,-8.349778652E-1
1.690075904E0,-1.229422569E0,-9.546280861E0,-8.158242106E-1
1.692563716E0,-1.234210968E0,-9.536704063E0,-8.158242106E-1
1.695051529E0,-1.229422569E0,-9.536704063E0,-8.254010081E-1
1.697539341E0,-1.219845772E0,-9.536704063E0,-8.349778652E-1
1.700027154E0,-1.234210968E0,-9.527127266E0,-8.637082577E-1
1.702514966E0,-1.229422569E0,-9.546280861E0,-8.876502514E-1
1.705002779E0,-1.243787766E0,-9.570222855E0,-9.355342984E-1
1.707490591E0,-1.267729759E0,-9.603741646E0,-1.002571940E0
1.709978404E0,-1.310825467E0,-9.642048836E0,-1.060032845E0
1.712466216E0,-1.334767461E0,-9.675567627E0,-1.131858826E0
1.714954029E0,-1.382651448E0,-9.709086418E0,-1.189319730E0
1.717441841E0,-1.401805043E0,-9.742605209E0,-1.232415318E0
1.719929654E0,-1.430535555E0,-9.766547203E0,-1.270722508E0
1.722417466E0,-1.459265947E0,-9.824007988E0,-1.299453020E0
1.724905279E0,-1.473631144E0,-9.862315178E0,-1.318606615E0
1.727393091E0,-1.487996340E0,-9.900622368E0,-1.313818216E0
1.729880904E0,-1.521515131E0,-9.938929558E0,-1.347337008E0
1.732368716E0,-1.545457244E0,-9.991601944E0,-1.347337008E0
1.734856529E0,-1.569399238E0,-1.003469753E1,-1.356913805E0
1.737344341E0,-1.593341231E0,-1.007779312E1,-1.361702204E0
1.739832154E0,-1.622071624E0,-1.013046551E1,-1.347337008E0
1.742319966E0,-1.626860023E0,-1.017356110E1,-1.332971811E0
1.744807779E0,-1.626860023E0,-1.022144604E1,-1.299453020E0
1.747295591E0,-1.612494826E0,-1.025975323E1,-1.241992116E0
1.749783404E0,-1.602918029E0,-1.029806042E1,-1.203684926E0
1.752271216E0,-1.574187636E0,-1.032200241E1,-1.165377736E0
1.754759029E0,-1.545457244E0,-1.035073280E1,-1.141435623E0
1.757246841E0,-1.507149935E0,-1.036030960E1,-1.112705231E0
1.759734654E0,-1.483207941E0,-1.036509800E1,-1.098340034E0
1.762222466E0,-1.449689150E0,-1.038903999E1,-1.012148738E0
1.764710279E0,-1.406593442E0,-1.043213558E1,-9.642647505E-1
1.767198091E0,-1.353921056E0,-1.044650078E1,-9.259575009E-1
1.769685904E0,-1.262941360E0,-1.046086597E1,-8.780734539E-1
1.772173716E0,-1.181538582E0,-1.047044277E1,-8.589198589E-1
1.774661529E0,-1.104924083E0,-1.049438477E1,-8.301894665E-1
1.777149341E0,-1.033097982E0,-1.048959637E1,-8.254010081E-1
1.779637154E0,-9.708487988E-1,-1.049917316E1,-8.493430614E-1
1.782124966E0,-9.469067454E-1,-1.049917316E1,-8.397662640E-1
1.784612779E0,-9.421183467E-1,-1.048480797E1,-8.301894665E-1
1.787100591E0,-9.516952038E-1,-1.048959637E1,-8.684966564E-1
1.789588404E0,-9.852139950E-1,-1.048959637E1,-8.972271085E-1
1.792076216E0,-1.042674899E0,-1.048480797E1,-9.498994946E-1
1.794564029E0,-1.100135684E0,-1.046565437E1,-1.002571940E0
1.797051841E0,-1.186326981E0,-1.046565437E1,-1.036090732E0
1.799539654E0,-1.296460271E0,-1.045128918E1,-1.103128433E0
1.802027466E0,-1.435323954E0,-1.043213558E1,-1.184531331E0
1.804515279E0,-1.555034041E0,-1.042734718E1,-1.313818216E0
1.807003091E0,-1.650802016E0,-1.042734718E1,-1.423951507E0
1.809490904E0,-1.741781712E0,-1.045607758E1,-1.524507880E0
1.811978716E0,-1.775300503E0,-1.048959637E1,-1.581968784E0
1.814466529E0,-1.784877419E0,-1.053748035E1,-1.658583283E0
1.816954341E0,-1.794454217E0,-1.061409473E1,-1.663371682E0
1.819442154E0,-1.794454217E0,-1.070986271E1,-1.639429569E0
1.821929966E0,-1.770512104E0,-1.077211189E1,-1.625064373E0
1.824417779E0,-1.741781712E0,-1.084393787E1,-1.605910778E0
1.826905591E0,-1.727416515E0,-1.085830307E1,-1.543661594E0
1.829393404E0,-1.741781712E0,-1.089182186E1,-1.505354285E0
1.831881216E0,-1.751358509E0,-1.090139866E1,-1.490989089E0
1.834369029E0,-1.770512104E0,-1.088703346E1,-1.476623893E0
1.836856841E0,-1.789665818E0,-1.086787987E1,-1.443105102E0
1.839344654E0,-1.780089021E0,-1.086309147E1,-1.380855799E0
1.841832466E0,-1.770512104E0,-1.087266827E1,-1.342548609E0
1.844320279E0,-1.741781712E0,-1.086787987E1,-1.294664621E0
1.846808091E0,-1.693897724E0,-1.087745667E1,-1.222838521E0
1.849295904E0,-1.612494826E0,-1.090139866E1,-1.141435623E0
1.851783716E0,-1.540668845E0,-1.093012905E1,-1.060032845E0
1.854271529E0,-1.459265947E0,-1.095885944E1,-9.690531492E-1
1.856759341E0,-1.377863050E0,-1.097801304E1,-8.924387097E-1
1.859247154E0,-1.353921056E0,-1.097322464E1,-8.349778652E-1
1.861734966E0,-1.320402265E0,-1.097801304E1,-8.254010081E-1
1.864222779E0,-1.301248670E0,-1.095885944E1,-8.206126094E-1
1.866710591E0,-1.339555860E0,-1.092055225E1,-8.158242106E-1
1.869198404E0,-1.363497853E0,-1.090139866E1,-8.349778652E-1
1.871686216E0,-1.373074651E0,-1.088703346E1,-8.445546627E-1
1.874174029E0,-1.377863050E0,-1.086309147E1,-8.589198589E-1
1.876661841E0,-1.406593442E0,-1.084872627E1,-8.301894665E-1
1.879149654E0,-1.420958757E0,-1.081041908E1,-8.206126094E-1
1.881637466E0,-1.449689150E0,-1.075295830E1,-8.206126094E-1
1.884125279E0,-1.511938334E0,-1.071943951E1,-8.301894665E-1
1.886613091E0,-1.578976035E0,-1.065719032E1,-8.780734539E-1
1.889100904E0,-1.655590534E0,-1.061888313E1,-9.068039060E-1
1.891588716E0,-1.736993313E0,-1.060451794E1,-9.451110959E-1
1.894076529E0,-1.818396211E0,-1.059972954E1,-9.642647505E-1
1.896564341E0,-1.842338204E0,-1.065240192E1,-9.355342984E-1
1.899052154E0,-1.856703401E0,-1.072901630E1,-9.259575009E-1
1.901539966E0,-1.875856996E0,-1.081999588E1,-9.451110959E-1
1.904027779E0,-1.856703401E0,-1.091576385E1,-9.738415480E-1
1.906515591E0,-1.818396211E0,-1.104983902E1,-9.977835417E-1
1.909003404E0,-1.780089021E0,-1.117433834E1,-1.083974838E0
1.911491216E0,-1.717839718E0,-1.128925991E1,-1.141435623E0
1.913979029E0,-1.679532528E0,-1.140418148E1,-1.189319730E0
1.916466841E0,-1.650802016E0,-1.149994946E1,-1.241992116E0
1.918954654E0,-1.626860023E0,-1.158135223E1,-1.246780515E0
1.921442466E0,-1.612494826E0,-1.165317822E1,-1.251568913E0
1.923930279E0,-1.578976035E0,-1.168669701E1,-1.270722508E0
1.926418091E0,-1.545457244E0,-1.172500420E1,-1.318606615E0
1.928905904E0,-1.497573137E0,-1.175852299E1,-1.356913805E0
1.931393716E0,-1.425747156E0,-1.175852299E1,-1.371279001E0
1.933881529E0,-1.377863050E0,-1.174894619E1,-1.404797792E0
1.936369341E0,-1.373074651E0,-1.171542740E1,-1.419163108E0
1.938857154E0,-1.377863050E0,-1.167233181E1,-1.452681899E0
1.941344966E0,-1.425747156E0,-1.161487103E1,-1.476623893E0
1.943832779E0,-1.468842745E0,-1.157177544E1,-1.519719481E0
1.946320643E0,-1.478419542E0,-1.151431465E1,-1.524507880E0
1.948808508E0,-1.502361536E0,-1.149994946E1,-1.524507880E0
1.951296372E0,-1.526303530E0,-1.149037266E1,-1.519719481E0
1.953784237E0,-1.545457244E0,-1.146164227E1,-1.500565886E0
1.956272102E0,-1.540668845E0,-1.144727707E1,-1.500565886E0
1.958759966E0,-1.569399238E0,-1.143291187E1,-1.462258697E0
1.961247831E0,-1.588552833E0,-1.141375828E1,-1.400009394E0
1.963735695E0,-1.607706428E0,-1.137545109E1,-1.361702204E0
1.966223560E0,-1.646013618E0,-1.131799030E1,-1.318606615E0
1.968711424E0,-1.665167332E0,-1.128925991E1,-1.256357312E0
1.971199289E0,-1.698686123E0,-1.122222233E1,-1.213261724E0
1.973687154E0,-1.722628117E0,-1.116954994E1,-1.131858826E0
1.976175018E0,-1.732204914E0,-1.110251141E1,-1.055244446E0
1.978662883E0,-1.746570110E0,-1.103068542E1,-9.642647505E-1
1.981150747E0,-1.751358509E0,-1.098758984E1,-8.924387097E-1
1.983638612E0,-1.770512104E0,-1.092534065E1,-8.541314602E-1
1.986126477E0,-1.765723705E0,-1.090618706E1,-8.110358119E-1
1.988614341E0,-1.780089021E0,-1.088224506E1,-8.110358119E-1
1.991102206E0,-1.770512104E0,-1.089661026E1,-8.349778652E-1
1.993590070E0,-1.751358509E0,-1.093012905E1,-8.637082577E-1
1.996077935E0,-1.756146908E0,-1.099716663E1,-9.211691022E-1
1.998565799E0,-1.751358509E0,-1.106899261E1,-9.834183455E-1
2.001053664E0,-1.722628117E0,-1.115997314E1,-1.060032845E0
2.003541529E0,-1.698686123E0,-1.126052952E1,-1.107916832E0
2.006029393E0,-1.689109325E0,-1.136587429E1,-1.151012421E0
2.008517258E0,-1.674744129E0,-1.146164227E1,-1.222838521E0
2.011005122E0,-1.674744129E0,-1.157656384E1,-1.265934110E0
2.013492987E0,-1.665167332E0,-1.167712021E1,-1.294664621E0
2.015980852E0,-1.674744129E0,-1.174415779E1,-1.347337008E0
2.018468716E0,-1.660378933E0,-1.178725338E1,-1.414374709E0
2.020956529E0,-1.665167332E0,-1.184471416E1,-1.490989089E0
2.023444341E0,-1.665167332E0,-1.186865616E1,-1.558026791E0
2.025932154E0,-1.631648421E0,-1.183034897E1,-1.629852772E0
2.028419966E0,-1.631648421E0,-1.178725338E1,-1.644217968E0
2.030907779E0,-1.655590534E0,-1.172979259E1,-1.692102075E0
2.033395591E0,-1.684320927E0,-1.163881302E1,-1.711255670E0
2.035883404E0,-1.698686123E0,-1.155262184E1,-1.716044068E0
2.038371216E0,-1.741781712E0,-1.145685387E1,-1.701678872E0
2.040859029E0,-1.765723705E0,-1.136108589E1,-1.672948480E0
2.043346841E0,-1.808819413E0,-1.127010632E1,-1.625064373E0
2.045834654E0,-1.861491799E0,-1.117433834E1,-1.562815189E0
2.048322466E0,-1.895010591E0,-1.106420422E1,-1.495777488E0
2.050810279E0,-1.923741102E0,-1.094449425E1,-1.433528304E0
2.053298091E0,-1.938106298E0,-1.081041908E1,-1.347337008E0
2.055785904E0,-1.952471495E0,-1.069070911E1,-1.256357312E0
2.058273716E0,-1.971625090E0,-1.056621075E1,-1.184531331E0
2.060761529E0,-1.966836691E0,-1.042255878E1,-1.112705231E0
2.063249341E0,-1.990778685E0,-1.029327202E1,-1.016937137E0
2.065737154E0,-1.976413488E0,-1.016398430E1,-9.307458997E-1
2.068224966E0,-1.962048292E0,-1.003948593E1,-8.349778652E-1
2.070712779E0,-1.938106298E0,-9.958083153E0,-7.392097712E-1
2.073200591E0,-1.875856996E0,-9.881468773E0,-6.482301354E-1
2.075688404E0,-1.804031014E0,-9.819219589E0,-5.428852439E-1
2.078176216E0,-1.713051319E0,-9.785700798E0,-4.902127981E-1
2.080664029E0,-1.602918029E0,-9.795277596E0,-4.614823759E-1
2.083151841E0,-1.483207941E0,-9.819219589E0,-4.566939771E-1
2.085639654E0,-1.377863050E0,-9.852738380E0,-4.662707746E-1
2.088127466E0,-1.296460271E0,-9.881468773E0,-4.902127981E-1
2.090615279E0,-1.224634171E0,-9.948506355E0,-5.524620414E-1
2.093103091E0,-1.191115379E0,-1.001075554E1,-6.338648796E-1
2.095590904E0,-1.186326981E0,-1.006342793E1,-7.104793787E-1
2.098078716E0,-1.205480576E0,-1.010173512E1,-8.301894665E-1
2.100566529E0,-1.253364563E0,-1.012088871E1,-9.355342984E-1
2.103054341E0,-1.320402265E0,-1.014961910E1,-1.060032845E0
2.105542154E0,-1.363497853E0,-1.020229244E1,-1.165377736E0
2.108029966E0,-1.397016644E0,-1.023581123E1,-1.222838521E0
2.110517779E0,-1.425747156E0,-1.026933002E1,-1.275510907E0
2.113005591E0,-1.435323954E0,-1.031242561E1,-1.328183413E0
2.115493404E0,-1.430535555E0,-1.034594440E1,-1.371279001E0
2.117981216E0,-1.473631144E0,-1.036030960E1,-1.438316703E0
2.120469029E0,-1.535880446E0,-1.033157921E1,-1.457470298E0
2.122956841E0,-1.631648421E0,-1.028848362E1,-1.481412292E0
2.125444654E0,-1.708262920E0,-1.026454163E1,-1.514931083E0
2.127932466E0,-1.751358509E0,-1.022144604E1,-1.529296279E0
2.130420279E0,-1.799242616E0,-1.019750404E1,-1.538873196E0
2.132908091E0,-1.856703401E0,-1.017835045E1,-1.543661594E0
2.135395904E0,-1.918952703E0,-1.013525391E1,-1.529296279E0
2.137883716E0,-1.966836691E0,-1.009215832E1,-1.510142684E0
2.140371529E0,-2.014720678E0,-1.006342793E1,-1.457470298E0
2.142859341E0,-2.076969862E0,-1.002033234E1,-1.404797792E0
2.145347154E0,-2.120065689E0,-9.986813545E0,-1.328183413E0
2.147834966E0,-2.201468468E0,-9.953294754E0,-1.246780515E0
2.150322779E0,-2.244564056E0,-9.919775963E0,-1.146224022E0
2.152810591E0,-2.254140854E0,-9.919775963E0,-1.069609642E0
2.155298404E0,-2.239775658E0,-9.929352760E0,-1.002571940E0
2.157786216E0,-2.211045265E0,-9.948506355E0,-8.972271085E-1
2.160274029E0,-2.120065689E0,-9.996390343E0,-8.206126094E-1
2.162761841E0,-2.014720678E0,-1.003948593E1,-7.679402232E-1
2.165249654E0,-1.904587507E0,-1.009215832E1,-7.583633661E-1
2.167737466E0,-1.818396211E0,-1.013046551E1,-7.535749674E-1
2.170225279E0,-1.765723705E0,-1.015919590E1,-7.870938182E-1
2.172713091E0,-1.727416515E0,-1.016398430E1,-8.445546627E-1
2.175200904E0,-1.708262920E0,-1.017835045E1,-9.020155072E-1
2.177688716E0,-1.713051319E0,-1.018792725E1,-9.546879530E-1
2.180176529E0,-1.708262920E0,-1.018313885E1,-1.026513934E0
2.182664341E0,-1.727416515E0,-1.017356110E1,-1.093551636E0
2.185152154E0,-1.703474522E0,-1.016877270E1,-1.160589218E0
2.187639966E0,-1.684320927E0,-1.018792725E1,-1.213261724E0
2.190127779E0,-1.641225219E0,-1.021665764E1,-1.299453020E0
2.192615591E0,-1.588552833E0,-1.022144604E1,-1.352125406E0
2.195103404E0,-1.516726732E0,-1.024538803E1,-1.400009394E0
2.197591216E0,-1.478419542E0,-1.030284882E1,-1.423951507E0
2.200079029E0,-1.444900751E0,-1.032200241E1,-1.428739905E0
2.202566841E0,-1.416170359E0,-1.033636761E1,-1.409586191E0
2.205054654E0,-1.401805043E0,-1.034115601E1,-1.419163108E0
2.207542466E0,-1.401805043E0,-1.033636761E1,-1.447893500E0
2.210030279E0,-1.416170359E0,-1.032200241E1,-1.452681899E0
2.212518091E0,-1.416170359E0,-1.030284882E1,-1.438316703E0
2.215005904E0,-1.425747156E0,-1.028369522E1,-1.423951507E0
2.217493716E0,-1.444900751E0,-1.027411842E1,-1.390432596E0
2.219981529E0,-1.459265947E0,-1.021665764E1,-1.380855799E0
2.222469341E0,-1.473631144E0,-1.019750404E1,-1.356913805E0
2.224957154E0,-1.502361536E0,-1.017356110E1,-1.380855799E0
2.227444966E0,-1.531091928E0,-1.014004230E1,-1.400009394E0
2.229932779E0,-1.559822440E0,-1.012567711E1,-1.419163108E0
2.232420591E0,-1.607706428E0,-1.010652351E1,-1.423951507E0
2.234908404E0,-1.650802016E0,-1.011131191E1,-1.414374709E0
2.237396216E0,-1.698686123E0,-1.010652351E1,-1.414374709E0
2.239884029E0,-1.717839718E0,-1.011131191E1,-1.404797792E0
2.242371841E0,-1.751358509E0,-1.011131191E1,-1.380855799E0
2.244859654E0,-1.780089021E0,-1.010652351E1,-1.371279001E0
2.247347466E0,-1.799242616E0,-1.009694672E1,-1.361702204E0
2.249835279E0,-1.808819413E0,-1.008736992E1,-1.342548609E0
2.252323091E0,-1.808819413E0,-1.007779312E1,-1.342548609E0
2.254810904E0,-1.832761407E0,-1.006342793E1,-1.289876223E0
2.257298716E0,-1.847126603E0,-1.005385113E1,-1.213261724E0
2.259786529E0,-1.856703401E0,-1.004906273E1,-1.174954534E0
2.262274341E0,-1.861491799E0,-1.004906273E1,-1.141435623E0
2.264762154E0,-1.871068597E0,-1.005385113E1,-1.112705231E0
2.267249966E0,-1.866280198E0,-1.006821632E1,-1.112705231E0
2.269737779E0,-1.837549806E0,-1.007300472E1,-1.098340034E0
2.272225591E0,-1.765723705E0,-1.007300472E1,-1.069609642E0
2.274713404E0,-1.689109325E0,-1.008736992E1,-1.064821243E0
2.277201216E0,-1.617283225E0,-1.012567711E1,-1.117493629E0
2.279689029E0,-1.550245643E0,-1.013525391E1,-1.151012421E0
2.282176841E0,-1.487996340E0,-1.014961910E1,-1.194108129E0
2.284664654E0,-1.444900751E0,-1.015440750E1,-1.203684926E0
2.287152466E0,-1.449689150E0,-1.014483070E1,-1.227626920E0
2.289640279E0,-1.459265947E0,-1.016877270E1,-1.289876223E0
2.292128091E0,-1.459265947E0,-1.017835045E1,-1.347337008E0
2.294615904E0,-1.478419542E0,-1.017356110E1,-1.390432596E0
2.297103716E0,-1.497573137E0,-1.016398430E1,-1.428739905E0
2.299591529E0,-1.507149935E0,-1.015919590E1,-1.419163108E0
2.302079341E0,-1.511938334E0,-1.014483070E1,-1.419163108E0
2.304567154E0,-1.502361536E0,-1.014483070E1,-1.438316703E0
2.307054966E0,-1.511938334E0,-1.013525391E1,-1.443105102E0
2.309542779E0,-1.492784739E0,-1.012088871E1,-1.438316703E0
2.312030591E0,-1.497573137E0,-1.010652351E1,-1.447893500E0
2.314518404E0,-1.516726732E0,-1.007300472E1,-1.443105102E0
2.317006216E0,-1.535880446E0,-1.003469753E1,-1.380855799E0
2.319494029E0,-1.550245643E0,-1.001075554E1,-1.342548609E0
2.321981841E0,-1.559822440E0,-9.962871552E0,-1.285087705E0
2.324469654E0,-1.569399238E0,-9.934141159E0,-1.237203717E0
2.326957518E0,-1.569399238E0,-9.891045570E0,-1.189319730E0
2.329445383E0,-1.555034041E0,-9.852738380E0,-1.151012421E0
2.331933247E0,-1.535880446E0,-9.809642792E0,-1.112705231E0
2.334421112E0,-1.526303530E0,-9.785700798E0,-1.098340034E0
2.336908977E0,-1.497573137E0,-9.771335602E0,-1.074398041E0
2.339396841E0,-1.459265947E0,-9.761758804E0,-1.040879130E0
2.341884706E0,-1.430535555E0,-9.733028412E0,-1.055244446E0
2.344372570E0,-1.425747156E0,-9.723451614E0,-1.079186440E0
2.346860435E0,-1.430535555E0,-9.733028412E0,-1.136647224E0
2.349348299E0,-1.464054346E0,-9.723451614E0,-1.174954534E0
2.351836164E0,-1.497573137E0,-9.728240013E0,-1.232415318E0
2.354324029E0,-1.511938334E0,-9.733028412E0,-1.285087705E0
2.356811893E0,-1.516726732E0,-9.747393608E0,-1.352125406E0
2.359299758E0,-1.521515131E0,-9.761758804E0,-1.419163108E0
2.361787622E0,-1.507149935E0,-9.795277596E0,-1.490989089E0
2.364275487E0,-1.478419542E0,-9.809642792E0,-1.558026791E0
2.366763352E0,-1.464054346E0,-9.824007988E0,-1.639429569E0
2.369251216E0,-1.435323954E0,-9.824007988E0,-1.716044068E0
2.371739081E0,-1.440112352E0,-9.824007988E0,-1.763928056E0
2.374226945E0,-1.449689150E0,-9.833584785E0,-1.821388960E0
2.376714810E0,-1.454477549E0,-9.814431190E0,-1.826177359E0
2.379202674E0,-1.507149935E0,-9.804854393E0,-1.816600561E0
2.381690539E0,-1.535880446E0,-9.776124001E0,-1.807023764E0
2.384178404E0,-1.588552833E0,-9.747393608E0,-1.787870169E0
2.386666268E0,-1.641225219E0,-9.709086418E0,-1.763928056E0
2.389154133E0,-1.669955730E0,-9.689932823E0,-1.744774461E0
2.391641997E0,-1.693897724E0,-9.651625633E0,-1.720832467E0
2.394129862E0,-1.741781712E0,-9.622895241E0,-1.692102075E0
2.396617727E0,-1.756146908E0,-9.589376450E0,-1.644217968E0
2.399105591E0,-1.760935307E0,-9.565434456E0,-1.610699177E0
2.401593404E0,-1.770512104E0,-9.546280861E0,-1.577180386E0
2.404081216E0,-1.775300503E0,-9.522338867E0,-1.558026791E0
2.406569029E0,-1.804031014E0,-9.512762070E0,-1.510142684E0
2.409056841E0,-1.804031014E0,-9.493608475E0,-1.462258697E0
2.411544654E0,-1.804031014E0,-9.469666481E0,-1.452681899E0
2.414032466E0,-1.794454217E0,-9.436147690E0,-1.419163108E0
2.416520279E0,-1.789665818E0,-9.431359291E0,-1.409586191E0
2.419008091E0,-1.775300503E0,-9.416994095E0,-1.376067400E0
2.421495904E0,-1.746570110E0,-9.397840500E0,-1.337760210E0
2.423983716E0,-1.693897724E0,-9.397840500E0,-1.309029818E0
2.426471529E0,-1.669955730E0,-9.416994095E0,-1.318606615E0
2.428959341E0,-1.626860023E0,-9.445724487E0,-1.323395014E0
2.431447154E0,-1.583764434E0,-9.464878082E0,-1.366490602E0
2.433934966E0,-1.550245643E0,-9.493608475E0,-1.395220995E0
2.436422779E0,-1.521515131E0,-9.517550468E0,-1.400009394E0
2.438910591E0,-1.473631144E0,-9.546280861E0,-1.423951507E0
2.441398404E0,-1.454477549E0,-9.565434456E0,-1.433528304E0
2.443886216E0,-1.425747156E0,-9.575011253E0,-1.476623893E0
2.446374029E0,-1.401805043E0,-9.579799652E0,-1.543661594E0
2.448861841E0,-1.377863050E0,-9.584588051E0,-1.605910778E0
2.451349654E0,-1.382651448E0,-9.579799652E0,-1.682525277E0
2.453837466E0,-1.411381960E0,-9.551069260E0,-1.768716455E0
2.456325279E0,-1.430535555E0,-9.536704063E0,-1.830965757E0
2.458813091E0,-1.454477549E0,-9.522338867E0,-1.874061346E0
2.461300904E0,-1.516726732E0,-9.498396873E0,-1.912368655E0
2.463788716E0,-1.555034041E0,-9.474454880E0,-1.926733851E0
2.466276529E0,-1.602918029E0,-9.484031677E0,-1.921945453E0
2.468764341E0,-1.655590534E0,-9.474454880E0,-1.917157054E0
2.471252154E0,-1.698686123E0,-9.474454880E0,-1.898003340E0
2.473739966E0,-1.784877419E0,-9.488820076E0,-1.898003340E0
2.476227779E0,-1.847126603E0,-9.493608475E0,-1.864484549E0
2.478715591E0,-1.899798989E0,-9.479243279E0,-1.811812162E0
2.481203404E0,-1.938106298E0,-9.464878082E0,-1.763928056E0
2.483691216E0,-1.985990286E0,-9.460089684E0,-1.706467271E0
2.486179029E0,-2.024297476E0,-9.464878082E0,-1.620275974E0
2.488666841E0,-2.043451071E0,-9.440936089E0,-1.553238392E0
2.491154654E0,-2.076969862E0,-9.436147690E0,-1.490989089E0
2.493642466E0,-2.086546898E0,-9.440936089E0,-1.428739905E0
2.496130279E0,-2.072181463E0,-9.469666481E0,-1.400009394E0
2.498618091E0,-2.072181463E0,-9.455301285E0,-1.400009394E0
2.501105904E0,-2.057816267E0,-9.479243279E0,-1.390432596E0
2.503593716E0,-2.053027868E0,-9.493608475E0,-1.371279001E0
2.506081529E0,-2.048239470E0,-9.498396873E0,-1.332971811E0
2.508569341E0,-2.019509077E0,-9.527127266E0,-1.289876223E0
2.511057154E0,-1.966836691E0,-9.579799652E0,-1.299453020E0
2.513544966E0,-1.895010591E0,-9.627683640E0,-1.275510907E0
2.516032779E0,-1.799242616E0,-9.675567627E0,-1.246780515E0
2.518520591E0,-1.689109325E0,-9.737816811E0,-1.237203717E0
2.521008404E0,-1.593341231E0,-9.809642792E0,-1.265934110E0
2.523496216E0,-1.492784739E0,-9.867103577E0,-1.289876223E0
2.525984029E0,-1.411381960E0,-9.905410767E0,-1.323395014E0
2.528471841E0,-1.368286252E0,-9.948506355E0,-1.366490602E0
2.530959654E0,-1.353921056E0,-9.996390343E0,-1.423951507E0
2.533447466E0,-1.363497853E0,-1.003469753E1,-1.452681899E0
2.535935279E0,-1.397016644E0,-1.007779312E1,-1.486200690E0
2.538423091E0,-1.444900751E0,-1.010652351E1,-1.538873196E0
2.540910904E0,-1.516726732E0,-1.014004230E1,-1.605910778E0
2.543398716E0,-1.631648421E0,-1.019750404E1,-1.649006367E0
2.545886529E0,-1.722628117E0,-1.024538803E1,-1.725620866E0
2.548374341E0,-1.804031014E0,-1.027890682E1,-1.759139657E0
2.550862154E0,-1.904587507E0,-1.035073280E1,-1.797446966E0
2.553349966E0,-1.985990286E0,-1.043213558E1,-1.830965757E0
2.555837779E0,-2.053027868E0,-1.050396156E1,-1.840542555E0
2.558325591E0,-2.134430885E0,-1.058536434E1,-1.859696150E0
2.560813404E0,-2.206256866E0,-1.066197872E1,-1.902791858E0
2.563301216E0,-2.278082848E0,-1.074338150E1,-1.955464244E0
2.565789029E0,-2.354697466E0,-1.085351467E1,-1.993771434E0
2.568276841E0,-2.421735048E0,-1.094449425E1,-2.012925148E0
2.570764654E0,-2.479195833E0,-1.104026222E1,-2.022501945E0
2.573252466E0,-2.536656618E0,-1.115997314E1,-1.993771434E0
2.575740279E0,-2.598906040E0,-1.127489471E1,-1.960252643E0
2.578228091E0,-2.632424831E0,-1.140418148E1,-1.921945453E0
2.580715904E0,-2.637213230E0,-1.153346825E1,-1.902791858E0
2.583203716E0,-2.618059635E0,-1.165317822E1,-1.878849745E0
2.585691529E0,-2.584540844E0,-1.177767658E1,-1.826177359E0
2.588179341E0,-2.546233416E0,-1.189738655E1,-1.802235365E0
2.590667154E0,-2.512714624E0,-1.199315453E1,-1.763928056E0
2.593154966E0,-2.474407434E0,-1.207455730E1,-1.768716455E0
2.595642779E0,-2.450465441E0,-1.215596104E1,-1.773504853E0
2.598130591E0,-2.426523447E0,-1.221821022E1,-1.778293371E0
2.600618404E0,-2.402581453E0,-1.229003620E1,-1.807023764E0
2.603106216E0,-2.378639460E0,-1.235707378E1,-1.850119352E0
2.605594029E0,-2.373851061E0,-1.242889977E1,-1.888426542E0
2.608081841E0,-2.402581453E0,-1.249593735E1,-1.979406238E0
2.610569654E0,-2.431311846E0,-1.255818653E1,-2.094327927E0
2.613057466E0,-2.503137827E0,-1.262043571E1,-2.214038134E0
2.615545279E0,-2.608482838E0,-1.267789650E1,-2.314594507E0
2.618033091E0,-2.718616009E0,-1.276887608E1,-2.410362482E0
2.620520904E0,-2.814383984E0,-1.284549046E1,-2.506130695E0
2.623008716E0,-2.914940596E0,-1.293647003E1,-2.587533474E0
2.625496529E0,-2.991554976E0,-1.304181480E1,-2.678513050E0
2.627984341E0,-3.068169594E0,-1.316631413E1,-2.755127668E0
2.630472154E0,-3.173514366E0,-1.326687050E1,-2.774281263E0
2.632959966E0,-3.269282341E0,-1.337221527E1,-2.774281263E0
2.635447779E0,-3.388992548E0,-1.347277164E1,-2.735974073E0
2.637935591E0,-3.484760523E0,-1.356375122E1,-2.726397276E0
2.640423404E0,-3.542221308E0,-1.365473080E1,-2.688089848E0
2.642911216E0,-3.580528736E0,-1.376007557E1,-2.649782658E0
2.645399029E0,-3.570951939E0,-1.383190155E1,-2.630629063E0
2.647886841E0,-3.513490915E0,-1.389893913E1,-2.539649487E0
2.650374654E0,-3.475183725E0,-1.393245792E1,-2.405574083E0
2.652862466E0,-3.427299738E0,-1.395161152E1,-2.276287317E0
2.655350279E0,-3.360262156E0,-1.394203472E1,-2.175730705E0
2.657838091E0,-3.264493942E0,-1.394203472E1,-2.060809135E0
2.660325904E0,-3.163937569E0,-1.390851593E1,-1.974617839E0
2.662813716E0,-3.058592558E0,-1.390372753E1,-1.883638144E0
2.665301529E0,-2.962824583E0,-1.389893913E1,-1.816600561E0
2.667789341E0,-2.852691412E0,-1.390851593E1,-1.744774461E0
2.670277154E0,-2.737769604E0,-1.393724632E1,-1.663371682E0
2.672764966E0,-2.651578426E0,-1.397076511E1,-1.615487576E0
2.675252779E0,-2.570175409E0,-1.402822590E1,-1.649006367E0
2.677740591E0,-2.493561029E0,-1.411441803E1,-1.663371682E0
2.680228404E0,-2.421735048E0,-1.421497440E1,-1.711255670E0
2.682716216E0,-2.364274263E0,-1.431074238E1,-1.768716455E0
2.685204029E0,-2.311601639E0,-1.440172195E1,-1.845330954E0
2.687691841E0,-2.268506050E0,-1.451185513E1,-1.926733851E0
2.690179654E0,-2.282871246E0,-1.456931591E1,-2.041655540E0
2.692667466E0,-2.354697466E0,-1.461241150E1,-2.161365509E0
2.695155279E0,-2.450465441E0,-1.462198830E1,-2.266710520E0
2.697643091E0,-2.570175409E0,-1.457889271E1,-2.372055292E0
2.700130904E0,-2.718616009E0,-1.453100872E1,-2.491765499E0
2.702618716E0,-2.823961020E0,-1.447833633E1,-2.625840664E0
2.705106529E0,-2.934094191E0,-1.440651035E1,-2.712032080E0
2.707594341E0,-3.034650564E0,-1.434426117E1,-2.826953650E0
2.710082154E0,-3.106476784E0,-1.431553078E1,-2.917933226E0
2.712569966E0,-3.202244759E0,-1.427243519E1,-3.004124641E0
2.715057779E0,-3.283647537E0,-1.424849319E1,-3.095104218E0
2.717545591E0,-3.374627352E0,-1.423891640E1,-3.195660830E0
2.720033404E0,-3.446453333E0,-1.422455120E1,-3.224391222E0
2.722521216E0,-3.484760523E0,-1.423891640E1,-3.214814425E0
2.725009029E0,-3.508702517E0,-1.423891640E1,-3.138199806E0
2.727496841E0,-3.537432909E0,-1.426285839E1,-3.042431831E0
2.729984654E0,-3.537432909E0,-1.428680038E1,-2.932298422E0
2.732472466E0,-3.532644510E0,-1.431074238E1,-2.831742048E0
2.734960279E0,-3.518279314E0,-1.436341476E1,-2.735974073E0
2.737448091E0,-3.465606928E0,-1.439693356E1,-2.678513050E0
2.739935904E0,-3.398569345E0,-1.445439434E1,-2.625840664E0
2.742423716E0,-3.336320162E0,-1.449748993E1,-2.644994259E0
2.744911529E0,-3.283647537E0,-1.451185513E1,-2.678513050E0
2.747399341E0,-3.278859138E0,-1.451185513E1,-2.688089848E0
2.749887154E0,-3.293224335E0,-1.452143192E1,-2.692878246E0
2.752375018E0,-3.336320162E0,-1.448791313E1,-2.678513050E0
2.754862883E0,-3.384204149E0,-1.446397114E1,-2.635417461E0
2.757350747E0,-3.412934542E0,-1.441608715E1,-2.621052265E0
2.759838612E0,-3.408146143E0,-1.434904957E1,-2.597110271E0
2.762326477E0,-3.365050554E0,-1.428680038E1,-2.582745075E0
2.764814341E0,-3.254917145E0,-1.424370480E1,-2.563591480E0
2.767302206E0,-3.087323189E0,-1.420060921E1,-2.530072689E0
2.769790070E0,-2.895787001E0,-1.413836002E1,-2.506130695E0
2.772277935E0,-2.728192806E0,-1.408089828E1,-2.472611904E0
2.774765799E0,-2.589329243E0,-1.404259109E1,-2.448669672E0
2.777253664E0,-2.488772631E0,-1.396597672E1,-2.443881273E0
2.779741529E0,-2.445677042E0,-1.388457394E1,-2.453458309E0
2.782229393E0,-2.431311846E0,-1.379359436E1,-2.429516077E0
2.784717258E0,-2.440888643E0,-1.371219158E1,-2.453458309E0
2.787205122E0,-2.445677042E0,-1.363078880E1,-2.472611904E0
2.789692987E0,-2.426523447E0,-1.354459763E1,-2.491765499E0
2.792180852E0,-2.397793055E0,-1.349192524E1,-2.482188702E0
2.794668716E0,-2.349909067E0,-1.343446445E1,-2.448669672E0
2.797156581E0,-2.316390038E0,-1.336263847E1,-2.410362482E0
2.799644445E0,-2.263717651E0,-1.329560089E1,-2.376843691E0
2.802132310E0,-2.225410461E0,-1.326208210E1,-2.348113298E0
2.804620174E0,-2.206256866E0,-1.320940971E1,-2.324171305E0
2.807108039E0,-2.230198860E0,-1.312800694E1,-2.328959703E0
2.809595904E0,-2.287659645E0,-1.306575680E1,-2.324171305E0
2.812083768E0,-2.373851061E0,-1.298435402E1,-2.324171305E0
2.814571633E0,-2.503137827E0,-1.291731644E1,-2.362478495E0
2.817059497E0,-2.618059635E0,-1.285027885E1,-2.434304476E0
2.819547362E0,-2.723404408E0,-1.281197166E1,-2.472611904E0
2.822035227E0,-2.833537817E0,-1.279760647E1,-2.501342297E0
2.824523039E0,-2.910152197E0,-1.279281807E1,-2.510919094E0
2.827010852E0,-2.943670988E0,-1.279760647E1,-2.491765499E0
2.829498664E0,-2.958036184E0,-1.280239487E1,-2.439092875E0
2.831986477E0,-2.986766577E0,-1.281197166E1,-2.391208887E0
2.834474289E0,-2.991554976E0,-1.282154846E1,-2.367266893E0
2.836962102E0,-2.953247786E0,-1.284070206E1,-2.367266893E0
2.839449914E0,-2.929305792E0,-1.285027885E1,-2.362478495E0
2.841937727E0,-2.905363798E0,-1.284070206E1,-2.328959703E0
2.844425539E0,-2.924517393E0,-1.282154846E1,-2.281075716E0
2.846913352E0,-2.996343374E0,-1.277366447E1,-2.257133722E0
2.849401164E0,-3.072957993E0,-1.269705009E1,-2.247556925E0
2.851888977E0,-3.139995575E0,-1.262043571E1,-2.199672699E0
2.854376789E0,-3.154360771E0,-1.256297493E1,-2.166153908E0
2.856864602E0,-3.111265182E0,-1.251987934E1,-2.127846718E0
2.859352414E0,-3.001131773E0,-1.246720695E1,-2.084751129E0
2.861840227E0,-2.819172382E0,-1.241453457E1,-2.051232338E0
2.864328039E0,-2.594117641E0,-1.238101578E1,-1.993771434E0
2.866815852E0,-2.330755472E0,-1.231397820E1,-1.936310649E0
2.869303664E0,-2.100912094E0,-1.223736382E1,-1.850119352E0
2.871791477E0,-1.928529501E0,-1.215117264E1,-1.759139657E0
2.874279289E0,-1.804031014E0,-1.205540371E1,-1.668160081E0
2.876767102E0,-1.736993313E0,-1.196442413E1,-1.581968784E0
2.879254914E0,-1.746570110E0,-1.187823296E1,-1.490989089E0
2.881742727E0,-1.746570110E0,-1.181119537E1,-1.428739905E0
2.884230539E0,-1.741781712E0,-1.174894619E1,-1.400009394E0
2.886718352E0,-1.679532528E0,-1.169627380E1,-1.380855799E0
2.889206164E0,-1.607706428E0,-1.168190861E1,-1.404797792E0
2.891693977E0,-1.492784739E0,-1.167233181E1,-1.438316703E0
2.894181789E0,-1.373074651E0,-1.165796661E1,-1.495777488E0
2.896669602E0,-1.258152962E0,-1.164360142E1,-1.558026791E0
2.899157414E0,-1.200692177E0,-1.162444782E1,-1.596333981E0
2.901645227E0,-1.171961784E0,-1.159092903E1,-1.615487576E0
2.904133039E0,-1.191115379E0,-1.156698704E1,-1.634641171E0
2.906620852E0,-1.234210968E0,-1.154304504E1,-1.658583283E0
2.909108664E0,-1.301248670E0,-1.153825665E1,-1.687313676E0
2.911596477E0,-1.363497853E0,-1.151431465E1,-1.739986062E0
2.914084289E0,-1.416170359E0,-1.149994946E1,-1.802235365E0
2.916572102E0,-1.478419542E0,-1.151431465E1,-1.907580256E0
2.919059914E0,-1.555034041E0,-1.153346825E1,-1.974617839E0
2.921547727E0,-1.674744129E0,-1.153346825E1,-2.008136749E0
2.924035539E0,-1.804031014E0,-1.154783344E1,-2.070385933E0
2.926523352E0,-1.918952703E0,-1.153825665E1,-2.127846718E0
2.929011164E0,-2.029085875E0,-1.151431465E1,-2.123058319E0
2.931498977E0,-2.148796082E0,-1.149994946E1,-2.103904724E0
2.933986789E0,-2.287659645E0,-1.147600746E1,-2.079962730E0
2.936474602E0,-2.445677042E0,-1.143291187E1,-2.046443939E0
2.938962414E0,-2.589329243E0,-1.135150909E1,-2.060809135E0
2.941450227E0,-2.713827610E0,-1.126531792E1,-2.118269920E0
2.943938039E0,-2.804807186E0,-1.119828033E1,-2.204461098E0
2.946425852E0,-2.843114614E0,-1.112166500E1,-2.348113298E0
2.948913664E0,-2.790441990E0,-1.103547382E1,-2.520495892E0
2.951401477E0,-2.713827610E0,-1.095407104E1,-2.678513050E0
2.953889289E0,-2.618059635E0,-1.084393787E1,-2.812588453E0
2.956377102E0,-2.570175409E0,-1.070507431E1,-2.846107244E0
2.958864914E0,-2.517503023E0,-1.055663395E1,-2.798223257E0
2.961352727E0,-2.493561029E0,-1.039382839E1,-2.640205860E0
2.963840539E0,-2.522291422E0,-1.023102283E1,-2.410362482E0
2.966328352E0,-2.570175409E0,-1.005863953E1,-2.214038134E0
2.968816164E0,-2.589329243E0,-9.876680374E0,-2.041655540E0
2.971303977E0,-2.603694439E0,-9.704298019E0,-1.907580256E0
2.973791789E0,-2.555810213E0,-9.546280861E0,-1.787870169E0
2.976279602E0,-2.455253839E0,-9.397840500E0,-1.668160081E0
2.978767414E0,-2.282871246E0,-9.268553734E0,-1.534084797E0
2.981255227E0,-2.033874273E0,-9.167996407E0,-1.414374709E0
2.983743039E0,-1.756146908E0,-9.053074837E0,-1.265934110E0
2.986230852E0,-1.449689150E0,-8.933364868E0,-1.117493629E0
2.988718664E0,-1.133654475E0,-8.823231697E0,-9.786299467E-1
2.991206477E0,-8.511387110E-1,-8.670002937E0,-8.110358119E-1
2.993694289E0,-6.452373862E-1,-8.521562576E0,-6.673837304E-1
2.996182102E0,-4.967968464E-1,-8.358757019E0,-5.285200477E-1
2.998669914E0,-4.058171809E-1,-8.176796913E0,-4.088099301E-1
3.001157727E0,-3.866635859E-1,-7.985261440E0,-3.226186931E-1
3.003645539E0,-4.010287821E-1,-7.788936615E0,-2.651578486E-1
3.006133352E0,-4.680664241E-1,-7.602189064E0,-2.364274114E-1
3.008621164E0,-5.446808934E-1,-7.434594631E0,-1.933317930E-1
3.011108977E0,-6.117185354E-1,-7.276577473E0,-1.406593472E-1
3.013596789E0,-6.883329749E-1,-7.142502308E0,-1.119289324E-1
3.016084602E0,-7.314286232E-1,-7.051522732E0,-1.023521200E-1
3.018572414E0,-7.457938194E-1,-6.974907875E0,-9.277531505E-2
3.021060227E0,-7.122750282E-1,-6.917447090E0,-1.071405262E-1
3.023548039E0,-7.026981711E-1,-6.864774704E0,-1.167173311E-1
3.026035852E0,-7.122750282E-1,-6.836044312E0,-1.646013707E-1
3.028523664E0,-7.505822182E-1,-6.797737122E0,-2.316390127E-1
3.031011477E0,-8.224082589E-1,-6.749853134E0,-2.938882709E-1
3.033499289E0,-9.469067454E-1,-6.697180748E0,-3.657143116E-1
3.035987102E0,-1.104924083E0,-6.639719963E0,-4.950011969E-1
3.038474914E0,-1.262941360E0,-6.577470779E0,-6.051344872E-1
3.040962727E0,-1.425747156E0,-6.491279125E0,-7.248445749E-1
3.043450539E0,-1.569399238E0,-6.385934353E0,-8.254010081E-1
3.045938352E0,-1.665167332E0,-6.309319973E0,-9.211691022E-1
3.048426164E0,-1.732204914E0,-6.227917194E0,-9.738415480E-1
3.050913977E0,-1.751358509E0,-6.141726017E0,-9.690531492E-1
3.053401789E0,-1.708262920E0,-6.055534840E0,-9.498994946E-1
3.055889602E0,-1.669955730E0,-5.954977989E0,-9.307458997E-1
3.058377414E0,-1.602918029E0,-5.840056419E0,-8.684966564E-1
3.060865227E0,-1.531091928E0,-5.744288445E0,-8.206126094E-1
3.063353039E0,-1.440112352E0,-5.643732071E0,-7.487865686E-1
3.065840852E0,-1.339555860E0,-5.538387299E0,-6.865373254E-1
3.068328664E0,-1.253364563E0,-5.447407246E0,-6.578069329E-1
3.070816477E0,-1.138442874E0,-5.342062473E0,-5.907692909E-1
3.073304289E0,-1.023521185E0,-5.236717701E0,-5.237316489E-1
3.075792102E0,-9.038111567E-1,-5.150526524E0,-4.519055784E-1
3.078279914E0,-8.319851160E-1,-5.045181751E0,-3.465606868E-1
3.080767727E0,-7.601590157E-1,-4.949413300E0,-2.460042238E-1
3.083255539E0,-6.979097724E-1,-4.829703331E0,-1.502361596E-1
3.085743352E0,-6.356605291E-1,-4.729146957E0,-3.531447425E-2
3.088231164E0,-5.542576909E-1,-4.619013786E0,5.566519126E-2
3.090718977E0,-4.537012279E-1,-4.513668537E0,1.179144308E-1
3.093206789E0,-3.818751574E-1,-4.393958569E0,1.514332592E-1
3.095694602E0,-3.244143426E-1,-4.293402195E0,1.705868691E-1
3.098182414E0,-2.573766708E-1,-4.188057423E0,1.897404790E-1
3.100670227E0,-2.142810524E-1,-4.058770657E0,2.088941038E-1
3.103158039E0,-1.759738177E-1,-3.943848848E0,2.567781210E-1
3.105645852E0,-1.328781992E-1,-3.857657433E0,3.046621680E-1
3.108133664E0,-9.935937077E-2,-3.761889458E0,3.381809890E-1
3.110621477E0,-7.062894851E-2,-3.651756048E0,3.381809890E-1
3.113109289E0,-3.711012751E-2,-3.570353270E0,3.525462151E-1
3.115597102E0,-1.316810958E-2,-3.488950491E0,3.238157928E-1
3.118084914E0,1.197100850E-3,-3.412335873E0,2.759317458E-1
3.120572727E0,2.513911761E-2,-3.340509892E0,2.328361124E-1
3.123060539E0,4.908113554E-2,-3.254318714E0,1.753752679E-1
3.125548352E0,1.197100850E-3,-3.172915697E0,1.179144308E-1
3.128036164E0,-6.105214357E-2,-3.081936121E0,9.397241473E-2
3.130523977E0,-1.041477770E-1,-2.981379747E0,6.045359373E-2
3.133011789E0,-1.759738177E-1,-2.880823135E0,7.781155407E-3
3.135499602E0,-2.525882721E-1,-2.785055161E0,-3.531447425E-2
3.137987414E0,-3.292027414E-1,-2.703652382E0,-7.362170517E-2
3.140475227E0,-4.058171809E-1,-2.612672567E0,-8.319851011E-2
3.142963039E0,-4.728548229E-1,-2.502539396E0,-9.756372124E-2
3.145450852E0,-5.207388401E-1,-2.406771183E0,-1.071405262E-1
3.147938664E0,-5.590460896E-1,-2.311003208E0,-8.319851011E-2
3.150426477E0,-5.829881430E-1,-2.224812031E0,-4.010287672E-2
3.152914289E0,-5.781996846E-1,-2.129043818E0,2.693476900E-2
3.155402102E0,-5.446808934E-1,-2.052429438E0,1.562216580E-1
3.157889914E0,-5.063736439E-1,-1.971026540E0,1.993172914E-1
3.160377727E0,-4.824316502E-1,-1.884835243E0,1.993172914E-1
3.162865539E0,-4.584896266E-1,-1.813009262E0,2.232593149E-1
3.165353352E0,-4.441244006E-1,-1.736394763E0,2.807201445E-1
3.167841164E0,-4.058171809E-1,-1.654991984E0,3.142389655E-1
3.170328977E0,-3.818751574E-1,-1.559223890E0,3.190273643E-1
3.172816789E0,-3.579331636E-1,-1.487397790E0,2.902969420E-1
3.175304602E0,-3.531447649E-1,-1.405994892E0,2.950853705E-1
3.177792414E0,-3.339911401E-1,-1.343745708E0,2.998737693E-1
3.180280227E0,-3.148375154E-1,-1.286284804E0,3.094505668E-1
3.182768039E0,-3.339911401E-1,-1.190516829E0,3.477577865E-1
3.185255852E0,-3.627215624E-1,-1.118690729E0,4.147954583E-1
3.187743664E0,-3.244143426E-1,-1.075595140E0,4.339490533E-1
3.190231477E0,-2.430114746E-1,-1.032499433E0,4.387374520E-1
3.192719289E0,-1.520318091E-1,-1.018134236E0,4.531026781E-1
3.195207102E0,-8.499415964E-2,-9.750386477E-1,4.770447016E-1
3.197694914E0,-1.795651205E-2,-9.702502489E-1,4.387374520E-1
3.200182727E0,4.429273307E-2,-9.558850527E-1,3.908534348E-1
3.202670539E0,8.738835901E-2,-9.606734514E-1,3.477577865E-1
3.205158352E0,1.400607973E-1,-9.654618502E-1,2.950853705E-1
3.207646164E0,1.879448295E-1,-9.894038439E-1,2.759317458E-1
3.210133977E0,2.645592988E-1,-1.008557439E0,2.759317458E-1
3.212621789E0,3.268085420E-1,-1.032499433E0,2.663549483E-1
3.215109602E0,4.082113802E-1,-1.061229944E0,2.855085433E-1
3.217597414E0,4.944026470E-1,-1.128267527E0,3.142389655E-1
3.220085227E0,5.758054852E-1,-1.200093627E0,3.956418335E-1
3.222573039E0,6.524199843E-1,-1.300650120E0,5.440823436E-1
3.225060852E0,7.290344238E-1,-1.401206493E0,7.404068708E-1
3.227548664E0,8.104372621E-1,-1.540070295E0,9.941922426E-1
3.230036477E0,8.678981066E-1,-1.717241168E0,1.238400817E0
3.232524289E0,8.774749041E-1,-1.889623642E0,1.473032594E0
3.235012102E0,9.014169574E-1,-2.095525026E0,1.678933978E0
3.237499914E0,8.726865053E-1,-2.315791607E0,1.865681648E0
3.239987727E0,8.487445116E-1,-2.540846586E0,2.023699045E0
3.242475539E0,7.912836671E-1,-2.756324768E0,2.143409014E0
3.244963352E0,7.194576263E-1,-2.947860956E0,2.186504602E0
3.247451164E0,6.284779310E-1,-3.148973703E0,2.181716204E0
3.249938977E0,4.800374508E-1,-3.316567898E0,2.124255419E0
3.252426789E0,3.411737382E-1,-3.479373693E0,2.047641039E0
3.254914602E0,1.783680320E-1,-3.632602453E0,1.985391736E0
3.257402414E0,2.992752194E-2,-3.747524261E0,1.942296147E0
3.259890227E0,-1.520318091E-1,-3.891176224E0,1.889623642E0
3.262378039E0,-3.100491166E-1,-4.015674591E0,1.808220863E0
3.264865852E0,-4.345476031E-1,-4.135385036E0,1.669357181E0
3.267353664E0,-5.494692922E-1,-4.288613796E0,1.530493379E0
3.269841477E0,-6.404489279E-1,-4.432265759E0,1.405994892E0
3.272329289E0,-6.979097724E-1,-4.590283394E0,1.372476101E0
3.274817102E0,-7.314286232E-1,-4.777030945E0,1.415571809E0
3.277304914E0,-7.314286232E-1,-4.997297287E0,1.511339784E0
3.279792727E0,-7.026981711E-1,-5.270236492E0,1.669357181E0
3.282280539E0,-6.452373862E-1,-5.586271286E0,1.846528053E0
3.284768352E0,-5.590460896E-1,-5.969343185E0,2.076371431E0
3.287256164E0,-4.345476031E-1,-6.438606739E0,2.325368404E0
3.289743977E0,-3.004723191E-1,-6.974907875E0,2.574365377E0
3.292231789E0,-1.855506301E-1,-7.583035469E0,2.823362350E0
3.294719602E0,-6.105214357E-2,-8.253412247E0,3.029263735E0
3.297207414E0,3.950432688E-2,-8.976460457E0,3.192069530E0
3.299695227E0,8.738835901E-2,-9.747393608E0,3.235165119E0
3.302183039E0,5.386953801E-2,-1.052790356E1,3.148973703E0
3.304670852E0,-8.499415964E-2,-1.132277870E1,2.943072557E0
3.307158716E0,-2.717418969E-1,-1.206019211E1,2.603095770E0
3.309646581E0,-5.398924947E-1,-1.274493408E1,2.215235233E0
3.312134445E0,-8.080430627E-1,-1.339136887E1,1.822586060E0
3.314622310E0,-1.052251697E0,-1.397076511E1,1.444302201E0
3.317110174E0,-1.262941360E0,-1.446397114E1,1.133055925E0
3.319598039E0,-1.406593442E0,-1.486140823E1,9.223662019E-1
3.322085904E0,-1.425747156E0,-1.516307831E1,8.553285599E-1
3.324573768E0,-1.368286252E0,-1.538813305E1,8.888474107E-1
3.327061633E0,-1.243787766E0,-1.549826622E1,9.894038439E-1
3.329549497E0,-1.138442874E0,-1.548390102E1,1.113902330E0
3.332037362E0,-1.071405292E0,-1.536897945E1,1.214458823E0
3.334525227E0,-1.004367590E0,-1.513434792E1,1.305438519E0
3.337013091E0,-1.009155989E0,-1.479915905E1,1.367687702E0
3.339500956E0,-1.100135684E0,-1.440651035E1,1.405994892E0
3.341988820E0,-1.215057373E0,-1.397555351E1,1.420360208E0
3.344476685E0,-1.435323954E0,-1.351107883E1,1.405994892E0
3.346964549E0,-1.689109325E0,-1.305139160E1,1.415571809E0
3.349452414E0,-1.933317900E0,-1.259649372E1,1.439513803E0
3.351940279E0,-2.211045265E0,-1.217511463E1,1.496974587E0
3.354428143E0,-2.493561029E0,-1.179204178E1,1.525704980E0
3.356916008E0,-2.776076794E0,-1.143291187E1,1.568800688E0
3.359403872E0,-3.010708570E0,-1.109772301E1,1.583165884E0
3.361891737E0,-3.254917145E0,-1.081520748E1,1.554435492E0
3.364379602E0,-3.479972124E0,-1.054705715E1,1.520916581E0
3.366867466E0,-3.642777920E0,-1.031242561E1,1.434725404E0
3.369355331E0,-3.762487888E0,-1.011131191E1,1.319803715E0
3.371843195E0,-3.853467703E0,-9.919775963E0,1.219247222E0
3.374331060E0,-3.896563292E0,-9.737816811E0,1.166574836E0
3.376818872E0,-3.891774893E0,-9.584588051E0,1.152209520E0
3.379306685E0,-3.848679304E0,-9.464878082E0,1.171363235E0
3.381794497E0,-3.748122692E0,-9.373898506E0,1.214458823E0
3.384282310E0,-3.599682331E0,-9.287707329E0,1.209670424E0
3.386770122E0,-3.436876535E0,-9.220669746E0,1.185728431E0
3.389257935E0,-3.283647537E0,-9.158419609E0,1.147421122E0
3.391745747E0,-3.096899986E0,-9.091382027E0,1.085171938E0
3.394233560E0,-2.938882589E0,-9.033921242E0,1.008557439E0
3.396721372E0,-2.804807186E0,-8.971672058E0,9.032126069E-1
3.399209185E0,-2.665943623E0,-8.885480881E0,7.739257216E-1
3.401696997E0,-2.527079821E0,-8.784924507E0,6.350619793E-1
3.404184810E0,-2.388216257E0,-8.693944931E0,5.201402903E-1
3.406672622E0,-2.273294449E0,-8.598176956E0,3.908534348E-1
3.409160435E0,-2.139219284E0,-8.511985779E0,3.429693878E-1
3.411648247E0,-2.038662672E0,-8.425794601E0,3.286041915E-1
3.414136060E0,-1.942894697E0,-8.330026627E0,3.333925903E-1
3.416623872E0,-1.866280198E0,-8.253412247E0,3.908534348E-1
3.419111685E0,-1.789665818E0,-8.191162109E0,4.770447016E-1
3.421599497E0,-1.722628117E0,-8.124124527E0,5.728127360E-1
3.424087310E0,-1.674744129E0,-8.071452141E0,6.733692288E-1
3.426575122E0,-1.578976035E0,-8.028356552E0,7.547720671E-1
3.429062935E0,-1.516726732E0,-7.990049839E0,8.792705536E-1
3.431550747E0,-1.440112352E0,-7.966107368E0,1.003769040E0
3.434038560E0,-1.368286252E0,-7.951742172E0,1.142632723E0
3.436526372E0,-1.315613866E0,-7.942165375E0,1.281496406E0
3.439014185E0,-1.272518158E0,-7.951742172E0,1.425148606E0
3.441501997E0,-1.229422569E0,-7.961318970E0,1.559223890E0
3.443989810E0,-1.195903778E0,-7.994838238E0,1.674145579E0
3.446477622E0,-1.181538582E0,-8.052298546E0,1.707664371E0
3.448965435E0,-1.200692177E0,-8.090605736E0,1.731606364E0
3.451453247E0,-1.248576164E0,-8.157643318E0,1.702875972E0
3.453941060E0,-1.329979062E0,-8.224681854E0,1.645415068E0
3.456428872E0,-1.430535555E0,-8.296507835E0,1.597531080E0
3.458916685E0,-1.574187636E0,-8.363545418E0,1.540070295E0
3.461404497E0,-1.703474522E0,-8.430583000E0,1.487397790E0
3.463892310E0,-1.837549806E0,-8.516774178E0,1.425148606E0
3.466380122E0,-1.981201887E0,-8.602965355E0,1.382052898E0
3.468867935E0,-2.153584480E0,-8.674791336E0,1.343745708E0
3.471355747E0,-2.321178436E0,-8.741828918E0,1.300650120E0
3.473843560E0,-2.498349428E0,-8.813654900E0,1.252766013E0
3.476331372E0,-2.675520420E0,-8.880692482E0,1.185728431E0
3.478819185E0,-2.838326216E0,-8.938153267E0,1.104325533E0
3.481306997E0,-2.991554976E0,-8.995614052E0,1.046864748E0
3.483794810E0,-3.125630379E0,-9.067440033E0,9.894038439E-1
3.486282622E0,-3.264493942E0,-9.129689217E0,9.750386477E-1
3.488770435E0,-3.341108561E0,-9.177573204E0,9.702502489E-1
3.491258247E0,-3.388992548E0,-9.244611740E0,9.606734514E-1
3.493746060E0,-3.432088137E0,-9.297284126E0,9.463081956E-1
3.496233872E0,-3.451241732E0,-9.359533310E0,9.750386477E-1
3.498721685E0,-3.451241732E0,-9.416994095E0,1.018134236E0
3.501209497E0,-3.422511339E0,-9.460089684E0,1.070806742E0
3.503697310E0,-3.365050554E0,-9.512762070E0,1.142632723E0
3.506185122E0,-3.293224335E0,-9.555857658E0,1.209670424E0
3.508672935E0,-3.202244759E0,-9.608530045E0,1.257554412E0
3.511160747E0,-3.101688385E0,-9.656414032E0,1.295861721E0
3.513648560E0,-3.005920172E0,-9.713874817E0,1.315015316E0
3.516136372E0,-2.890998602E0,-9.766547203E0,1.305438519E0
3.518624185E0,-2.785653591E0,-9.819219589E0,1.286284804E0
3.521111997E0,-2.680308819E0,-9.871891975E0,1.233612418E0
3.523599810E0,-2.584540844E0,-9.934141159E0,1.156997919E0
3.526087622E0,-2.488772631E0,-9.986813545E0,1.070806742E0
3.528575435E0,-2.402581453E0,-1.002033234E1,9.702502489E-1
3.531063247E0,-2.330755472E0,-1.005863953E1,9.223662019E-1
3.533551060E0,-2.306813240E0,-1.009694672E1,8.505401611E-1
3.536038872E0,-2.321178436E0,-1.014961910E1,7.356184721E-1
3.538526685E0,-2.340332270E0,-1.020229244E1,5.584475398E-1
3.541014497E0,-2.378639460E0,-1.023581123E1,4.004302323E-1
3.543502310E0,-2.440888643E0,-1.027890682E1,2.855085433E-1
3.545990122E0,-2.527079821E0,-1.032200241E1,2.136825025E-1
3.548477935E0,-2.622848034E0,-1.035073280E1,1.274912357E-1
3.550965747E0,-2.685097218E0,-1.037946320E1,5.566519126E-2
3.553453560E0,-2.761711597E0,-1.039382839E1,1.735796221E-2
3.555941372E0,-2.828749418E0,-1.039382839E1,1.256955881E-2
3.558429185E0,-2.876633406E0,-1.040819359E1,4.129998013E-2
3.560916997E0,-2.919728994E0,-1.038903999E1,9.876082093E-2
3.563404810E0,-2.934094191E0,-1.035552120E1,2.136825025E-1
3.565892622E0,-2.967612982E0,-1.033157921E1,2.998737693E-1
3.568380435E0,-2.991554976E0,-1.026933002E1,4.052186310E-1
3.570868247E0,-3.020285368E0,-1.019750404E1,4.578910768E-1
3.573356060E0,-3.072957993E0,-1.011610031E1,5.584475398E-1
3.575843872E0,-3.096899986E0,-1.002033234E1,6.494272351E-1
3.578331685E0,-3.135207176E0,-9.934141159E0,7.595604658E-1
3.580819497E0,-3.159149170E0,-9.833584785E0,8.553285599E-1
3.583307310E0,-3.139995575E0,-9.737816811E0,9.894038439E-1
3.585795122E0,-3.072957993E0,-9.646837234E0,1.133055925E0
3.588282935E0,-2.996343374E0,-9.579799652E0,1.281496406E0
3.590770747E0,-2.867056608E0,-9.517550468E0,1.401206493E0
3.593258560E0,-2.737769604E0,-9.440936089E0,1.511339784E0
3.595746372E0,-2.579752445E0,-9.378686905E0,1.635838270E0
3.598234185E0,-2.440888643E0,-9.321226120E0,1.707664371E0
3.600721997E0,-2.292448044E0,-9.249400139E0,1.755548358E0
3.603209810E0,-2.144007683E0,-9.187150002E0,1.745971560E0
3.605697622E0,-2.043451071E0,-9.144054413E0,1.736394763E0
3.608185435E0,-1.971625090E0,-9.105747223E0,1.707664371E0
3.610673247E0,-1.914164305E0,-9.038709641E0,1.640626669E0
3.613161060E0,-1.880645394E0,-8.990825653E0,1.554435492E0
3.615648872E0,-1.861491799E0,-8.952518463E0,1.468244195E0
3.618136685E0,-1.837549806E0,-8.933364868E0,1.362899303E0
3.620624497E0,-1.827973008E0,-8.914211273E0,1.291073322E0
3.623112310E0,-1.832761407E0,-8.909422874E0,1.176151633E0
3.625600122E0,-1.823184609E0,-8.914211273E0,1.042076349E0
3.628087935E0,-1.832761407E0,-8.923788071E0,9.223662019E-1
3.630575747E0,-1.827973008E0,-8.938153267E0,8.313865662E-1
3.633063560E0,-1.837549806E0,-8.976460457E0,7.595604658E-1
3.635551372E0,-1.866280198E0,-9.014767647E0,6.829460263E-1
3.638039185E0,-1.895010591E0,-9.048286438E0,6.206967831E-1
3.640526997E0,-1.942894697E0,-9.091382027E0,5.632359385E-1
3.643014810E0,-2.014720678E0,-9.134477615E0,5.249287486E-1
3.645502622E0,-2.105700493E0,-9.158419609E0,4.818331003E-1
3.647990435E0,-2.196680069E0,-9.187150002E0,4.004302323E-1
3.650478247E0,-2.297236443E0,-9.225458145E0,3.812766075E-1
3.652966060E0,-2.397793055E0,-9.263765335E0,3.621230125E-1
3.655453872E0,-2.512714624E0,-9.282918930E0,4.052186310E-1
3.657941685E0,-2.608482838E0,-9.302072525E0,4.435258508E-1
3.660429497E0,-2.723404408E0,-9.340379715E0,4.866214991E-1
3.662917310E0,-2.800018787E0,-9.359533310E0,5.584475398E-1
3.665405122E0,-2.852691412E0,-9.369110107E0,6.302735806E-1
3.667892935E0,-2.886210203E0,-9.378686905E0,7.116764784E-1
3.670380747E0,-2.910152197E0,-9.397840500E0,8.505401611E-1
3.672868560E0,-2.900575399E0,-9.416994095E0,9.798270464E-1
3.675356372E0,-2.857479811E0,-9.431359291E0,1.075595140E0
3.677844185E0,-2.814383984E0,-9.455301285E0,1.147421122E0
3.680331997E0,-2.752134800E0,-9.469666481E0,1.233612418E0
3.682819810E0,-2.713827610E0,-9.493608475E0,1.315015316E0
3.685307622E0,-2.656366825E0,-9.493608475E0,1.391629696E0
3.687795435E0,-2.598906040E0,-9.455301285E0,1.410783410E0
3.690283247E0,-2.546233416E0,-9.436147690E0,1.415571809E0
3.692771060E0,-2.493561029E0,-9.426570892E0,1.382052898E0
3.695258872E0,-2.436100245E0,-9.416994095E0,1.348534107E0
3.697746685E0,-2.407369852E0,-9.383475304E0,1.319803715E0
3.700234497E0,-2.383427858E0,-9.354744911E0,1.286284804E0
3.702722310E0,-2.321178436E0,-9.340379715E0,1.238400817E0
3.705210122E0,-2.273294449E0,-9.306860924E0,1.176151633E0
3.707697935E0,-2.239775658E0,-9.297284126E0,1.137844324E0
3.710185747E0,-2.201468468E0,-9.287707329E0,1.099537134E0
3.712673560E0,-2.158372879E0,-9.316437721E0,1.042076349E0
3.715161372E0,-2.139219284E0,-9.340379715E0,9.654618502E-1
3.717649185E0,-2.096123695E0,-9.354744911E0,8.744821548E-1
3.720136997E0,-2.076969862E0,-9.378686905E0,8.026561141E-1
3.722624810E0,-2.057816267E0,-9.416994095E0,7.116764784E-1
3.725112622E0,-2.048239470E0,-9.455301285E0,6.685808301E-1
3.727600435E0,-2.029085875E0,-9.479243279E0,6.446388364E-1
3.730088247E0,-2.038662672E0,-9.517550468E0,6.350619793E-1
3.732576060E0,-2.033874273E0,-9.541492462E0,6.398503780E-1
3.735063872E0,-2.062604666E0,-9.565434456E0,6.398503780E-1
3.737551685E0,-2.072181463E0,-9.570222855E0,6.494272351E-1
3.740039497E0,-2.134430885E0,-9.579799652E0,6.302735806E-1
3.742527310E0,-2.187103271E0,-9.584588051E0,6.302735806E-1
3.745015122E0,-2.268506050E0,-9.575011253E0,6.350619793E-1
3.747502935E0,-2.369062662E0,-9.541492462E0,6.781576276E-1
3.749990747E0,-2.469619036E0,-9.531915665E0,7.164648771E-1
3.752478560E0,-2.565387011E0,-9.517550468E0,7.835025191E-1
3.754966372E0,-2.642001629E0,-9.503185272E0,8.601169586E-1
3.757454185E0,-2.680308819E0,-9.474454880E0,9.463081956E-1
3.759941997E0,-2.709039211E0,-9.469666481E0,1.022922635E0
3.762429810E0,-2.737769604E0,-9.460089684E0,1.080383539E0
3.764917622E0,-2.771288395E0,-9.455301285E0,1.147421122E0
3.767405435E0,-2.795230389E0,-9.431359291E0,1.224035621E0
3.769893247E0,-2.828749418E0,-9.436147690E0,1.257554412E0
3.772381060E0,-2.895787001E0,-9.412205696E0,1.310226917E0
3.774868872E0,-2.953247786E0,-9.402628899E0,1.372476101E0
3.777356685E0,-3.010708570E0,-9.369110107E0,1.405994892E0
3.779844497E0,-3.077746391E0,-9.330802917E0,1.458667397E0
3.782332310E0,-3.092111588E0,-9.297284126E0,1.506551385E0
3.784820122E0,-3.072957993E0,-9.263765335E0,1.540070295E0
3.787307935E0,-3.039438963E0,-9.244611740E0,1.559223890E0
3.789795747E0,-2.991554976E0,-9.225458145E0,1.587954283E0
3.792283560E0,-2.929305792E0,-9.201516151E0,1.607107878E0
3.794771372E0,-2.871845007E0,-9.196727753E0,1.597531080E0
3.797259185E0,-2.809595585E0,-9.177573204E0,1.578377485E0
3.799746997E0,-2.756923199E0,-9.148842812E0,1.568800688E0
3.802234810E0,-2.704250813E0,-9.139266014E0,1.540070295E0
3.804722622E0,-2.637213230E0,-9.105747223E0,1.492186189E0
3.807210435E0,-2.579752445E0,-9.105747223E0,1.463455796E0
3.809698247E0,-2.507926226E0,-9.105747223E0,1.405994892E0
3.812186060E0,-2.412158251E0,-9.115324020E0,1.353322506E0
3.814673872E0,-2.345120668E0,-9.110535622E0,1.310226917E0
3.817161685E0,-2.258929253E0,-9.120112419E0,1.276708007E0
3.819649497E0,-2.196680069E0,-9.167996407E0,1.252766013E0
3.822137310E0,-2.153584480E0,-9.167996407E0,1.209670424E0
3.824625122E0,-2.115277290E0,-9.206304550E0,1.147421122E0
3.827112935E0,-2.067393064E0,-9.215881348E0,1.089960337E0
3.829600747E0,-2.024297476E0,-9.225458145E0,1.037287831E0
3.832088560E0,-1.985990286E0,-9.239823341E0,9.894038439E-1
3.834576372E0,-1.962048292E0,-9.263765335E0,9.032126069E-1
3.837064185E0,-1.947683096E0,-9.258976936E0,8.601169586E-1
3.839551997E0,-1.933317900E0,-9.273342133E0,8.218097091E-1
3.842039810E0,-1.923741102E0,-9.273342133E0,8.074445128E-1
3.844527622E0,-1.923741102E0,-9.263765335E0,7.882909179E-1
3.847015435E0,-1.938106298E0,-9.278130531E0,7.930793166E-1
3.849503247E0,-1.966836691E0,-9.287707329E0,7.882909179E-1
3.851991060E0,-1.981201887E0,-9.297284126E0,7.835025191E-1
3.854478872E0,-1.995567083E0,-9.297284126E0,7.643488646E-1
3.856966685E0,-2.048239470E0,-9.282918930E0,7.404068708E-1
3.859454497E0,-2.096123695E0,-9.287707329E0,7.356184721E-1
3.861942362E0,-2.139219284E0,-9.268553734E0,7.260416746E-1
3.864430227E0,-2.177526474E0,-9.282918930E0,7.356184721E-1
3.866918091E0,-2.206256866E0,-9.282918930E0,7.643488646E-1
3.869405956E0,-2.206256866E0,-9.254188538E0,8.122329116E-1
3.871893820E0,-2.191891670E0,-9.278130531E0,8.936358094E-1
3.874381685E0,-2.163161278E0,-9.306860924E0,1.013345838E0
3.876869549E0,-2.139219284E0,-9.326014519E0,1.104325533E0
3.879357414E0,-2.096123695E0,-9.335591316E0,1.152209520E0
3.881845279E0,-2.048239470E0,-9.359533310E0,1.171363235E0
3.884333143E0,-2.019509077E0,-9.383475304E0,1.190516829E0
3.886821008E0,-2.000355482E0,-9.402628899E0,1.200093627E0
3.889308872E0,-1.981201887E0,-9.407417297E0,1.224035621E0
3.891796737E0,-1.957259893E0,-9.407417297E0,1.247977614E0
3.894284602E0,-1.942894697E0,-9.402628899E0,1.257554412E0
3.896772466E0,-1.904587507E0,-9.402628899E0,1.247977614E0
3.899260331E0,-1.885433793E0,-9.364321709E0,1.233612418E0
3.901748195E0,-1.866280198E0,-9.340379715E0,1.204882026E0
3.904236060E0,-1.842338204E0,-9.321226120E0,1.156997919E0
3.906723924E0,-1.789665818E0,-9.287707329E0,1.109113932E0
3.909211789E0,-1.775300503E0,-9.263765335E0,1.075595140E0
3.911699654E0,-1.770512104E0,-9.249400139E0,1.061229944E0
3.914187518E0,-1.770512104E0,-9.230246544E0,1.051653147E0
3.916675383E0,-1.746570110E0,-9.220669746E0,1.032499433E0
3.919163247E0,-1.756146908E0,-9.211092949E0,1.037287831E0
3.921651112E0,-1.751358509E0,-9.191938400E0,1.046864748E0
3.924138977E0,-1.760935307E0,-9.201516151E0,1.051653147E0
3.926626841E0,-1.770512104E0,-9.196727753E0,1.075595140E0
3.929114706E0,-1.775300503E0,-9.211092949E0,1.104325533E0
3.931602570E0,-1.770512104E0,-9.230246544E0,1.109113932E0
3.934090383E0,-1.765723705E0,-9.239823341E0,1.113902330E0
3.936578195E0,-1.780089021E0,-9.249400139E0,1.085171938E0
3.939066008E0,-1.799242616E0,-9.282918930E0,1.046864748E0
3.941553820E0,-1.827973008E0,-9.292495728E0,1.032499433E0
3.944041633E0,-1.851915002E0,-9.316437721E0,9.894038439E-1
3.946529445E0,-1.885433793E0,-9.349956512E0,9.894038439E-1
3.949017258E0,-1.947683096E0,-9.369110107E0,9.989806414E-1
3.951505070E0,-1.976413488E0,-9.397840500E0,9.941922426E-1
3.953992883E0,-2.033874273E0,-9.426570892E0,1.003769040E0
3.956480695E0,-2.057816267E0,-9.440936089E0,1.022922635E0
3.958968508E0,-2.076969862E0,-9.460089684E0,1.051653147E0
3.961456320E0,-2.105700493E0,-9.474454880E0,1.070806742E0
3.963944133E0,-2.134430885E0,-9.479243279E0,1.066018343E0
3.966431945E0,-2.139219284E0,-9.460089684E0,1.061229944E0
3.968919758E0,-2.153584480E0,-9.460089684E0,1.070806742E0
3.971407570E0,-2.177526474E0,-9.460089684E0,1.089960337E0
3.973895383E0,-2.211045265E0,-9.455301285E0,1.109113932E0
3.976383195E0,-2.230198860E0,-9.445724487E0,1.128267527E0
3.978871008E0,-2.234987259E0,-9.440936089E0,1.137844324E0
3.981358820E0,-2.230198860E0,-9.421782494E0,1.166574836E0
3.983846633E0,-2.244564056E0,-9.393052101E0,1.185728431E0
3.986334445E0,-2.239775658E0,-9.364321709E0,1.185728431E0
3.988822258E0,-2.249352455E0,-9.373898506E0,1.195305228E0
3.991310070E0,-2.244564056E0,-9.354744911E0,1.200093627E0
3.993797883E0,-2.239775658E0,-9.354744911E0,1.185728431E0
3.996285695E0,-2.234987259E0,-9.340379715E0,1.190516829E0
3.998773508E0,-2.244564056E0,-9.316437721E0,1.195305228E0
4.001261320E0,-2.239775658E0,-9.302072525E0,1.190516829E0
4.003749133E0,-2.258929253E0,-9.321226120E0,1.176151633E0
4.006236945E0,-2.311601639E0,-9.326014519E0,1.171363235E0
4.008724758E0,-2.330755472E0,-9.306860924E0,1.113902330E0
4.011212570E0,-2.340332270E0,-9.311649323E0,1.094748735E0
4.013700383E0,-2.364274263E0,-9.321226120E0,1.085171938E0
4.016188195E0,-2.383427858E0,-9.330802917E0,1.080383539E0
4.018676008E0,-2.383427858E0,-9.373898506E0,1.104325533E0
4.021163820E0,-2.397793055E0,-9.393052101E0,1.104325533E0
4.023651633E0,-2.373851061E0,-9.416994095E0,1.113902330E0
4.026139445E0,-2.359485865E0,-9.450512886E0,1.156997919E0
4.028627258E0,-2.349909067E0,-9.474454880E0,1.185728431E0
4.031115070E0,-2.335543871E0,-9.498396873E0,1.200093627E0
4.033602883E0,-2.302024841E0,-9.512762070E0,1.200093627E0
4.036090695E0,-2.287659645E0,-9.541492462E0,1.185728431E0
4.038578508E0,-2.282871246E0,-9.555857658E0,1.185728431E0
4.041066320E0,-2.306813240E0,-9.536704063E0,1.185728431E0
4.043554133E0,-2.340332270E0,-9.507973671E0,1.147421122E0
4.046041945E0,-2.393004656E0,-9.479243279E0,1.123479128E0
4.048529758E0,-2.426523447E0,-9.460089684E0,1.099537134E0
4.051017570E0,-2.464830637E0,-9.450512886E0,1.080383539E0
4.053505383E0,-2.488772631E0,-9.431359291E0,1.080383539E0
4.055993195E0,-2.536656618E0,-9.402628899E0,1.094748735E0
4.058481008E0,-2.551021814E0,-9.393052101E0,1.104325533E0
4.060968820E0,-2.574964046E0,-9.378686905E0,1.104325533E0
4.063456633E0,-2.584540844E0,-9.388263702E0,1.133055925E0
4.065944445E0,-2.598906040E0,-9.369110107E0,1.185728431E0
4.068432258E0,-2.608482838E0,-9.369110107E0,1.228824019E0
4.070920070E0,-2.627636433E0,-9.373898506E0,1.247977614E0
4.073407883E0,-2.637213230E0,-9.383475304E0,1.281496406E0
4.075895695E0,-2.651578426E0,-9.373898506E0,1.315015316E0
4.078383508E0,-2.642001629E0,-9.373898506E0,1.353322506E0
4.080871320E0,-2.656366825E0,-9.397840500E0,1.382052898E0
4.083359133E0,-2.646790028E0,-9.416994095E0,1.382052898E0
4.085846945E0,-2.651578426E0,-9.426570892E0,1.391629696E0
4.088334758E0,-2.651578426E0,-9.421782494E0,1.362899303E0
4.090822570E0,-2.651578426E0,-9.431359291E0,1.343745708E0
4.093310383E0,-2.651578426E0,-9.436147690E0,1.324592113E0
4.095798195E0,-2.642001629E0,-9.436147690E0,1.281496406E0
4.098286008E0,-2.656366825E0,-9.402628899E0,1.214458823E0
4.100773820E0,-2.661155224E0,-9.383475304E0,1.180940032E0
4.103261633E0,-2.646790028E0,-9.354744911E0,1.156997919E0
4.105749445E0,-2.642001629E0,-9.316437721E0,1.152209520E0
4.108237258E0,-2.598906040E0,-9.287707329E0,1.109113932E0
4.110725070E0,-2.570175409E0,-9.244611740E0,1.113902330E0
4.113212883E0,-2.522291422E0,-9.244611740E0,1.137844324E0
4.115700695E0,-2.450465441E0,-9.235034943E0,1.142632723E0
4.118188508E0,-2.364274263E0,-9.230246544E0,1.147421122E0
4.120676320E0,-2.273294449E0,-9.230246544E0,1.161786318E0
4.123164133E0,-2.196680069E0,-9.249400139E0,1.195305228E0
4.125651945E0,-2.124854088E0,-9.254188538E0,1.209670424E0
4.128139758E0,-2.076969862E0,-9.263765335E0,1.252766013E0
4.130627570E0,-1.995567083E0,-9.287707329E0,1.291073322E0
4.133115383E0,-1.957259893E0,-9.297284126E0,1.329380512E0
4.135603195E0,-1.923741102E0,-9.311649323E0,1.367687702E0
4.138091008E0,-1.880645394E0,-9.316437721E0,1.386841297E0
4.140578820E0,-1.851915002E0,-9.321226120E0,1.405994892E0
4.143066633E0,-1.842338204E0,-9.335591316E0,1.405994892E0
4.145554445E0,-1.818396211E0,-9.335591316E0,1.401206493E0
4.148042258E0,-1.789665818E0,-9.373898506E0,1.382052898E0
4.150530070E0,-1.784877419E0,-9.383475304E0,1.353322506E0
4.153017883E0,-1.780089021E0,-9.373898506E0,1.324592113E0
4.155505695E0,-1.789665818E0,-9.388263702E0,1.310226917E0
4.157993508E0,-1.808819413E0,-9.402628899E0,1.295861721E0
4.160481320E0,-1.823184609E0,-9.426570892E0,1.276708007E0
4.162969133E0,-1.856703401E0,-9.431359291E0,1.271919608E0
4.165456945E0,-1.880645394E0,-9.426570892E0,1.224035621E0
4.167944758E0,-1.914164305E0,-9.421782494E0,1.195305228E0
4.170432570E0,-1.933317900E0,-9.421782494E0,1.176151633E0
4.172920383E0,-1.962048292E0,-9.426570892E0,1.156997919E0
4.175408195E0,-1.976413488E0,-9.431359291E0,1.161786318E0
4.177896008E0,-1.995567083E0,-9.436147690E0,1.176151633E0
4.180383820E0,-2.014720678E0,-9.426570892E0,1.166574836E0
4.182871633E0,-2.033874273E0,-9.431359291E0,1.147421122E0
4.185359445E0,-2.067393064E0,-9.421782494E0,1.147421122E0
4.187847258E0,-2.096123695E0,-9.407417297E0,1.147421122E0
4.190335070E0,-2.148796082E0,-9.383475304E0,1.142632723E0
4.192822883E0,-2.158372879E0,-9.373898506E0,1.161786318E0
4.195310695E0,-2.167949677E0,-9.369110107E0,1.166574836E0
4.197798508E0,-2.191891670E0,-9.383475304E0,1.171363235E0
4.200286320E0,-2.172738075E0,-9.378686905E0,1.204882026E0
4.202774133E0,-2.153584480E0,-9.378686905E0,1.233612418E0
4.205261945E0,-2.110488892E0,-9.388263702E0,1.276708007E0
4.207749758E0,-2.081758261E0,-9.378686905E0,1.319803715E0
4.210237570E0,-2.038662672E0,-9.388263702E0,1.377264500E0
4.212725383E0,-2.014720678E0,-9.393052101E0,1.420360208E0
4.215213195E0,-1.990778685E0,-9.402628899E0,1.420360208E0
4.217701008E0,-1.962048292E0,-9.416994095E0,1.429937005E0
4.220188820E0,-1.933317900E0,-9.421782494E0,1.453878999E0
4.222676633E0,-1.895010591E0,-9.431359291E0,1.429937005E0
4.225164445E0,-1.851915002E0,-9.421782494E0,1.410783410E0
4.227652258E0,-1.842338204E0,-9.402628899E0,1.377264500E0
4.230140070E0,-1.799242616E0,-9.397840500E0,1.338957310E0
4.232627883E0,-1.775300503E0,-9.373898506E0,1.291073322E0
4.235115695E0,-1.751358509E0,-9.354744911E0,1.271919608E0
4.237603508E0,-1.751358509E0,-9.326014519E0,1.228824019E0
4.240091320E0,-1.751358509E0,-9.316437721E0,1.200093627E0
4.242579133E0,-1.756146908E0,-9.302072525E0,1.180940032E0
4.245066945E0,-1.756146908E0,-9.292495728E0,1.171363235E0
4.247554758E0,-1.770512104E0,-9.297284126E0,1.166574836E0
4.250042570E0,-1.804031014E0,-9.297284126E0,1.147421122E0
4.252530383E0,-1.842338204E0,-9.282918930E0,1.109113932E0
4.255018195E0,-1.871068597E0,-9.273342133E0,1.056441545E0
4.257506008E0,-1.899798989E0,-9.297284126E0,1.013345838E0
4.259993820E0,-1.918952703E0,-9.306860924E0,9.941922426E-1
4.262481633E0,-1.962048292E0,-9.311649323E0,1.008557439E0
4.264969445E0,-1.981201887E0,-9.326014519E0,1.008557439E0
4.267457258E0,-2.029085875E0,-9.364321709E0,1.022922635E0
4.269945070E0,-2.067393064E0,-9.393052101E0,1.032499433E0
4.272432883E0,-2.105700493E0,-9.421782494E0,1.022922635E0
4.274920695E0,-2.163161278E0,-9.445724487E0,1.061229944E0
4.277408508E0,-2.187103271E0,-9.455301285E0,1.104325533E0
4.279896320E0,-2.225410461E0,-9.474454880E0,1.123479128E0
4.282384133E0,-2.254140854E0,-9.479243279E0,1.156997919E0
4.284871945E0,-2.282871246E0,-9.484031677E0,1.209670424E0
4.287359758E0,-2.321178436E0,-9.479243279E0,1.257554412E0
4.289847570E0,-2.345120668E0,-9.469666481E0,1.286284804E0
4.292335383E0,-2.373851061E0,-9.450512886E0,1.305438519E0
4.294823195E0,-2.412158251E0,-9.431359291E0,1.348534107E0
4.297311060E0,-2.431311846E0,-9.440936089E0,1.382052898E0
4.299798924E0,-2.436100245E0,-9.421782494E0,1.401206493E0
4.302286789E0,-2.440888643E0,-9.407417297E0,1.415571809E0
4.304774654E0,-2.421735048E0,-9.397840500E0,1.415571809E0
4.307262518E0,-2.445677042E0,-9.373898506E0,1.420360208E0
4.309750383E0,-2.440888643E0,-9.364321709E0,1.425148606E0
4.312238247E0,-2.426523447E0,-9.354744911E0,1.444302201E0
4.314726112E0,-2.416946650E0,-9.335591316E0,1.444302201E0
4.317213977E0,-2.378639460E0,-9.321226120E0,1.434725404E0
4.319701841E0,-2.364274263E0,-9.326014519E0,1.415571809E0
4.322189706E0,-2.330755472E0,-9.311649323E0,1.391629696E0
4.324677570E0,-2.306813240E0,-9.311649323E0,1.367687702E0
4.327165435E0,-2.287659645E0,-9.326014519E0,1.348534107E0
4.329653299E0,-2.258929253E0,-9.316437721E0,1.315015316E0
4.332141164E0,-2.215833664E0,-9.306860924E0,1.305438519E0
4.334629029E0,-2.191891670E0,-9.297284126E0,1.324592113E0
4.337116893E0,-2.167949677E0,-9.297284126E0,1.334168911E0
4.339604758E0,-2.167949677E0,-9.278130531E0,1.343745708E0
4.342092622E0,-2.134430885E0,-9.282918930E0,1.334168911E0
4.344580487E0,-2.115277290E0,-9.302072525E0,1.334168911E0
4.347068352E0,-2.105700493E0,-9.306860924E0,1.315015316E0
4.349556216E0,-2.110488892E0,-9.297284126E0,1.305438519E0
4.352044081E0,-2.100912094E0,-9.297284126E0,1.295861721E0
4.354531945E0,-2.100912094E0,-9.302072525E0,1.262342811E0
4.357019810E0,-2.110488892E0,-9.297284126E0,1.252766013E0
4.359507674E0,-2.124854088E0,-9.292495728E0,1.262342811E0
4.361995539E0,-2.144007683E0,-9.306860924E0,1.228824019E0
4.364483404E0,-2.187103271E0,-9.306860924E0,1.224035621E0
4.366971268E0,-2.206256866E0,-9.321226120E0,1.214458823E0
4.369459133E0,-2.211045265E0,-9.330802917E0,1.200093627E0
4.371946945E0,-2.230198860E0,-9.349956512E0,1.224035621E0
4.374434758E0,-2.249352455E0,-9.369110107E0,1.247977614E0
4.376922570E0,-2.258929253E0,-9.393052101E0,1.262342811E0
4.379410383E0,-2.268506050E0,-9.416994095E0,1.315015316E0
4.381898195E0,-2.273294449E0,-9.421782494E0,1.324592113E0
4.384386008E0,-2.282871246E0,-9.426570892E0,1.338957310E0
4.386873820E0,-2.282871246E0,-9.436147690E0,1.353322506E0
4.389361633E0,-2.268506050E0,-9.445724487E0,1.334168911E0
4.391849445E0,-2.249352455E0,-9.440936089E0,1.315015316E0
4.394337258E0,-2.239775658E0,-9.431359291E0,1.324592113E0
4.396825070E0,-2.234987259E0,-9.421782494E0,1.315015316E0
4.399312883E0,-2.244564056E0,-9.402628899E0,1.305438519E0
4.401800695E0,-2.239775658E0,-9.364321709E0,1.286284804E0
4.404288508E0,-2.254140854E0,-9.349956512E0,1.276708007E0
4.406776320E0,-2.254140854E0,-9.326014519E0,1.281496406E0
4.409264133E0,-2.234987259E0,-9.282918930E0,1.291073322E0
4.411751945E0,-2.220622063E0,-9.273342133E0,1.281496406E0
4.414239758E0,-2.182314873E0,-9.273342133E0,1.310226917E0
4.416727570E0,-2.139219284E0,-9.273342133E0,1.324592113E0
4.419215383E0,-2.120065689E0,-9.244611740E0,1.319803715E0
4.421703195E0,-2.067393064E0,-9.258976936E0,1.324592113E0
4.424191008E0,-2.029085875E0,-9.244611740E0,1.353322506E0
4.426678820E0,-1.990778685E0,-9.249400139E0,1.386841297E0
4.429166633E0,-1.971625090E0,-9.258976936E0,1.396418095E0
4.431654445E0,-1.952471495E0,-9.254188538E0,1.410783410E0
4.434142258E0,-1.947683096E0,-9.249400139E0,1.425148606E0
4.436630070E0,-1.928529501E0,-9.249400139E0,1.425148606E0
4.439117883E0,-1.918952703E0,-9.254188538E0,1.429937005E0
4.441605695E0,-1.918952703E0,-9.249400139E0,1.444302201E0
4.444093508E0,-1.923741102E0,-9.268553734E0,1.439513803E0
4.446581320E0,-1.914164305E0,-9.268553734E0,1.434725404E0
4.449069133E0,-1.923741102E0,-9.263765335E0,1.415571809E0
4.451556945E0,-1.938106298E0,-9.273342133E0,1.377264500E0
4.454044758E0,-1.947683096E0,-9.278130531E0,1.348534107E0
4.456532570E0,-1.971625090E0,-9.258976936E0,1.324592113E0
4.459020383E0,-2.000355482E0,-9.268553734E0,1.291073322E0
4.461508195E0,-2.038662672E0,-9.258976936E0,1.286284804E0
4.463996008E0,-2.076969862E0,-9.249400139E0,1.281496406E0
4.466483820E0,-2.120065689E0,-9.239823341E0,1.262342811E0
4.468971633E0,-2.120065689E0,-9.225458145E0,1.262342811E0
4.471459445E0,-2.134430885E0,-9.225458145E0,1.267131209E0
4.473947258E0,-2.158372879E0,-9.230246544E0,1.295861721E0
4.476435070E0,-2.153584480E0,-9.230246544E0,1.305438519E0
4.478922883E0,-2.144007683E0,-9.239823341E0,1.305438519E0
4.481410695E0,-2.153584480E0,-9.230246544E0,1.281496406E0
4.483898508E0,-2.134430885E0,-9.235034943E0,1.281496406E0
4.486386320E0,-2.134430885E0,-9.239823341E0,1.271919608E0
4.488874133E0,-2.144007683E0,-9.244611740E0,1.286284804E0
4.491361945E0,-2.163161278E0,-9.244611740E0,1.286284804E0
4.493849758E0,-2.177526474E0,-9.249400139E0,1.291073322E0
4.496337570E0,-2.172738075E0,-9.268553734E0,1.276708007E0
4.498825383E0,-2.148796082E0,-9.282918930E0,1.271919608E0
4.501313195E0,-2.134430885E0,-9.287707329E0,1.281496406E0
4.503801008E0,-2.105700493E0,-9.297284126E0,1.291073322E0
4.506288820E0,-2.072181463E0,-9.287707329E0,1.310226917E0
4.508776633E0,-2.057816267E0,-9.316437721E0,1.305438519E0
4.511264445E0,-2.048239470E0,-9.340379715E0,1.310226917E0
4.513752258E0,-2.043451071E0,-9.364321709E0,1.315015316E0
4.516240070E0,-2.038662672E0,-9.383475304E0,1.300650120E0
4.518727883E0,-2.043451071E0,-9.373898506E0,1.271919608E0
4.521215695E0,-2.048239470E0,-9.354744911E0,1.247977614E0
4.523703508E0,-2.062604666E0,-9.345168114E0,1.267131209E0
4.526191320E0,-2.086546898E0,-9.340379715E0,1.243189216E0
4.528679133E0,-2.096123695E0,-9.306860924E0,1.243189216E0
4.531166945E0,-2.100912094E0,-9.311649323E0,1.219247222E0
4.533654758E0,-2.086546898E0,-9.326014519E0,1.219247222E0
4.536142570E0,-2.086546898E0,-9.311649323E0,1.219247222E0
4.538630383E0,-2.086546898E0,-9.311649323E0,1.224035621E0
4.541118195E0,-2.076969862E0,-9.316437721E0,1.233612418E0
4.543606008E0,-2.081758261E0,-9.321226120E0,1.224035621E0
4.546093820E0,-2.076969862E0,-9.326014519E0,1.252766013E0
4.548581633E0,-2.067393064E0,-9.345168114E0,1.257554412E0
4.551069445E0,-2.076969862E0,-9.349956512E0,1.271919608E0
4.553557258E0,-2.076969862E0,-9.364321709E0,1.262342811E0
4.556045070E0,-2.067393064E0,-9.364321709E0,1.271919608E0
4.558532883E0,-2.076969862E0,-9.364321709E0,1.300650120E0
4.561020695E0,-2.076969862E0,-9.373898506E0,1.300650120E0
4.563508508E0,-2.081758261E0,-9.359533310E0,1.291073322E0
4.565996320E0,-2.091335297E0,-9.340379715E0,1.295861721E0
4.568484133E0,-2.110488892E0,-9.326014519E0,1.315015316E0
4.570971945E0,-2.124854088E0,-9.311649323E0,1.324592113E0
4.573459758E0,-2.144007683E0,-9.292495728E0,1.319803715E0
4.575947570E0,-2.153584480E0,-9.273342133E0,1.319803715E0
4.578435383E0,-2.163161278E0,-9.239823341E0,1.334168911E0
4.580923195E0,-2.153584480E0,-9.249400139E0,1.329380512E0
4.583411008E0,-2.163161278E0,-9.249400139E0,1.329380512E0
4.585898820E0,-2.158372879E0,-9.249400139E0,1.334168911E0
4.588386633E0,-2.153584480E0,-9.249400139E0,1.324592113E0
4.590874445E0,-2.153584480E0,-9.263765335E0,1.300650120E0
4.593362258E0,-2.158372879E0,-9.268553734E0,1.286284804E0
4.595850070E0,-2.144007683E0,-9.268553734E0,1.276708007E0
4.598337883E0,-2.139219284E0,-9.278130531E0,1.276708007E0
4.600825695E0,-2.153584480E0,-9.287707329E0,1.271919608E0
4.603313508E0,-2.148796082E0,-9.287707329E0,1.300650120E0
4.605801320E0,-2.148796082E0,-9.282918930E0,1.310226917E0
4.608289133E0,-2.172738075E0,-9.278130531E0,1.324592113E0
4.610776945E0,-2.158372879E0,-9.282918930E0,1.338957310E0
4.613264758E0,-2.144007683E0,-9.287707329E0,1.338957310E0
4.615752570E0,-2.134430885E0,-9.278130531E0,1.334168911E0
4.618240383E0,-2.134430885E0,-9.297284126E0,1.343745708E0
4.620728195E0,-2.134430885E0,-9.321226120E0,1.362899303E0
4.623216008E0,-2.115277290E0,-9.316437721E0,1.358110905E0
4.625703820E0,-2.100912094E0,-9.326014519E0,1.367687702E0
4.628191633E0,-2.091335297E0,-9.316437721E0,1.362899303E0
4.630679445E0,-2.081758261E0,-9.311649323E0,1.386841297E0
4.633167258E0,-2.091335297E0,-9.316437721E0,1.396418095E0
4.635655070E0,-2.086546898E0,-9.316437721E0,1.396418095E0
4.638142883E0,-2.076969862E0,-9.311649323E0,1.396418095E0
4.640630695E0,-2.076969862E0,-9.311649323E0,1.396418095E0
4.643118508E0,-2.057816267E0,-9.321226120E0,1.382052898E0
4.645606320E0,-2.043451071E0,-9.340379715E0,1.382052898E0
4.648094133E0,-2.029085875E0,-9.354744911E0,1.372476101E0
4.650581945E0,-2.005143881E0,-9.349956512E0,1.358110905E0
4.653069758E0,-1.995567083E0,-9.349956512E0,1.334168911E0
4.655557570E0,-2.009932280E0,-9.359533310E0,1.319803715E0
4.658045383E0,-2.000355482E0,-9.349956512E0,1.324592113E0
4.660533195E0,-2.019509077E0,-9.340379715E0,1.305438519E0
4.663021060E0,-2.033874273E0,-9.340379715E0,1.286284804E0
4.665508924E0,-2.043451071E0,-9.340379715E0,1.262342811E0
4.667996789E0,-2.067393064E0,-9.345168114E0,1.252766013E0
4.670484654E0,-2.072181463E0,-9.349956512E0,1.257554412E0
4.672972518E0,-2.081758261E0,-9.349956512E0,1.271919608E0
4.675460383E0,-2.086546898E0,-9.369110107E0,1.276708007E0
4.677948247E0,-2.096123695E0,-9.393052101E0,1.276708007E0
4.680436112E0,-2.100912094E0,-9.402628899E0,1.286284804E0
4.682923977E0,-2.124854088E0,-9.412205696E0,1.305438519E0
4.685411841E0,-2.144007683E0,-9.421782494E0,1.315015316E0
4.687899706E0,-2.163161278E0,-9.440936089E0,1.338957310E0
4.690387570E0,-2.182314873E0,-9.460089684E0,1.358110905E0
4.692875435E0,-2.211045265E0,-9.455301285E0,1.358110905E0
4.695363299E0,-2.206256866E0,-9.464878082E0,1.348534107E0
4.697851164E0,-2.211045265E0,-9.445724487E0,1.362899303E0
4.700339029E0,-2.211045265E0,-9.460089684E0,1.372476101E0
4.702826893E0,-2.215833664E0,-9.455301285E0,1.353322506E0
4.705314758E0,-2.215833664E0,-9.450512886E0,1.358110905E0
4.707802622E0,-2.230198860E0,-9.426570892E0,1.372476101E0
4.710290487E0,-2.254140854E0,-9.431359291E0,1.358110905E0
4.712778352E0,-2.273294449E0,-9.416994095E0,1.353322506E0
4.715266216E0,-2.263717651E0,-9.412205696E0,1.338957310E0
4.717754081E0,-2.263717651E0,-9.421782494E0,1.319803715E0
4.720241945E0,-2.254140854E0,-9.416994095E0,1.286284804E0
4.722729810E0,-2.234987259E0,-9.397840500E0,1.262342811E0
4.725217674E0,-2.234987259E0,-9.378686905E0,1.228824019E0
4.727705539E0,-2.258929253E0,-9.364321709E0,1.228824019E0
4.730193404E0,-2.258929253E0,-9.359533310E0,1.214458823E0
4.732681268E0,-2.258929253E0,-9.359533310E0,1.233612418E0
4.735169133E0,-2.254140854E0,-9.345168114E0,1.224035621E0
4.737656997E0,-2.230198860E0,-9.340379715E0,1.233612418E0
4.740144810E0,-2.211045265E0,-9.340379715E0,1.267131209E0
4.742632622E0,-2.187103271E0,-9.340379715E0,1.300650120E0
4.745120435E0,-2.144007683E0,-9.330802917E0,1.358110905E0
4.747608247E0,-2.124854088E0,-9.335591316E0,1.396418095E0
4.750096060E0,-2.076969862E0,-9.330802917E0,1.453878999E0
4.752583872E0,-2.053027868E0,-9.354744911E0,1.506551385E0
4.755071685E0,-2.048239470E0,-9.349956512E0,1.516128182E0
4.757559497E0,-2.014720678E0,-9.364321709E0,1.520916581E0
4.760047310E0,-2.019509077E0,-9.364321709E0,1.516128182E0
4.762535122E0,-2.029085875E0,-9.359533310E0,1.487397790E0
4.765022935E0,-2.029085875E0,-9.359533310E0,1.453878999E0
4.767510747E0,-2.033874273E0,-9.364321709E0,1.420360208E0
4.769998560E0,-2.043451071E0,-9.364321709E0,1.415571809E0
4.772486372E0,-2.057816267E0,-9.359533310E0,1.396418095E0
4.774974185E0,-2.076969862E0,-9.349956512E0,1.362899303E0
4.777461997E0,-2.081758261E0,-9.349956512E0,1.362899303E0
4.779949810E0,-2.105700493E0,-9.354744911E0,1.353322506E0
4.782437622E0,-2.115277290E0,-9.369110107E0,1.334168911E0
4.784925435E0,-2.139219284E0,-9.364321709E0,1.334168911E0
4.787413247E0,-2.153584480E0,-9.364321709E0,1.329380512E0
4.789901060E0,-2.153584480E0,-9.369110107E0,1.343745708E0
4.792388872E0,-2.158372879E0,-9.383475304E0,1.377264500E0
4.794876685E0,-2.148796082E0,-9.393052101E0,1.367687702E0
4.797364497E0,-2.158372879E0,-9.416994095E0,1.358110905E0
4.799852310E0,-2.177526474E0,-9.412205696E0,1.338957310E0
4.802340122E0,-2.158372879E0,-9.412205696E0,1.315015316E0
4.804827935E0,-2.172738075E0,-9.407417297E0,1.276708007E0
4.807315747E0,-2.191891670E0,-9.416994095E0,1.257554412E0
4.809803560E0,-2.215833664E0,-9.426570892E0,1.238400817E0
4.812291372E0,-2.220622063E0,-9.431359291E0,1.219247222E0
4.814779185E0,-2.211045265E0,-9.440936089E0,1.228824019E0
4.817266997E0,-2.196680069E0,-9.445724487E0,1.228824019E0
4.819754810E0,-2.163161278E0,-9.469666481E0,1.228824019E0
4.822242622E0,-2.134430885E0,-9.469666481E0,1.243189216E0
4.824730435E0,-2.105700493E0,-9.479243279E0,1.257554412E0
4.827218247E0,-2.067393064E0,-9.474454880E0,1.243189216E0
4.829706060E0,-2.009932280E0,-9.484031677E0,1.238400817E0
4.832193872E0,-1.962048292E0,-9.479243279E0,1.252766013E0
4.834681685E0,-1.942894697E0,-9.479243279E0,1.291073322E0
4.837169497E0,-1.890222192E0,-9.479243279E0,1.262342811E0
4.839657310E0,-1.885433793E0,-9.464878082E0,1.247977614E0
4.842145122E0,-1.880645394E0,-9.464878082E0,1.195305228E0
4.844632935E0,-1.890222192E0,-9.445724487E0,1.190516829E0
4.847120747E0,-1.904587507E0,-9.421782494E0,1.161786318E0
4.849608560E0,-1.933317900E0,-9.412205696E0,1.128267527E0
4.852096372E0,-1.923741102E0,-9.407417297E0,1.094748735E0
4.854584185E0,-1.938106298E0,-9.388263702E0,1.109113932E0
4.857071997E0,-1.947683096E0,-9.378686905E0,1.109113932E0
4.859559810E0,-1.957259893E0,-9.359533310E0,1.133055925E0
4.862047622E0,-1.962048292E0,-9.354744911E0,1.156997919E0
4.864535435E0,-1.971625090E0,-9.354744911E0,1.195305228E0
4.867023247E0,-1.952471495E0,-9.335591316E0,1.228824019E0
4.869511060E0,-1.981201887E0,-9.316437721E0,1.267131209E0
4.871998872E0,-1.995567083E0,-9.287707329E0,1.291073322E0
4.874486685E0,-2.029085875E0,-9.287707329E0,1.291073322E0
4.876974497E0,-2.062604666E0,-9.278130531E0,1.286284804E0
4.879462310E0,-2.100912094E0,-9.287707329E0,1.305438519E0
4.881950122E0,-2.167949677E0,-9.311649323E0,1.324592113E0
4.884437935E0,-2.206256866E0,-9.316437721E0,1.319803715E0
4.886925747E0,-2.258929253E0,-9.330802917E0,1.305438519E0
4.889413560E0,-2.297236443E0,-9.354744911E0,1.319803715E0
4.891901372E0,-2.335543871E0,-9.369110107E0,1.329380512E0
4.894389185E0,-2.364274263E0,-9.354744911E0,1.353322506E0
4.896876997E0,-2.354697466E0,-9.354744911E0,1.362899303E0
4.899364810E0,-2.354697466E0,-9.373898506E0,1.362899303E0
4.901852622E0,-2.359485865E0,-9.388263702E0,1.382052898E0
4.904340435E0,-2.349909067E0,-9.369110107E0,1.405994892E0
4.906828247E0,-2.335543871E0,-9.369110107E0,1.425148606E0
4.909316060E0,-2.335543871E0,-9.369110107E0,1.429937005E0
4.911803872E0,-2.321178436E0,-9.373898506E0,1.410783410E0
4.914291685E0,-2.297236443E0,-9.354744911E0,1.401206493E0
4.916779497E0,-2.282871246E0,-9.354744911E0,1.410783410E0
4.919267310E0,-2.258929253E0,-9.345168114E0,1.420360208E0
4.921755122E0,-2.234987259E0,-9.326014519E0,1.396418095E0
4.924242935E0,-2.215833664E0,-9.302072525E0,1.372476101E0
4.926730747E0,-2.177526474E0,-9.282918930E0,1.372476101E0
4.929218560E0,-2.153584480E0,-9.263765335E0,1.343745708E0
4.931706372E0,-2.124854088E0,-9.263765335E0,1.310226917E0
4.934194185E0,-2.072181463E0,-9.258976936E0,1.291073322E0
4.936681997E0,-2.029085875E0,-9.235034943E0,1.257554412E0
4.939169810E0,-2.014720678E0,-9.220669746E0,1.228824019E0
4.941657622E0,-1.990778685E0,-9.211092949E0,1.233612418E0
4.944145435E0,-1.957259893E0,-9.220669746E0,1.228824019E0
4.946633247E0,-1.938106298E0,-9.230246544E0,1.243189216E0
4.949121060E0,-1.909375906E0,-9.239823341E0,1.257554412E0
4.951608872E0,-1.890222192E0,-9.235034943E0,1.267131209E0
4.954096685E0,-1.847126603E0,-9.263765335E0,1.291073322E0
4.956584497E0,-1.818396211E0,-9.273342133E0,1.300650120E0
4.959072310E0,-1.794454217E0,-9.292495728E0,1.291073322E0
4.961560122E0,-1.789665818E0,-9.297284126E0,1.257554412E0
4.964047935E0,-1.784877419E0,-9.292495728E0,1.233612418E0
4.966535747E0,-1.799242616E0,-9.302072525E0,1.219247222E0
4.969023560E0,-1.818396211E0,-9.302072525E0,1.204882026E0
4.971511372E0,-1.847126603E0,-9.297284126E0,1.200093627E0
4.973999185E0,-1.880645394E0,-9.311649323E0,1.180940032E0
4.976486997E0,-1.928529501E0,-9.287707329E0,1.152209520E0
4.978974810E0,-1.966836691E0,-9.273342133E0,1.171363235E0
4.981462622E0,-2.014720678E0,-9.268553734E0,1.185728431E0
4.983950435E0,-2.057816267E0,-9.273342133E0,1.219247222E0
4.986438247E0,-2.057816267E0,-9.263765335E0,1.224035621E0
4.988926060E0,-2.081758261E0,-9.268553734E0,1.238400817E0
4.991413872E0,-2.096123695E0,-9.263765335E0,1.281496406E0
4.993901685E0,-2.100912094E0,-9.278130531E0,1.300650120E0
4.996389497E0,-2.096123695E0,-9.287707329E0,1.329380512E0
4.998877310E0,-2.091335297E0,-9.306860924E0,1.334168911E0
5.001365122E0,-2.091335297E0,-9.321226120E0,1.343745708E0
5.003852935E0,-2.091335297E0,-9.335591316E0,1.343745708E0
5.006340799E0,-2.105700493E0,-9.345168114E0,1.362899303E0
5.008828664E0,-2.096123695E0,-9.359533310E0,1.377264500E0
5.011316529E0,-2.096123695E0,-9.369110107E0,1.386841297E0
5.013804393E0,-2.091335297E0,-9.369110107E0,1.420360208E0
5.016292258E0,-2.076969862E0,-9.369110107E0,1.439513803E0
5.018780122E0,-2.076969862E0,-9.369110107E0,1.458667397E0
5.021267987E0,-2.072181463E0,-9.378686905E0,1.439513803E0
5.023755852E0,-2.057816267E0,-9.359533310E0,1.444302201E0
5.026243716E0,-2.067393064E0,-9.364321709E0,1.444302201E0
5.028731581E0,-2.062604666E0,-9.378686905E0,1.439513803E0
5.031219445E0,-2.038662672E0,-9.378686905E0,1.429937005E0
5.033707310E0,-2.009932280E0,-9.373898506E0,1.405994892E0
5.036195174E0,-1.976413488E0,-9.349956512E0,1.377264500E0
5.038683039E0,-1.957259893E0,-9.340379715E0,1.367687702E0
5.041170904E0,-1.942894697E0,-9.345168114E0,1.348534107E0
5.043658768E0,-1.918952703E0,-9.335591316E0,1.324592113E0
5.046146633E0,-1.899798989E0,-9.330802917E0,1.338957310E0
5.048634497E0,-1.890222192E0,-9.335591316E0,1.305438519E0
5.051122362E0,-1.871068597E0,-9.345168114E0,1.291073322E0
5.053610227E0,-1.866280198E0,-9.345168114E0,1.271919608E0
5.056098091E0,-1.875856996E0,-9.345168114E0,1.257554412E0
5.058585956E0,-1.875856996E0,-9.349956512E0,1.243189216E0
5.061073820E0,-1.885433793E0,-9.345168114E0,1.238400817E0
5.063561685E0,-1.871068597E0,-9.340379715E0,1.238400817E0
5.066049549E0,-1.866280198E0,-9.340379715E0,1.247977614E0
5.068537414E0,-1.880645394E0,-9.340379715E0,1.262342811E0
5.071025279E0,-1.880645394E0,-9.340379715E0,1.267131209E0
5.073513143E0,-1.895010591E0,-9.340379715E0,1.262342811E0
5.076001008E0,-1.909375906E0,-9.345168114E0,1.271919608E0
5.078488872E0,-1.938106298E0,-9.326014519E0,1.267131209E0
5.080976737E0,-1.971625090E0,-9.326014519E0,1.276708007E0
5.083464602E0,-1.966836691E0,-9.316437721E0,1.291073322E0
5.085952414E0,-1.995567083E0,-9.306860924E0,1.295861721E0
5.088440227E0,-2.000355482E0,-9.302072525E0,1.300650120E0
5.090928039E0,-2.019509077E0,-9.287707329E0,1.286284804E0
5.093415852E0,-2.019509077E0,-9.268553734E0,1.291073322E0
5.095903664E0,-2.024297476E0,-9.254188538E0,1.305438519E0
5.098391477E0,-2.038662672E0,-9.268553734E0,1.324592113E0
5.100879289E0,-2.053027868E0,-9.273342133E0,1.343745708E0
5.103367102E0,-2.067393064E0,-9.268553734E0,1.367687702E0
5.105854914E0,-2.062604666E0,-9.258976936E0,1.372476101E0
5.108342727E0,-2.053027868E0,-9.263765335E0,1.396418095E0
5.110830539E0,-2.043451071E0,-9.254188538E0,1.420360208E0
