"Time (s)","Gyroscope x (rad/s)","Gyroscope y (rad/s)","Gyroscope z (rad/s)"
4.586697900E-2,1.035968885E-1,8.828372508E-2,-9.321057051E-2
4.835473900E-2,1.035968885E-1,8.402267098E-2,-9.534109384E-2
5.084249900E-2,1.025316268E-1,8.082687855E-2,-9.747162461E-2
5.333026000E-2,1.014663652E-1,7.763108611E-2,-1.006674170E-1
5.581802000E-2,1.004010960E-1,7.443529367E-2,-1.027979404E-1
5.830578100E-2,9.827057272E-2,7.230477035E-2,-1.049284711E-1
6.079354100E-2,9.614004195E-2,7.123950869E-2,-1.070589945E-1
6.328130100E-2,9.400951862E-2,6.910897791E-2,-1.091895252E-1
6.576906200E-2,9.187898785E-2,6.804371625E-2,-1.102547869E-1
6.825682200E-2,8.974846452E-2,6.804371625E-2,-1.113200486E-1
7.074458300E-2,8.761793375E-2,6.804371625E-2,-1.113200486E-1
7.323234300E-2,8.655267209E-2,6.910897791E-2,-1.102547869E-1
7.572010400E-2,8.548741043E-2,7.017423958E-2,-1.081242561E-1
7.820786400E-2,8.442214131E-2,7.123950869E-2,-1.059937328E-1
8.069562400E-2,8.335687965E-2,7.230477035E-2,-1.027979404E-1
8.318338500E-2,8.335687965E-2,7.337003201E-2,-1.006674170E-1
8.567114500E-2,8.335687965E-2,7.443529367E-2,-9.747162461E-2
8.815890600E-2,8.335687965E-2,7.443529367E-2,-9.427583218E-2
9.064666600E-2,8.335687965E-2,7.550056279E-2,-9.108003974E-2
9.313442600E-2,8.335687965E-2,7.443529367E-2,-8.681898564E-2
9.562218700E-2,8.335687965E-2,7.337003201E-2,-8.255793154E-2
9.810994700E-2,8.335687965E-2,7.230477035E-2,-7.936213911E-2
1.005977080E-1,8.335687965E-2,7.123950869E-2,-7.510108501E-2
1.030854680E-1,8.229161799E-2,6.910897791E-2,-7.084003091E-2
1.055732290E-1,8.122635633E-2,6.697845459E-2,-6.657897681E-2
1.080609890E-1,8.016108721E-2,6.378266215E-2,-6.231792271E-2
1.105487490E-1,7.803056389E-2,6.165213138E-2,-5.912213027E-2
1.130365100E-1,7.590003312E-2,5.739107728E-2,-5.486107618E-2
1.155242700E-1,7.376950979E-2,5.419528857E-2,-5.273054913E-2
1.180120310E-1,7.163897902E-2,4.993423447E-2,-5.060002208E-2
1.204997910E-1,6.844318658E-2,4.673844203E-2,-4.740423337E-2
1.229875510E-1,6.631266326E-2,4.141212255E-2,-4.420844093E-2
1.254753120E-1,6.205160543E-2,3.821633384E-2,-4.101264849E-2
1.279630720E-1,5.779055133E-2,3.395527974E-2,-3.888212144E-2
1.304508330E-1,5.352949724E-2,3.075948730E-2,-3.568633273E-2
1.329385930E-1,4.820318148E-2,2.756369673E-2,-3.142527863E-2
1.354263540E-1,4.287686199E-2,2.436790615E-2,-2.822948620E-2
1.379141140E-1,3.968106955E-2,2.117211558E-2,-2.503369562E-2
1.404018740E-1,3.648528084E-2,1.797632314E-2,-1.970737800E-2
1.428896350E-1,3.435475379E-2,1.584579609E-2,-1.651158556E-2
1.453773950E-1,3.222422674E-2,1.478053257E-2,-1.331579592E-2
1.478651560E-1,3.115896136E-2,1.371526904E-2,-9.054740891E-3
1.503529160E-1,2.902843431E-2,1.478053257E-2,-5.858949851E-3
1.528406760E-1,2.796317078E-2,1.478053257E-2,-3.728422802E-3
1.553284370E-1,2.796317078E-2,1.584579609E-2,-1.597895520E-3
1.578161970E-1,2.796317078E-2,1.797632314E-2,5.326318205E-4
1.603039580E-1,2.689790726E-2,2.010685205E-2,4.793686327E-3
1.627917180E-1,2.689790726E-2,2.223737910E-2,7.989477366E-3
1.652794790E-1,2.689790726E-2,2.436790615E-2,1.012000442E-2
1.677672390E-1,2.796317078E-2,2.649843320E-2,1.331579592E-2
1.702549990E-1,2.902843431E-2,2.862896025E-2,1.651158556E-2
1.727427600E-1,2.902843431E-2,2.862896025E-2,1.970737800E-2
1.752305200E-1,3.115896136E-2,2.862896025E-2,2.183790505E-2
1.777182810E-1,3.222422674E-2,2.862896025E-2,2.503369562E-2
1.802060410E-1,3.222422674E-2,2.756369673E-2,2.716422267E-2
1.826938010E-1,3.328948840E-2,2.543316968E-2,2.929474972E-2
1.851815620E-1,3.435475379E-2,2.436790615E-2,3.036001325E-2
1.876693220E-1,3.435475379E-2,2.330264263E-2,3.249054030E-2
1.901570830E-1,3.542001545E-2,2.223737910E-2,3.355580568E-2
1.926448430E-1,3.648528084E-2,2.117211558E-2,3.462106735E-2
1.951326040E-1,3.755054250E-2,1.904158667E-2,3.675159439E-2
1.976203640E-1,3.861580789E-2,1.797632314E-2,3.781685978E-2
2.001081240E-1,4.074633494E-2,1.691105962E-2,3.781685978E-2
2.025958850E-1,4.181159660E-2,1.478053257E-2,3.888212144E-2
2.050836450E-1,4.287686199E-2,1.158474199E-2,3.781685978E-2
2.075714060E-1,4.607265070E-2,7.323687430E-3,3.888212144E-2
2.100591660E-1,4.820318148E-2,4.127896391E-3,3.781685978E-2
2.125469260E-1,5.033370852E-2,1.997369342E-3,3.675159439E-2
2.150346870E-1,5.246423557E-2,-1.198421582E-3,3.568633273E-2
2.175224470E-1,5.352949724E-2,-3.328948980E-3,3.462106735E-2
2.200102080E-1,5.459476262E-2,-6.524739787E-3,3.355580568E-2
2.224979680E-1,5.459476262E-2,-9.720530361E-3,3.142527863E-2
2.249857290E-1,5.352949724E-2,-1.398158539E-2,3.036001325E-2
2.274734890E-1,5.246423557E-2,-1.824264042E-2,2.929474972E-2
2.299612490E-1,5.033370852E-2,-2.356895804E-2,2.716422267E-2
2.324490100E-1,4.713791609E-2,-2.996053919E-2,2.716422267E-2
2.349367700E-1,4.500738904E-2,-3.741738573E-2,2.716422267E-2
2.374245310E-1,4.181159660E-2,-4.487423226E-2,2.716422267E-2
2.399122910E-1,3.861580789E-2,-5.126581341E-2,2.822948620E-2
2.424000510E-1,3.542001545E-2,-5.765739456E-2,2.929474972E-2
2.448878120E-1,3.222422674E-2,-6.191844866E-2,3.142527863E-2
2.473755720E-1,3.009369783E-2,-6.511423737E-2,3.355580568E-2
2.498633330E-1,2.796317078E-2,-6.617950648E-2,3.675159439E-2
2.523510930E-1,2.689790726E-2,-6.511423737E-2,3.994738683E-2
2.548388540E-1,2.583264373E-2,-6.191844866E-2,4.207791388E-2
2.573266140E-1,2.476738021E-2,-5.659212917E-2,4.527370632E-2
2.598143740E-1,2.476738021E-2,-5.126581341E-2,4.953476042E-2
2.623021350E-1,2.370211668E-2,-4.487423226E-2,5.166528746E-2
2.647898950E-1,2.476738021E-2,-3.848264739E-2,5.379581451E-2
2.672776560E-1,2.476738021E-2,-3.209106624E-2,5.486107618E-2
2.697654160E-1,2.476738021E-2,-2.676474862E-2,5.592634156E-2
2.722531760E-1,2.476738021E-2,-2.250369452E-2,5.592634156E-2
2.747409370E-1,2.476738021E-2,-1.824264042E-2,5.699160323E-2
2.772286970E-1,2.583264373E-2,-1.398158539E-2,5.805686861E-2
2.797164580E-1,2.583264373E-2,-1.078579482E-2,5.805686861E-2
2.822042180E-1,2.796317078E-2,-8.655266836E-3,5.805686861E-2
2.846919790E-1,2.796317078E-2,-5.459476262E-3,5.912213027E-2
2.871797390E-1,2.902843431E-2,-2.263685223E-3,5.912213027E-2
2.896674990E-1,3.115896136E-2,9.321057005E-4,5.805686861E-2
2.921552600E-1,3.222422674E-2,3.062632866E-3,5.592634156E-2
2.946430720E-1,3.435475379E-2,4.127896391E-3,5.379581451E-2
2.971308850E-1,3.648528084E-2,6.258423906E-3,5.060002208E-2
2.996186970E-1,3.755054250E-2,6.258423906E-3,4.527370632E-2
3.021065100E-1,3.755054250E-2,6.258423906E-3,3.994738683E-2
3.045943220E-1,3.755054250E-2,4.127896391E-3,3.355580568E-2
3.070821350E-1,3.755054250E-2,9.321057005E-4,2.822948620E-2
3.095699470E-1,3.648528084E-2,-4.394212738E-3,2.290316857E-2
3.120577600E-1,3.435475379E-2,-1.078579482E-2,1.757685095E-2
3.145455720E-1,3.222422674E-2,-1.717737690E-2,1.225053146E-2
3.170333850E-1,2.902843431E-2,-2.569948509E-2,9.054740891E-3
3.195211970E-1,2.476738021E-2,-3.315633163E-2,7.989477366E-3
3.220090100E-1,2.157158963E-2,-4.061317816E-2,6.924213842E-3
3.244968220E-1,1.731053367E-2,-4.700475931E-2,6.924213842E-3
3.269846350E-1,1.411474310E-2,-5.233107507E-2,6.924213842E-3
3.294724470E-1,1.198421605E-2,-5.552686751E-2,7.989477366E-3
3.319602600E-1,9.853689000E-3,-5.765739456E-2,9.054740891E-3
3.344480720E-1,8.788425475E-3,-5.765739456E-2,1.012000442E-2
3.369358850E-1,7.723161485E-3,-5.552686751E-2,1.225053146E-2
3.394236970E-1,6.657897960E-3,-5.233107507E-2,1.331579592E-2
3.419115100E-1,5.592633970E-3,-4.807002097E-2,1.651158556E-2
3.443993220E-1,5.592633970E-3,-4.274370521E-2,1.864211448E-2
3.468871350E-1,6.657897960E-3,-3.741738573E-2,2.290316857E-2
3.493749470E-1,7.723161485E-3,-3.102580272E-2,2.822948620E-2
3.518627600E-1,9.853689000E-3,-2.356895804E-2,3.355580568E-2
3.543505720E-1,1.198421605E-2,-1.611211337E-2,3.888212144E-2
3.568383850E-1,1.518000662E-2,-9.720530361E-3,4.420844093E-2
3.593261970E-1,1.837579720E-2,-1.198421582E-3,5.060002208E-2
3.618140100E-1,2.157158963E-2,5.193160381E-3,5.486107618E-2
3.643018220E-1,2.476738021E-2,1.371526904E-2,5.912213027E-2
3.667896350E-1,2.796317078E-2,2.010685205E-2,6.125266105E-2
3.692780720E-1,2.902843431E-2,2.436790615E-2,6.231792271E-2
3.717653120E-1,3.115896136E-2,2.756369673E-2,6.231792271E-2
3.742525510E-1,3.222422674E-2,2.862896025E-2,6.125266105E-2
3.767397910E-1,3.328948840E-2,2.756369673E-2,6.125266105E-2
3.792270830E-1,3.328948840E-2,2.649843320E-2,5.912213027E-2
3.817144260E-1,3.328948840E-2,2.223737910E-2,5.805686861E-2
3.842018220E-1,3.222422674E-2,1.904158667E-2,5.805686861E-2
3.866893220E-1,3.115896136E-2,1.265000552E-2,5.699160323E-2
3.891769260E-1,2.902843431E-2,7.323687430E-3,5.699160323E-2
3.916646350E-1,2.796317078E-2,9.321057005E-4,5.805686861E-2
3.941524470E-1,2.476738021E-2,-4.394212738E-3,5.699160323E-2
3.966403640E-1,2.263685316E-2,-1.078579482E-2,5.592634156E-2
3.991283850E-1,2.050632425E-2,-1.717737690E-2,5.486107618E-2
4.016164580E-1,1.731053367E-2,-2.250369452E-2,5.486107618E-2
4.041045830E-1,1.624527015E-2,-2.676474862E-2,5.379581451E-2
4.065927600E-1,1.411474310E-2,-3.102580272E-2,5.273054913E-2
4.090809370E-1,1.304947957E-2,-3.422159329E-2,5.166528746E-2
4.115691140E-1,1.198421605E-2,-3.635212034E-2,5.166528746E-2
4.140572910E-1,9.853689000E-3,-3.635212034E-2,5.166528746E-2
4.165453120E-1,8.788425475E-3,-3.741738573E-2,5.166528746E-2
4.190330720E-1,8.788425475E-3,-3.848264739E-2,5.060002208E-2
4.215208330E-1,6.657897960E-3,-3.741738573E-2,5.166528746E-2
4.240085930E-1,4.527370445E-3,-3.741738573E-2,5.060002208E-2
4.264963540E-1,2.396843163E-3,-3.741738573E-2,5.166528746E-2
4.289841140E-1,2.663159103E-4,-3.635212034E-2,5.166528746E-2
4.314718740E-1,-1.864211401E-3,-3.422159329E-2,5.166528746E-2
4.339596350E-1,-3.994738683E-3,-3.422159329E-2,5.166528746E-2
4.364473950E-1,-6.125265732E-3,-3.209106624E-2,5.273054913E-2
4.389351560E-1,-8.255792782E-3,-3.102580272E-2,5.273054913E-2
4.414229160E-1,-8.255792782E-3,-2.996053919E-2,5.273054913E-2
4.439106760E-1,-9.321057238E-3,-2.889527567E-2,5.273054913E-2
4.463984370E-1,-1.038632076E-2,-2.783001214E-2,5.273054913E-2
4.488861970E-1,-1.251684781E-2,-2.783001214E-2,5.166528746E-2
4.513739580E-1,-1.464737486E-2,-2.783001214E-2,4.953476042E-2
4.538617180E-1,-1.677790284E-2,-2.783001214E-2,4.633896798E-2
4.563494790E-1,-1.890842989E-2,-2.783001214E-2,4.314317927E-2
4.588372390E-1,-2.210422046E-2,-2.889527567E-2,3.994738683E-2
4.613249990E-1,-2.636527456E-2,-2.996053919E-2,3.568633273E-2
4.638127600E-1,-3.062633052E-2,-3.209106624E-2,3.142527863E-2
4.663005200E-1,-3.595264629E-2,-3.528685868E-2,2.716422267E-2
4.687882810E-1,-4.127896577E-2,-3.848264739E-2,2.290316857E-2
4.712760410E-1,-4.554001987E-2,-4.274370521E-2,1.864211448E-2
4.737638010E-1,-5.086633936E-2,-4.807002097E-2,1.544632297E-2
4.762515620E-1,-5.406212807E-2,-5.339634046E-2,1.225053146E-2
4.787393220E-1,-5.832318589E-2,-5.872265995E-2,1.012000442E-2
4.812270830E-1,-6.258423626E-2,-6.298371404E-2,5.858949851E-3
4.837148430E-1,-6.578002870E-2,-6.724476814E-2,1.597895520E-3
4.862026040E-1,-6.897582114E-2,-7.044056058E-2,-3.728422802E-3
4.886903640E-1,-7.110634446E-2,-7.150582224E-2,-6.924213842E-3
4.911781240E-1,-7.323687524E-2,-7.150582224E-2,-1.118526794E-2
4.936658850E-1,-7.643266767E-2,-7.044056058E-2,-1.438105945E-2
4.961536450E-1,-7.749792933E-2,-6.831002980E-2,-1.757685095E-2
4.986414060E-1,-7.962846011E-2,-6.617950648E-2,-2.077264152E-2
5.011291660E-1,-8.069372177E-2,-6.404897571E-2,-2.183790505E-2
5.036169260E-1,-8.069372177E-2,-6.298371404E-2,-2.396843210E-2
5.061046870E-1,-8.175898343E-2,-6.085318699E-2,-2.503369562E-2
5.085924470E-1,-8.388951421E-2,-5.978792161E-2,-2.609895915E-2
5.110802080E-1,-8.495477587E-2,-5.872265995E-2,-2.716422267E-2
5.135679680E-1,-8.708529919E-2,-5.659212917E-2,-2.716422267E-2
5.160557290E-1,-8.815056831E-2,-5.552686751E-2,-2.822948620E-2
5.185434890E-1,-8.815056831E-2,-5.339634046E-2,-2.929474972E-2
5.210312490E-1,-8.921582997E-2,-5.020054802E-2,-3.036001325E-2
5.235190100E-1,-9.028109163E-2,-4.807002097E-2,-3.036001325E-2
5.260067700E-1,-9.241162241E-2,-4.593949392E-2,-3.249054030E-2
5.284945310E-1,-9.241162241E-2,-4.380896688E-2,-3.462106735E-2
5.309822910E-1,-9.347688407E-2,-4.167843983E-2,-3.675159439E-2
5.334700510E-1,-9.454214573E-2,-3.954791278E-2,-3.994738683E-2
5.359578120E-1,-9.560741484E-2,-3.954791278E-2,-4.314317927E-2
5.384455720E-1,-9.667267650E-2,-3.848264739E-2,-4.633896798E-2
5.409333330E-1,-9.773793817E-2,-3.848264739E-2,-4.846949503E-2
5.434210930E-1,-9.986846894E-2,-3.741738573E-2,-5.166528746E-2
5.459088540E-1,-1.030642539E-1,-3.635212034E-2,-5.379581451E-2
5.483966140E-1,-1.073253155E-1,-3.635212034E-2,-5.486107618E-2
5.508843740E-1,-1.126516312E-1,-3.635212034E-2,-5.699160323E-2
5.533721350E-1,-1.179779470E-1,-3.635212034E-2,-5.699160323E-2
5.558598950E-1,-1.243695319E-1,-3.741738573E-2,-5.805686861E-2
5.583476560E-1,-1.307611167E-1,-3.848264739E-2,-5.805686861E-2
5.608354160E-1,-1.392832249E-1,-3.848264739E-2,-5.805686861E-2
5.633231760E-1,-1.456748098E-1,-3.741738573E-2,-5.912213027E-2
5.658109370E-1,-1.520663798E-1,-3.528685868E-2,-5.699160323E-2
5.682986970E-1,-1.573926955E-1,-3.209106624E-2,-5.592634156E-2
5.707864580E-1,-1.616537571E-1,-2.996053919E-2,-5.273054913E-2
5.732742180E-1,-1.669800729E-1,-2.463422157E-2,-4.740423337E-2
5.757619790E-1,-1.712411344E-1,-1.930790395E-2,-4.207791388E-2
5.782497390E-1,-1.755021811E-1,-1.185105834E-2,-3.568633273E-2
5.807374990E-1,-1.786979735E-1,-4.394212738E-3,-2.929474972E-2
5.832252600E-1,-1.829590350E-1,5.193160381E-3,-2.077264152E-2
5.857130200E-1,-1.861548275E-1,1.584579609E-2,-1.225053146E-2
5.882007810E-1,-1.904158741E-1,2.649843320E-2,-1.597895520E-3
5.906885410E-1,-1.936116666E-1,3.608580679E-2,9.054740891E-3
5.931763010E-1,-1.989379823E-1,4.673844203E-2,2.183790505E-2
5.956640620E-1,-2.031990439E-1,5.632581562E-2,3.355580568E-2
5.981518740E-1,-2.074600905E-1,6.591318548E-2,4.527370632E-2
6.006396870E-1,-2.138516754E-1,7.337003201E-2,5.592634156E-2
6.031274990E-1,-2.213085145E-1,7.869634777E-2,6.870950758E-2
6.056153120E-1,-2.287653685E-1,8.402267098E-2,7.829687744E-2
6.081031240E-1,-2.372874767E-1,8.721846342E-2,8.894951642E-2
6.105909370E-1,-2.458095849E-1,8.934898674E-2,9.853688627E-2
6.130787490E-1,-2.532664239E-1,9.147951752E-2,1.081242561E-1
6.155665620E-1,-2.607232630E-1,9.254477918E-2,1.155811027E-1
6.180543740E-1,-2.681801319E-1,9.254477918E-2,1.230379492E-1
6.205421870E-1,-2.767022252E-1,9.147951752E-2,1.294295341E-1
6.230299990E-1,-2.852243483E-1,8.934898674E-2,1.336905807E-1
6.255178120E-1,-2.948117256E-1,8.615319431E-2,1.368863732E-1
6.280056240E-1,-3.043990731E-1,7.976161689E-2,1.390169114E-1
6.304934370E-1,-3.150517344E-1,7.230477035E-2,1.411474347E-1
6.329812490E-1,-3.257043660E-1,6.271740049E-2,1.411474347E-1
6.354690620E-1,-3.363569975E-1,5.313002318E-2,1.411474347E-1
6.379568740E-1,-3.448790908E-1,4.354264960E-2,1.422126889E-1
6.404446870E-1,-3.523359597E-1,3.502054140E-2,1.422126889E-1
6.429324990E-1,-3.597927988E-1,2.756369673E-2,1.422126889E-1
6.454203120E-1,-3.672496378E-1,2.436790615E-2,1.422126889E-1
6.479081240E-1,-3.715106845E-1,2.330264263E-2,1.422126889E-1
6.503959370E-1,-3.757717609E-1,2.330264263E-2,1.422126889E-1
6.528837490E-1,-3.779022694E-1,2.436790615E-2,1.411474347E-1
6.553715620E-1,-3.789675534E-1,2.862896025E-2,1.390169114E-1
6.578593740E-1,-3.789675534E-1,3.395527974E-2,1.358211190E-1
6.603471870E-1,-3.789675534E-1,3.928159550E-2,1.326253265E-1
6.628349990E-1,-3.768370152E-1,4.567318037E-2,1.283642650E-1
6.653228120E-1,-3.747064769E-1,5.206476152E-2,1.230379492E-1
6.678106240E-1,-3.715106845E-1,5.952160433E-2,1.187768951E-1
6.702984370E-1,-3.683148921E-1,6.697845459E-2,1.166463718E-1
6.727862490E-1,-3.640538454E-1,7.443529367E-2,1.166463718E-1
6.752740620E-1,-3.565970063E-1,8.508793265E-2,1.166463718E-1
6.777618740E-1,-3.470096290E-1,9.680583328E-2,1.187768951E-1
6.802496870E-1,-3.374222517E-1,1.117195264E-1,1.219726875E-1
6.827374990E-1,-3.257043660E-1,1.266332120E-1,1.251684725E-1
6.852253120E-1,-3.107906580E-1,1.436774284E-1,1.283642650E-1
6.877131240E-1,-2.969422340E-1,1.607216448E-1,1.283642650E-1
6.902009370E-1,-2.809632719E-1,1.767006069E-1,1.272990108E-1
6.926887490E-1,-2.628538013E-1,1.905490309E-1,1.262337416E-1
6.951765620E-1,-2.436790615E-1,2.022669315E-1,1.241032109E-1
6.976643220E-1,-2.234390527E-1,2.118543088E-1,1.219726875E-1
7.001520830E-1,-2.042642981E-1,2.193111479E-1,1.187768951E-1
7.026398430E-1,-1.850895584E-1,2.257027328E-1,1.145158410E-1
7.051276040E-1,-1.648495495E-1,2.288985252E-1,1.102547869E-1
7.076153640E-1,-1.467400640E-1,2.288985252E-1,1.038632020E-1
7.101031240E-1,-1.286305785E-1,2.257027328E-1,9.640636295E-2
7.125908850E-1,-1.115863696E-1,2.225069404E-1,8.788424730E-2
7.150786450E-1,-9.560741484E-2,2.171806246E-1,7.723161578E-2
7.175664060E-1,-8.069372177E-2,2.129195631E-1,6.657897681E-2
7.200541660E-1,-6.684529036E-2,2.086585164E-1,5.379581451E-2
7.225419260E-1,-5.299686641E-2,2.065279931E-1,4.207791388E-2
7.250296870E-1,-4.021370411E-2,2.033322006E-1,2.929474972E-2
7.275174470E-1,-2.743053809E-2,2.001364082E-1,1.651158556E-2
7.300052080E-1,-1.358211134E-2,1.969406158E-1,3.728422802E-3
7.324929680E-1,1.331579522E-3,1.937448233E-1,-1.012000442E-2
7.349807290E-1,1.624527015E-2,1.916143000E-1,-2.716422267E-2
7.374684890E-1,3.115896136E-2,1.916143000E-1,-4.420844093E-2
7.399562490E-1,4.713791609E-2,1.937448233E-1,-6.231792271E-2
7.424440100E-1,6.311687082E-2,1.980058849E-1,-8.255793154E-2
7.449317700E-1,7.803056389E-2,2.054627240E-1,-1.027979404E-1
7.474195310E-1,9.294424951E-2,2.150501013E-1,-1.230379492E-1
7.499072910E-1,1.057274193E-1,2.257027328E-1,-1.411474347E-1
7.523950510E-1,1.185105816E-1,2.374206334E-1,-1.592569202E-1
7.548828120E-1,1.302284747E-1,2.491385341E-1,-1.752358675E-1
7.573705720E-1,1.419463754E-1,2.587259114E-1,-1.890842915E-1
7.598583330E-1,1.515337527E-1,2.672480047E-1,-1.997369379E-1
7.623460930E-1,1.611211300E-1,2.747048736E-1,-2.093243003E-1
7.648338540E-1,1.707084924E-1,2.789659202E-1,-2.167811543E-1
7.673216140E-1,1.802958697E-1,2.821617126E-1,-2.221074700E-1
7.698093740E-1,1.877527237E-1,2.842922211E-1,-2.263685167E-1
7.722971350E-1,1.952095628E-1,2.885532975E-1,-2.306295782E-1
7.747848950E-1,1.994706094E-1,2.906838059E-1,-2.327601016E-1
7.772726560E-1,2.016011477E-1,2.949448824E-1,-2.348906398E-1
7.797604160E-1,2.026664019E-1,2.949448824E-1,-2.370211631E-1
7.822481760E-1,2.005358785E-1,2.917490900E-1,-2.380864173E-1
7.847359370E-1,1.952095628E-1,2.842922211E-1,-2.380864173E-1
7.872236970E-1,1.866874546E-1,2.725743353E-1,-2.380864173E-1
7.897114580E-1,1.760348231E-1,2.587259114E-1,-2.348906398E-1
7.921992180E-1,1.632516533E-1,2.438122183E-1,-2.295643091E-1
7.946869790E-1,1.494032294E-1,2.299637944E-1,-2.210422009E-1
7.971747390E-1,1.376853287E-1,2.182458937E-1,-2.125200927E-1
7.996624990E-1,1.270326823E-1,2.118543088E-1,-2.008021921E-1
8.021502600E-1,1.163800508E-1,2.107890397E-1,-1.890842915E-1
8.046380200E-1,1.099884734E-1,2.150501013E-1,-1.763011366E-1
8.071257810E-1,1.046621501E-1,2.214416862E-1,-1.656484902E-1
8.096135410E-1,1.025316268E-1,2.310290486E-1,-1.549958587E-1
8.121013010E-1,1.014663652E-1,2.395511568E-1,-1.475390196E-1
8.145890620E-1,9.827057272E-2,2.459427416E-1,-1.400821656E-1
8.170768220E-1,9.507478029E-2,2.502037883E-1,-1.336905807E-1
8.195645830E-1,9.187898785E-2,2.512690723E-1,-1.283642650E-1
8.220523430E-1,8.655267209E-2,2.491385341E-1,-1.230379492E-1
8.245401040E-1,8.335687965E-2,2.459427416E-1,-1.177116334E-1
8.270278640E-1,8.016108721E-2,2.427469492E-1,-1.113200486E-1
8.295156240E-1,7.696529478E-2,2.427469492E-1,-1.049284711E-1
8.320033850E-1,7.590003312E-2,2.416816950E-1,-9.853688627E-2
8.344911450E-1,7.376950979E-2,2.427469492E-1,-9.001477808E-2
8.369789580E-1,7.270424068E-2,2.427469492E-1,-8.362319320E-2
8.394667700E-1,7.163897902E-2,2.427469492E-1,-7.829687744E-2
8.419545830E-1,7.057371736E-2,2.427469492E-1,-7.403582335E-2
8.444423950E-1,6.844318658E-2,2.416816950E-1,-7.297056168E-2
8.469302080E-1,6.631266326E-2,2.395511568E-1,-7.297056168E-2
8.494180200E-1,6.418213248E-2,2.363553643E-1,-7.403582335E-2
8.519058330E-1,6.205160543E-2,2.310290486E-1,-7.403582335E-2
8.543936450E-1,5.885581672E-2,2.214416862E-1,-7.510108501E-2
8.568814580E-1,5.566002429E-2,2.118543088E-1,-7.297056168E-2
8.593692700E-1,5.139897019E-2,2.001364082E-1,-7.084003091E-2
8.618570830E-1,4.926844314E-2,1.884185076E-1,-6.657897681E-2
8.643448950E-1,4.713791609E-2,1.777658761E-1,-6.018739566E-2
8.668327080E-1,4.820318148E-2,1.681784987E-1,-4.953476042E-2
8.693213010E-1,5.352949724E-2,1.585911214E-1,-3.781685978E-2
8.718091660E-1,6.098634377E-2,1.511342824E-1,-2.396843210E-2
8.742969790E-1,6.844318658E-2,1.447426975E-1,-6.924213842E-3
8.767847390E-1,7.696529478E-2,1.372858584E-1,1.012000442E-2
8.792724990E-1,8.761793375E-2,1.319595277E-1,3.036001325E-2
8.817602600E-1,9.827057272E-2,1.287637353E-1,5.060002208E-2
8.842480200E-1,1.110537350E-1,1.266332120E-1,7.190529257E-2
8.867357810E-1,1.259674281E-1,1.266332120E-1,9.427583218E-2
8.892235410E-1,1.408811212E-1,1.276984811E-1,1.155811027E-1
8.917113010E-1,1.557948142E-1,1.266332120E-1,1.358211190E-1
8.941990620E-1,1.717737615E-1,1.245026886E-1,1.539305896E-1
8.966868220E-1,1.898832470E-1,1.202416345E-1,1.688442826E-1
8.991745830E-1,2.058621943E-1,1.149153188E-1,1.826927215E-1
9.016623430E-1,2.218411565E-1,1.106542572E-1,1.933453530E-1
9.041501040E-1,2.378201038E-1,1.074584723E-1,2.039979845E-1
9.066378640E-1,2.537990510E-1,1.053279415E-1,2.135853618E-1
9.091256240E-1,2.697780132E-1,1.042626798E-1,2.242379934E-1
9.116133850E-1,2.846917212E-1,1.042626798E-1,2.348906398E-1
9.141011450E-1,2.985401452E-1,1.031974182E-1,2.444780022E-1
9.165889060E-1,3.134538233E-1,9.680583328E-2,2.508696020E-1
9.190766660E-1,3.262369931E-1,8.615319431E-2,2.561959028E-1
9.215644260E-1,3.379548788E-1,7.017423958E-2,2.593916953E-1
9.240521870E-1,3.475422561E-1,5.099949613E-2,2.615222335E-1
9.265399470E-1,3.549990952E-1,2.969422378E-2,2.647180259E-1
9.290277080E-1,3.613906801E-1,7.323687430E-3,2.689790726E-1
9.315154680E-1,3.656517565E-1,-1.717737690E-2,2.721748650E-1
9.340032290E-1,3.688475490E-1,-4.061317816E-2,2.775011659E-1
9.364909890E-1,3.720433414E-1,-6.085318699E-2,2.817622423E-1
9.389787490E-1,3.741738498E-1,-8.109319210E-2,2.870885432E-1
9.414665100E-1,3.752391040E-1,-9.920267761E-2,2.934801280E-1
9.439542700E-1,3.773696423E-1,-1.183774248E-1,2.998717129E-1
9.464420310E-1,3.805654347E-1,-1.375521719E-1,3.062632978E-1
9.489297910E-1,3.858917654E-1,-1.535311192E-1,3.137201369E-1
9.514175510E-1,3.922833502E-1,-1.684448123E-1,3.211769760E-1
9.539053120E-1,3.997401893E-1,-1.790974438E-1,3.307643533E-1
9.563930720E-1,4.082622826E-1,-1.854890287E-1,3.424822688E-1
9.588808330E-1,4.178496599E-1,-1.886848211E-1,3.552654386E-1
9.613686970E-1,4.295675755E-1,-1.897500902E-1,3.691138625E-1
9.638565620E-1,4.423507154E-1,-1.886848211E-1,3.840275407E-1
9.663444260E-1,4.551338851E-1,-1.833585054E-1,4.000065029E-1
9.688322910E-1,4.711128473E-1,-1.759016514E-1,4.159854650E-1
9.713201560E-1,4.870918095E-1,-1.663142890E-1,4.340949357E-1
9.738080200E-1,5.041360259E-1,-1.545963883E-1,4.522044063E-1
9.762958850E-1,5.211802125E-1,-1.460742801E-1,4.713791609E-1
9.787837490E-1,5.392897129E-1,-1.396826953E-1,4.905539155E-1
9.812716140E-1,5.573992133E-1,-1.375521719E-1,5.075981021E-1
9.837594790E-1,5.744433999E-1,-1.386174262E-1,5.235770941E-1
9.862473430E-1,5.904223919E-1,-1.428784877E-1,5.406212807E-1
9.887351040E-1,6.053360701E-1,-1.503353268E-1,5.566002727E-1
9.912228640E-1,6.202497482E-1,-1.577921808E-1,5.747097135E-1
9.937106240E-1,6.340981722E-1,-1.663142890E-1,5.928192139E-1
9.961983850E-1,6.490118504E-1,-1.759016514E-1,6.087981462E-1
9.986861450E-1,6.660560966E-1,-1.865542978E-1,6.226465702E-1
1.001173906E0,6.831002831E-1,-1.940111369E-1,6.343644857E-1
1.003661666E0,6.990792751E-1,-2.004027218E-1,6.418213248E-1
1.006149426E0,7.150582075E-1,-2.067943066E-1,6.482129097E-1
1.008637187E0,7.278413773E-1,-2.121206224E-1,6.503434777E-1
1.011124947E0,7.416898012E-1,-2.174469382E-1,6.503434777E-1
1.013612708E0,7.555382252E-1,-2.227732539E-1,6.503434777E-1
1.016100468E0,7.704519033E-1,-2.280995846E-1,6.514087319E-1
1.018588229E0,7.853656411E-1,-2.312953621E-1,6.535392404E-1
1.021076770E0,8.024098277E-1,-2.334259003E-1,6.588655710E-1
1.023564166E0,8.215845823E-1,-2.334259003E-1,6.663224101E-1
1.026051562E0,8.407593369E-1,-2.312953621E-1,6.748445034E-1
1.028538958E0,8.620646000E-1,-2.280995846E-1,6.823013425E-1
1.031026354E0,8.812393546E-1,-2.238385230E-1,6.908234954E-1
1.033513801E0,8.982835412E-1,-2.206427306E-1,6.993455887E-1
1.036001301E0,9.174582958E-1,-2.174469382E-1,7.089329362E-1
1.038488854E0,9.345025420E-1,-2.163816839E-1,7.195855975E-1
1.040976458E0,9.526119828E-1,-2.153164148E-1,7.313035131E-1
1.043464114E0,9.707214832E-1,-2.131858915E-1,7.451519370E-1
1.045951822E0,9.920267463E-1,-2.110553533E-1,7.600656152E-1
1.048439583E0,1.015462518E0,-2.078595608E-1,7.760445476E-1
1.050927395E0,1.041028857E0,-2.046637833E-1,7.920235395E-1
1.053415260E0,1.065529943E0,-1.993374527E-1,8.048067093E-1
1.055903176E0,1.090031028E0,-1.950764060E-1,8.154593110E-1
1.058391145E0,1.114532113E0,-1.940111369E-1,8.229161501E-1
1.060879166E0,1.136902571E0,-1.961416751E-1,8.303729892E-1
1.063367239E0,1.159273148E0,-2.025332451E-1,8.356993198E-1
1.065855312E0,1.180578470E0,-2.131858915E-1,8.410256505E-1
1.068343385E0,1.200818419E0,-2.270343155E-1,8.474172354E-1
1.070831458E0,1.219993234E0,-2.440785319E-1,8.527435660E-1
1.073319531E0,1.239167929E0,-2.632532716E-1,8.591351509E-1
1.075807604E0,1.258342624E0,-2.802974880E-1,8.665919900E-1
1.078295468E0,1.277517438E0,-2.941459119E-1,8.729835749E-1
1.080783281E0,1.297757387E0,-3.047985733E-1,8.793751597E-1
1.083271041E0,1.316932201E0,-3.122554123E-1,8.836361766E-1
1.085758801E0,1.336106896E0,-3.175817132E-1,8.847014308E-1
1.088246562E0,1.353151083E0,-3.239732981E-1,8.825709224E-1
1.090734322E0,1.368064880E0,-3.303648829E-1,8.783098459E-1
1.093222083E0,1.378717422E0,-3.388870060E-1,8.708530068E-1
1.095709843E0,1.387239575E0,-3.484743834E-1,8.633961678E-1
1.098197604E0,1.394696474E0,-3.580617309E-1,8.548740745E-1
1.100685364E0,1.398957491E0,-3.687143922E-1,8.474172354E-1
1.103173124E0,1.403218508E0,-3.772364855E-1,8.431561589E-1
1.105660885E0,1.407479644E0,-3.804322779E-1,8.431561589E-1
1.108148645E0,1.412805915E0,-3.804322779E-1,8.484824896E-1
1.110636406E0,1.420262694E0,-3.761712313E-1,8.580698371E-1
1.113124166E0,1.429850101E0,-3.676491082E-1,8.708530068E-1
1.115611926E0,1.440502763E0,-3.559312224E-1,8.847014308E-1
1.118099687E0,1.453285933E0,-3.410175145E-1,8.985498548E-1
1.120587447E0,1.463938594E0,-3.271690905E-1,9.092025161E-1
1.123075208E0,1.476721764E0,-3.122554123E-1,9.187898636E-1
1.125562968E0,1.489504933E0,-2.994722426E-1,9.262467623E-1
1.128050729E0,1.503353357E0,-2.856238186E-1,9.347688556E-1
1.130538489E0,1.518267035E0,-2.728406489E-1,9.454214573E-1
1.133026249E0,1.533180714E0,-2.568616867E-1,9.571393728E-1
1.135514010E0,1.547029138E0,-2.376869470E-1,9.709877968E-1
1.138001770E0,1.563008070E0,-2.153164148E-1,9.859014750E-1
1.140489531E0,1.578987002E0,-1.897500902E-1,1.000815153E0
1.142977291E0,1.597096562E0,-1.641837656E-1,1.013598323E0
1.145465051E0,1.613075495E0,-1.375521719E-1,1.021055222E0
1.147952812E0,1.625858665E0,-1.119858399E-1,1.026381493E0
1.150440572E0,1.637576580E0,-9.068056941E-2,1.025316238E0
1.152928333E0,1.648229122E0,-7.576687634E-2,1.021055222E0
1.155416093E0,1.657816529E0,-6.617950648E-2,1.010402560E0
1.157903854E0,1.666338682E0,-5.872265995E-2,9.965541363E-1
1.160391614E0,1.671664953E0,-5.233107507E-2,9.805752039E-1
1.162879374E0,1.672730207E0,-4.593949392E-2,9.624657035E-1
1.165367135E0,1.671664953E0,-3.954791278E-2,9.443562031E-1
1.167854895E0,1.667403936E0,-3.422159329E-2,9.273120165E-1
1.170342656E0,1.659947038E0,-3.209106624E-2,9.123983383E-1
1.172830416E0,1.650359750E0,-3.422159329E-2,8.985498548E-1
1.175318176E0,1.636511326E0,-3.954791278E-2,8.878972530E-1
1.177805937E0,1.622662783E0,-4.700475931E-2,8.804404140E-1
1.180293697E0,1.605618596E0,-5.552686751E-2,8.751140833E-1
1.182781458E0,1.588574409E0,-6.298371404E-2,8.729835749E-1
1.185269218E0,1.571530223E0,-7.044056058E-2,8.708530068E-1
1.187756979E0,1.554485917E0,-7.576687634E-2,8.708530068E-1
1.190244791E0,1.538506985E0,-7.683213800E-2,8.719182611E-1
1.192732604E0,1.525723815E0,-7.363634557E-2,8.740488291E-1
1.195220416E0,1.516136527E0,-6.724476814E-2,8.761793375E-1
1.197708229E0,1.508679628E0,-5.552686751E-2,8.772445917E-1
1.200196041E0,1.504418612E0,-4.061317816E-2,8.772445917E-1
1.202683854E0,1.502288103E0,-2.143843099E-2,8.751140833E-1
1.205171666E0,1.501222730E0,-1.331579551E-4,8.729835749E-1
1.207659479E0,1.499092221E0,2.330264263E-2,8.665919900E-1
1.210147291E0,1.495896459E0,4.673844203E-2,8.559393287E-1
1.212635104E0,1.491635442E0,7.017423958E-2,8.399603963E-1
1.215122916E0,1.486309052E0,9.147951752E-2,8.207856417E-1
1.217610729E0,1.479917526E0,1.117195264E-1,7.994803786E-1
1.220098541E0,1.472460628E0,1.308942735E-1,7.760445476E-1
1.222586354E0,1.463938594E0,1.479384899E-1,7.515435219E-1
1.225074166E0,1.454351187E0,1.617869139E-1,7.270424366E-1
1.227561979E0,1.440502763E0,1.724395454E-1,7.036066055E-1
1.230049791E0,1.422393322E0,1.788311303E-1,6.801708341E-1
1.232537604E0,1.400022745E0,1.798963994E-1,6.578003168E-1
1.235025416E0,1.373391151E0,1.735048145E-1,6.354297400E-1
1.237513229E0,1.341433287E0,1.585911214E-1,6.109287143E-1
1.240001041E0,1.305214286E0,1.394163817E-1,5.874928832E-1
1.242488854E0,1.264734268E0,1.159805804E-1,5.640571117E-1
1.244976666E0,1.219993234E0,9.041424841E-2,5.416865349E-1
1.247464479E0,1.172056317E0,6.378266215E-2,5.203812718E-1
1.249952291E0,1.123054147E0,3.821633384E-2,5.022718310E-1
1.252440104E0,1.074052095E0,1.478053257E-2,4.862928391E-1
1.254927916E0,1.025049925E0,-6.524739787E-3,4.713791609E-1
1.257415729E0,9.781783223E-1,-2.463422157E-2,4.585959911E-1
1.259903541E0,9.334372878E-1,-3.741738573E-2,4.479433596E-1
1.262391354E0,8.908267021E-1,-4.380896688E-2,4.383559823E-1
1.264879166E0,8.514119387E-1,-4.380896688E-2,4.308991432E-1
1.267366979E0,8.151929975E-1,-3.848264739E-2,4.245075583E-1
1.269854791E0,7.800393105E-1,-2.569948509E-2,4.181159735E-1
1.272342604E0,7.480813861E-1,-6.524739787E-3,4.138549268E-1
1.274830416E0,7.161234617E-1,1.584579609E-2,4.095938802E-1
1.277318229E0,6.862961054E-1,3.821633384E-2,4.063980877E-1
1.279806041E0,6.564686894E-1,6.165213138E-2,4.010717571E-1
1.282293854E0,6.287718415E-1,8.402267098E-2,3.946801722E-1
1.284781666E0,6.053360701E-1,1.042626798E-1,3.893538713E-1
1.287269479E0,5.850960612E-1,1.170458421E-1,3.818970025E-1
1.289757291E0,5.659213066E-1,1.319595277E-1,3.691138625E-1
1.292245104E0,5.424855351E-1,1.596563905E-1,3.531349003E-1
1.294732916E0,5.201149583E-1,1.916143000E-1,3.360906839E-1
1.297220729E0,4.988096952E-1,2.246374637E-1,3.190464675E-1
1.299708541E0,4.743086398E-1,2.576606572E-1,3.009369671E-1
1.302196354E0,4.498075843E-1,2.864227593E-1,2.838927507E-1
1.304684166E0,4.231759906E-1,3.109238148E-1,2.657832801E-1
1.307171979E0,3.890875578E-1,3.205111921E-1,2.434127480E-1
1.309659791E0,3.475422561E-1,3.098585606E-1,2.178464085E-1
1.312147604E0,2.996053994E-1,2.779006660E-1,1.890842915E-1
1.314635416E0,2.452769578E-1,2.331595868E-1,1.581916511E-1
1.317123229E0,1.845569313E-1,1.820269227E-1,1.294295341E-1
1.319611041E0,1.206411049E-1,1.234374270E-1,1.038632020E-1
1.322098854E0,5.885581672E-2,6.378266215E-2,7.829687744E-2
1.324586666E0,-2.929474926E-3,4.127896391E-3,5.699160323E-2
1.327074479E0,-6.045371294E-2,-5.126581341E-2,3.781685978E-2
1.329562291E0,-1.169126853E-1,-1.023984700E-1,2.183790505E-2
1.332050104E0,-1.680453420E-1,-1.492700726E-1,7.989477366E-3
1.334537916E0,-2.170474678E-1,-1.897500902E-1,-4.793686327E-3
1.337025729E0,-2.628538013E-1,-2.259690464E-1,-1.544632297E-2
1.339513541E0,-3.054643571E-1,-2.557964325E-1,-2.396843210E-2
1.342001354E0,-3.427485824E-1,-2.771016955E-1,-3.142527863E-2
1.344489166E0,-3.747064769E-1,-2.877543271E-1,-3.675159439E-2
1.346976979E0,-4.002728164E-1,-2.898848653E-1,-3.994738683E-2
1.349464791E0,-4.205128253E-1,-2.824280262E-1,-4.207791388E-2
1.351952551E0,-4.343612492E-1,-2.653838098E-1,-4.207791388E-2
1.354440312E0,-4.439486265E-1,-2.430132627E-1,-4.207791388E-2
1.356928072E0,-4.492749274E-1,-2.163816839E-1,-4.420844093E-2
1.359415833E0,-4.503402114E-1,-1.865542978E-1,-4.633896798E-2
1.361903593E0,-4.492749274E-1,-1.567269117E-1,-5.060002208E-2
1.364391354E0,-4.471444190E-1,-1.290300637E-1,-5.592634156E-2
1.366879114E0,-4.418180883E-1,-1.023984700E-1,-6.231792271E-2
1.369367031E0,-4.364917874E-1,-7.896266878E-2,-6.764423847E-2
1.371854895E0,-4.311654568E-1,-5.978792161E-2,-7.084003091E-2
1.374342708E0,-4.247738719E-1,-4.487423226E-2,-7.403582335E-2
1.376830520E0,-4.173170328E-1,-3.528685868E-2,-7.723161578E-2
1.379318281E0,-4.098601937E-1,-3.102580272E-2,-8.149266988E-2
1.381806041E0,-4.013380706E-1,-3.209106624E-2,-8.575372398E-2
1.384293801E0,-3.917506933E-1,-3.528685868E-2,-9.001477808E-2
1.386781562E0,-3.821633458E-1,-4.274370521E-2,-9.534109384E-2
1.389269322E0,-3.736412227E-1,-5.233107507E-2,-9.853688627E-2
1.391757083E0,-3.651190996E-1,-6.511423737E-2,-1.038632020E-1
1.394244843E0,-3.565970063E-1,-8.215846121E-2,-1.070589945E-1
1.396732604E0,-3.470096290E-1,-1.023984700E-1,-1.102547869E-1
1.399220364E0,-3.352917433E-1,-1.268995255E-1,-1.123853177E-1
1.401708124E0,-3.246390820E-1,-1.492700726E-1,-1.145158410E-1
1.404195885E0,-3.129211962E-1,-1.716406047E-1,-1.155811027E-1
1.406683645E0,-3.012032807E-1,-1.929458827E-1,-1.177116334E-1
1.409171406E0,-2.884201407E-1,-2.121206224E-1,-1.198421568E-1
1.411659166E0,-2.777675092E-1,-2.291648388E-1,-1.241032109E-1
1.414146926E0,-2.671148479E-1,-2.430132627E-1,-1.283642650E-1
1.416634687E0,-2.575274706E-1,-2.526006401E-1,-1.315600574E-1
1.419122447E0,-2.490053773E-1,-2.600574791E-1,-1.358211190E-1
1.421610208E0,-2.415485233E-1,-2.643185556E-1,-1.390169114E-1
1.424097968E0,-2.372874767E-1,-2.664490640E-1,-1.411474347E-1
1.426585729E0,-2.351569533E-1,-2.664490640E-1,-1.422126889E-1
1.429073489E0,-2.351569533E-1,-2.653838098E-1,-1.411474347E-1
1.431561249E0,-2.362222075E-1,-2.611227632E-1,-1.390169114E-1
1.434049010E0,-2.404832691E-1,-2.557964325E-1,-1.358211190E-1
1.436536770E0,-2.468748540E-1,-2.494048476E-1,-1.326253265E-1
1.439024531E0,-2.543317080E-1,-2.419480085E-1,-1.262337416E-1
1.441512291E0,-2.639190555E-1,-2.323606312E-1,-1.198421568E-1
1.444000051E0,-2.735064328E-1,-2.206427306E-1,-1.113200486E-1
1.446487812E0,-2.852243483E-1,-2.078595608E-1,-1.027979404E-1
1.448975572E0,-2.980075181E-1,-1.918806136E-1,-9.214530140E-2
1.451463333E0,-3.097254038E-1,-1.737711281E-1,-8.042740822E-2
1.453951093E0,-3.203780353E-1,-1.556616426E-1,-6.764423847E-2
1.456438854E0,-3.267696202E-1,-1.364869028E-1,-5.379581451E-2
1.458926614E0,-3.310306668E-1,-1.162468940E-1,-4.101264849E-2
1.461414374E0,-3.331612051E-1,-9.281109273E-2,-2.609895915E-2
1.463902135E0,-3.342264593E-1,-6.724476814E-2,-1.225053146E-2
1.466389895E0,-3.331612051E-1,-4.167843983E-2,5.326318205E-4
1.468877708E0,-3.342264593E-1,-1.717737690E-2,1.438105945E-2
1.471365520E0,-3.331612051E-1,4.127896391E-3,2.609895915E-2
1.473853333E0,-3.331612051E-1,2.010685205E-2,3.675159439E-2
1.476341145E0,-3.331612051E-1,3.182475269E-2,4.633896798E-2
1.478828958E0,-3.320959508E-1,4.034686089E-2,5.486107618E-2
1.481316770E0,-3.320959508E-1,4.780370742E-2,6.125266105E-2
1.483804583E0,-3.310306668E-1,5.206476152E-2,6.870950758E-2
1.486292395E0,-3.289001584E-1,5.313002318E-2,7.510108501E-2
1.488780208E0,-3.235738277E-1,5.313002318E-2,8.149266988E-2
1.491268020E0,-3.171822429E-1,5.206476152E-2,8.468846232E-2
1.493755833E0,-3.097254038E-1,4.780370742E-2,8.894951642E-2
1.496243645E0,-3.022685647E-1,4.141212255E-2,9.001477808E-2
1.498731458E0,-2.926811874E-1,3.182475269E-2,9.108003974E-2
1.501219270E0,-2.852243483E-1,2.117211558E-2,9.001477808E-2
1.503707083E0,-2.788327634E-1,6.258423906E-3,8.894951642E-2
1.506194895E0,-2.724411786E-1,-8.655266836E-3,8.788424730E-2
1.508682708E0,-2.639190555E-1,-2.356895804E-2,8.681898564E-2
1.511170520E0,-2.543317080E-1,-3.528685868E-2,8.681898564E-2
1.513658333E0,-2.426137924E-1,-4.380896688E-2,8.788424730E-2
1.516146145E0,-2.298306376E-1,-4.593949392E-2,8.894951642E-2
1.518633958E0,-2.149169445E-1,-4.380896688E-2,9.108003974E-2
1.521121770E0,-2.000032514E-1,-3.741738573E-2,9.108003974E-2
1.523609583E0,-1.861548275E-1,-2.889527567E-2,9.214530140E-2
1.526097395E0,-1.712411344E-1,-1.717737690E-2,9.214530140E-2
1.528585208E0,-1.573926955E-1,-4.394212738E-3,9.108003974E-2
1.531073020E0,-1.435442716E-1,9.454214945E-3,8.894951642E-2
1.533560833E0,-1.307611167E-1,2.223737910E-2,8.681898564E-2
1.536048645E0,-1.179779470E-1,3.395527974E-2,8.362319320E-2
1.538536458E0,-1.062600464E-1,4.460791498E-2,8.149266988E-2
1.541024270E0,-9.560741484E-2,5.526055023E-2,7.829687744E-2
1.543512083E0,-8.602003753E-2,6.378266215E-2,7.510108501E-2
1.545999895E0,-7.749792933E-2,7.123950869E-2,7.190529257E-2
1.548487708E0,-7.110634446E-2,7.550056279E-2,6.764423847E-2
1.550975520E0,-6.578002870E-2,7.763108611E-2,6.231792271E-2
1.553463333E0,-6.151897460E-2,7.763108611E-2,5.592634156E-2
1.555951145E0,-5.938844755E-2,7.656582445E-2,4.846949503E-2
1.558438958E0,-5.725792050E-2,7.443529367E-2,4.101264849E-2
1.560926770E0,-5.832318589E-2,7.123950869E-2,3.462106735E-2
1.563414583E0,-6.151897460E-2,6.804371625E-2,2.716422267E-2
1.565902395E0,-6.471476704E-2,6.165213138E-2,1.970737800E-2
1.568390208E0,-6.897582114E-2,5.526055023E-2,1.438105945E-2
1.570878020E0,-7.430213690E-2,4.993423447E-2,1.225053146E-2
1.573365833E0,-7.749792933E-2,4.460791498E-2,1.118526794E-2
1.575853645E0,-8.069372177E-2,4.460791498E-2,1.331579592E-2
1.578341458E0,-8.069372177E-2,4.886896908E-2,1.757685095E-2
1.580829270E0,-7.856319100E-2,5.952160433E-2,2.503369562E-2
1.583317083E0,-7.430213690E-2,7.337003201E-2,3.355580568E-2
1.585804895E0,-6.684529036E-2,9.147951752E-2,4.420844093E-2
1.588292708E0,-5.725792050E-2,1.127847880E-1,5.486107618E-2
1.590780520E0,-4.447475821E-2,1.372858584E-1,6.764423847E-2
1.593268333E0,-2.849580161E-2,1.660479754E-1,8.255793154E-2
1.595756145E0,-1.145158429E-2,1.980058849E-1,9.960214794E-2
1.598243958E0,7.723161485E-3,2.320943177E-1,1.187768951E-1
1.600731770E0,2.796317078E-2,2.661827505E-1,1.390169114E-1
1.603219583E0,4.926844314E-2,3.002711833E-1,1.592569202E-1
1.605707395E0,6.950845569E-2,3.343596160E-1,1.805621833E-1
1.608195208E0,8.868319541E-2,3.684480488E-1,1.986716688E-1
1.610683020E0,1.067926809E-1,4.004059732E-1,2.167811543E-1
1.613170833E0,1.238368973E-1,4.291680753E-1,2.306295782E-1
1.615658645E0,1.387505829E-1,4.547344148E-1,2.412822098E-1
1.618146458E0,1.515337527E-1,4.771049619E-1,2.476737946E-1
1.620634270E0,1.600558609E-1,4.962796867E-1,2.508696020E-1
1.623122083E0,1.643169224E-1,5.090628862E-1,2.487390637E-1
1.625609895E0,1.653821766E-1,5.154544711E-1,2.444780022E-1
1.628097708E0,1.600558609E-1,5.143891573E-1,2.359558940E-1
1.630585520E0,1.504684836E-1,5.037365556E-1,2.231727391E-1
1.633073333E0,1.376853287E-1,4.856270552E-1,2.071937770E-1
1.635561145E0,1.195758432E-1,4.611259997E-1,1.901495606E-1
1.638048958E0,1.004010960E-1,4.323638678E-1,1.709748209E-1
1.640536770E0,8.016108721E-2,4.004059732E-1,1.496695429E-1
1.643024583E0,5.992107838E-2,3.684480488E-1,1.262337416E-1
1.645512395E0,3.755054250E-2,3.364901543E-1,1.017326787E-1
1.648000208E0,1.731053367E-2,3.045322299E-1,7.616634667E-2
1.650488020E0,-2.929474926E-3,2.736395895E-1,4.953476042E-2
1.652975833E0,-2.316948399E-2,2.416816950E-1,2.396843210E-2
1.655463645E0,-4.127896577E-2,2.107890397E-1,5.326318205E-4
1.657951458E0,-5.938844755E-2,1.809616536E-1,-1.864211448E-2
1.660439270E0,-7.430213690E-2,1.479384899E-1,-3.249054030E-2
1.662927083E0,-8.815056831E-2,1.159805804E-1,-4.314317927E-2
1.665414895E0,-9.880319983E-2,8.934898674E-2,-4.953476042E-2
1.667902708E0,-1.062600464E-1,6.591318548E-2,-4.953476042E-2
1.670390520E0,-1.083905771E-1,4.886896908E-2,-4.527370632E-2
1.672878333E0,-1.062600464E-1,3.928159550E-2,-3.675159439E-2
1.675366145E0,-9.773793817E-2,4.034686089E-2,-2.609895915E-2
1.677853958E0,-8.388951421E-2,4.780370742E-2,-1.438105945E-2
1.680341770E0,-6.897582114E-2,6.378266215E-2,-1.597895520E-3
1.682829583E0,-4.767054692E-2,8.402267098E-2,1.225053146E-2
1.685317395E0,-2.423474751E-2,1.095889956E-1,2.716422267E-2
1.687805208E0,2.663159103E-4,1.372858584E-1,4.207791388E-2
1.690293020E0,2.583264373E-2,1.660479754E-1,5.592634156E-2
1.692780781E0,5.246423557E-2,1.969406158E-1,6.977476925E-2
1.695268541E0,7.803056389E-2,2.257027328E-1,8.255793154E-2
1.697756301E0,1.014663652E-1,2.533995807E-1,9.534109384E-2
1.700244062E0,1.238368973E-1,2.757701278E-1,1.070589945E-1
1.702731822E0,1.440769136E-1,2.928143442E-1,1.166463718E-1
1.705219583E0,1.621863842E-1,3.045322299E-1,1.262337416E-1
1.707707343E0,1.771000773E-1,3.098585606E-1,1.326253265E-1
1.710195104E0,1.888179779E-1,3.109238148E-1,1.368863732E-1
1.712682864E0,1.994706094E-1,3.087933064E-1,1.400821656E-1
1.715170624E0,2.079927325E-1,3.045322299E-1,1.400821656E-1
1.717658385E0,2.143843025E-1,2.981406748E-1,1.400821656E-1
1.720146145E0,2.197106332E-1,2.906838059E-1,1.390169114E-1
1.722633906E0,2.229064107E-1,2.800311744E-1,1.379516423E-1
1.725121666E0,2.261022031E-1,2.683132887E-1,1.358211190E-1
1.727609426E0,2.261022031E-1,2.533995807E-1,1.326253265E-1
1.730097187E0,2.229064107E-1,2.342248410E-1,1.283642650E-1
1.732584947E0,2.186453640E-1,2.097237855E-1,1.219726875E-1
1.735072708E0,2.111885101E-1,1.841574460E-1,1.155811027E-1
1.737560468E0,2.037316710E-1,1.564605981E-1,1.091895252E-1
1.740048229E0,1.930790395E-1,1.298290044E-1,1.006674170E-1
1.742535989E0,1.813611388E-1,1.053279415E-1,9.214530140E-2
1.745023749E0,1.685779691E-1,8.189214021E-2,8.362319320E-2
1.747511510E0,1.547295451E-1,6.271740049E-2,7.723161578E-2
1.749999270E0,1.408811212E-1,4.460791498E-2,7.084003091E-2
1.752487031E0,1.259674281E-1,2.969422378E-2,6.551371515E-2
1.754974791E0,1.110537350E-1,1.904158667E-2,6.125266105E-2
1.757462551E0,9.827057272E-2,9.454214945E-3,5.486107618E-2
1.759950312E0,8.442214131E-2,4.127896391E-3,4.953476042E-2
1.762438072E0,7.057371736E-2,9.321057005E-4,4.420844093E-2
1.764925833E0,5.566002429E-2,-1.331579551E-4,3.994738683E-2
1.767413593E0,3.968106955E-2,-1.198421582E-3,3.675159439E-2
1.769901354E0,2.263685316E-2,-1.331579551E-4,3.355580568E-2
1.772389166E0,6.657897960E-3,9.321057005E-4,3.142527863E-2
1.774876979E0,-1.038632076E-2,4.127896391E-3,3.142527863E-2
1.777364791E0,-2.530001104E-2,9.454214945E-3,3.249054030E-2
1.779852604E0,-4.021370411E-2,1.904158667E-2,3.568633273E-2
1.782340416E0,-5.406212807E-2,2.969422378E-2,3.994738683E-2
1.784828229E0,-6.684529036E-2,4.247738793E-2,4.420844093E-2
1.787316041E0,-7.962846011E-2,5.845634267E-2,4.953476042E-2
1.789803854E0,-9.347688407E-2,7.443529367E-2,5.273054913E-2
1.792291666E0,-1.073253155E-1,9.041424841E-2,5.379581451E-2
1.794779479E0,-1.201084778E-1,1.031974182E-1,5.273054913E-2
1.797267291E0,-1.339569092E-1,1.127847880E-1,4.953476042E-2
1.799755104E0,-1.478053331E-1,1.191763729E-1,4.633896798E-2
1.802242916E0,-1.627190262E-1,1.213068962E-1,4.101264849E-2
1.804730729E0,-1.786979735E-1,1.191763729E-1,3.355580568E-2
1.807218541E0,-1.957421899E-1,1.149153188E-1,2.609895915E-2
1.809706354E0,-2.138516754E-1,1.074584723E-1,1.651158556E-2
1.812194166E0,-2.340916842E-1,9.787109494E-2,6.924213842E-3
1.814681979E0,-2.575274706E-1,8.615319431E-2,-2.663159044E-3
1.817169791E0,-2.809632719E-1,7.123950869E-2,-1.544632297E-2
1.819657604E0,-3.065296113E-1,5.419528857E-2,-2.929474972E-2
1.822145416E0,-3.331612051E-1,3.395527974E-2,-4.420844093E-2
1.824633229E0,-3.597927988E-1,1.265000552E-2,-6.018739566E-2
1.827121041E0,-3.864243925E-1,-1.078579482E-2,-7.723161578E-2
1.829608854E0,-4.130559862E-1,-3.528685868E-2,-9.640636295E-2
1.832096666E0,-4.386222959E-1,-6.085318699E-2,-1.166463718E-1
1.834584479E0,-4.631233811E-1,-8.428898454E-2,-1.368863732E-1
1.837072291E0,-4.844286442E-1,-1.055942550E-1,-1.571263820E-1
1.839560104E0,-5.046686530E-1,-1.237037405E-1,-1.784316599E-1
1.842047916E0,-5.238434076E-1,-1.386174262E-1,-1.986716688E-1
1.844535729E0,-5.440834165E-1,-1.514005959E-1,-2.189116776E-1
1.847023541E0,-5.664539337E-1,-1.609879732E-1,-2.370211631E-1
1.849511354E0,-5.909550190E-1,-1.705753356E-1,-2.561959028E-1
1.851999166E0,-6.154560447E-1,-1.801627129E-1,-2.711096108E-1
1.854486979E0,-6.410223842E-1,-1.897500902E-1,-2.849580348E-1
1.856974791E0,-6.655234694E-1,-1.982721984E-1,-2.977411747E-1
1.859462604E0,-6.900244951E-1,-2.057290375E-1,-3.094590902E-1
1.861950416E0,-7.134603262E-1,-2.121206224E-1,-3.201117218E-1
1.864438229E0,-7.337003350E-1,-2.185122073E-1,-3.296990991E-1
1.866926041E0,-7.539403439E-1,-2.217079997E-1,-3.392864764E-1
1.869413854E0,-7.709845304E-1,-2.238385230E-1,-3.488738537E-1
1.871901666E0,-7.869635224E-1,-2.238385230E-1,-3.573959470E-1
1.874389479E0,-8.008119464E-1,-2.174469382E-1,-3.659180701E-1
1.876877291E0,-8.114646077E-1,-2.067943066E-1,-3.723096550E-1
1.879365104E0,-8.189214468E-1,-1.886848211E-1,-3.755054474E-1
1.881852916E0,-8.221172094E-1,-1.652490199E-1,-3.787012100E-1
1.884340729E0,-8.231824636E-1,-1.364869028E-1,-3.787012100E-1
1.886828541E0,-8.221172094E-1,-1.055942550E-1,-3.787012100E-1
1.889316354E0,-8.178561330E-1,-7.363634557E-2,-3.797664940E-1
1.891804166E0,-8.146603703E-1,-4.380896688E-2,-3.818970025E-1
1.894291979E0,-8.103992939E-1,-2.037316747E-2,-3.850927949E-1
1.896779791E0,-8.072035313E-1,-2.263685223E-3,-3.872233331E-1
1.899267604E0,-8.050730228E-1,1.158474199E-2,-3.893538713E-1
1.901755416E0,-8.040077090E-1,1.797632314E-2,-3.925496638E-1
1.904243229E0,-8.040077090E-1,2.010685205E-2,-3.957454562E-1
1.906731041E0,-8.050730228E-1,1.691105962E-2,-3.989412189E-1
1.909218854E0,-8.082687855E-1,9.454214945E-3,-4.053328037E-1
1.911706666E0,-8.135951161E-1,-3.328948980E-3,-4.138549268E-1
1.914194479E0,-8.221172094E-1,-1.930790395E-2,-4.266380966E-1
1.916682291E0,-8.338351250E-1,-3.848264739E-2,-4.426170290E-1
1.919170104E0,-8.498140574E-1,-6.085318699E-2,-4.617917836E-1
1.921657916E0,-8.689888120E-1,-8.748477697E-2,-4.830970466E-1
1.924145729E0,-8.892288208E-1,-1.151816323E-1,-5.075981021E-1
1.926633541E0,-9.115993381E-1,-1.460742801E-1,-5.331644416E-1
1.929121354E0,-9.361004233E-1,-1.737711281E-1,-5.566002727E-1
1.931609166E0,-9.637972713E-1,-2.004027218E-1,-5.789707899E-1
1.934096979E0,-9.925593734E-1,-2.249037921E-1,-5.992107987E-1
1.936584791E0,-1.020256281E0,-2.451438010E-1,-6.183855534E-1
1.939072604E0,-1.050083637E0,-2.621880174E-1,-6.343644857E-1
1.941560416E0,-1.078845739E0,-2.728406489E-1,-6.492781639E-1
1.944048229E0,-1.106542587E0,-2.792322338E-1,-6.631265879E-1
1.946536041E0,-1.131043673E0,-2.771016955E-1,-6.748445034E-1
1.949023854E0,-1.154479504E0,-2.675143182E-1,-6.844319105E-1
1.951511666E0,-1.173654199E0,-2.504701018E-1,-6.929540038E-1
1.953999479E0,-1.188567877E0,-2.259690464E-1,-7.004108429E-1
1.956487291E0,-1.199220538E0,-1.918806136E-1,-7.057371736E-1
1.958975104E0,-1.204546809E0,-1.492700726E-1,-7.078676820E-1
1.961462916E0,-1.203481555E0,-9.920267761E-2,-7.078676820E-1
1.963950729E0,-1.197090030E0,-4.487423226E-2,-7.046719193E-1
1.966438541E0,-1.186437368E0,1.265000552E-2,-6.972150803E-1
1.968926354E0,-1.172588944E0,7.123950869E-2,-6.876276731E-1
1.971414166E0,-1.156610012E0,1.255679578E-1,-6.759097576E-1
1.973901979E0,-1.138500571E0,1.745700836E-1,-6.620613337E-1
1.976389791E0,-1.118260503E0,2.139848322E-1,-6.492781639E-1
1.978877604E0,-1.098020554E0,2.459427416E-1,-6.364950538E-1
1.981365624E0,-1.079910994E0,2.683132887E-1,-6.258423924E-1
1.983853645E0,-1.063932061E0,2.810964286E-1,-6.173202991E-1
1.986341510E0,-1.051148891E0,2.853575051E-1,-6.130592227E-1
1.988829322E0,-1.038365722E0,2.810964286E-1,-6.098634601E-1
1.991317135E0,-1.027713060E0,2.683132887E-1,-6.098634601E-1
1.993804947E0,-1.017060518E0,2.502037883E-1,-6.141244769E-1
1.996292760E0,-1.005342603E0,2.267680019E-1,-6.205160618E-1
1.998780520E0,-9.957551956E-1,2.001364082E-1,-6.301034689E-1
2.001268281E0,-9.882983565E-1,1.713742912E-1,-6.428865790E-1
2.003756041E0,-9.808415174E-1,1.426121742E-1,-6.588655710E-1
2.006243801E0,-9.755151868E-1,1.127847880E-1,-6.759097576E-1
2.008731562E0,-9.712541103E-1,8.402267098E-2,-6.940192580E-1
2.011219322E0,-9.659277797E-1,5.845634267E-2,-7.110635042E-1
2.013707083E0,-9.627320170E-1,3.502054140E-2,-7.259771824E-1
2.016194843E0,-9.574056864E-1,1.691105962E-2,-7.387603521E-1
2.018682604E0,-9.542099237E-1,3.062632866E-3,-7.494129539E-1
2.021170364E0,-9.510141015E-1,-6.524739787E-3,-7.558045387E-1
2.023658124E0,-9.456877708E-1,-1.291632187E-2,-7.579351068E-1
2.026145885E0,-9.382309318E-1,-1.398158539E-2,-7.558045387E-1
2.028633645E0,-9.286435843E-1,-1.185105834E-2,-7.494129539E-1
2.031121406E0,-9.158604145E-1,-4.394212738E-3,-7.387603521E-1
2.033609166E0,-9.009467363E-1,5.193160381E-3,-7.259771824E-1
2.036096926E0,-8.828372359E-1,1.584579609E-2,-7.110635042E-1
2.038584687E0,-8.615319729E-1,2.862896025E-2,-6.940192580E-1
2.041072447E0,-8.391614556E-1,4.247738793E-2,-6.748445034E-1
2.043560208E0,-8.167908788E-1,5.526055023E-2,-6.546044946E-1
2.046047968E0,-7.954856157E-1,6.804371625E-2,-6.322339773E-1
2.048535729E0,-7.763108611E-1,8.189214021E-2,-6.077328920E-1
2.051023489E0,-7.592666745E-1,9.467530251E-2,-5.832318664E-1
2.053511249E0,-7.432876825E-1,1.053279415E-1,-5.566002727E-1
2.055999010E0,-7.283740044E-1,1.127847880E-1,-5.299686790E-1
2.058486770E0,-7.113298178E-1,1.170458421E-1,-5.012065172E-1
2.060974531E0,-6.942855716E-1,1.202416345E-1,-4.735096991E-1
2.063462291E0,-6.761760712E-1,1.223721579E-1,-4.479433596E-1
2.065950051E0,-6.580666304E-1,1.213068962E-1,-4.245075583E-1
2.068437864E0,-6.410223842E-1,1.191763729E-1,-4.063980877E-1
2.070925676E0,-6.261087060E-1,1.127847880E-1,-3.936149180E-1
2.073413489E0,-6.154560447E-1,1.000016257E-1,-3.861580789E-1
2.075901301E0,-6.079992056E-1,7.976161689E-2,-3.829622865E-1
2.078389114E0,-6.037381887E-1,5.206476152E-2,-3.840275407E-1
2.080876926E0,-6.037381887E-1,1.904158667E-2,-3.893538713E-1
2.083364739E0,-6.058686972E-1,-2.037316747E-2,-3.946801722E-1
2.085852551E0,-6.101297736E-1,-6.298371404E-2,-4.021370113E-1
2.088340364E0,-6.165213585E-1,-1.066595241E-1,-4.095938802E-1
2.090828176E0,-6.229129434E-1,-1.492700726E-1,-4.181159735E-1
2.093315989E0,-6.314350367E-1,-1.908153445E-1,-4.255728126E-1
2.095803801E0,-6.388918757E-1,-2.259690464E-1,-4.330296814E-1
2.098291614E0,-6.463487148E-1,-2.547311783E-1,-4.394212663E-1
2.100779426E0,-6.538055539E-1,-2.781669796E-1,-4.447475672E-1
2.103267239E0,-6.591318846E-1,-2.952111959E-1,-4.490086138E-1
2.105755051E0,-6.601971388E-1,-3.058638275E-1,-4.522044063E-1
2.108242864E0,-6.570013762E-1,-3.111901283E-1,-4.522044063E-1
2.110730676E0,-6.495444775E-1,-3.079943359E-1,-4.522044063E-1
2.113218489E0,-6.388918757E-1,-2.973417044E-1,-4.500738978E-1
2.115706301E0,-6.261087060E-1,-2.781669796E-1,-4.479433596E-1
2.118194114E0,-6.111950278E-1,-2.515353858E-1,-4.436823130E-1
2.120681926E0,-5.962813497E-1,-2.206427306E-1,-4.383559823E-1
2.123169739E0,-5.792371035E-1,-1.844237745E-1,-4.298338890E-1
2.125657551E0,-5.611276031E-1,-1.460742801E-1,-4.181159735E-1
2.128145364E0,-5.408875942E-1,-1.055942550E-1,-4.021370113E-1
2.130633176E0,-5.206475854E-1,-6.617950648E-2,-3.840275407E-1
2.133120989E0,-4.972118139E-1,-2.996053919E-2,-3.637875319E-1
2.135608801E0,-4.716454744E-1,1.997369342E-3,-3.424822688E-1
2.138096614E0,-4.439486265E-1,2.969422378E-2,-3.222422600E-1
2.140584426E0,-4.141212404E-1,5.313002318E-2,-3.020022511E-1
2.143072239E0,-3.853591084E-1,7.230477035E-2,-2.828274965E-1
2.145560051E0,-3.587275445E-1,8.721846342E-2,-2.647180259E-1
2.148047864E0,-3.331612051E-1,9.787109494E-2,-2.476737946E-1
2.150535676E0,-3.097254038E-1,1.042626798E-1,-2.316948473E-1
2.153023489E0,-2.905506492E-1,1.053279415E-1,-2.178464085E-1
2.155511301E0,-2.724411786E-1,9.893636405E-2,-2.061285079E-1
2.157999114E0,-2.575274706E-1,8.615319431E-2,-1.986716688E-1
2.160486926E0,-2.490053773E-1,6.484792382E-2,-1.954758763E-1
2.162974739E0,-2.436790615E-1,3.608580679E-2,-1.986716688E-1
2.165462551E0,-2.426137924E-1,-1.331579551E-4,-2.093243003E-1
2.167950364E0,-2.468748540E-1,-4.167843983E-2,-2.253032625E-1
2.170438176E0,-2.564622164E-1,-8.641951531E-2,-2.476737946E-1
2.172925989E0,-2.703106403E-1,-1.322258562E-1,-2.743053734E-1
2.175413801E0,-2.905506492E-1,-1.790974438E-1,-3.030675054E-1
2.177901614E0,-3.139864504E-1,-2.270343155E-1,-3.328948915E-1
2.180389426E0,-3.395527899E-1,-2.749711871E-1,-3.616569936E-1
2.182877239E0,-3.651190996E-1,-3.218427896E-1,-3.882885873E-1
2.185365051E0,-3.896201849E-1,-3.644533157E-1,-4.138549268E-1
2.187852864E0,-4.130559862E-1,-4.038680792E-1,-4.362254739E-1
2.190340676E0,-4.354265034E-1,-4.358259737E-1,-4.575307369E-1
2.192828489E0,-4.546012580E-1,-4.613923132E-1,-4.767054915E-1
2.195316301E0,-4.705802202E-1,-4.784365296E-1,-4.916191697E-1
2.197804114E0,-4.833633900E-1,-4.869586527E-1,-5.044023395E-1
2.200291926E0,-4.908202291E-1,-4.837628603E-1,-5.129244328E-1
2.202779739E0,-4.961465299E-1,-4.688491523E-1,-5.150549412E-1
2.205267551E0,-4.972118139E-1,-4.454133511E-1,-5.107939243E-1
2.207755364E0,-4.940160215E-1,-4.134554565E-1,-5.001412630E-1
2.210243176E0,-4.876244366E-1,-3.772364855E-1,-4.841623306E-1
2.212730989E0,-4.780370593E-1,-3.399522603E-1,-4.607265294E-1
2.215218801E0,-4.663191736E-1,-3.005374968E-1,-4.330296814E-1
2.217706614E0,-4.524707198E-1,-2.611227632E-1,-4.021370113E-1
2.220194426E0,-4.364917874E-1,-2.238385230E-1,-3.669833243E-1
2.222682239E0,-4.205128253E-1,-1.865542978E-1,-3.307643533E-1
2.225170051E0,-4.024033546E-1,-1.514005959E-1,-2.934801280E-1
2.227657864E0,-3.821633458E-1,-1.173121557E-1,-2.551306486E-1
2.230145676E0,-3.608580530E-1,-8.428898454E-2,-2.167811543E-1
2.232633489E0,-3.406180441E-1,-5.339634046E-2,-1.805621833E-1
2.235121301E0,-3.214432895E-1,-2.569948509E-2,-1.454084814E-1
2.237609114E0,-3.054643571E-1,-1.198421582E-3,-1.134505793E-1
2.240096926E0,-2.926811874E-1,2.010685205E-2,-8.681898564E-2
2.242584739E0,-2.809632719E-1,3.928159550E-2,-6.551371515E-2
2.245072551E0,-2.713759243E-1,5.313002318E-2,-5.166528746E-2
2.247560364E0,-2.628538013E-1,6.271740049E-2,-4.314317927E-2
2.250048176E0,-2.564622164E-1,6.804371625E-2,-4.101264849E-2
2.252535989E0,-2.522011697E-1,6.804371625E-2,-4.527370632E-2
2.255023801E0,-2.522011697E-1,6.484792382E-2,-5.486107618E-2
2.257511614E0,-2.564622164E-1,5.632581562E-2,-6.764423847E-2
2.259999426E0,-2.660495937E-1,4.141212255E-2,-8.468846232E-2
2.262487239E0,-2.809632719E-1,2.010685205E-2,-1.038632020E-1
2.264975051E0,-2.990727723E-1,-9.720530361E-3,-1.241032109E-1
2.267462864E0,-3.193127811E-1,-4.487423226E-2,-1.464737505E-1
2.269950676E0,-3.395527899E-1,-8.215846121E-2,-1.677790284E-1
2.272438489E0,-3.597927988E-1,-1.183774248E-1,-1.880190372E-1
2.274926301E0,-3.768370152E-1,-1.492700726E-1,-2.061285079E-1
2.277414114E0,-3.917506933E-1,-1.727058738E-1,-2.231727391E-1
2.279901926E0,-4.034686089E-1,-1.876195520E-1,-2.348906398E-1
2.282389739E0,-4.141212404E-1,-1.918806136E-1,-2.455432713E-1
2.284877551E0,-4.205128253E-1,-1.886848211E-1,-2.519348562E-1
2.287365364E0,-4.215780795E-1,-1.769669205E-1,-2.551306486E-1
2.289853176E0,-4.194475710E-1,-1.577921808E-1,-2.540653646E-1
2.292340989E0,-4.130559862E-1,-1.343563795E-1,-2.498043180E-1
2.294828801E0,-4.034686089E-1,-1.066595241E-1,-2.434127480E-1
2.297316614E0,-3.928159773E-1,-7.896266878E-2,-2.338253707E-1
2.299804426E0,-3.789675534E-1,-5.020054802E-2,-2.231727391E-1
2.302292239E0,-3.651190996E-1,-2.356895804E-2,-2.114548385E-1
2.304780051E0,-3.502054214E-1,1.997369342E-3,-1.986716688E-1
2.307267864E0,-3.342264593E-1,2.543316968E-2,-1.848232448E-1
2.309755676E0,-3.171822429E-1,4.567318037E-2,-1.709748209E-1
2.312243489E0,-3.001380265E-1,6.271740049E-2,-1.571263820E-1
2.314731301E0,-2.830938101E-1,7.976161689E-2,-1.432779580E-1
2.317219114E0,-2.660495937E-1,9.467530251E-2,-1.315600574E-1
2.319706926E0,-2.479401082E-1,1.106542572E-1,-1.230379492E-1
2.322194739E0,-2.287653685E-1,1.255679578E-1,-1.187768951E-1
2.324682551E0,-2.095906287E-1,1.404816359E-1,-1.177116334E-1
2.327170364E0,-1.914811432E-1,1.543300748E-1,-1.198421568E-1
2.329658176E0,-1.733716577E-1,1.671132296E-1,-1.262337416E-1
2.332145989E0,-1.563274413E-1,1.767006069E-1,-1.379516423E-1
2.334633801E0,-1.414137483E-1,1.830921918E-1,-1.528653353E-1
2.337121614E0,-1.286305785E-1,1.820269227E-1,-1.720400751E-1
2.339609426E0,-1.201084778E-1,1.745700836E-1,-1.933453530E-1
2.342097239E0,-1.158474237E-1,1.607216448E-1,-2.167811543E-1
2.344585051E0,-1.179779470E-1,1.383511126E-1,-2.434127480E-1
2.347072864E0,-1.243695319E-1,1.074584723E-1,-2.711096108E-1
2.349560676E0,-1.360874325E-1,7.123950869E-2,-2.988064587E-1
2.352048489E0,-1.499358565E-1,2.969422378E-2,-3.233075142E-1
2.354536301E0,-1.669800729E-1,-1.291632187E-2,-3.446127772E-1
2.357024114E0,-1.840242893E-1,-5.552686751E-2,-3.637875319E-1
2.359511926E0,-2.021337748E-1,-9.494162351E-2,-3.787012100E-1
2.361999739E0,-2.202432603E-1,-1.290300637E-1,-3.904191256E-1
2.364487551E0,-2.372874767E-1,-1.567269117E-1,-4.000065029E-1
2.366975364E0,-2.532664239E-1,-1.780321896E-1,-4.063980877E-1
2.369463906E0,-2.660495937E-1,-1.940111369E-1,-4.117243886E-1
2.371951666E0,-2.767022252E-1,-2.035985142E-1,-4.138549268E-1
2.374439426E0,-2.852243483E-1,-2.057290375E-1,-4.127896726E-1
2.376927187E0,-2.905506492E-1,-2.025332451E-1,-4.074633420E-1
2.379414947E0,-2.926811874E-1,-1.929458827E-1,-3.978759646E-1
2.381902708E0,-2.916159332E-1,-1.780321896E-1,-3.840275407E-1
2.384390468E0,-2.884201407E-1,-1.577921808E-1,-3.669833243E-1
2.386878229E0,-2.820285559E-1,-1.332911104E-1,-3.456780612E-1
2.389365989E0,-2.724411786E-1,-1.045289934E-1,-3.211769760E-1
2.391853749E0,-2.617885470E-1,-7.470161468E-2,-2.945453823E-1
2.394341510E0,-2.490053773E-1,-4.380896688E-2,-2.657832801E-1
2.396829270E0,-2.351569533E-1,-1.398158539E-2,-2.370211631E-1
2.399317031E0,-2.213085145E-1,1.691105962E-2,-2.114548385E-1
2.401804791E0,-2.074600905E-1,4.673844203E-2,-1.858884990E-1
2.404292551E0,-1.957421899E-1,7.656582445E-2,-1.635179669E-1
2.406780312E0,-1.829590350E-1,1.063932031E-1,-1.443432271E-1
2.409268072E0,-1.701758653E-1,1.340900660E-1,-1.272990108E-1
2.411755833E0,-1.595232338E-1,1.607216448E-1,-1.123853177E-1
2.414243593E0,-1.488705873E-1,1.852227151E-1,-9.960214794E-2
2.416731354E0,-1.392832249E-1,2.033322006E-1,-8.894951642E-2
2.419219114E0,-1.307611167E-1,2.182458937E-1,-8.149266988E-2
2.421706874E0,-1.254348010E-1,2.267680019E-1,-7.829687744E-2
2.424194635E0,-1.211737394E-1,2.310290486E-1,-7.829687744E-2
2.426682395E0,-1.201084778E-1,2.299637944E-1,-8.255793154E-2
2.429170156E0,-1.222390011E-1,2.246374637E-1,-8.894951642E-2
2.431657916E0,-1.254348010E-1,2.129195631E-1,-9.853688627E-2
2.434145676E0,-1.328916401E-1,1.969406158E-1,-1.091895252E-1
2.436633489E0,-1.414137483E-1,1.767006069E-1,-1.209074259E-1
2.439121301E0,-1.541969180E-1,1.521995366E-1,-1.315600574E-1
2.441609114E0,-1.669800729E-1,1.266332120E-1,-1.432779580E-1
2.444096926E0,-1.808284968E-1,9.787109494E-2,-1.528653353E-1
2.446584739E0,-1.968074590E-1,6.910897791E-2,-1.624527127E-1
2.449072551E0,-2.138516754E-1,4.247738793E-2,-1.699095517E-1
2.451560364E0,-2.308958918E-1,1.904158667E-2,-1.763011366E-1
2.454048176E0,-2.490053773E-1,-1.198421582E-3,-1.794969290E-1
2.456535989E0,-2.660495937E-1,-1.930790395E-2,-1.805621833E-1
2.459023801E0,-2.809632719E-1,-3.422159329E-2,-1.805621833E-1
2.461511614E0,-2.937464416E-1,-4.593949392E-2,-1.784316599E-1
2.463999426E0,-3.054643571E-1,-5.552686751E-2,-1.773663908E-1
2.466487239E0,-3.150517344E-1,-6.404897571E-2,-1.752358675E-1
2.468975051E0,-3.225085735E-1,-6.937529147E-2,-1.720400751E-1
2.471462864E0,-3.299654126E-1,-7.363634557E-2,-1.677790284E-1
2.473950676E0,-3.352917433E-1,-7.363634557E-2,-1.635179669E-1
2.476438489E0,-3.384875357E-1,-6.937529147E-2,-1.549958587E-1
2.478926301E0,-3.384875357E-1,-5.978792161E-2,-1.432779580E-1
2.481414114E0,-3.352917433E-1,-4.274370521E-2,-1.272990108E-1
2.483901926E0,-3.289001584E-1,-2.037316747E-2,-1.091895252E-1
2.486389739E0,-3.203780353E-1,7.323687430E-3,-8.788424730E-2
2.488877551E0,-3.086601496E-1,3.608580679E-2,-6.764423847E-2
2.491365364E0,-2.937464416E-1,6.697845459E-2,-4.846949503E-2
2.493853176E0,-2.777675092E-1,9.680583328E-2,-3.462106735E-2
2.496340989E0,-2.607232630E-1,1.223721579E-1,-2.503369562E-2
2.498828801E0,-2.415485233E-1,1.447426975E-1,-2.290316857E-2
2.501317083E0,-2.245043069E-1,1.639174372E-1,-2.503369562E-2
2.503805364E0,-2.085253596E-1,1.788311303E-1,-3.142527863E-2
2.506293385E0,-1.957421899E-1,1.905490309E-1,-3.994738683E-2
2.508781197E0,-1.850895584E-1,1.958753467E-1,-4.846949503E-2
2.511269010E0,-1.786979735E-1,1.969406158E-1,-5.592634156E-2
2.513756822E0,-1.733716577E-1,1.916143000E-1,-6.338318437E-2
2.516244635E0,-1.701758653E-1,1.830921918E-1,-7.190529257E-2
2.518732447E0,-1.680453420E-1,1.703090221E-1,-7.936213911E-2
2.521220260E0,-1.680453420E-1,1.543300748E-1,-8.788424730E-2
2.523708072E0,-1.680453420E-1,1.362205893E-1,-9.747162461E-2
2.526195885E0,-1.669800729E-1,1.181111038E-1,-1.102547869E-1
2.528683697E0,-1.680453420E-1,1.000016257E-1,-1.251684725E-1
2.531171510E0,-1.669800729E-1,8.082687855E-2,-1.422126889E-1
2.533659322E0,-1.659148186E-1,6.058686972E-2,-1.624527127E-1
2.536147135E0,-1.669800729E-1,4.141212255E-2,-1.826927215E-1
2.538634947E0,-1.691105962E-1,2.330264263E-2,-2.029327303E-1
2.541122760E0,-1.712411344E-1,6.258423906E-3,-2.210422009E-1
2.543610572E0,-1.723063886E-1,-1.185105834E-2,-2.370211631E-1
2.546098385E0,-1.733716577E-1,-2.889527567E-2,-2.498043180E-1
2.548586197E0,-1.733716577E-1,-4.593949392E-2,-2.615222335E-1
2.551074010E0,-1.723063886E-1,-6.085318699E-2,-2.732401192E-1
2.553561822E0,-1.680453420E-1,-7.363634557E-2,-2.838927507E-1
2.556049635E0,-1.637842804E-1,-8.428898454E-2,-2.934801280E-1
2.558537447E0,-1.584579647E-1,-9.174583107E-2,-3.041327596E-1
2.561025260E0,-1.520663798E-1,-9.600688517E-2,-3.147853911E-1
2.563513072E0,-1.446095407E-1,-9.387636185E-2,-3.243727684E-1
2.566000885E0,-1.371526867E-1,-8.748477697E-2,-3.318296373E-1
2.568488697E0,-1.296958476E-1,-7.789740711E-2,-3.382211924E-1
2.570976510E0,-1.201084778E-1,-6.298371404E-2,-3.403517306E-1
2.573464322E0,-1.105211005E-1,-4.380896688E-2,-3.403517306E-1
2.575952135E0,-9.880319983E-2,-2.356895804E-2,-3.382211924E-1
2.578439947E0,-8.708529919E-2,-3.328948980E-3,-3.328948915E-1
2.580927760E0,-7.430213690E-2,1.797632314E-2,-3.243727684E-1
2.583415572E0,-6.258423626E-2,3.715106845E-2,-3.158506751E-1
2.585903385E0,-5.193160102E-2,5.313002318E-2,-3.073285520E-1
2.588391197E0,-4.447475821E-2,6.697845459E-2,-2.988064587E-1
2.590879010E0,-4.021370411E-2,7.443529367E-2,-2.902843356E-1
2.593366822E0,-3.701791167E-2,7.869634777E-2,-2.828274965E-1
2.595854635E0,-3.701791167E-2,7.550056279E-2,-2.764359117E-1
2.598342447E0,-3.701791167E-2,6.697845459E-2,-2.711096108E-1
2.600830260E0,-3.914843872E-2,5.419528857E-2,-2.657832801E-1
2.603318072E0,-4.234423116E-2,3.821633384E-2,-2.604569495E-1
2.605805885E0,-4.660528526E-2,2.010685205E-2,-2.530001104E-1
2.608293697E0,-5.086633936E-2,1.997369342E-3,-2.455432713E-1
2.610781510E0,-5.299686641E-2,-1.398158539E-2,-2.359558940E-1
2.613269322E0,-5.512739345E-2,-2.676474862E-2,-2.253032625E-1
2.615757135E0,-5.406212807E-2,-3.528685868E-2,-2.135853618E-1
2.618244947E0,-5.086633936E-2,-3.954791278E-2,-2.018674612E-1
2.620732760E0,-4.660528526E-2,-3.954791278E-2,-1.912148297E-1
2.623220572E0,-4.234423116E-2,-3.741738573E-2,-1.816274524E-1
2.625708385E0,-3.595264629E-2,-3.315633163E-2,-1.731053442E-1
2.628196197E0,-2.956106514E-2,-2.783001214E-2,-1.677790284E-1
2.630684010E0,-2.210422046E-2,-2.250369452E-2,-1.645832360E-1
2.633171822E0,-1.571263932E-2,-1.717737690E-2,-1.635179669E-1
2.635659635E0,-8.255792782E-3,-1.291632187E-2,-1.645832360E-1
2.638147447E0,-1.864211401E-3,-9.720530361E-3,-1.667137593E-1
2.640635260E0,2.396843163E-3,-5.459476262E-3,-1.699095517E-1
2.643123072E0,4.527370445E-3,-4.394212738E-3,-1.731053442E-1
2.645610885E0,3.462106921E-3,-4.394212738E-3,-1.773663908E-1
2.648098697E0,1.331579522E-3,-5.459476262E-3,-1.805621833E-1
2.650586510E0,-2.929474926E-3,-8.655266836E-3,-1.826927215E-1
2.653074322E0,-8.255792782E-3,-1.185105834E-2,-1.858884990E-1
2.655562135E0,-1.358211134E-2,-1.611211337E-2,-1.858884990E-1
2.658049947E0,-1.997369342E-2,-2.037316747E-2,-1.837579757E-1
2.660537760E0,-2.530001104E-2,-2.463422157E-2,-1.784316599E-1
2.663025572E0,-3.062633052E-2,-2.676474862E-2,-1.699095517E-1
2.665513385E0,-3.595264629E-2,-2.569948509E-2,-1.603221744E-1
2.668001197E0,-4.021370411E-2,-2.143843099E-2,-1.486042738E-1
2.670489010E0,-4.340949282E-2,-1.504684892E-2,-1.368863732E-1
2.672976822E0,-4.660528526E-2,-8.655266836E-3,-1.251684725E-1
2.675464635E0,-4.873581231E-2,-1.198421582E-3,-1.166463718E-1
2.677952447E0,-4.873581231E-2,5.193160381E-3,-1.081242561E-1
2.680440260E0,-4.767054692E-2,1.265000552E-2,-1.027979404E-1
2.682928072E0,-4.340949282E-2,1.904158667E-2,-9.853688627E-2
2.685415885E0,-3.808317333E-2,2.543316968E-2,-9.427583218E-2
2.687903697E0,-3.169159219E-2,3.395527974E-2,-9.001477808E-2
2.690391510E0,-2.210422046E-2,4.247738793E-2,-8.468846232E-2
2.692879322E0,-1.145158429E-2,5.419528857E-2,-7.723161578E-2
2.695367135E0,2.396843163E-3,6.591318548E-2,-6.764423847E-2
2.697854947E0,1.731053367E-2,7.869634777E-2,-5.805686861E-2
2.700342760E0,3.435475379E-2,9.254477918E-2,-4.740423337E-2
2.702830572E0,5.246423557E-2,1.074584723E-1,-3.781685978E-2
2.705318385E0,7.057371736E-2,1.202416345E-1,-3.036001325E-2
2.707806197E0,8.761793375E-2,1.319595277E-1,-2.609895915E-2
2.710294010E0,1.025316268E-1,1.415469050E-1,-2.503369562E-2
2.712781822E0,1.153147891E-1,1.479384899E-1,-2.609895915E-2
2.715269635E0,1.280979514E-1,1.511342824E-1,-3.036001325E-2
2.717757447E0,1.398158520E-1,1.511342824E-1,-3.568633273E-2
2.720245260E0,1.483379602E-1,1.479384899E-1,-4.314317927E-2
2.722733072E0,1.557948142E-1,1.415469050E-1,-5.166528746E-2
2.725220885E0,1.632516533E-1,1.319595277E-1,-6.231792271E-2
2.727708697E0,1.685779691E-1,1.202416345E-1,-7.190529257E-2
2.730196510E0,1.728390306E-1,1.063932031E-1,-8.362319320E-2
2.732684322E0,1.749695539E-1,9.147951752E-2,-9.534109384E-2
2.735172135E0,1.749695539E-1,7.656582445E-2,-1.081242561E-1
2.737659947E0,1.739042848E-1,6.058686972E-2,-1.198421568E-1
2.740147760E0,1.717737615E-1,4.460791498E-2,-1.315600574E-1
2.742635572E0,1.685779691E-1,2.969422378E-2,-1.422126889E-1
2.745123385E0,1.653821766E-1,1.691105962E-2,-1.518000662E-1
2.747611197E0,1.643169224E-1,4.127896391E-3,-1.603221744E-1
2.750099010E0,1.611211300E-1,-4.394212738E-3,-1.667137593E-1
2.752586822E0,1.600558609E-1,-1.185105834E-2,-1.720400751E-1
2.755074635E0,1.589905918E-1,-1.717737690E-2,-1.752358675E-1
2.757562447E0,1.568600684E-1,-2.037316747E-2,-1.773663908E-1
2.760050260E0,1.547295451E-1,-2.143843099E-2,-1.784316599E-1
2.762538072E0,1.525990218E-1,-2.143843099E-2,-1.784316599E-1
2.765025885E0,1.504684836E-1,-2.037316747E-2,-1.752358675E-1
2.767513697E0,1.504684836E-1,-1.611211337E-2,-1.688442826E-1
2.770001510E0,1.504684836E-1,-9.720530361E-3,-1.592569202E-1
2.772489322E0,1.525990218E-1,-1.331579551E-4,-1.464737505E-1
2.774977135E0,1.568600684E-1,1.158474199E-2,-1.294295341E-1
2.777464947E0,1.611211300E-1,2.649843320E-2,-1.113200486E-1
2.779952760E0,1.664474458E-1,4.354264960E-2,-9.214530140E-2
2.782440572E0,1.739042848E-1,6.058686972E-2,-7.403582335E-2
2.784928385E0,1.824263930E-1,7.656582445E-2,-5.805686861E-2
2.787416197E0,1.920137703E-1,9.147951752E-2,-4.527370632E-2
2.789904010E0,2.026664019E-1,1.031974182E-1,-3.355580568E-2
2.792391822E0,2.143843025E-1,1.138500497E-1,-2.609895915E-2
2.794879635E0,2.261022031E-1,1.234374270E-1,-1.864211448E-2
2.797367447E0,2.388853729E-1,1.330247968E-1,-1.331579592E-2
2.799855260E0,2.516685426E-1,1.426121742E-1,-6.924213842E-3
2.802343072E0,2.633864284E-1,1.532648057E-1,5.326318205E-4
2.804830885E0,2.772348523E-1,1.628521830E-1,7.989477366E-3
2.807318697E0,2.900180221E-1,1.735048145E-1,1.757685095E-2
2.809806510E0,3.038664460E-1,1.841574460E-1,2.609895915E-2
2.812294322E0,3.166496158E-1,1.937448233E-1,3.568633273E-2
2.814782135E0,3.283675313E-1,2.022669315E-1,4.207791388E-2
2.817269947E0,3.390201628E-1,2.086585164E-1,4.633896798E-2
2.819757760E0,3.486075401E-1,2.150501013E-1,4.846949503E-2
2.822245572E0,3.571296334E-1,2.182458937E-1,4.846949503E-2
2.824733385E0,3.645864725E-1,2.203764170E-1,4.740423337E-2
2.827221197E0,3.720433414E-1,2.203764170E-1,4.314317927E-2
2.829709010E0,3.773696423E-1,2.203764170E-1,3.675159439E-2
2.832196822E0,3.816306889E-1,2.171806246E-1,3.036001325E-2
2.834684635E0,3.848264813E-1,2.150501013E-1,2.290316857E-2
2.837172447E0,3.869570196E-1,2.107890397E-1,1.544632297E-2
2.839660260E0,3.869570196E-1,2.054627240E-1,9.054740891E-3
2.842148072E0,3.848264813E-1,1.980058849E-1,1.597895520E-3
2.844635885E0,3.816306889E-1,1.884185076E-1,-5.858949851E-3
2.847123697E0,3.773696423E-1,1.756353378E-1,-1.331579592E-2
2.849611510E0,3.709780574E-1,1.617869139E-1,-2.183790505E-2
2.852099322E0,3.645864725E-1,1.447426975E-1,-2.929474972E-2
2.854587135E0,3.571296334E-1,1.276984811E-1,-3.462106735E-2
2.857074947E0,3.486075401E-1,1.117195264E-1,-3.994738683E-2
2.859562760E0,3.422159553E-1,9.574057162E-2,-4.420844093E-2
2.862050572E0,3.358243704E-1,8.189214021E-2,-4.846949503E-2
2.864538385E0,3.294327855E-1,6.804371625E-2,-5.060002208E-2
2.867026197E0,3.241064548E-1,5.739107728E-2,-5.273054913E-2
2.869514010E0,3.198454082E-1,4.673844203E-2,-5.592634156E-2
2.872001822E0,3.155843616E-1,3.928159550E-2,-5.912213027E-2
2.874489635E0,3.113232851E-1,3.502054140E-2,-6.231792271E-2
2.876977447E0,3.081275225E-1,3.289001435E-2,-6.551371515E-2
2.879465260E0,3.049317300E-1,3.289001435E-2,-6.870950758E-2
2.881953072E0,3.017359376E-1,3.608580679E-2,-7.084003091E-2
2.884440885E0,2.996053994E-1,4.141212255E-2,-7.190529257E-2
2.886928697E0,2.985401452E-1,4.886896908E-2,-7.084003091E-2
2.889416510E0,2.985401452E-1,5.632581562E-2,-6.870950758E-2
2.891904322E0,2.974748611E-1,6.484792382E-2,-6.551371515E-2
2.894392135E0,2.964096069E-1,7.550056279E-2,-6.125266105E-2
2.896879947E0,2.964096069E-1,8.508793265E-2,-5.805686861E-2
2.899367760E0,2.942790687E-1,9.574057162E-2,-5.379581451E-2
2.901855572E0,2.932138145E-1,1.063932031E-1,-4.953476042E-2
2.904343385E0,2.921485603E-1,1.159805804E-1,-4.420844093E-2
2.906831197E0,2.910832763E-1,1.255679578E-1,-4.101264849E-2
2.909319010E0,2.900180221E-1,1.351553202E-1,-3.568633273E-2
2.911806822E0,2.889527678E-1,1.426121742E-1,-3.249054030E-2
2.914294635E0,2.868222296E-1,1.490037590E-1,-2.929474972E-2
2.916782447E0,2.836264372E-1,1.521995366E-1,-2.609895915E-2
2.919270260E0,2.804306448E-1,1.532648057E-1,-2.396843210E-2
2.921758072E0,2.761695981E-1,1.521995366E-1,-2.396843210E-2
2.924245885E0,2.708432674E-1,1.479384899E-1,-2.503369562E-2
2.926733697E0,2.665822208E-1,1.415469050E-1,-2.716422267E-2
2.929221510E0,2.601906359E-1,1.340900660E-1,-2.929474972E-2
2.931709322E0,2.548643351E-1,1.266332120E-1,-3.249054030E-2
2.934197135E0,2.484727502E-1,1.181111038E-1,-3.675159439E-2
2.936684947E0,2.420811653E-1,1.095889956E-1,-3.994738683E-2
2.939172760E0,2.356895804E-1,1.010668874E-1,-4.420844093E-2
2.941660572E0,2.292979956E-1,9.041424841E-2,-4.846949503E-2
2.944148385E0,2.239716798E-1,8.082687855E-2,-5.166528746E-2
2.946636197E0,2.186453640E-1,7.123950869E-2,-5.486107618E-2
2.949124010E0,2.133190483E-1,6.165213138E-2,-5.699160323E-2
2.951611822E0,2.090579867E-1,5.099949613E-2,-6.018739566E-2
2.954099635E0,2.037316710E-1,4.034686089E-2,-6.444845349E-2
2.956587447E0,1.994706094E-1,3.075948730E-2,-6.977476925E-2
2.959075260E0,1.941442937E-1,2.117211558E-2,-7.297056168E-2
2.961563072E0,1.888179779E-1,1.158474199E-2,-7.723161578E-2
2.964050885E0,1.845569313E-1,4.127896391E-3,-8.042740822E-2
2.966538697E0,1.802958697E-1,-3.328948980E-3,-8.255793154E-2
2.969026510E0,1.749695539E-1,-8.655266836E-3,-8.362319320E-2
2.971514322E0,1.707084924E-1,-1.185105834E-2,-8.575372398E-2
2.974002135E0,1.664474458E-1,-1.185105834E-2,-8.575372398E-2
2.976489947E0,1.621863842E-1,-1.078579482E-2,-8.575372398E-2
2.978977760E0,1.589905918E-1,-8.655266836E-3,-8.362319320E-2
2.981465572E0,1.557948142E-1,-5.459476262E-3,-8.362319320E-2
2.983953385E0,1.536642760E-1,-1.198421582E-3,-8.149266988E-2
2.986441197E0,1.504684836E-1,3.062632866E-3,-7.936213911E-2
2.988929010E0,1.462074369E-1,5.193160381E-3,-7.723161578E-2
2.991416822E0,1.408811212E-1,7.323687430E-3,-7.510108501E-2
2.993904635E0,1.366200596E-1,9.454214945E-3,-7.297056168E-2
2.996392447E0,1.312937438E-1,1.051947847E-2,-6.870950758E-2
2.998880260E0,1.270326823E-1,1.265000552E-2,-6.338318437E-2
3.001368072E0,1.227716357E-1,1.371526904E-2,-5.805686861E-2
3.003855885E0,1.185105816E-1,1.691105962E-2,-5.166528746E-2
3.006343697E0,1.153147891E-1,1.904158667E-2,-4.527370632E-2
3.008831510E0,1.121189967E-1,2.330264263E-2,-3.888212144E-2
3.011319322E0,1.089232042E-1,2.756369673E-2,-3.142527863E-2
3.013807135E0,1.046621501E-1,3.182475269E-2,-2.716422267E-2
3.016294947E0,1.014663652E-1,3.608580679E-2,-2.290316857E-2
3.018782760E0,9.827057272E-2,3.928159550E-2,-1.970737800E-2
3.021270572E0,9.400951862E-2,4.141212255E-2,-1.757685095E-2
3.023758385E0,8.974846452E-2,4.354264960E-2,-1.651158556E-2
3.026246197E0,8.655267209E-2,4.460791498E-2,-1.544632297E-2
3.028734010E0,8.229161799E-2,4.460791498E-2,-1.544632297E-2
3.031221822E0,7.909582555E-2,4.354264960E-2,-1.757685095E-2
3.033709635E0,7.590003312E-2,4.247738793E-2,-1.970737800E-2
3.036197447E0,7.163897902E-2,4.034686089E-2,-2.290316857E-2
3.038685260E0,6.737792492E-2,3.821633384E-2,-2.503369562E-2
3.041173229E0,6.311687082E-2,3.608580679E-2,-2.822948620E-2
3.043660989E0,5.885581672E-2,3.502054140E-2,-3.142527863E-2
3.046148749E0,5.459476262E-2,3.182475269E-2,-3.462106735E-2
3.048636510E0,5.033370852E-2,2.862896025E-2,-3.781685978E-2
3.051124270E0,4.607265070E-2,2.436790615E-2,-4.207791388E-2
3.053612031E0,4.181159660E-2,1.797632314E-2,-4.527370632E-2
3.056099791E0,3.755054250E-2,1.265000552E-2,-4.953476042E-2
3.058587551E0,3.435475379E-2,6.258423906E-3,-5.166528746E-2
3.061075312E0,3.009369783E-2,9.321057005E-4,-5.379581451E-2
3.063563072E0,2.796317078E-2,-3.328948980E-3,-5.486107618E-2
3.066050833E0,2.689790726E-2,-6.524739787E-3,-5.486107618E-2
3.068538593E0,2.583264373E-2,-9.720530361E-3,-5.592634156E-2
3.071026354E0,2.476738021E-2,-1.185105834E-2,-5.486107618E-2
3.073514114E0,2.370211668E-2,-1.291632187E-2,-5.486107618E-2
3.076001874E0,2.263685316E-2,-1.398158539E-2,-5.379581451E-2
3.078489635E0,2.157158963E-2,-1.504684892E-2,-5.379581451E-2
3.080977395E0,2.050632425E-2,-1.611211337E-2,-5.379581451E-2
3.083465156E0,1.837579720E-2,-1.717737690E-2,-5.592634156E-2
3.085952916E0,1.731053367E-2,-1.824264042E-2,-5.592634156E-2
3.088440676E0,1.731053367E-2,-1.824264042E-2,-5.699160323E-2
3.090928437E0,1.624527015E-2,-1.930790395E-2,-5.805686861E-2
3.093416197E0,1.624527015E-2,-1.930790395E-2,-5.912213027E-2
3.095903958E0,1.731053367E-2,-1.930790395E-2,-6.125266105E-2
3.098391718E0,1.731053367E-2,-2.037316747E-2,-6.231792271E-2
3.100879479E0,1.837579720E-2,-2.037316747E-2,-6.338318437E-2
3.103367239E0,1.944106072E-2,-2.037316747E-2,-6.231792271E-2
3.105855051E0,1.944106072E-2,-2.037316747E-2,-6.231792271E-2
3.108342864E0,2.050632425E-2,-2.037316747E-2,-6.231792271E-2
3.110830676E0,2.157158963E-2,-1.930790395E-2,-6.125266105E-2
3.113318489E0,2.370211668E-2,-1.930790395E-2,-6.018739566E-2
3.115806301E0,2.583264373E-2,-1.930790395E-2,-6.018739566E-2
3.118294114E0,2.689790726E-2,-2.037316747E-2,-5.805686861E-2
3.120781926E0,2.902843431E-2,-2.037316747E-2,-5.805686861E-2
3.123269791E0,3.009369783E-2,-2.250369452E-2,-5.805686861E-2
3.125757656E0,3.115896136E-2,-2.463422157E-2,-5.699160323E-2
3.128245520E0,3.328948840E-2,-2.569948509E-2,-5.592634156E-2
3.130733385E0,3.435475379E-2,-2.676474862E-2,-5.486107618E-2
3.133221249E0,3.648528084E-2,-2.783001214E-2,-5.486107618E-2
3.135709114E0,3.755054250E-2,-2.676474862E-2,-5.379581451E-2
3.138196979E0,3.861580789E-2,-2.676474862E-2,-5.379581451E-2
3.140684843E0,3.968106955E-2,-2.569948509E-2,-5.166528746E-2
3.143172708E0,4.074633494E-2,-2.569948509E-2,-5.166528746E-2
3.145660572E0,4.181159660E-2,-2.463422157E-2,-5.060002208E-2
3.148148437E0,4.287686199E-2,-2.356895804E-2,-4.953476042E-2
3.150636301E0,4.287686199E-2,-2.356895804E-2,-4.740423337E-2
3.153124166E0,4.394212365E-2,-2.356895804E-2,-4.527370632E-2
3.155612031E0,4.607265070E-2,-2.463422157E-2,-4.314317927E-2
3.158099895E0,4.713791609E-2,-2.569948509E-2,-3.994738683E-2
3.160587760E0,4.820318148E-2,-2.569948509E-2,-3.675159439E-2
3.163075624E0,4.820318148E-2,-2.783001214E-2,-3.355580568E-2
3.165563489E0,4.820318148E-2,-2.889527567E-2,-2.929474972E-2
3.168051354E0,4.926844314E-2,-2.996053919E-2,-2.609895915E-2
3.170539218E0,4.926844314E-2,-2.996053919E-2,-2.183790505E-2
3.173027083E0,5.139897019E-2,-3.209106624E-2,-1.651158556E-2
3.175514947E0,5.246423557E-2,-3.209106624E-2,-1.225053146E-2
3.178002812E0,5.246423557E-2,-3.102580272E-2,-6.924213842E-3
3.180490676E0,5.459476262E-2,-2.996053919E-2,-1.597895520E-3
3.182978541E0,5.566002429E-2,-2.783001214E-2,4.793686327E-3
3.185466354E0,5.672528967E-2,-2.569948509E-2,1.118526794E-2
3.187954166E0,5.885581672E-2,-2.356895804E-2,1.651158556E-2
3.190441979E0,5.992107838E-2,-2.143843099E-2,2.183790505E-2
3.192929791E0,6.205160543E-2,-1.824264042E-2,2.503369562E-2
3.195417604E0,6.418213248E-2,-1.611211337E-2,2.929474972E-2
3.197905416E0,6.631266326E-2,-1.398158539E-2,3.249054030E-2
3.200393229E0,6.737792492E-2,-1.185105834E-2,3.462106735E-2
3.202881041E0,6.737792492E-2,-9.720530361E-3,3.675159439E-2
3.205368854E0,6.737792492E-2,-8.655266836E-3,3.888212144E-2
3.207856666E0,6.631266326E-2,-7.590003312E-3,4.207791388E-2
3.210344479E0,6.524740160E-2,-5.459476262E-3,4.420844093E-2
3.212832291E0,6.311687082E-2,-4.394212738E-3,4.633896798E-2
3.215320104E0,5.992107838E-2,-3.328948980E-3,4.846949503E-2
3.217807916E0,5.672528967E-2,-4.394212738E-3,5.060002208E-2
3.220295729E0,5.246423557E-2,-5.459476262E-3,5.273054913E-2
3.222783541E0,4.820318148E-2,-7.590003312E-3,5.379581451E-2
3.225271354E0,4.394212365E-2,-1.078579482E-2,5.486107618E-2
3.227759166E0,3.861580789E-2,-1.398158539E-2,5.486107618E-2
3.230246979E0,3.222422674E-2,-1.824264042E-2,5.486107618E-2
3.232734791E0,2.583264373E-2,-2.356895804E-2,5.379581451E-2
3.235222604E0,1.944106072E-2,-2.889527567E-2,5.273054913E-2
3.237710416E0,1.304947957E-2,-3.315633163E-2,5.060002208E-2
3.240198229E0,5.592633970E-3,-3.741738573E-2,4.846949503E-2
3.242686041E0,-2.929474926E-3,-4.061317816E-2,4.740423337E-2
3.245173854E0,-9.321057238E-3,-4.380896688E-2,4.846949503E-2
3.247661666E0,-1.784316637E-2,-4.487423226E-2,4.953476042E-2
3.250149479E0,-2.849580161E-2,-4.593949392E-2,5.273054913E-2
3.252637291E0,-3.808317333E-2,-4.700475931E-2,5.486107618E-2
3.255125104E0,-4.980107397E-2,-4.913528636E-2,6.018739566E-2
3.257612916E0,-6.364950538E-2,-5.233107507E-2,6.551371515E-2
3.260100729E0,-7.749792933E-2,-5.765739456E-2,7.084003091E-2
3.262588541E0,-9.347688407E-2,-6.511423737E-2,7.723161578E-2
3.265076354E0,-1.115863696E-1,-7.576687634E-2,8.362319320E-2
3.267564166E0,-1.296958476E-1,-8.748477697E-2,8.894951642E-2
3.270051979E0,-1.467400640E-1,-9.920267761E-2,9.640636295E-2
3.272539791E0,-1.616537571E-1,-1.087900475E-1,1.027979404E-1
3.275027604E0,-1.755021811E-1,-1.151816323E-1,1.081242561E-1
3.277515416E0,-1.861548275E-1,-1.183774248E-1,1.134505793E-1
3.280003229E0,-1.946769357E-1,-1.162468940E-1,1.166463718E-1
3.282491041E0,-2.010685056E-1,-1.098553166E-1,1.177116334E-1
3.284978854E0,-2.074600905E-1,-9.813741595E-2,1.166463718E-1
3.287466666E0,-2.127864063E-1,-8.428898454E-2,1.113200486E-1
3.289954479E0,-2.159821987E-1,-6.831002980E-2,1.038632020E-1
3.292442291E0,-2.191779912E-1,-5.233107507E-2,9.214530140E-2
3.294930104E0,-2.202432603E-1,-3.635212034E-2,7.723161578E-2
3.297417916E0,-2.213085145E-1,-2.356895804E-2,6.018739566E-2
3.299905729E0,-2.213085145E-1,-1.291632187E-2,4.207791388E-2
3.302393541E0,-2.202432603E-1,-4.394212738E-3,2.183790505E-2
3.304881354E0,-2.213085145E-1,3.062632866E-3,-5.326318205E-4
3.307369166E0,-2.223737836E-1,7.323687430E-3,-2.077264152E-2
3.309856979E0,-2.234390527E-1,9.454214945E-3,-4.207791388E-2
3.312344791E0,-2.266348451E-1,9.454214945E-3,-6.338318437E-2
3.314832604E0,-2.308958918E-1,6.258423906E-3,-8.362319320E-2
3.317320416E0,-2.362222075E-1,9.321057005E-4,-1.038632020E-1
3.319808229E0,-2.426137924E-1,-7.590003312E-3,-1.230379492E-1
3.322296041E0,-2.511359155E-1,-1.930790395E-2,-1.411474347E-1
3.324783854E0,-2.607232630E-1,-3.209106624E-2,-1.571263820E-1
3.327271666E0,-2.692453861E-1,-4.593949392E-2,-1.709748209E-1
3.329759479E0,-2.777675092E-1,-5.978792161E-2,-1.816274524E-1
3.332247291E0,-2.862896025E-1,-6.937529147E-2,-1.880190372E-1
3.334735104E0,-2.937464416E-1,-7.576687634E-2,-1.922800839E-1
3.337222916E0,-3.001380265E-1,-7.683213800E-2,-1.912148297E-1
3.339710729E0,-3.054643571E-1,-7.470161468E-2,-1.869537681E-1
3.342198541E0,-3.086601496E-1,-6.937529147E-2,-1.773663908E-1
3.344686354E0,-3.097254038E-1,-5.872265995E-2,-1.635179669E-1
3.347174166E0,-3.097254038E-1,-4.487423226E-2,-1.464737505E-1
3.349661979E0,-3.065296113E-1,-2.783001214E-2,-1.272990108E-1
3.352149791E0,-3.001380265E-1,-6.524739787E-3,-1.059937328E-1
3.354637604E0,-2.926811874E-1,1.691105962E-2,-8.468846232E-2
3.357125416E0,-2.830938101E-1,4.034686089E-2,-6.231792271E-2
3.359613229E0,-2.724411786E-1,6.484792382E-2,-4.207791388E-2
3.362101041E0,-2.617885470E-1,8.934898674E-2,-2.183790505E-2
3.364588854E0,-2.511359155E-1,1.117195264E-1,-5.858949851E-3
3.367076666E0,-2.436790615E-1,1.330247968E-1,7.989477366E-3
3.369564479E0,-2.362222075E-1,1.490037590E-1,1.864211448E-2
3.372052291E0,-2.330264151E-1,1.617869139E-1,2.503369562E-2
3.374540104E0,-2.330264151E-1,1.692437679E-1,2.716422267E-2
3.377027916E0,-2.340916842E-1,1.713742912E-1,2.503369562E-2
3.379515729E0,-2.362222075E-1,1.713742912E-1,1.970737800E-2
3.382003541E0,-2.404832691E-1,1.671132296E-1,1.118526794E-2
3.384491354E0,-2.468748540E-1,1.596563905E-1,1.597895520E-3
3.386979166E0,-2.522011697E-1,1.521995366E-1,-1.012000442E-2
3.389466979E0,-2.585927546E-1,1.436774284E-1,-2.077264152E-2
3.391954791E0,-2.628538013E-1,1.372858584E-1,-3.142527863E-2
3.394442604E0,-2.671148479E-1,1.330247968E-1,-4.207791388E-2
3.396930416E0,-2.703106403E-1,1.319595277E-1,-5.166528746E-2
3.399418229E0,-2.724411786E-1,1.319595277E-1,-5.912213027E-2
3.401906041E0,-2.745717168E-1,1.330247968E-1,-6.764423847E-2
3.404393854E0,-2.756369710E-1,1.351553202E-1,-7.616634667E-2
3.406881666E0,-2.745717168E-1,1.372858584E-1,-8.362319320E-2
3.409369479E0,-2.735064328E-1,1.383511126E-1,-9.214530140E-2
3.411857291E0,-2.713759243E-1,1.394163817E-1,-1.017326787E-1
3.414345104E0,-2.671148479E-1,1.394163817E-1,-1.113200486E-1
3.416832916E0,-2.639190555E-1,1.383511126E-1,-1.209074259E-1
3.419320729E0,-2.607232630E-1,1.351553202E-1,-1.304948032E-1
3.421808541E0,-2.585927546E-1,1.308942735E-1,-1.400821656E-1
3.424296354E0,-2.553969622E-1,1.266332120E-1,-1.464737505E-1
3.426784166E0,-2.511359155E-1,1.234374270E-1,-1.507348120E-1
3.429271979E0,-2.436790615E-1,1.234374270E-1,-1.528653353E-1
3.431759791E0,-2.351569533E-1,1.245026886E-1,-1.539305896E-1
3.434247604E0,-2.255695760E-1,1.266332120E-1,-1.549958587E-1
3.436735416E0,-2.149169445E-1,1.298290044E-1,-1.571263820E-1
3.439223229E0,-2.053295672E-1,1.362205893E-1,-1.592569202E-1
3.441711041E0,-1.946769357E-1,1.447426975E-1,-1.613874435E-1
3.444198854E0,-1.840242893E-1,1.543300748E-1,-1.624527127E-1
3.446686666E0,-1.712411344E-1,1.681784987E-1,-1.603221744E-1
3.449174479E0,-1.584579647E-1,1.820269227E-1,-1.571263820E-1
3.451662291E0,-1.446095407E-1,1.980058849E-1,-1.507348120E-1
3.454150104E0,-1.307611167E-1,2.129195631E-1,-1.432779580E-1
3.456637916E0,-1.158474237E-1,2.278332561E-1,-1.326253265E-1
3.459125729E0,-1.030642539E-1,2.427469492E-1,-1.209074259E-1
3.461613541E0,-8.921582997E-2,2.565953732E-1,-1.081242561E-1
3.464101354E0,-7.643266767E-2,2.661827505E-1,-9.747162461E-2
3.466589166E0,-6.578002870E-2,2.725743353E-1,-8.788424730E-2
3.469076979E0,-5.725792050E-2,2.736395895E-1,-7.829687744E-2
3.471564791E0,-5.086633936E-2,2.693785429E-1,-7.084003091E-2
3.474052604E0,-4.767054692E-2,2.629869580E-1,-6.231792271E-2
3.476540416E0,-4.554001987E-2,2.544648647E-1,-5.379581451E-2
3.479028229E0,-4.234423116E-2,2.448774725E-1,-4.420844093E-2
3.481516041E0,-4.021370411E-2,2.342248410E-1,-3.462106735E-2
3.484003854E0,-3.701791167E-2,2.246374637E-1,-2.396843210E-2
3.486491666E0,-3.382211924E-2,2.150501013E-1,-1.438105945E-2
3.488979479E0,-2.956106514E-2,2.065279931E-1,-5.858949851E-3
3.491467291E0,-2.423474751E-2,1.980058849E-1,1.597895520E-3
3.493955104E0,-1.784316637E-2,1.926795542E-1,6.924213842E-3
3.496442916E0,-1.145158429E-2,1.884185076E-1,1.118526794E-2
3.498930729E0,-3.994738683E-3,1.852227151E-1,1.544632297E-2
3.501418541E0,4.527370445E-3,1.809616536E-1,1.970737800E-2
3.503906354E0,1.198421605E-2,1.777658761E-1,2.290316857E-2
3.506394166E0,2.050632425E-2,1.724395454E-1,2.822948620E-2
3.508881979E0,2.796317078E-2,1.671132296E-1,3.355580568E-2
3.511369791E0,3.435475379E-2,1.607216448E-1,4.101264849E-2
3.513857604E0,4.074633494E-2,1.521995366E-1,4.846949503E-2
3.516345416E0,4.820318148E-2,1.415469050E-1,5.699160323E-2
3.518833229E0,5.352949724E-2,1.276984811E-1,6.764423847E-2
3.521321249E0,5.885581672E-2,1.138500497E-1,7.829687744E-2
3.523808906E0,6.205160543E-2,9.893636405E-2,9.001477808E-2
3.526296562E0,6.524740160E-2,8.508793265E-2,1.017326787E-1
3.528784218E0,6.737792492E-2,7.337003201E-2,1.145158410E-1
3.531271874E0,6.950845569E-2,6.484792382E-2,1.294295341E-1
3.533759531E0,7.057371736E-2,5.739107728E-2,1.454084814E-1
3.536247187E0,7.057371736E-2,5.419528857E-2,1.645832360E-1
3.538734843E0,7.057371736E-2,5.419528857E-2,1.848232448E-1
3.541222499E0,6.950845569E-2,5.419528857E-2,2.061285079E-1
3.543710156E0,6.844318658E-2,5.526055023E-2,2.284990549E-1
3.546197864E0,6.844318658E-2,5.632581562E-2,2.519348562E-1
3.548685624E0,6.844318658E-2,5.739107728E-2,2.753706574E-1
3.551173437E0,6.844318658E-2,5.845634267E-2,2.988064587E-1
3.553661301E0,7.057371736E-2,5.952160433E-2,3.222422600E-1
3.556149218E0,7.163897902E-2,6.058686972E-2,3.435475230E-1
3.558637135E0,7.376950979E-2,5.952160433E-2,3.637875319E-1
3.561125051E0,7.590003312E-2,5.739107728E-2,3.840275407E-1
3.563612968E0,7.909582555E-2,5.313002318E-2,4.021370113E-1
3.566100885E0,8.229161799E-2,4.886896908E-2,4.202465117E-1
3.568588801E0,8.655267209E-2,4.567318037E-2,4.394212663E-1
3.571076718E0,9.081372619E-2,4.354264960E-2,4.585959911E-1
3.573564635E0,9.720530361E-2,4.141212255E-2,4.777707458E-1
3.576052551E0,1.035968885E-1,4.141212255E-2,4.980107546E-1
3.578540468E0,1.121189967E-1,4.034686089E-2,5.150549412E-1
3.581028385E0,1.217063740E-1,3.821633384E-2,5.310339332E-1
3.583516301E0,1.334242672E-1,3.608580679E-2,5.459476113E-1
3.586004218E0,1.440769136E-1,3.395527974E-2,5.597960353E-1
3.588492031E0,1.557948142E-1,3.289001435E-2,5.725792050E-1
3.590979843E0,1.696432382E-1,3.075948730E-2,5.842971206E-1
3.593467656E0,1.834916621E-1,2.756369673E-2,5.970802903E-1
3.595955468E0,1.984053552E-1,2.543316968E-2,6.087981462E-1
3.598443281E0,2.154495716E-1,2.010685205E-2,6.194508076E-1
3.600931093E0,2.314285189E-1,1.478053257E-2,6.290381551E-1
3.603418906E0,2.484727502E-1,8.388951421E-3,6.375603080E-1
3.605906718E0,2.655169666E-1,1.997369342E-3,6.439518929E-1
3.608394479E0,2.825611830E-1,-5.459476262E-3,6.471476555E-1
3.610882239E0,3.017359376E-1,-1.185105834E-2,6.503434777E-1
3.613369999E0,3.198454082E-1,-1.717737690E-2,6.524739861E-1
3.615857760E0,3.379548788E-1,-2.143843099E-2,6.546044946E-1
3.618345520E0,3.549990952E-1,-2.463422157E-2,6.567350626E-1
3.620833281E0,3.720433414E-1,-2.783001214E-2,6.588655710E-1
3.623321041E0,3.869570196E-1,-2.996053919E-2,6.609960794E-1
3.625808801E0,4.018706977E-1,-3.315633163E-2,6.620613337E-1
3.628296562E0,4.157191217E-1,-3.635212034E-2,6.620613337E-1
3.630784322E0,4.295675755E-1,-3.954791278E-2,6.631265879E-1
3.633272083E0,4.423507154E-1,-4.380896688E-2,6.631265879E-1
3.635759843E0,4.551338851E-1,-4.913528636E-2,6.609960794E-1
3.638247604E0,4.668518007E-1,-5.552686751E-2,6.599308252E-1
3.640735364E0,4.775044322E-1,-6.298371404E-2,6.578003168E-1
3.643223124E0,4.870918095E-1,-6.937529147E-2,6.556697488E-1
3.645710885E0,4.956139028E-1,-7.576687634E-2,6.535392404E-1
3.648198645E0,5.020055175E-1,-7.896266878E-2,6.524739861E-1
3.650686406E0,5.094623566E-1,-7.896266878E-2,6.503434777E-1
3.653174166E0,5.179844499E-1,-7.896266878E-2,6.492781639E-1
3.655661926E0,5.275717974E-1,-8.002793044E-2,6.482129097E-1
3.658149687E0,5.403549671E-1,-8.322372288E-2,6.471476555E-1
3.660637447E0,5.520728827E-1,-8.748477697E-2,6.450171471E-1
3.663125208E0,5.648560524E-1,-9.281109273E-2,6.407560706E-1
3.665612968E0,5.776392221E-1,-9.707214683E-2,6.364950538E-1
3.668100729E0,5.893571377E-1,-1.002679393E-1,6.311687231E-1
3.670588541E0,6.010749936E-1,-1.013332009E-1,6.269076467E-1
3.673076354E0,6.127929091E-1,-1.013332009E-1,6.215813160E-1
3.675564166E0,6.255760789E-1,-1.002679393E-1,6.183855534E-1
3.678051979E0,6.372939944E-1,-9.813741595E-2,6.162550449E-1
3.680539791E0,6.490118504E-1,-9.707214683E-2,6.162550449E-1
3.683027604E0,6.617950201E-1,-9.813741595E-2,6.173202991E-1
3.685515416E0,6.735129356E-1,-1.002679393E-1,6.183855534E-1
3.688003229E0,6.862961054E-1,-1.045289934E-1,6.205160618E-1
3.690491041E0,6.990792751E-1,-1.098553166E-1,6.215813160E-1
3.692978854E0,7.107971907E-1,-1.141163707E-1,6.226465702E-1
3.695466666E0,7.203845382E-1,-1.183774248E-1,6.258423924E-1
3.697954479E0,7.278413773E-1,-1.215732098E-1,6.311687231E-1
3.700442291E0,7.331677079E-1,-1.215732098E-1,6.386255622E-1
3.702930104E0,7.342329621E-1,-1.215732098E-1,6.471476555E-1
3.705417916E0,7.342329621E-1,-1.215732098E-1,6.578003168E-1
3.707905729E0,7.321024537E-1,-1.226384789E-1,6.705834866E-1
3.710393541E0,7.289066315E-1,-1.237037405E-1,6.865624189E-1
3.712881354E0,7.267761230E-1,-1.258342713E-1,7.014760971E-1
3.715369166E0,7.257108688E-1,-1.258342713E-1,7.174550891E-1
3.717856979E0,7.257108688E-1,-1.237037405E-1,7.334340215E-1
3.720344791E0,7.278413773E-1,-1.194426864E-1,7.504782081E-1
3.722832604E0,7.310371995E-1,-1.119858399E-1,7.664572001E-1
3.725320416E0,7.352982163E-1,-1.023984700E-1,7.824361324E-1
3.727808229E0,7.384940386E-1,-9.174583107E-2,7.984151244E-1
3.730296041E0,7.438203096E-1,-8.109319210E-2,8.143940568E-1
3.732783854E0,7.470161319E-1,-7.150582224E-2,8.282424808E-1
3.735271666E0,7.512772083E-1,-6.298371404E-2,8.410256505E-1
3.737759479E0,7.544729710E-1,-5.659212917E-2,8.538088202E-1
3.740247291E0,7.566034794E-1,-5.233107507E-2,8.644614220E-1
3.742735104E0,7.576687932E-1,-5.126581341E-2,8.751140833E-1
3.745222916E0,7.597993016E-1,-5.233107507E-2,8.847014308E-1
3.747710729E0,7.619298100E-1,-5.659212917E-2,8.921582699E-1
3.750198541E0,7.661908865E-1,-6.298371404E-2,8.985498548E-1
3.752686354E0,7.715172172E-1,-6.937529147E-2,9.049414396E-1
3.755174166E0,7.779088020E-1,-7.683213800E-2,9.081372619E-1
3.757661979E0,7.853656411E-1,-8.428898454E-2,9.102677703E-1
3.760149791E0,7.938877344E-1,-9.068056941E-2,9.102677703E-1
3.762637604E0,8.024098277E-1,-9.813741595E-2,9.092025161E-1
3.765125416E0,8.119972348E-1,-1.066595241E-1,9.049414396E-1
3.767613229E0,8.215845823E-1,-1.162468940E-1,8.996151686E-1
3.770101041E0,8.311719298E-1,-1.290300637E-1,8.910930157E-1
3.772588854E0,8.407593369E-1,-1.439437568E-1,8.804404140E-1
3.775076666E0,8.492814302E-1,-1.609879732E-1,8.697877526E-1
3.777564479E0,8.578035235E-1,-1.801627129E-1,8.580698371E-1
3.780052291E0,8.652604222E-1,-2.014679909E-1,8.463519812E-1
3.782540104E0,8.695214391E-1,-2.249037921E-1,8.356993198E-1
3.785027916E0,8.727172613E-1,-2.462090552E-1,8.250467181E-1
3.787515729E0,8.727172613E-1,-2.675143182E-1,8.143940568E-1
3.790003541E0,8.684561849E-1,-2.877543271E-1,8.058719635E-1
3.792491354E0,8.620646000E-1,-3.090596199E-1,7.962845564E-1
3.794979166E0,8.524772525E-1,-3.314301372E-1,7.877624631E-1
3.797466979E0,8.428898454E-1,-3.548659384E-1,7.813708782E-1
3.799954791E0,8.343677521E-1,-3.793670237E-1,7.771098018E-1
3.802442604E0,8.269109130E-1,-4.028028250E-1,7.771098018E-1
3.804930416E0,8.205193281E-1,-4.251733422E-1,7.813708782E-1
3.807418229E0,8.151929975E-1,-4.422175586E-1,7.898929715E-1
3.809906041E0,8.098666668E-1,-4.539354742E-1,8.016108871E-1
3.812393854E0,8.056056499E-1,-4.592617750E-1,8.154593110E-1
3.814881666E0,8.024098277E-1,-4.592617750E-1,8.303729892E-1
3.817369479E0,8.013445735E-1,-4.518049359E-1,8.442214131E-1
3.819857291E0,8.024098277E-1,-4.400870502E-1,8.559393287E-1
3.822345104E0,8.066709042E-1,-4.262386262E-1,8.644614220E-1
3.824832916E0,8.162582517E-1,-4.102596641E-1,8.729835749E-1
3.827320729E0,8.290414214E-1,-3.910849094E-1,8.793751597E-1
3.829808541E0,8.428898454E-1,-3.665838540E-1,8.857667446E-1
3.832296354E0,8.609993458E-1,-3.378217220E-1,8.942888379E-1
3.834784166E0,8.791088462E-1,-3.026680350E-1,9.049414396E-1
3.837271979E0,8.993488550E-1,-2.643185556E-1,9.166593552E-1
3.839759791E0,9.206541181E-1,-2.238385230E-1,9.294425249E-1
3.842247604E0,9.440898895E-1,-1.812279820E-1,9.422256947E-1
3.844735416E0,9.664604664E-1,-1.364869028E-1,9.560741186E-1
3.847223229E0,9.856351614E-1,-9.387636185E-2,9.677920341E-1
3.849711041E0,1.003744721E0,-5.446160212E-2,9.763141274E-1
3.852198854E0,1.017593145E0,-2.037316747E-2,9.827057123E-1
3.854686666E0,1.027180433E0,4.127896391E-3,9.848362207E-1
3.857174479E0,1.032506824E0,2.223737910E-2,9.837709665E-1
3.859662291E0,1.034637332E0,3.075948730E-2,9.773793817E-1
3.862150104E0,1.032506824E0,3.289001435E-2,9.677920341E-1
3.864637916E0,1.026115179E0,3.075948730E-2,9.560741186E-1
3.867125729E0,1.017593145E0,2.436790615E-2,9.411604404E-1
3.869613541E0,1.006940484E0,1.584579609E-2,9.241161942E-1
3.872101354E0,9.941573143E-1,4.127896391E-3,9.060067534E-1
3.874589166E0,9.803088903E-1,-8.655266836E-3,8.857667446E-1
3.877076979E0,9.675257206E-1,-2.676474862E-2,8.665919900E-1
3.879564791E0,9.536772966E-1,-4.807002097E-2,8.474172354E-1
3.882052604E0,9.398288727E-1,-7.363634557E-2,8.293077350E-1
3.884540416E0,9.238498807E-1,-1.013332009E-1,8.111982346E-1
3.887028229E0,9.068056941E-1,-1.290300637E-1,7.930887938E-1
3.889516041E0,8.897614479E-1,-1.577921808E-1,7.739140391E-1
3.892003854E0,8.737825155E-1,-1.865542978E-1,7.547392845E-1
3.894491666E0,8.578035235E-1,-2.121206224E-1,7.366297841E-1
3.896979479E0,8.460856676E-1,-2.355564237E-1,7.185203433E-1
3.899467291E0,8.375635147E-1,-2.536658943E-1,7.004108429E-1
3.901955104E0,8.322372437E-1,-2.675143182E-1,6.823013425E-1
3.904442916E0,8.290414214E-1,-2.792322338E-1,6.641919017E-1
3.906930729E0,8.279761672E-1,-2.877543271E-1,6.428865790E-1
3.909418541E0,8.290414214E-1,-2.952111959E-1,6.194508076E-1
3.911906354E0,8.301066756E-1,-3.016027808E-1,5.938844681E-1
3.914394166E0,8.322372437E-1,-3.079943359E-1,5.661876202E-1
3.916881979E0,8.322372437E-1,-3.122554123E-1,5.384907722E-1
3.919369791E0,8.322372437E-1,-3.154512048E-1,5.118591785E-1
3.921857604E0,8.311719298E-1,-3.165164590E-1,4.884233773E-1
3.924345416E0,8.311719298E-1,-3.154512048E-1,4.692486227E-1
3.926833229E0,8.301066756E-1,-3.133206666E-1,4.543349445E-1
3.929321041E0,8.301066756E-1,-3.079943359E-1,4.447475672E-1
3.931808854E0,8.279761672E-1,-3.016027808E-1,4.394212663E-1
3.934296666E0,8.247803450E-1,-2.952111959E-1,4.362254739E-1
3.936784479E0,8.194540739E-1,-2.909501195E-1,4.319643974E-1
3.939272291E0,8.141277432E-1,-2.866890728E-1,4.266380966E-1
3.941760104E0,8.066709042E-1,-2.824280262E-1,4.202465117E-1
3.944247916E0,7.992140651E-1,-2.749711871E-1,4.117243886E-1
3.946735729E0,7.906919122E-1,-2.632532716E-1,4.021370113E-1
3.949223541E0,7.832350731E-1,-2.472743243E-1,3.936149180E-1
3.951711354E0,7.768434882E-1,-2.259690464E-1,3.829622865E-1
3.954199166E0,7.704519033E-1,-2.014679909E-1,3.744401634E-1
3.956686979E0,7.640603185E-1,-1.737711281E-1,3.648527861E-1
3.959174791E0,7.555382252E-1,-1.482048035E-1,3.552654386E-1
3.961662604E0,7.448856235E-1,-1.247690022E-1,3.446127772E-1
3.964150416E0,7.299718857E-1,-1.034637317E-1,3.318296373E-1
3.966638229E0,7.118624449E-1,-8.535424620E-2,3.169159293E-1
3.969126041E0,6.894918680E-1,-7.363634557E-2,3.009369671E-1
3.971613854E0,6.628602743E-1,-6.724476814E-2,2.838927507E-1
3.974101666E0,6.330329180E-1,-6.511423737E-2,2.689790726E-1
3.976589479E0,6.021402478E-1,-6.617950648E-2,2.561959028E-1
3.979077291E0,5.691171288E-1,-6.937529147E-2,2.434127480E-1
3.981565104E0,5.328981280E-1,-7.576687634E-2,2.338253707E-1
3.984052916E0,4.956139028E-1,-8.428898454E-2,2.242379934E-1
3.986540729E0,4.583296776E-1,-9.494162351E-2,2.146506310E-1
3.989028541E0,4.178496599E-1,-1.087900475E-1,2.050632536E-1
3.991516354E0,3.773696423E-1,-1.237037405E-1,1.954758763E-1
3.994004166E0,3.347590864E-1,-1.407479644E-1,1.869537681E-1
3.996491979E0,2.921485603E-1,-1.556616426E-1,1.794969290E-1
3.998979791E0,2.495380044E-1,-1.673795432E-1,1.741705984E-1
4.001467604E0,2.090579867E-1,-1.748363972E-1,1.709748209E-1
4.003955416E0,1.707084924E-1,-1.737711281E-1,1.699095517E-1
4.006443229E0,1.376853287E-1,-1.652490199E-1,1.709748209E-1
4.008931041E0,1.078579426E-1,-1.492700726E-1,1.731053442E-1
4.011418854E0,8.442214131E-2,-1.290300637E-1,1.752358675E-1
4.013906666E0,6.418213248E-2,-1.023984700E-1,1.763011366E-1
4.016394479E0,4.607265070E-2,-7.044056058E-2,1.763011366E-1
4.018882291E0,3.115896136E-2,-3.528685868E-2,1.741705984E-1
4.021370833E0,1.624527015E-2,9.321057005E-4,1.720400751E-1
4.023858801E0,3.462106921E-3,3.821633384E-2,1.709748209E-1
4.026346614E0,-5.060002208E-3,7.337003201E-2,1.688442826E-1
4.028834426E0,-1.038632076E-2,1.074584723E-1,1.677790284E-1
4.031322239E0,-1.464737486E-2,1.383511126E-1,1.656484902E-1
4.033810051E0,-1.677790284E-2,1.639174372E-1,1.645832360E-1
4.036297864E0,-1.784316637E-2,1.852227151E-1,1.613874435E-1
4.038785676E0,-1.997369342E-2,2.033322006E-1,1.560611278E-1
4.041273489E0,-2.210422046E-2,2.150501013E-1,1.464737505E-1
4.043761301E0,-2.530001104E-2,2.225069404E-1,1.358211190E-1
4.046249114E0,-2.956106514E-2,2.257027328E-1,1.219726875E-1
4.048736926E0,-3.595264629E-2,2.246374637E-1,1.070589945E-1
4.051224739E0,-4.021370411E-2,2.182458937E-1,9.108003974E-2
4.053712499E0,-4.554001987E-2,2.097237855E-1,7.510108501E-2
4.056200260E0,-5.193160102E-2,1.980058849E-1,5.805686861E-2
4.058688020E0,-5.832318589E-2,1.841574460E-1,4.101264849E-2
4.061175781E0,-6.578002870E-2,1.660479754E-1,2.290316857E-2
4.063663541E0,-7.536740601E-2,1.436774284E-1,3.728422802E-3
4.066151301E0,-8.495477587E-2,1.170458421E-1,-1.438105945E-2
4.068639062E0,-9.667267650E-2,8.828372508E-2,-3.462106735E-2
4.071126822E0,-1.083905771E-1,5.845634267E-2,-5.486107618E-2
4.073614583E0,-1.222390011E-1,2.969422378E-2,-7.616634667E-2
4.076102343E0,-1.350221634E-1,5.193160381E-3,-9.427583218E-2
4.078590104E0,-1.478053331E-1,-1.824264042E-2,-1.113200486E-1
4.081077864E0,-1.573926955E-1,-3.954791278E-2,-1.262337416E-1
4.083565624E0,-1.669800729E-1,-5.872265995E-2,-1.368863732E-1
4.086053385E0,-1.733716577E-1,-7.363634557E-2,-1.454084814E-1
4.088541145E0,-1.755021811E-1,-8.641951531E-2,-1.518000662E-1
4.091028906E0,-1.755021811E-1,-9.387636185E-2,-1.549958587E-1
4.093516666E0,-1.733716577E-1,-9.707214683E-2,-1.571263820E-1
4.096004426E0,-1.701758653E-1,-9.494162351E-2,-1.571263820E-1
4.098492187E0,-1.648495495E-1,-8.961530030E-2,-1.549958587E-1
4.100979947E0,-1.595232338E-1,-7.789740711E-2,-1.507348120E-1
4.103467708E0,-1.510011256E-1,-6.298371404E-2,-1.443432271E-1
4.105955468E0,-1.424790174E-1,-4.593949392E-2,-1.336905807E-1
4.108443229E0,-1.307611167E-1,-2.463422157E-2,-1.209074259E-1
4.110930989E0,-1.147821546E-1,-1.198421582E-3,-1.038632020E-1
4.113418749E0,-9.347688407E-2,2.543316968E-2,-8.575372398E-2
4.115906510E0,-7.004108280E-2,5.526055023E-2,-6.551371515E-2
4.118394270E0,-4.447475821E-2,8.828372508E-2,-4.633896798E-2
4.120882083E0,-1.997369342E-2,1.213068962E-1,-2.609895915E-2
4.123369895E0,4.527370445E-3,1.521995366E-1,-5.858949851E-3
4.125857708E0,2.796317078E-2,1.798963994E-1,1.651158556E-2
4.128345520E0,4.926844314E-2,2.033322006E-1,3.888212144E-2
4.130833333E0,7.163897902E-2,2.225069404E-1,6.338318437E-2
4.133321145E0,9.400951862E-2,2.416816950E-1,9.001477808E-2
4.135808958E0,1.153147891E-1,2.608564198E-1,1.166463718E-1
4.138296770E0,1.366200596E-1,2.789659202E-1,1.400821656E-1
4.140784583E0,1.557948142E-1,2.960101366E-1,1.624527127E-1
4.143272395E0,1.739042848E-1,3.109238148E-1,1.816274524E-1
4.145760208E0,1.888179779E-1,3.247722387E-1,1.965411454E-1
4.148248020E0,2.005358785E-1,3.343596160E-1,2.082590461E-1
4.150735833E0,2.079927325E-1,3.396859467E-1,2.178464085E-1
4.153223645E0,2.133190483E-1,3.386206925E-1,2.221074700E-1
4.155711458E0,2.154495716E-1,3.332943618E-1,2.231727391E-1
4.158199270E0,2.133190483E-1,3.247722387E-1,2.199769467E-1
4.160687083E0,2.079927325E-1,3.130543530E-1,2.135853618E-1
4.163174895E0,1.994706094E-1,2.992059290E-1,2.039979845E-1
4.165662708E0,1.866874546E-1,2.842922211E-1,1.912148297E-1
4.168150520E0,1.707084924E-1,2.672480047E-1,1.741705984E-1
4.170638333E0,1.504684836E-1,2.470080107E-1,1.528653353E-1
4.173126145E0,1.280979514E-1,2.246374637E-1,1.294295341E-1
4.175613958E0,1.035968885E-1,2.022669315E-1,1.027979404E-1
4.178101770E0,7.803056389E-2,1.788311303E-1,7.510108501E-2
4.180589583E0,5.459476262E-2,1.596563905E-1,4.633896798E-2
4.183077395E0,3.222422674E-2,1.458079666E-1,1.757685095E-2
4.185565208E0,1.304947957E-2,1.383511126E-1,-1.012000442E-2
4.188053020E0,-6.125265732E-3,1.351553202E-1,-3.568633273E-2
4.190540833E0,-2.210422046E-2,1.340900660E-1,-5.699160323E-2
4.193028645E0,-3.701791167E-2,1.351553202E-1,-7.297056168E-2
4.195516458E0,-5.086633936E-2,1.383511126E-1,-8.362319320E-2
4.198004270E0,-6.045371294E-2,1.458079666E-1,-8.788424730E-2
4.200492083E0,-6.578002870E-2,1.585911214E-1,-8.681898564E-2
4.202979895E0,-6.578002870E-2,1.767006069E-1,-8.149266988E-2
4.205467708E0,-6.045371294E-2,2.012016773E-1,-7.190529257E-2
4.207955520E0,-4.767054692E-2,2.299637944E-1,-5.912213027E-2
4.210443333E0,-2.956106514E-2,2.629869580E-1,-4.633896798E-2
4.212931145E0,-5.060002208E-3,2.992059290E-1,-3.142527863E-2
4.215418958E0,2.157158963E-2,3.386206925E-1,-1.544632297E-2
4.217906770E0,5.033370852E-2,3.780354261E-1,1.597895520E-3
4.220394583E0,8.229161799E-2,4.131891429E-1,1.757685095E-2
4.222882395E0,1.121189967E-1,4.440817833E-1,3.249054030E-2
4.225370208E0,1.408811212E-1,4.664523304E-1,4.633896798E-2
4.227858020E0,1.675127149E-1,4.803007543E-1,5.699160323E-2
4.230345833E0,1.920137703E-1,4.845618010E-1,6.551371515E-2
4.232833645E0,2.143843025E-1,4.792354703E-1,7.297056168E-2
4.235321458E0,2.324937880E-1,4.685828388E-1,7.616634667E-2
4.237809270E0,2.474074811E-1,4.536691606E-1,7.936213911E-2
4.240297083E0,2.559295893E-1,4.344944060E-1,8.042740822E-2
4.242784895E0,2.591253817E-1,4.110586047E-1,7.936213911E-2
4.245272708E0,2.580601275E-1,3.822965026E-1,7.403582335E-2
4.247760520E0,2.537990510E-1,3.503385782E-1,6.551371515E-2
4.250248333E0,2.463422120E-1,3.162501454E-1,5.486107618E-2
4.252736145E0,2.367548496E-1,2.821617126E-1,4.207791388E-2
4.255223958E0,2.250369489E-1,2.502037883E-1,2.716422267E-2
4.257711770E0,2.122537792E-1,2.214416862E-1,1.118526794E-2
4.260199583E0,1.973400861E-1,1.958753467E-1,-4.793686327E-3
4.262687395E0,1.802958697E-1,1.735048145E-1,-2.077264152E-2
4.265175208E0,1.611211300E-1,1.543300748E-1,-3.675159439E-2
4.267663020E0,1.387505829E-1,1.383511126E-1,-5.166528746E-2
4.270150833E0,1.153147891E-1,1.266332120E-1,-6.657897681E-2
4.272638645E0,9.294424951E-2,1.202416345E-1,-7.723161578E-2
4.275126458E0,7.057371736E-2,1.202416345E-1,-8.575372398E-2
4.277614270E0,5.139897019E-2,1.255679578E-1,-9.108003974E-2
4.280102083E0,3.435475379E-2,1.372858584E-1,-9.427583218E-2
4.282589895E0,1.944106072E-2,1.543300748E-1,-9.640636295E-2
4.285077708E0,7.723161485E-3,1.735048145E-1,-9.534109384E-2
4.287565520E0,1.331579522E-3,1.926795542E-1,-9.427583218E-2
4.290053333E0,2.396843163E-3,2.054627240E-1,-9.108003974E-2
4.292541145E0,1.624527015E-2,2.086585164E-1,-8.681898564E-2
4.295028958E0,3.755054250E-2,2.054627240E-1,-8.362319320E-2
4.297516770E0,5.779055133E-2,2.065279931E-1,-8.362319320E-2
4.300004583E0,7.376950979E-2,2.193111479E-1,-8.788424730E-2
4.302492395E0,8.974846452E-2,2.470080107E-1,-9.214530140E-2
4.304980208E0,1.131842583E-1,2.810964286E-1,-9.214530140E-2
4.307468020E0,1.472726911E-1,3.215764761E-1,-8.255793154E-2
4.309955833E0,1.898832470E-1,3.695133328E-1,-6.018739566E-2
4.312443645E0,2.356895804E-1,4.238417745E-1,-2.716422267E-2
4.314931458E0,2.772348523E-1,4.813660085E-1,1.225053146E-2
4.317419270E0,3.155843616E-1,5.303681493E-1,4.846949503E-2
4.319907083E0,3.464770019E-1,5.623260736E-1,7.936213911E-2
4.322394895E0,3.709780574E-1,5.719134212E-1,1.006674170E-1
4.324882708E0,3.890875578E-1,5.655218363E-1,1.155811027E-1
4.327370520E0,3.997401893E-1,5.506081581E-1,1.294295341E-1
4.329858333E0,4.093275666E-1,5.378249884E-1,1.464737505E-1
4.332346145E0,4.167844057E-1,5.303681493E-1,1.645832360E-1
4.334833958E0,4.210454524E-1,5.293028951E-1,1.826927215E-1
4.337321770E0,4.253064990E-1,5.218459964E-1,1.954758763E-1
4.339809583E0,4.263717830E-1,5.079975724E-1,1.986716688E-1
4.342297395E0,4.231759906E-1,4.845618010E-1,1.912148297E-1
4.344785208E0,4.146538675E-1,4.589954615E-1,1.773663908E-1
4.347273020E0,4.018706977E-1,4.312986135E-1,1.571263820E-1
4.349760833E0,3.826959729E-1,4.057323039E-1,1.347558498E-1
4.352248645E0,3.592601717E-1,3.791007102E-1,1.113200486E-1
4.354736458E0,3.304980397E-1,3.503385782E-1,8.575372398E-2
4.357224270E0,2.985401452E-1,3.151848912E-1,6.125266105E-2
4.359712083E0,2.655169666E-1,2.747048736E-1,3.781685978E-2
4.362199895E0,2.303632647E-1,2.320943177E-1,1.757685095E-2
4.364687708E0,1.941442937E-1,1.916143000E-1,1.597895520E-3
4.367175520E0,1.568600684E-1,1.532648057E-1,-1.225053146E-2
4.369663333E0,1.195758432E-1,1.202416345E-1,-2.290316857E-2
4.372151145E0,8.548741043E-2,9.254477918E-2,-3.036001325E-2
4.374638958E0,5.672528967E-2,7.123950869E-2,-3.675159439E-2
4.377126770E0,3.328948840E-2,5.632581562E-2,-3.781685978E-2
4.379614583E0,1.624527015E-2,4.993423447E-2,-3.462106735E-2
4.382102395E0,7.723161485E-3,5.526055023E-2,-2.503369562E-2
4.384590208E0,4.527370445E-3,7.123950869E-2,-1.012000442E-2
4.387078020E0,8.788425475E-3,9.787109494E-2,1.012000442E-2
4.389565833E0,1.944106072E-2,1.340900660E-1,3.355580568E-2
4.392053645E0,3.648528084E-2,1.756353378E-1,5.805686861E-2
4.394541458E0,5.885581672E-2,2.203764170E-1,8.362319320E-2
4.397029270E0,8.442214131E-2,2.651174963E-1,1.091895252E-1
4.399517083E0,1.110537350E-1,3.098585606E-1,1.347558498E-1
4.402004895E0,1.387505829E-1,3.545996249E-1,1.603221744E-1
4.404492708E0,1.653821766E-1,3.961449265E-1,1.848232448E-1
4.406980520E0,1.920137703E-1,4.323638678E-1,2.103895694E-1
4.409468333E0,2.175800949E-1,4.621912539E-1,2.338253707E-1
4.411956145E0,2.431464195E-1,4.845618010E-1,2.530001104E-1
4.414443958E0,2.676474750E-1,4.984102249E-1,2.700443268E-1
4.416931770E0,2.910832763E-1,5.090628862E-1,2.796317041E-1
4.419419583E0,3.113232851E-1,5.165197253E-1,2.849580348E-1
4.421907395E0,3.294327855E-1,5.186502337E-1,2.849580348E-1
4.424395208E0,3.422159553E-1,5.143891573E-1,2.796317041E-1
4.426883020E0,3.496727943E-1,5.005407333E-1,2.700443268E-1
4.429370833E0,3.518033028E-1,4.760396779E-1,2.561959028E-1
4.431858645E0,3.464770019E-1,4.430165291E-1,2.412822098E-1
4.434346458E0,3.368896246E-1,4.036017656E-1,2.242379934E-1
4.436834270E0,3.230412006E-1,3.599259555E-1,2.061285079E-1
4.439322083E0,3.059969842E-1,3.119890988E-1,1.869537681E-1
4.441809895E0,2.857569754E-1,2.619217038E-1,1.645832360E-1
4.444297708E0,2.644517124E-1,2.107890397E-1,1.422126889E-1
4.446785520E0,2.410158962E-1,1.596563905E-1,1.155811027E-1
4.449273333E0,2.165148407E-1,1.117195264E-1,9.108003974E-2
4.451761145E0,1.920137703E-1,6.804371625E-2,6.657897681E-2
4.454248958E0,1.675127149E-1,2.969422378E-2,4.314317927E-2
4.456736770E0,1.419463754E-1,-3.328948980E-3,2.077264152E-2
4.459224583E0,1.174453199E-1,-2.889527567E-2,1.597895520E-3
4.461712395E0,9.400951862E-2,-4.700475931E-2,-1.438105945E-2
4.464200208E0,7.270424068E-2,-5.765739456E-2,-2.822948620E-2
4.466688020E0,5.246423557E-2,-6.085318699E-2,-3.888212144E-2
4.469175833E0,3.435475379E-2,-5.659212917E-2,-4.633896798E-2
4.471663645E0,1.731053367E-2,-4.700475931E-2,-5.379581451E-2
4.474151458E0,1.331579522E-3,-3.209106624E-2,-5.699160323E-2
4.476639270E0,-1.251684781E-2,-1.291632187E-2,-5.912213027E-2
4.479127083E0,-2.530001104E-2,9.454214945E-3,-6.018739566E-2
4.481614895E0,-3.701791167E-2,3.502054140E-2,-5.912213027E-2
4.484102708E0,-4.767054692E-2,6.484792382E-2,-5.699160323E-2
4.486590520E0,-5.512739345E-2,9.787109494E-2,-5.060002208E-2
4.489078333E0,-6.151897460E-2,1.330247968E-1,-4.314317927E-2
4.491566145E0,-6.684529036E-2,1.703090221E-1,-3.249054030E-2
4.494053958E0,-6.791055948E-2,2.065279931E-1,-2.183790505E-2
4.496541770E0,-6.578002870E-2,2.427469492E-1,-1.012000442E-2
4.499029583E0,-6.045371294E-2,2.789659202E-1,-5.326318205E-4
4.501517395E0,-5.193160102E-2,3.119890988E-1,7.989477366E-3
4.504005208E0,-4.234423116E-2,3.460775316E-1,1.438105945E-2
4.506493020E0,-3.169159219E-2,3.759049177E-1,1.864211448E-2
4.508980833E0,-1.997369342E-2,3.982754350E-1,1.970737800E-2
4.511468645E0,-1.038632076E-2,4.110586047E-1,1.864211448E-2
4.513956458E0,-3.994738683E-3,4.153196514E-1,1.651158556E-2
4.516444270E0,2.663159103E-4,4.099933505E-1,1.331579592E-2
4.518932083E0,2.663159103E-4,3.961449265E-1,1.012000442E-2
4.521419895E0,-2.929474926E-3,3.737743795E-1,4.793686327E-3
4.523907708E0,-8.255792782E-3,3.482080400E-1,5.326318205E-4
4.526395520E0,-1.464737486E-2,3.183806837E-1,-5.858949851E-3
4.528883333E0,-2.316948399E-2,2.864227593E-1,-1.331579592E-2
4.531371145E0,-3.382211924E-2,2.523343265E-1,-2.290316857E-2
4.533858958E0,-4.447475821E-2,2.161153555E-1,-3.462106735E-2
4.536346770E0,-5.725792050E-2,1.798963994E-1,-4.846949503E-2
4.538834583E0,-7.217161357E-2,1.447426975E-1,-6.551371515E-2
4.541322395E0,-8.921582997E-2,1.117195264E-1,-8.362319320E-2
4.543810208E0,-1.073253155E-1,8.189214021E-2,-1.017326787E-1
4.546298020E0,-1.286305785E-1,5.313002318E-2,-1.219726875E-1
4.548785833E0,-1.510011256E-1,2.756369673E-2,-1.411474347E-1
4.551273645E0,-1.744369268E-1,3.062632866E-3,-1.603221744E-1
4.553761458E0,-2.000032514E-1,-2.143843099E-2,-1.794969290E-1
4.556249270E0,-2.266348451E-1,-4.380896688E-2,-1.965411454E-1
4.558737083E0,-2.532664239E-1,-6.511423737E-2,-2.135853618E-1
4.561224895E0,-2.788327634E-1,-8.322372288E-2,-2.306295782E-1
4.563712708E0,-3.043990731E-1,-9.920267761E-2,-2.455432713E-1
4.566200520E0,-3.289001584E-1,-1.130511016E-1,-2.604569495E-1
4.568688333E0,-3.534012139E-1,-1.215732098E-1,-2.743053734E-1
4.571176145E0,-3.757717609E-1,-1.247690022E-1,-2.860232890E-1
4.573663958E0,-3.981422782E-1,-1.194426864E-1,-2.956106663E-1
4.576151770E0,-4.183822870E-1,-1.098553166E-1,-3.030675054E-1
4.578639583E0,-4.375570416E-1,-9.387636185E-2,-3.062632978E-1
4.581127395E0,-4.546012580E-1,-7.363634557E-2,-3.073285520E-1
4.583615208E0,-4.705802202E-1,-5.126581341E-2,-3.051980436E-1
4.586102968E0,-4.854938984E-1,-2.889527567E-2,-3.020022511E-1
4.588590729E0,-4.993423223E-1,-7.590003312E-3,-2.977411747E-1
4.591078489E0,-5.142560005E-1,1.158474199E-2,-2.934801280E-1
4.593566249E0,-5.259739161E-1,2.862896025E-2,-2.892190814E-1
4.596054010E0,-5.387570858E-1,4.354264960E-2,-2.849580348E-1
4.598541770E0,-5.515402555E-1,5.632581562E-2,-2.806969583E-1
4.601029531E0,-5.653886795E-1,6.804371625E-2,-2.775011659E-1
4.603517291E0,-5.792371035E-1,7.763108611E-2,-2.743053734E-1
4.606005051E0,-5.930855274E-1,8.508793265E-2,-2.721748650E-1
4.608492812E0,-6.090644598E-1,9.147951752E-2,-2.721748650E-1
4.610980572E0,-6.250434518E-1,9.787109494E-2,-2.743053734E-1
4.613468333E0,-6.431529522E-1,1.021321490E-1,-2.775011659E-1
4.615956093E0,-6.623276472E-1,1.053279415E-1,-2.828274965E-1
4.618443854E0,-6.825676560E-1,1.063932031E-1,-2.892190814E-1
4.620931614E0,-7.028076649E-1,1.042626798E-1,-2.977411747E-1
4.623419374E0,-7.241129875E-1,1.010668874E-1,-3.062632978E-1
4.625907135E0,-7.443529963E-1,9.467530251E-2,-3.169159293E-1
4.628394895E0,-7.635276914E-1,8.615319431E-2,-3.275685608E-1
4.630882656E0,-7.827024460E-1,7.337003201E-2,-3.403517306E-1
4.633370416E0,-8.018772006E-1,5.952160433E-2,-3.510043621E-1
4.635858176E0,-8.199867010E-1,4.567318037E-2,-3.627222776E-1
4.638345937E0,-8.391614556E-1,3.289001435E-2,-3.744401634E-1
4.640833697E0,-8.583361506E-1,2.117211558E-2,-3.829622865E-1
4.643321458E0,-8.775109053E-1,1.265000552E-2,-3.914843798E-1
4.645809218E0,-8.956204057E-1,5.193160381E-3,-4.000065029E-1
4.648296979E0,-9.126646519E-1,9.321057005E-4,-4.074633420E-1
4.650784739E0,-9.265130758E-1,-1.331579551E-4,-4.138549268E-1
4.653272499E0,-9.371656775E-1,4.127896391E-3,-4.202465117E-1
4.655760260E0,-9.456877708E-1,1.158474199E-2,-4.245075583E-1
4.658248020E0,-9.510141015E-1,2.330264263E-2,-4.277033508E-1
4.660735833E0,-9.552751780E-1,3.715106845E-2,-4.298338890E-1
4.663223645E0,-9.574056864E-1,5.419528857E-2,-4.308991432E-1
4.665711458E0,-9.574056864E-1,7.337003201E-2,-4.319643974E-1
4.668199270E0,-9.542099237E-1,9.361004084E-2,-4.308991432E-1
4.670687083E0,-9.478183389E-1,1.159805804E-1,-4.287686050E-1
4.673174895E0,-9.382309318E-1,1.426121742E-1,-4.234423041E-1
4.675662708E0,-9.233172536E-1,1.703090221E-1,-4.181159735E-1
4.678150520E0,-9.062730670E-1,1.969406158E-1,-4.117243886E-1
4.680638333E0,-8.849677444E-1,2.246374637E-1,-4.085285962E-1
4.683126145E0,-8.604667187E-1,2.491385341E-1,-4.063980877E-1
4.685613958E0,-8.359656334E-1,2.715090811E-1,-4.085285962E-1
4.688101770E0,-8.114646077E-1,2.885532975E-1,-4.127896726E-1
4.690589583E0,-7.901592851E-1,2.981406748E-1,-4.202465117E-1
4.693077395E0,-7.720498443E-1,2.992059290E-1,-4.308991432E-1
4.695565208E0,-7.592666745E-1,2.906838059E-1,-4.404865205E-1
4.698053020E0,-7.528750896E-1,2.725743353E-1,-4.511391521E-1
4.700540833E0,-7.496792674E-1,2.438122183E-1,-4.628570378E-1
4.703028645E0,-7.518098354E-1,2.086585164E-1,-4.735096991E-1
4.705516458E0,-7.560708523E-1,1.681784987E-1,-4.841623306E-1
4.708004270E0,-7.624624372E-1,1.255679578E-1,-4.969455004E-1
4.710492083E0,-7.699192762E-1,8.189214021E-2,-5.107939243E-1
4.712979895E0,-7.763108611E-1,4.460791498E-2,-5.267728567E-1
4.715467708E0,-7.827024460E-1,1.158474199E-2,-5.427518487E-1
4.717955520E0,-7.869635224E-1,-1.398158539E-2,-5.597960353E-1
4.720443333E0,-7.912245989E-1,-3.315633163E-2,-5.768402815E-1
4.722931145E0,-7.944203615E-1,-4.487423226E-2,-5.917539597E-1
4.725418958E0,-7.954856157E-1,-4.913528636E-2,-6.045371294E-1
4.727906770E0,-7.954856157E-1,-4.807002097E-2,-6.141244769E-1
4.730394583E0,-7.965508699E-1,-4.167843983E-2,-6.205160618E-1
4.732882395E0,-7.954856157E-1,-2.996053919E-2,-6.226465702E-1
4.735370208E0,-7.912245989E-1,-1.504684892E-2,-6.194508076E-1
4.737858020E0,-7.848330140E-1,4.127896391E-3,-6.119939685E-1
4.740345833E0,-7.741803527E-1,2.649843320E-2,-6.013413072E-1
4.742833645E0,-7.603319287E-1,5.313002318E-2,-5.896234512E-1
4.745321458E0,-7.432876825E-1,8.295740932E-2,-5.757750273E-1
4.747809270E0,-7.230476737E-1,1.170458421E-1,-5.608612895E-1
4.750297083E0,-7.006771564E-1,1.532648057E-1,-5.470128655E-1
4.752784895E0,-6.761760712E-1,1.894837767E-1,-5.342296958E-1
4.755272708E0,-6.484792233E-1,2.257027328E-1,-5.214465261E-1
4.757760520E0,-6.207823753E-1,2.608564198E-1,-5.097286701E-1
4.760248333E0,-5.909550190E-1,2.938795984E-1,-4.980107546E-1
4.762736145E0,-5.621928573E-1,3.226417303E-1,-4.862928391E-1
4.765223958E0,-5.344960093E-1,3.460775316E-1,-4.777707458E-1
4.767711770E0,-5.078644156E-1,3.609912097E-1,-4.703139067E-1
4.770199583E0,-4.854938984E-1,3.673827946E-1,-4.649875760E-1
4.772687395E0,-4.641886353E-1,3.663175404E-1,-4.639223218E-1
4.775175208E0,-4.471444190E-1,3.577954173E-1,-4.660528302E-1
4.777663020E0,-4.332959950E-1,3.396859467E-1,-4.724444151E-1
4.780150833E0,-4.247738719E-1,3.162501454E-1,-4.799012840E-1
4.782638645E0,-4.194475710E-1,2.874880135E-1,-4.905539155E-1
4.785126458E0,-4.173170328E-1,2.544648647E-1,-5.033370852E-1
4.787614270E0,-4.194475710E-1,2.171806246E-1,-5.193160176E-1
4.790102083E0,-4.247738719E-1,1.788311303E-1,-5.374255180E-1
4.792589895E0,-4.332959950E-1,1.383511126E-1,-5.576655269E-1
4.795077708E0,-4.450138807E-1,9.787109494E-2,-5.779055357E-1
4.797565520E0,-4.577970505E-1,5.526055023E-2,-5.992107987E-1
4.800053333E0,-4.737760127E-1,1.371526904E-2,-6.215813160E-1
4.802541145E0,-4.897549450E-1,-2.463422157E-2,-6.439518929E-1
4.805028958E0,-5.057339072E-1,-5.765739456E-2,-6.641919017E-1
4.807516770E0,-5.227781534E-1,-8.322372288E-2,-6.833665967E-1
4.810004583E0,-5.387570858E-1,-1.023984700E-1,-6.982803345E-1
4.812492395E0,-5.526055098E-1,-1.141163707E-1,-7.110635042E-1
4.814980208E0,-5.632581711E-1,-1.205079481E-1,-7.206508517E-1
4.817468020E0,-5.717802644E-1,-1.173121557E-1,-7.259771824E-1
4.819955833E0,-5.781718493E-1,-1.077247858E-1,-7.291729450E-1
4.822443645E0,-5.803023577E-1,-9.281109273E-2,-7.291729450E-1
4.824931458E0,-5.803023577E-1,-7.150582224E-2,-7.259771824E-1
4.827419270E0,-5.771065950E-1,-4.700475931E-2,-7.185203433E-1
4.829907083E0,-5.717802644E-1,-1.930790395E-2,-7.089329362E-1
4.832394895E0,-5.621928573E-1,1.158474199E-2,-6.950845122E-1
4.834882708E0,-5.504750013E-1,4.460791498E-2,-6.791055799E-1
4.837370520E0,-5.366265774E-1,8.082687855E-2,-6.588655710E-1
4.839858333E0,-5.185170770E-1,1.202416345E-1,-6.375603080E-1
4.842346145E0,-4.972118139E-1,1.617869139E-1,-6.141244769E-1
4.844833958E0,-4.748412669E-1,2.065279931E-1,-5.917539597E-1
4.847321770E0,-4.503402114E-1,2.523343265E-1,-5.693834424E-1
4.849809583E0,-4.258391261E-1,2.960101366E-1,-5.491434336E-1
4.852297395E0,-4.002728164E-1,3.354249001E-1,-5.320991874E-1
4.854785208E0,-3.757717609E-1,3.684480488E-1,-5.171855092E-1
4.857273020E0,-3.534012139E-1,3.908185959E-1,-5.065328479E-1
4.859760833E0,-3.331612051E-1,4.046670198E-1,-4.980107546E-1
4.862248645E0,-3.161169887E-1,4.078628123E-1,-4.937497079E-1
4.864736458E0,-3.033338189E-1,4.025365114E-1,-4.905539155E-1
4.867224270E0,-2.958769798E-1,3.908185959E-1,-4.894886315E-1
4.869712083E0,-2.937464416E-1,3.727091253E-1,-4.905539155E-1
4.872199895E0,-2.958769798E-1,3.492733240E-1,-4.905539155E-1
4.874687708E0,-3.033338189E-1,3.226417303E-1,-4.894886315E-1
4.877175520E0,-3.150517344E-1,2.938795984E-1,-4.884233773E-1
4.879663333E0,-3.267696202E-1,2.640522122E-1,-4.884233773E-1
4.882151145E0,-3.406180441E-1,2.320943177E-1,-4.894886315E-1
4.884638958E0,-3.544664681E-1,2.001364082E-1,-4.948149621E-1
4.887126770E0,-3.672496378E-1,1.681784987E-1,-5.022718310E-1
4.889614583E0,-3.821633458E-1,1.383511126E-1,-5.150549412E-1
4.892102395E0,-3.970770240E-1,1.106542572E-1,-5.310339332E-1
4.894590208E0,-4.119907022E-1,8.508793265E-2,-5.502086878E-1
4.897078020E0,-4.269044101E-1,6.378266215E-2,-5.693834424E-1
4.899565833E0,-4.439486265E-1,4.460791498E-2,-5.864276290E-1
4.902053645E0,-4.577970505E-1,2.969422378E-2,-6.024065614E-1
4.904541458E0,-4.716454744E-1,1.691105962E-2,-6.141244769E-1
4.907029270E0,-4.833633900E-1,7.323687430E-3,-6.237118840E-1
4.909517083E0,-4.940160215E-1,1.997369342E-3,-6.290381551E-1
4.912004895E0,-5.004075766E-1,9.321057005E-4,-6.322339773E-1
4.914492708E0,-5.046686530E-1,4.127896391E-3,-6.354297400E-1
4.916980520E0,-5.057339072E-1,1.478053257E-2,-6.364950538E-1
4.919468333E0,-5.057339072E-1,2.969422378E-2,-6.386255622E-1
4.921956145E0,-5.025381446E-1,5.206476152E-2,-6.396908164E-1
4.924443958E0,-4.972118139E-1,7.763108611E-2,-6.418213248E-1
4.926931770E0,-4.908202291E-1,1.074584723E-1,-6.428865790E-1
4.929419583E0,-4.822981060E-1,1.404816359E-1,-6.418213248E-1
4.931907395E0,-4.737760127E-1,1.756353378E-1,-6.375603080E-1
4.934395208E0,-4.631233811E-1,2.097237855E-1,-6.311687231E-1
4.936883020E0,-4.535360038E-1,2.427469492E-1,-6.226465702E-1
4.939370833E0,-4.407528341E-1,2.715090811E-1,-6.109287143E-1
4.941858645E0,-4.258391261E-1,2.970753908E-1,-5.992107987E-1
4.944346458E0,-4.109254479E-1,3.205111921E-1,-5.864276290E-1
4.946834270E0,-3.928159773E-1,3.418164849E-1,-5.736444592E-1
4.949322083E0,-3.736412227E-1,3.620564938E-1,-5.608612895E-1
4.951809895E0,-3.534012139E-1,3.822965026E-1,-5.480781198E-1
4.954297708E0,-3.310306668E-1,4.004059732E-1,-5.363602638E-1
4.956785520E0,-3.097254038E-1,4.174501896E-1,-5.246423483E-1
4.959273333E0,-2.884201407E-1,4.323638678E-1,-5.139896870E-1
4.961761093E0,-2.671148479E-1,4.430165291E-1,-5.033370852E-1
4.964248854E0,-2.458095849E-1,4.494080842E-1,-4.948149621E-1
4.966736614E0,-2.266348451E-1,4.494080842E-1,-4.841623306E-1
