"Time (s)","Acceleration x (m/s^2)","Acceleration y (m/s^2)","Acceleration z (m/s^2)"
6.829302200E-2,-6.787561774E-1,-1.028369522E1,-6.051344872E-1
7.079557400E-2,-6.883329749E-1,-1.026454163E1,-5.907692909E-1
7.329812600E-2,-7.122750282E-1,-1.024059963E1,-5.764040351E-1
7.584812600E-2,-7.218518257E-1,-1.021186924E1,-5.428852439E-1
7.839812600E-2,-7.026981711E-1,-1.016877270E1,-5.141547918E-1
8.094812600E-2,-6.883329749E-1,-1.011610031E1,-5.141547918E-1
8.349812600E-2,-6.691793799E-1,-1.007300472E1,-5.093663931E-1
8.604812600E-2,-6.404489279E-1,-1.001554394E1,-5.189431906E-1
8.859812600E-2,-6.500257850E-1,-9.948506355E0,-5.476736426E-1
9.114812600E-2,-6.356605291E-1,-9.862315178E0,-5.764040351E-1
9.369812600E-2,-6.308721304E-1,-9.790489197E0,-6.099228859E-1
9.624812600E-2,-6.500257850E-1,-9.704298019E0,-6.482301354E-1
9.879812600E-2,-6.500257850E-1,-9.622895241E0,-6.961141229E-1
1.013481260E-1,-6.739677787E-1,-9.541492462E0,-7.248445749E-1
1.038981260E-1,-6.883329749E-1,-9.479243279E0,-7.392097712E-1
1.064481260E-1,-6.979097724E-1,-9.397840500E0,-7.583633661E-1
1.089981260E-1,-7.266402245E-1,-9.311649323E0,-7.631517649E-1
1.115481260E-1,-7.457938194E-1,-9.258976936E0,-7.392097712E-1
1.140981260E-1,-7.601590157E-1,-9.206304550E0,-7.200561762E-1
1.166481260E-1,-7.457938194E-1,-9.148842812E0,-7.056909800E-1
1.191981260E-1,-7.218518257E-1,-9.100958824E0,-6.625953317E-1
1.217481260E-1,-7.026981711E-1,-9.043498039E0,-6.386532784E-1
1.242981260E-1,-6.596025825E-1,-9.009979248E0,-6.003460884E-1
1.268481260E-1,-6.260837317E-1,-8.952518463E0,-5.237316489E-1
1.293981260E-1,-5.542576909E-1,-8.899846077E0,-4.566939771E-1
1.319481260E-1,-4.920084476E-1,-8.866327286E0,-4.183867574E-1
1.344981260E-1,-4.106055796E-1,-8.823231697E0,-3.561375141E-1
1.370481260E-1,-3.435679376E-1,-8.760982513E0,-3.082534671E-1
1.395981260E-1,-2.813186944E-1,-8.703521729E0,-2.747346461E-1
1.421481260E-1,-2.142810524E-1,-8.636484146E0,-2.124854028E-1
1.446981260E-1,-1.280897856E-1,-8.579023361E0,-1.837549806E-1
1.472481260E-1,-4.189852998E-2,-8.521562576E0,-1.598129570E-1
1.497981260E-1,3.471592441E-2,-8.488043785E0,-1.502361596E-1
1.523481260E-1,9.696517140E-2,-8.411429405E0,-1.502361596E-1
1.548981260E-1,1.400607973E-1,-8.373122215E0,-1.741781682E-1
1.574481260E-1,1.879448295E-1,-8.310873032E0,-2.268506140E-1
1.599981260E-1,1.975216419E-1,-8.253412247E0,-2.795230448E-1
1.625481260E-1,1.975216419E-1,-8.195950508E0,-3.752911091E-1
1.650981260E-1,2.023100406E-1,-8.138489723E0,-4.519055784E-1
1.676481260E-1,1.735796183E-1,-8.066663742E0,-4.997895956E-1
1.701981260E-1,1.256955862E-1,-8.013991356E0,-5.668272376E-1
1.727481260E-1,7.302315533E-2,-7.970896244E0,-6.242880821E-1
1.752981260E-1,4.908113554E-2,-7.923011780E0,-6.625953317E-1
1.778481260E-1,-3.591302549E-3,-7.894281387E0,-6.865373254E-1
1.803444280E-1,-4.189852998E-2,-7.841609001E0,-6.961141229E-1
1.828321880E-1,-1.041477770E-1,-7.822455406E0,-7.009025216E-1
1.853199490E-1,-1.759738177E-1,-7.779359818E0,-7.056909800E-1
1.878077090E-1,-2.573766708E-1,-7.769783020E0,-6.913257241E-1
1.902954700E-1,-3.387795389E-1,-7.745841026E0,-6.578069329E-1
1.927832300E-1,-4.201824069E-1,-7.731475830E0,-6.290764809E-1
1.952709900E-1,-5.159504414E-1,-7.721899033E0,-5.811924338E-1
1.977587510E-1,-5.829881430E-1,-7.726687431E0,-4.614823759E-1
2.002465110E-1,-6.356605291E-1,-7.726687431E0,-4.231751561E-1
2.027342720E-1,-6.500257850E-1,-7.736264229E0,-2.890998423E-1
2.052220320E-1,-6.596025825E-1,-7.745841026E0,-2.747346461E-1
2.077097920E-1,-6.356605291E-1,-7.760206223E0,-1.310825497E-1
2.101975530E-1,-5.877765417E-1,-7.760206223E0,-1.550245583E-1
2.126853130E-1,-5.494692922E-1,-7.764994621E0,-3.052607179E-2
2.151730740E-1,-4.967968464E-1,-7.779359818E0,-9.277531505E-2
2.176608340E-1,-4.632780254E-1,-7.769783020E0,2.693476900E-2
2.201485950E-1,-4.393360019E-1,-7.760206223E0,-2.094926499E-2
2.226363550E-1,-4.153940082E-1,-7.745841026E0,1.035492271E-1
2.251241150E-1,-3.962403834E-1,-7.707533836E0,4.129998013E-2
2.276118760E-1,-3.818751574E-1,-7.693168640E0,1.610100716E-1
2.300996360E-1,-3.722983599E-1,-7.654861450E0,6.045359373E-2
2.325873970E-1,-3.579331636E-1,-7.626131058E0,1.274912357E-1
2.350751570E-1,-3.483563364E-1,-7.573458672E0,1.256955881E-2
2.375629170E-1,-3.387795389E-1,-7.549516678E0,7.003039867E-2
2.400506780E-1,-3.196259141E-1,-7.535151482E0,-4.967968538E-2
2.425384380E-1,-3.100491166E-1,-7.530363083E0,7.781155407E-3
2.450261990E-1,-2.813186944E-1,-7.501632690E0,-1.167173311E-1
2.475139590E-1,-2.621650994E-1,-7.496844292E0,-4.010287672E-2
2.500017720E-1,-2.430114746E-1,-7.506421089E0,-1.741781682E-1
2.524895840E-1,-2.142810524E-1,-7.539939880E0,-1.023521200E-1
2.549773970E-1,-1.855506301E-1,-7.563881874E0,-2.220622003E-1
2.574652090E-1,-1.903390288E-1,-7.606977463E0,-1.646013707E-1
2.599530220E-1,-1.616086215E-1,-7.626131058E0,-2.603694201E-1
2.624408340E-1,-1.759738177E-1,-7.654861450E0,-2.460042238E-1
2.649286470E-1,-1.855506301E-1,-7.712322235E0,-3.321954906E-1
2.674164590E-1,-2.142810524E-1,-7.750629425E0,-3.178302646E-1
2.699042720E-1,-2.573766708E-1,-7.784148216E0,-4.231751561E-1
2.723920840E-1,-3.196259141E-1,-7.817667007E0,-4.614823759E-1
2.748798970E-1,-3.579331636E-1,-7.841609001E0,-5.189431906E-1
2.773677090E-1,-4.153940082E-1,-7.879916191E0,-4.997895956E-1
2.798555220E-1,-4.393360019E-1,-7.923011780E0,-4.758476019E-1
2.823433340E-1,-4.441244006E-1,-7.951742172E0,-4.231751561E-1
2.848311470E-1,-4.249708056E-1,-7.985261440E0,-3.513490856E-1
2.873189590E-1,-4.584896266E-1,-8.004414558E0,-3.130418658E-1
2.898067720E-1,-4.058171809E-1,-8.023568153E0,-2.172738016E-1
2.922945840E-1,-3.770867586E-1,-8.037933350E0,-1.454477459E-1
2.947823970E-1,-3.435679376E-1,-8.047510147E0,-4.489128292E-2
2.972702090E-1,-3.387795389E-1,-8.057086945E0,-3.531447425E-2
2.997580220E-1,-3.244143426E-1,-8.081028938E0,2.693476900E-2
3.022458340E-1,-3.339911401E-1,-8.085817337E0,-1.616086066E-2
3.047336470E-1,-3.387795389E-1,-8.104970932E0,6.045359373E-2
3.072214590E-1,-3.770867586E-1,-8.119336128E0,-4.010287672E-2
3.097092720E-1,-3.866635859E-1,-8.157643318E0,1.256955881E-2
3.121970840E-1,-3.914519846E-1,-8.195950508E0,-9.277531505E-2
3.146848970E-1,-3.866635859E-1,-8.239047050E0,-1.137245819E-2
3.171727090E-1,-3.627215624E-1,-8.282142639E0,-1.119289324E-1
3.196605220E-1,-3.531447649E-1,-8.344391823E0,2.992752008E-3
3.221483340E-1,-3.339911401E-1,-8.392275810E0,-1.215057373E-1
3.246361470E-1,-3.244143426E-1,-8.454524994E0,-5.446808785E-2
3.271239590E-1,-3.052607179E-1,-8.502408981E0,-1.885433793E-1
3.296117720E-1,-3.100491166E-1,-8.569446564E0,-8.798690885E-2
3.320995840E-1,-2.861070931E-1,-8.617330551E0,-2.220622003E-1
3.345873970E-1,-2.525882721E-1,-8.684368134E0,-1.119289324E-1
3.370752090E-1,-2.477998734E-1,-8.722675323E0,-2.412158251E-1
3.395630220E-1,-2.525882721E-1,-8.760982513E0,-1.215057373E-1
3.420508340E-1,-2.525882721E-1,-8.799289703E0,-2.460042238E-1
3.445386470E-1,-2.813186944E-1,-8.837596893E0,-1.837549806E-1
3.470264590E-1,-2.765302956E-1,-8.871115685E0,-3.226186931E-1
3.495142720E-1,-2.861070931E-1,-8.918999672E0,-2.507926226E-1
3.520020840E-1,-3.052607179E-1,-8.942941666E0,-3.465606868E-1
3.544898970E-1,-3.531447649E-1,-8.995614052E0,-2.507926226E-1
3.569777090E-1,-3.818751574E-1,-9.014767647E0,-3.513490856E-1
3.594655220E-1,-4.345476031E-1,-9.043498039E0,-2.938882709E-1
3.619533340E-1,-4.776432514E-1,-9.062651634E0,-4.040215313E-1
3.644411470E-1,-5.351040959E-1,-9.091382027E0,-3.657143116E-1
3.669289590E-1,-6.021417379E-1,-9.129689217E0,-4.710591733E-1
3.694167720E-1,-6.548141837E-1,-9.177573204E0,-4.375403523E-1
3.719045840E-1,-6.643909812E-1,-9.182361603E0,-5.045779943E-1
3.743923970E-1,-6.739677787E-1,-9.225458145E0,-4.710591733E-1
3.768802090E-1,-6.356605291E-1,-9.263765335E0,-4.997895956E-1
3.793680220E-1,-5.781996846E-1,-9.306860924E0,-4.566939771E-1
3.818558340E-1,-5.255272985E-1,-9.354744911E0,-4.183867574E-1
3.843436470E-1,-4.776432514E-1,-9.369110107E0,-3.848679364E-1
3.868314590E-1,-4.201824069E-1,-9.412205696E0,-3.752911091E-1
3.893192720E-1,-3.914519846E-1,-9.445724487E0,-3.752911091E-1
3.918070840E-1,-3.722983599E-1,-9.445724487E0,-3.417722881E-1
3.942948970E-1,-3.675099611E-1,-9.450512886E0,-3.752911091E-1
3.967827090E-1,-3.722983599E-1,-9.445724487E0,-3.369838893E-1
3.992705220E-1,-3.722983599E-1,-9.440936089E0,-3.848679364E-1
4.017583340E-1,-3.627215624E-1,-9.436147690E0,-3.274070919E-1
4.042461470E-1,-3.531447649E-1,-9.426570892E0,-3.848679364E-1
4.067339590E-1,-3.339911401E-1,-9.426570892E0,-2.986766696E-1
4.092217720E-1,-3.196259141E-1,-9.397840500E0,-3.513490856E-1
4.117095840E-1,-2.956839204E-1,-9.402628899E0,-2.843114436E-1
4.141973970E-1,-2.765302956E-1,-9.416994095E0,-3.561375141E-1
4.166852090E-1,-2.430114746E-1,-9.431359291E0,-2.651578486E-1
4.191730220E-1,-2.334346622E-1,-9.412205696E0,-3.800795078E-1
4.216608340E-1,-2.190694511E-1,-9.440936089E0,-3.082534671E-1
4.241486470E-1,-2.094926536E-1,-9.450512886E0,-4.040215313E-1
4.266364590E-1,-1.759738177E-1,-9.503185272E0,-3.034650683E-1
4.291242720E-1,-1.616086215E-1,-9.517550468E0,-4.183867574E-1
4.316120840E-1,-1.568202078E-1,-9.565434456E0,-2.938882709E-1
4.340998970E-1,-1.424549967E-1,-9.594164848E0,-3.992331326E-1
4.365877090E-1,-1.424549967E-1,-9.646837234E0,-2.747346461E-1
4.390755220E-1,-1.424549967E-1,-9.651625633E0,-3.752911091E-1
4.415633340E-1,-1.568202078E-1,-9.685144424E0,-2.603694201E-1
4.440511470E-1,-1.520318091E-1,-9.699509621E0,-3.944447339E-1
4.465389590E-1,-1.759738177E-1,-9.742605209E0,-2.890998423E-1
4.490267720E-1,-1.999158412E-1,-9.742605209E0,-4.088099301E-1
4.515145840E-1,-2.190694511E-1,-9.766547203E0,-3.321954906E-1
4.540023970E-1,-2.047042400E-1,-9.756970406E0,-4.423287511E-1
4.564902090E-1,-2.094926536E-1,-9.785700798E0,-3.609259129E-1
4.589780220E-1,-2.047042400E-1,-9.800065994E0,-4.566939771E-1
4.614658340E-1,-1.759738177E-1,-9.800065994E0,-3.848679364E-1
4.639536470E-1,-1.472434103E-1,-9.800065994E0,-4.758476019E-1
4.664414590E-1,-1.424549967E-1,-9.800065994E0,-4.040215313E-1
4.689292720E-1,-1.424549967E-1,-9.800065994E0,-4.758476019E-1
4.714170840E-1,-1.568202078E-1,-9.795277596E0,-4.327519536E-1
4.739048970E-1,-1.616086215E-1,-9.771335602E0,-5.189431906E-1
4.763927090E-1,-2.047042400E-1,-9.780912399E0,-4.902127981E-1
4.788805220E-1,-2.286462635E-1,-9.780912399E0,-5.476736426E-1
4.813683340E-1,-2.573766708E-1,-9.785700798E0,-5.476736426E-1
4.838561470E-1,-2.573766708E-1,-9.800065994E0,-5.907692909E-1
4.863439590E-1,-2.573766708E-1,-9.809642792E0,-5.955576897E-1
4.888317720E-1,-2.765302956E-1,-9.819219589E0,-6.003460884E-1
4.913195840E-1,-2.956839204E-1,-9.814431190E0,-5.907692909E-1
4.938073970E-1,-3.100491166E-1,-9.819219589E0,-5.476736426E-1
4.962952090E-1,-3.435679376E-1,-9.828796387E0,-5.428852439E-1
4.987830220E-1,-3.435679376E-1,-9.833584785E0,-4.662707746E-1
5.012708340E-1,-3.387795389E-1,-9.871891975E0,-4.806360006E-1
5.037586470E-1,-3.100491166E-1,-9.891045570E0,-3.896563351E-1
5.062464590E-1,-2.765302956E-1,-9.905410767E0,-4.279635549E-1
5.087342720E-1,-2.238578647E-1,-9.938929558E0,-3.465606868E-1
5.112220840E-1,-1.807622313E-1,-9.972448349E0,-4.231751561E-1
5.137098970E-1,-1.376665980E-1,-1.001075554E1,-3.417722881E-1
5.161977090E-1,-1.137245819E-1,-1.002512074E1,-4.423287511E-1
5.186855220E-1,-1.041477770E-1,-1.003469753E1,-3.561375141E-1
5.211733340E-1,-1.089361757E-1,-1.006342793E1,-4.950011969E-1
5.236611470E-1,-1.424549967E-1,-1.006342793E1,-4.279635549E-1
5.261489590E-1,-1.568202078E-1,-1.004906273E1,-5.955576897E-1
5.286367720E-1,-1.759738177E-1,-1.006821632E1,-5.237316489E-1
5.311245840E-1,-1.903390288E-1,-1.005863953E1,-6.769605279E-1
5.336123970E-1,-1.999158412E-1,-1.005863953E1,-5.811924338E-1
5.361002090E-1,-1.903390288E-1,-1.003469753E1,-6.961141229E-1
5.385880220E-1,-1.807622313E-1,-1.002990913E1,-5.380968451E-1
5.410758340E-1,-1.616086215E-1,-9.986813545E0,-6.434416771E-1
5.435636470E-1,-1.807622313E-1,-9.986813545E0,-5.141547918E-1
5.460514590E-1,-1.807622313E-1,-9.972448349E0,-6.051344872E-1
5.485392720E-1,-1.951274425E-1,-9.967659950E0,-4.710591733E-1
5.510270840E-1,-1.999158412E-1,-9.943717957E0,-5.668272376E-1
5.535148970E-1,-1.951274425E-1,-9.938929558E0,-4.710591733E-1
5.560027090E-1,-1.999158412E-1,-9.924564362E0,-5.907692909E-1
5.584905220E-1,-1.855506301E-1,-9.948506355E0,-4.950011969E-1
5.609783340E-1,-1.711854190E-1,-9.948506355E0,-5.811924338E-1
5.634661470E-1,-1.711854190E-1,-9.953294754E0,-4.806360006E-1
5.659539590E-1,-1.759738177E-1,-9.962871552E0,-5.572504401E-1
5.684417720E-1,-1.663970202E-1,-9.972448349E0,-4.758476019E-1
5.709295840E-1,-1.472434103E-1,-9.958083153E0,-5.428852439E-1
5.734173970E-1,-1.472434103E-1,-9.982025146E0,-4.902127981E-1
5.759052090E-1,-1.424549967E-1,-9.991601944E0,-5.764040351E-1
5.783930220E-1,-1.568202078E-1,-1.000117874E1,-5.668272376E-1
5.808808340E-1,-1.759738177E-1,-9.996390343E0,-6.386532784E-1
5.833686470E-1,-1.999158412E-1,-1.000117874E1,-6.290764809E-1
5.858564590E-1,-2.190694511E-1,-9.991601944E0,-6.721721292E-1
5.883442720E-1,-2.430114746E-1,-9.977236748E0,-6.721721292E-1
5.908320840E-1,-2.621650994E-1,-9.972448349E0,-6.625953317E-1
5.933198970E-1,-2.717418969E-1,-9.967659950E0,-6.386532784E-1
5.958077090E-1,-2.573766708E-1,-9.943717957E0,-6.194996834E-1
5.982955220E-1,-2.669534981E-1,-9.924564362E0,-6.673837304E-1
6.007833340E-1,-2.525882721E-1,-9.919775963E0,-6.194996834E-1
6.032711470E-1,-2.717418969E-1,-9.905410767E0,-6.530185342E-1
6.057589590E-1,-2.717418969E-1,-9.900622368E0,-5.859808922E-1
6.082467720E-1,-2.813186944E-1,-9.886257172E0,-6.194996834E-1
6.107345840E-1,-3.052607179E-1,-9.881468773E0,-5.045779943E-1
6.132223970E-1,-3.292027414E-1,-9.838373184E0,-5.476736426E-1
6.157102090E-1,-3.196259141E-1,-9.847949982E0,-4.375403523E-1
6.181980220E-1,-3.100491166E-1,-9.852738380E0,-4.902127981E-1
6.206858340E-1,-3.052607179E-1,-9.857526779E0,-3.848679364E-1
6.231736470E-1,-2.956839204E-1,-9.828796387E0,-4.902127981E-1
6.256614590E-1,-2.861070931E-1,-9.838373184E0,-3.944447339E-1
6.281492720E-1,-2.717418969E-1,-9.824007988E0,-5.045779943E-1
6.306370840E-1,-2.717418969E-1,-9.814431190E0,-3.848679364E-1
6.331248970E-1,-2.669534981E-1,-9.780912399E0,-5.285200477E-1
6.356127090E-1,-2.621650994E-1,-9.756970406E0,-4.423287511E-1
6.381005220E-1,-2.477998734E-1,-9.704298019E0,-5.572504401E-1
6.405883340E-1,-2.286462635E-1,-9.704298019E0,-4.375403523E-1
6.430761470E-1,-1.999158412E-1,-9.680356026E0,-5.380968451E-1
6.455639590E-1,-1.663970202E-1,-9.670779228E0,-3.944447339E-1
6.480517720E-1,-1.424549967E-1,-9.642048836E0,-4.950011969E-1
6.505395840E-1,-1.185129806E-1,-9.642048836E0,-3.561375141E-1
6.530273970E-1,-1.089361757E-1,-9.632472038E0,-4.519055784E-1
6.555152090E-1,-1.137245819E-1,-9.637260437E0,-3.417722881E-1
6.580030220E-1,-1.137245819E-1,-9.632472038E0,-4.662707746E-1
6.604908340E-1,-1.185129806E-1,-9.627683640E0,-3.848679364E-1
6.629786470E-1,-1.089361757E-1,-9.618106842E0,-4.758476019E-1
6.654664590E-1,-1.233013868E-1,-9.608530045E0,-4.183867574E-1
6.679542720E-1,-1.233013868E-1,-9.589376450E0,-4.950011969E-1
6.704420840E-1,-1.424549967E-1,-9.570222855E0,-4.040215313E-1
6.729298970E-1,-1.424549967E-1,-9.522338867E0,-4.710591733E-1
6.754177090E-1,-1.568202078E-1,-9.493608475E0,-4.135983288E-1
6.779055220E-1,-1.711854190E-1,-9.464878082E0,-4.710591733E-1
6.803933340E-1,-1.855506301E-1,-9.450512886E0,-4.566939771E-1
6.828811470E-1,-2.094926536E-1,-9.412205696E0,-4.997895956E-1
6.853689590E-1,-2.477998734E-1,-9.378686905E0,-4.710591733E-1
6.878567720E-1,-2.573766708E-1,-9.364321709E0,-5.045779943E-1
6.903445840E-1,-3.052607179E-1,-9.340379715E0,-5.285200477E-1
6.928323970E-1,-3.004723191E-1,-9.326014519E0,-5.285200477E-1
6.953202090E-1,-3.339911401E-1,-9.316437721E0,-5.285200477E-1
6.978080220E-1,-3.579331636E-1,-9.292495728E0,-5.093663931E-1
7.002958340E-1,-3.866635859E-1,-9.258976936E0,-5.189431906E-1
7.027836470E-1,-3.914519846E-1,-9.244611740E0,-4.758476019E-1
7.052714590E-1,-4.249708056E-1,-9.215881348E0,-4.279635549E-1
7.077592720E-1,-4.249708056E-1,-9.201516151E0,-3.992331326E-1
7.102470840E-1,-4.393360019E-1,-9.172784805E0,-3.800795078E-1
7.127348970E-1,-4.680664241E-1,-9.144054413E0,-3.848679364E-1
7.152227090E-1,-4.537012279E-1,-9.110535622E0,-3.848679364E-1
7.177105220E-1,-4.345476031E-1,-9.072228432E0,-3.705027103E-1
7.201983340E-1,-4.106055796E-1,-9.033921242E0,-3.609259129E-1
7.226861470E-1,-3.675099611E-1,-9.009979248E0,-3.705027103E-1
7.251739590E-1,-3.387795389E-1,-8.971672058E0,-3.609259129E-1
7.276617720E-1,-3.148375154E-1,-8.942941666E0,-3.705027103E-1
7.301495840E-1,-3.052607179E-1,-8.895057678E0,-3.752911091E-1
7.326373970E-1,-2.861070931E-1,-8.856750488E0,-3.896563351E-1
7.351252090E-1,-2.669534981E-1,-8.808866501E0,-3.896563351E-1
7.376130220E-1,-2.477998734E-1,-8.770559311E0,-3.609259129E-1
7.401008340E-1,-2.286462635E-1,-8.746617317E0,-3.417722881E-1
7.425886470E-1,-1.999158412E-1,-8.722675323E0,-3.561375141E-1
7.450764590E-1,-1.855506301E-1,-8.684368134E0,-3.369838893E-1
7.475642720E-1,-1.616086215E-1,-8.655637741E0,-3.274070919E-1
7.500520840E-1,-1.616086215E-1,-8.617330551E0,-2.986766696E-1
7.525398970E-1,-1.616086215E-1,-8.588600159E0,-2.890998423E-1
7.550277090E-1,-1.663970202E-1,-8.526350975E0,-2.986766696E-1
7.575155220E-1,-1.711854190E-1,-8.502408981E0,-2.986766696E-1
7.600033340E-1,-1.807622313E-1,-8.483255386E0,-3.178302646E-1
7.624911470E-1,-1.855506301E-1,-8.430583000E0,-3.178302646E-1
7.649789590E-1,-1.807622313E-1,-8.392275810E0,-3.417722881E-1
7.674667720E-1,-1.711854190E-1,-8.353968620E0,-3.465606868E-1
7.699545840E-1,-1.472434103E-1,-8.325238228E0,-3.561375141E-1
7.724423450E-1,-1.520318091E-1,-8.291719437E0,-3.800795078E-1
7.749301050E-1,-1.424549967E-1,-8.258200645E0,-3.848679364E-1
7.774178650E-1,-1.328781992E-1,-8.229470253E0,-4.040215313E-1
7.799056260E-1,-1.376665980E-1,-8.205527306E0,-4.183867574E-1
7.823933860E-1,-1.520318091E-1,-8.167220116E0,-4.519055784E-1
7.848811470E-1,-1.616086215E-1,-8.148066521E0,-4.710591733E-1
7.873689070E-1,-1.951274425E-1,-8.133701324E0,-4.950011969E-1
7.898566670E-1,-1.999158412E-1,-8.119336128E0,-5.045779943E-1
7.923444280E-1,-2.190694511E-1,-8.104970932E0,-5.237316489E-1
7.948321880E-1,-1.951274425E-1,-8.085817337E0,-5.189431906E-1
7.973199490E-1,-1.807622313E-1,-8.061875343E0,-4.997895956E-1
7.998077090E-1,-1.663970202E-1,-8.066663742E0,-4.806360006E-1
8.022954700E-1,-1.376665980E-1,-8.057086945E0,-4.710591733E-1
8.047832300E-1,-1.185129806E-1,-8.042721748E0,-4.519055784E-1
8.072709900E-1,-1.089361757E-1,-8.028356552E0,-4.566939771E-1
8.097587510E-1,-9.935937077E-2,-8.009202957E0,-4.614823759E-1
8.122465110E-1,-9.457096457E-2,-7.999626637E0,-4.423287511E-1
8.147342720E-1,-8.978256583E-2,-7.970896244E0,-4.279635549E-1
8.172220320E-1,-1.089361757E-1,-7.942165375E0,-4.662707746E-1
8.197097920E-1,-1.328781992E-1,-7.927800179E0,-5.141547918E-1
8.221975530E-1,-1.616086215E-1,-7.894281387E0,-5.237316489E-1
8.246853130E-1,-1.807622313E-1,-7.855974197E0,-5.237316489E-1
8.271730740E-1,-1.999158412E-1,-7.803301811E0,-5.285200477E-1
8.296608340E-1,-2.094926536E-1,-7.779359818E0,-5.428852439E-1
8.321485950E-1,-1.999158412E-1,-7.750629425E0,-5.476736426E-1
8.346363550E-1,-1.999158412E-1,-7.721899033E0,-5.333084464E-1
8.371241150E-1,-1.951274425E-1,-7.697957039E0,-4.758476019E-1
8.396118760E-1,-1.807622313E-1,-7.683591843E0,-4.375403523E-1
8.420996880E-1,-1.520318091E-1,-7.654861450E0,-4.471171796E-1
8.445875010E-1,-1.280897856E-1,-7.640496254E0,-4.566939771E-1
8.470753130E-1,-9.935937077E-2,-7.626131058E0,-4.471171796E-1
8.495631260E-1,-1.089361757E-1,-7.616554260E0,-4.662707746E-1
8.520509380E-1,-1.041477770E-1,-7.611765862E0,-4.854243994E-1
8.545387510E-1,-1.089361757E-1,-7.616554260E0,-4.950011969E-1
8.570265630E-1,-1.328781992E-1,-7.606977463E0,-5.045779943E-1
8.595143760E-1,-1.424549967E-1,-7.606977463E0,-5.045779943E-1
8.620021880E-1,-1.711854190E-1,-7.597400665E0,-5.093663931E-1
8.644900010E-1,-1.663970202E-1,-7.606977463E0,-5.141547918E-1
8.669778130E-1,-1.568202078E-1,-7.621342659E0,-5.237316489E-1
8.694656260E-1,-1.472434103E-1,-7.621342659E0,-5.428852439E-1
8.719534380E-1,-1.520318091E-1,-7.630919456E0,-5.668272376E-1
8.744412510E-1,-1.328781992E-1,-7.626131058E0,-5.955576897E-1
8.769290630E-1,-1.424549967E-1,-7.616554260E0,-6.147112846E-1
8.794168760E-1,-1.520318091E-1,-7.640496254E0,-5.907692909E-1
8.819046880E-1,-1.759738177E-1,-7.650073051E0,-5.141547918E-1
8.843925010E-1,-1.663970202E-1,-7.654861450E0,-5.045779943E-1
8.868803130E-1,-1.663970202E-1,-7.659649849E0,-4.710591733E-1
8.893681260E-1,-1.472434103E-1,-7.693168640E0,-4.423287511E-1
8.918559380E-1,-1.328781992E-1,-7.697957039E0,-4.327519536E-1
8.943437510E-1,-1.137245819E-1,-7.712322235E0,-4.566939771E-1
8.968315630E-1,-7.541735470E-2,-7.745841026E0,-4.327519536E-1
8.993193760E-1,-3.711012751E-2,-7.769783020E0,-3.992331326E-1
9.018071880E-1,1.077390742E-2,-7.803301811E0,-3.800795078E-1
9.042950010E-1,4.908113554E-2,-7.846397400E0,-3.800795078E-1
9.067828130E-1,7.781155407E-2,-7.875127792E0,-3.561375141E-1
9.092706260E-1,9.696517140E-2,-7.894281387E0,-3.369838893E-1
9.117584380E-1,1.017535701E-1,-7.908646584E0,-3.465606868E-1
9.142462510E-1,8.259996027E-2,-7.908646584E0,-4.183867574E-1
9.167340630E-1,5.865794048E-2,-7.913434982E0,-5.141547918E-1
9.192218760E-1,4.429273307E-2,-7.942165375E0,-6.003460884E-1
9.217096880E-1,1.556231081E-2,-7.970896244E0,-6.578069329E-1
9.241975010E-1,-1.795651205E-2,-7.975684643E0,-7.009025216E-1
9.266853130E-1,-6.105214357E-2,-7.985261440E0,-7.823054194E-1
9.291731260E-1,-1.089361757E-1,-7.999626637E0,-8.206126094E-1
9.316609380E-1,-1.616086215E-1,-8.023568153E0,-8.397662640E-1
9.341487510E-1,-1.855506301E-1,-8.047510147E0,-8.349778652E-1
9.366365630E-1,-2.190694511E-1,-8.071452141E0,-8.349778652E-1
9.391243760E-1,-2.765302956E-1,-8.085817337E0,-8.589198589E-1
9.416121880E-1,-2.956839204E-1,-8.104970932E0,-8.828618526E-1
9.441000010E-1,-3.196259141E-1,-8.104970932E0,-8.732850552E-1
9.465878130E-1,-3.435679376E-1,-8.152854919E0,-8.637082577E-1
9.490756260E-1,-3.579331636E-1,-8.176796913E0,-8.493430614E-1
9.515634380E-1,-3.579331636E-1,-8.224681854E0,-8.206126094E-1
9.540512510E-1,-3.339911401E-1,-8.262989044E0,-7.775170207E-1
9.565390630E-1,-3.244143426E-1,-8.277354240E0,-7.487865686E-1
9.590268760E-1,-2.908954918E-1,-8.325238228E0,-7.200561762E-1
9.615146880E-1,-2.573766708E-1,-8.353968620E0,-7.152677774E-1
9.640025010E-1,-2.190694511E-1,-8.373122215E0,-6.721721292E-1
9.664903130E-1,-1.855506301E-1,-8.406641006E0,-6.051344872E-1
9.689781260E-1,-1.520318091E-1,-8.440159798E0,-5.524620414E-1
9.714659380E-1,-1.233013868E-1,-8.468890190E0,-5.285200477E-1
9.739537510E-1,-1.089361757E-1,-8.497620583E0,-5.141547918E-1
9.764415630E-1,-8.978256583E-2,-8.516774178E0,-5.237316489E-1
9.789293760E-1,-7.541735470E-2,-8.545504570E0,-5.524620414E-1
9.814171880E-1,-6.584054977E-2,-8.555081367E0,-5.716156363E-1
9.839050010E-1,-7.541735470E-2,-8.588600159E0,-5.811924338E-1
9.863928130E-1,-1.089361757E-1,-8.612542152E0,-5.859808922E-1
9.888806260E-1,-1.233013868E-1,-8.636484146E0,-5.811924338E-1
9.913684380E-1,-1.472434103E-1,-8.670002937E0,-5.907692909E-1
9.938562510E-1,-1.759738177E-1,-8.684368134E0,-6.242880821E-1
9.963440630E-1,-2.047042400E-1,-8.717886925E0,-6.386532784E-1
9.988318760E-1,-2.047042400E-1,-8.751405716E0,-6.721721292E-1
1.001319688E0,-1.855506301E-1,-8.799289703E0,-7.009025216E-1
1.003807501E0,-1.903390288E-1,-8.851962090E0,-7.152677774E-1
1.006295313E0,-1.999158412E-1,-8.885480881E0,-7.104793787E-1
1.008783126E0,-2.047042400E-1,-8.942941666E0,-6.961141229E-1
1.011270938E0,-2.047042400E-1,-8.990825653E0,-6.817489266E-1
1.013758751E0,-2.142810524E-1,-9.014767647E0,-6.865373254E-1
1.016246563E0,-2.430114746E-1,-9.053074837E0,-6.817489266E-1
1.018734376E0,-2.621650994E-1,-9.086593628E0,-6.578069329E-1
1.021222188E0,-3.004723191E-1,-9.129689217E0,-6.338648796E-1
1.023710001E0,-3.435679376E-1,-9.158419609E0,-6.290764809E-1
1.026197813E0,-3.818751574E-1,-9.167996407E0,-6.147112846E-1
1.028685626E0,-4.537012279E-1,-9.191938400E0,-5.620388389E-1
1.031173438E0,-5.303156972E-1,-9.235034943E0,-5.093663931E-1
1.033661251E0,-6.021417379E-1,-9.235034943E0,-4.806360006E-1
1.036149063E0,-6.739677787E-1,-9.297284126E0,-4.758476019E-1
1.038636876E0,-7.266402245E-1,-9.311649323E0,-4.327519536E-1
1.041124688E0,-7.697358727E-1,-9.364321709E0,-3.657143116E-1
1.043612501E0,-8.032546639E-1,-9.416994095E0,-2.986766696E-1
1.046100313E0,-8.463503122E-1,-9.474454880E0,-2.460042238E-1
1.048588126E0,-8.559271097E-1,-9.522338867E0,-2.220622003E-1
1.051075938E0,-8.655039072E-1,-9.565434456E0,-1.981201917E-1
1.053563751E0,-8.846575022E-1,-9.618106842E0,-1.789665818E-1
1.056051563E0,-9.038111567E-1,-9.680356026E0,-1.693897694E-1
1.058539376E0,-8.894459605E-1,-9.752182007E0,-1.598129570E-1
1.061027188E0,-8.607155085E-1,-9.814431190E0,-1.789665818E-1
1.063515001E0,-8.702923059E-1,-9.881468773E0,-2.076970041E-1
1.066002813E0,-8.750807047E-1,-9.924564362E0,-2.555810213E-1
1.068490626E0,-8.702923059E-1,-9.982025146E0,-2.938882709E-1
1.070978438E0,-8.846575022E-1,-1.002990913E1,-3.417722881E-1
1.073466251E0,-8.942343593E-1,-1.007300472E1,-4.279635549E-1
1.075954063E0,-8.511387110E-1,-1.010173512E1,-5.189431906E-1
1.078441876E0,-8.415619135E-1,-1.010173512E1,-5.572504401E-1
1.080929688E0,-8.271966577E-1,-1.012088871E1,-6.242880821E-1
1.083417501E0,-8.032546639E-1,-1.010173512E1,-6.769605279E-1
1.085905313E0,-7.649474144E-1,-1.008736992E1,-7.152677774E-1
1.088393126E0,-7.266402245E-1,-1.007300472E1,-7.296329737E-1
1.090880938E0,-7.170634270E-1,-1.005863953E1,-7.918822169E-1
1.093368751E0,-7.026981711E-1,-1.005863953E1,-7.870938182E-1
1.095856563E0,-6.739677787E-1,-1.007779312E1,-7.870938182E-1
1.098344376E0,-6.308721304E-1,-1.008736992E1,-8.158242106E-1
1.100832188E0,-5.781996846E-1,-1.013525391E1,-8.206126094E-1
1.103320001E0,-5.255272985E-1,-1.019750404E1,-8.397662640E-1
1.105807813E0,-4.872200489E-1,-1.025496483E1,-8.637082577E-1
1.108295626E0,-4.489128292E-1,-1.032200241E1,-9.115923047E-1
1.110783438E0,-4.153940082E-1,-1.039382839E1,-9.498994946E-1
1.113271251E0,-3.722983599E-1,-1.045607758E1,-1.002571940E0
1.115759063E0,-3.244143426E-1,-1.052311516E1,-1.050456047E0
1.118246876E0,-2.861070931E-1,-1.056142235E1,-1.117493629E0
1.120734688E0,-2.573766708E-1,-1.059015274E1,-1.165377736E0
1.123222501E0,-2.286462635E-1,-1.059972954E1,-1.208473325E0
1.125710313E0,-1.999158412E-1,-1.063324833E1,-1.251568913E0
1.128198126E0,-1.903390288E-1,-1.065719032E1,-1.280299306E0
1.130685938E0,-2.047042400E-1,-1.065719032E1,-1.275510907E0
1.133173751E0,-2.334346622E-1,-1.063324833E1,-1.270722508E0
1.135661563E0,-2.765302956E-1,-1.060930634E1,-1.256357312E0
1.138149376E0,-3.100491166E-1,-1.059015274E1,-1.265934110E0
1.140637188E0,-3.435679376E-1,-1.058536434E1,-1.289876223E0
1.143125001E0,-3.387795389E-1,-1.059494114E1,-1.294664621E0
1.145612813E0,-3.196259141E-1,-1.061409473E1,-1.275510907E0
1.148100626E0,-3.004723191E-1,-1.062367153E1,-1.213261724E0
1.150588438E0,-2.477998734E-1,-1.066197872E1,-1.146224022E0
1.153076251E0,-1.711854190E-1,-1.071465111E1,-1.088763237E0
1.155564063E0,-1.137245819E-1,-1.075774670E1,-1.045667648E0
1.158051876E0,-8.978256583E-2,-1.078168869E1,-1.031302333E0
1.160539688E0,-7.062894851E-2,-1.081999588E1,-1.055244446E0
1.163027501E0,-8.499415964E-2,-1.082957268E1,-1.069609642E0
1.165515313E0,-1.137245819E-1,-1.083914948E1,-1.103128433E0
1.168003126E0,-1.568202078E-1,-1.084872627E1,-1.131858826E0
1.170490938E0,-1.903390288E-1,-1.084872627E1,-1.155800819E0
1.172978751E0,-2.094926536E-1,-1.086309147E1,-1.184531331E0
1.175466563E0,-2.238578647E-1,-1.086309147E1,-1.160589218E0
1.177954376E0,-2.047042400E-1,-1.086309147E1,-1.131858826E0
1.180442188E0,-1.520318091E-1,-1.085351467E1,-1.103128433E0
1.182930001E0,-1.424549967E-1,-1.086787987E1,-1.055244446E0
1.185417813E0,-1.376665980E-1,-1.083914948E1,-1.060032845E0
1.187905626E0,-1.520318091E-1,-1.082478428E1,-1.045667648E0
1.190393438E0,-1.951274425E-1,-1.079126549E1,-1.007360339E0
1.192881251E0,-2.142810524E-1,-1.074816990E1,-9.307458997E-1
1.195369063E0,-2.334346622E-1,-1.070986271E1,-8.828618526E-1
1.197856876E0,-2.717418969E-1,-1.068113232E1,-8.445546627E-1
1.200344688E0,-3.052607179E-1,-1.064761353E1,-8.589198589E-1
1.202832501E0,-3.196259141E-1,-1.061888313E1,-8.637082577E-1
1.205320313E0,-3.148375154E-1,-1.059494114E1,-8.445546627E-1
1.207808126E0,-3.052607179E-1,-1.057578754E1,-7.966706157E-1
1.210295938E0,-3.052607179E-1,-1.056142235E1,-7.344213724E-1
1.212783751E0,-2.717418969E-1,-1.053748035E1,-7.152677774E-1
1.215271563E0,-2.813186944E-1,-1.054705715E1,-6.865373254E-1
1.217759376E0,-3.292027414E-1,-1.051353836E1,-7.248445749E-1
1.220247188E0,-3.339911401E-1,-1.049438477E1,-7.775170207E-1
1.222735001E0,-3.483563364E-1,-1.048480797E1,-7.200561762E-1
1.225222813E0,-3.627215624E-1,-1.045607758E1,-6.482301354E-1
1.227710626E0,-3.627215624E-1,-1.044171238E1,-5.859808922E-1
1.230198438E0,-3.483563364E-1,-1.042734718E1,-5.333084464E-1
1.232686251E0,-3.531447649E-1,-1.040819359E1,-4.854243994E-1
1.235174063E0,-3.292027414E-1,-1.042255878E1,-4.566939771E-1
1.237661876E0,-3.244143426E-1,-1.048480797E1,-4.662707746E-1
1.240149688E0,-2.956839204E-1,-1.053269196E1,-4.758476019E-1
1.242637501E0,-2.573766708E-1,-1.059972954E1,-5.093663931E-1
1.245125313E0,-1.951274425E-1,-1.069549751E1,-5.764040351E-1
1.247613126E0,-1.616086215E-1,-1.077690029E1,-6.482301354E-1
1.250100938E0,-1.185129806E-1,-1.085830307E1,-7.104793787E-1
1.252588751E0,-8.499415964E-2,-1.093970585E1,-7.583633661E-1
1.255076563E0,-6.584054977E-2,-1.099237823E1,-8.158242106E-1
1.257564376E0,-5.626374111E-2,-1.101632023E1,-8.637082577E-1
1.260052188E0,-3.711012751E-2,-1.104983902E1,-9.259575009E-1
1.262540001E0,-5.626374111E-2,-1.105462742E1,-9.451110959E-1
1.265027813E0,-4.189852998E-2,-1.105941582E1,-1.012148738E0
1.267515626E0,-2.274491638E-2,-1.104983902E1,-1.088763237E0
1.270003438E0,-8.379706182E-3,-1.104983902E1,-1.136647224E0
1.272491251E0,-1.316810958E-2,-1.104505062E1,-1.165377736E0
1.274979063E0,-3.232172132E-2,-1.103068542E1,-1.227626920E0
1.277466876E0,-5.147533491E-2,-1.099716663E1,-1.289876223E0
1.279954688E0,-8.020575345E-2,-1.095885944E1,-1.361702204E0
1.282442501E0,-1.185129806E-1,-1.093012905E1,-1.409586191E0
1.284930313E0,-1.663970202E-1,-1.089182186E1,-1.452681899E0
1.287418126E0,-2.190694511E-1,-1.083436108E1,-1.481412292E0
1.289905938E0,-2.765302956E-1,-1.079605389E1,-1.486200690E0
1.292393751E0,-3.483563364E-1,-1.074338150E1,-1.495777488E0
1.294881563E0,-4.249708056E-1,-1.071943951E1,-1.467047095E0
1.297369376E0,-4.872200489E-1,-1.070986271E1,-1.419163108E0
1.299857188E0,-5.638344884E-1,-1.068113232E1,-1.371279001E0
1.302345001E0,-6.260837317E-1,-1.065719032E1,-1.332971811E0
1.304832813E0,-6.835445762E-1,-1.068592072E1,-1.261145711E0
1.307320626E0,-7.218518257E-1,-1.069070911E1,-1.194108129E0
1.309808438E0,-7.505822182E-1,-1.071465111E1,-1.155800819E0
1.312296251E0,-7.697358727E-1,-1.072901630E1,-1.127070427E0
1.314784063E0,-7.649474144E-1,-1.072901630E1,-1.117493629E0
1.317271876E0,-7.122750282E-1,-1.075774670E1,-1.074398041E0
1.319759688E0,-6.356605291E-1,-1.074816990E1,-1.007360339E0
1.322247501E0,-5.638344884E-1,-1.074816990E1,-9.690531492E-1
1.324735313E0,-5.159504414E-1,-1.074338150E1,-9.259575009E-1
1.327223126E0,-4.537012279E-1,-1.070986271E1,-8.828618526E-1
1.329710938E0,-3.962403834E-1,-1.068113232E1,-8.684966564E-1
1.332198751E0,-3.579331636E-1,-1.063803673E1,-8.589198589E-1
1.334686563E0,-3.292027414E-1,-1.060451794E1,-8.493430614E-1
1.337174376E0,-2.908954918E-1,-1.057099915E1,-8.684966564E-1
1.339662188E0,-2.573766708E-1,-1.055663395E1,-9.020155072E-1
1.342149949E0,-2.525882721E-1,-1.052790356E1,-9.498994946E-1
1.344637709E0,-2.477998734E-1,-1.049438477E1,-1.007360339E0
1.347125470E0,-2.430114746E-1,-1.048001957E1,-1.060032845E0
1.349613230E0,-2.525882721E-1,-1.046565437E1,-1.117493629E0
1.352100990E0,-2.621650994E-1,-1.043213558E1,-1.122282028E0
1.354588751E0,-2.669534981E-1,-1.042255878E1,-1.127070427E0
1.357076511E0,-2.717418969E-1,-1.038903999E1,-1.112705231E0
1.359564272E0,-3.052607179E-1,-1.036988640E1,-1.093551636E0
1.362052032E0,-3.292027414E-1,-1.033636761E1,-1.069609642E0
1.364539792E0,-3.866635859E-1,-1.031721401E1,-1.055244446E0
1.367027553E0,-4.632780254E-1,-1.029327202E1,-1.050456047E0
1.369515313E0,-5.542576909E-1,-1.025975323E1,-1.074398041E0
1.372003074E0,-6.643909812E-1,-1.023581123E1,-1.093551636E0
1.374490834E0,-7.745242715E-1,-1.020229244E1,-1.088763237E0
1.376978595E0,-8.798691034E-1,-1.018313885E1,-1.117493629E0
1.379466355E0,-9.708487988E-1,-1.016398430E1,-1.136647224E0
1.381954115E0,-1.037886381E0,-1.014961910E1,-1.155800819E0
1.384441876E0,-1.071405292E0,-1.014483070E1,-1.151012421E0
1.386929636E0,-1.095347285E0,-1.015440750E1,-1.127070427E0
1.389417397E0,-1.090558887E0,-1.015919590E1,-1.083974838E0
1.391905157E0,-1.090558887E0,-1.015919590E1,-1.050456047E0
1.394392917E0,-1.080982089E0,-1.015440750E1,-1.012148738E0
1.396880678E0,-1.057040095E0,-1.015440750E1,-9.690531492E-1
1.399368438E0,-1.028309584E0,-1.013046551E1,-9.355342984E-1
1.401856199E0,-9.995791912E-1,-1.010652351E1,-9.211691022E-1
1.404343959E0,-9.469067454E-1,-1.011131191E1,-9.068039060E-1
1.406831720E0,-8.655039072E-1,-1.011610031E1,-9.115923047E-1
1.409319480E0,-7.984662652E-1,-1.014961910E1,-9.020155072E-1
1.411807292E0,-7.170634270E-1,-1.018313885E1,-9.211691022E-1
1.414295105E0,-6.404489279E-1,-1.023102283E1,-9.163807034E-1
1.416782917E0,-5.542576909E-1,-1.029327202E1,-9.259575009E-1
1.419270730E0,-4.537012279E-1,-1.036988640E1,-9.498994946E-1
1.421758542E0,-3.770867586E-1,-1.043213558E1,-9.546879530E-1
1.424246355E0,-3.100491166E-1,-1.049438477E1,-9.690531492E-1
1.426734167E0,-2.573766708E-1,-1.054226875E1,-1.012148738E0
1.429221980E0,-2.334346622E-1,-1.058057594E1,-1.055244446E0
1.431709792E0,-2.094926536E-1,-1.059494114E1,-1.074398041E0
1.434197605E0,-2.142810524E-1,-1.058057594E1,-1.088763237E0
1.436685417E0,-2.573766708E-1,-1.056621075E1,-1.088763237E0
1.439173230E0,-3.052607179E-1,-1.053748035E1,-1.103128433E0
1.441661042E0,-3.579331636E-1,-1.049438477E1,-1.127070427E0
1.444148855E0,-4.584896266E-1,-1.045128918E1,-1.146224022E0
1.446636667E0,-5.877765417E-1,-1.039861679E1,-1.141435623E0
1.449124480E0,-7.170634270E-1,-1.036988640E1,-1.146224022E0
1.451612292E0,-8.319851160E-1,-1.035073280E1,-1.127070427E0
1.454100105E0,-9.516952038E-1,-1.034115601E1,-1.136647224E0
1.456587917E0,-1.042674899E0,-1.032679081E1,-1.117493629E0
1.459075730E0,-1.109712481E0,-1.034594440E1,-1.079186440E0
1.461563542E0,-1.148019671E0,-1.036509800E1,-1.064821243E0
1.464051355E0,-1.157596469E0,-1.039861679E1,-1.007360339E0
1.466539167E0,-1.157596469E0,-1.040340519E1,-9.498994946E-1
1.469026980E0,-1.133654475E0,-1.041298199E1,-8.828618526E-1
1.471514792E0,-1.138442874E0,-1.039861679E1,-8.397662640E-1
1.474002605E0,-1.128866076E0,-1.037946320E1,-8.110358119E-1
1.476490417E0,-1.114500880E0,-1.035073280E1,-8.110358119E-1
1.478978230E0,-1.090558887E0,-1.030763721E1,-8.014590144E-1
1.481466042E0,-1.042674899E0,-1.025496483E1,-7.966706157E-1
1.483953855E0,-9.900023937E-1,-1.024059963E1,-7.823054194E-1
1.486441667E0,-9.373299479E-1,-1.022144604E1,-7.966706157E-1
1.488929480E0,-8.559271097E-1,-1.019271564E1,-8.397662640E-1
1.491417292E0,-7.505822182E-1,-1.018792725E1,-8.637082577E-1
1.493905105E0,-6.212953329E-1,-1.019750404E1,-8.732850552E-1
1.496392917E0,-4.967968464E-1,-1.023102283E1,-8.828618526E-1
1.498880730E0,-3.914519846E-1,-1.025975323E1,-9.594763517E-1
1.501368542E0,-3.052607179E-1,-1.026933002E1,-1.036090732E0
1.503856355E0,-2.573766708E-1,-1.025975323E1,-1.107916832E0
1.506344167E0,-2.430114746E-1,-1.026454163E1,-1.151012421E0
1.508831980E0,-2.525882721E-1,-1.027890682E1,-1.213261724E0
1.511319792E0,-2.908954918E-1,-1.025496483E1,-1.261145711E0
1.513807605E0,-3.244143426E-1,-1.025017643E1,-1.285087705E0
1.516295417E0,-3.914519846E-1,-1.024538803E1,-1.294664621E0
1.518783230E0,-4.584896266E-1,-1.024538803E1,-1.294664621E0
1.521271042E0,-5.111620426E-1,-1.024538803E1,-1.270722508E0
1.523758855E0,-5.734112859E-1,-1.025017643E1,-1.261145711E0
1.526246667E0,-6.500257850E-1,-1.024538803E1,-1.208473325E0
1.528734480E0,-7.218518257E-1,-1.024059963E1,-1.155800819E0
1.531222292E0,-7.745242715E-1,-1.023581123E1,-1.093551636E0
1.533710105E0,-8.655039072E-1,-1.022623444E1,-1.040879130E0
1.536197917E0,-9.373299479E-1,-1.020229244E1,-1.007360339E0
1.538685730E0,-9.900023937E-1,-1.018792725E1,-9.642647505E-1
1.541173542E0,-1.042674899E0,-1.018792725E1,-9.259575009E-1
1.543661355E0,-1.076193690E0,-1.019750404E1,-9.068039060E-1
1.546149167E0,-1.104924083E0,-1.022623444E1,-9.068039060E-1
1.548636980E0,-1.124077678E0,-1.024538803E1,-9.115923047E-1
1.551124792E0,-1.124077678E0,-1.024059963E1,-9.068039060E-1
1.553612605E0,-1.114500880E0,-1.025017643E1,-9.068039060E-1
1.556100417E0,-1.100135684E0,-1.027411842E1,-9.355342984E-1
1.558588230E0,-1.071405292E0,-1.028369522E1,-9.451110959E-1
1.561076042E0,-1.013944387E0,-1.029327202E1,-9.259575009E-1
1.563563855E0,-9.469067454E-1,-1.029806042E1,-9.020155072E-1
1.566051667E0,-8.702923059E-1,-1.028369522E1,-8.972271085E-1
1.568539480E0,-8.032546639E-1,-1.024059963E1,-8.972271085E-1
1.571027292E0,-7.601590157E-1,-1.023581123E1,-8.876502514E-1
1.573515105E0,-6.979097724E-1,-1.023581123E1,-8.828618526E-1
1.576002917E0,-6.596025825E-1,-1.019750404E1,-9.068039060E-1
1.578490730E0,-6.117185354E-1,-1.018313885E1,-9.355342984E-1
1.580978542E0,-5.781996846E-1,-1.017356110E1,-9.834183455E-1
1.583466355E0,-5.446808934E-1,-1.017356110E1,-1.026513934E0
1.585954167E0,-5.303156972E-1,-1.014961910E1,-1.074398041E0
1.588441980E0,-5.351040959E-1,-1.014004230E1,-1.112705231E0
1.590929792E0,-5.686228871E-1,-1.013046551E1,-1.136647224E0
1.593417605E0,-6.308721304E-1,-1.012567711E1,-1.160589218E0
1.595905417E0,-7.266402245E-1,-1.010652351E1,-1.189319730E0
1.598393230E0,-8.271966577E-1,-1.011610031E1,-1.174954534E0
1.600881042E0,-9.325415492E-1,-1.012088871E1,-1.155800819E0
1.603368855E0,-1.004367590E0,-1.015919590E1,-1.122282028E0
1.605856667E0,-1.085770488E0,-1.020708084E1,-1.069609642E0
1.608344480E0,-1.162384868E0,-1.026454163E1,-1.050456047E0
1.610832292E0,-1.262941360E0,-1.030763721E1,-1.016937137E0
1.613320105E0,-1.363497853E0,-1.036988640E1,-9.977835417E-1
1.615807917E0,-1.449689150E0,-1.042255878E1,-9.738415480E-1
1.618295730E0,-1.564610839E0,-1.045607758E1,-1.002571940E0
1.620783542E0,-1.698686123E0,-1.049917316E1,-1.083974838E0
1.623271355E0,-1.818396211E0,-1.052790356E1,-1.151012421E0
1.625759167E0,-1.904587507E0,-1.055184555E1,-1.151012421E0
1.628246980E0,-1.981201887E0,-1.057578754E1,-1.122282028E0
1.630734792E0,-2.038662672E0,-1.060451794E1,-1.098340034E0
1.633222605E0,-2.014720678E0,-1.065240192E1,-1.040879130E0
1.635710417E0,-1.947683096E0,-1.070507431E1,-9.929951429E-1
1.638198230E0,-1.851915002E0,-1.074338150E1,-8.876502514E-1
1.640686042E0,-1.746570110E0,-1.075774670E1,-8.110358119E-1
1.643173855E0,-1.636436820E0,-1.076732349E1,-7.631517649E-1
1.645661667E0,-1.526303530E0,-1.078168869E1,-7.152677774E-1
1.648149480E0,-1.420958757E0,-1.079605389E1,-7.200561762E-1
1.650637292E0,-1.329979062E0,-1.081041908E1,-7.679402232E-1
1.653125105E0,-1.238999367E0,-1.081520748E1,-8.014590144E-1
1.655612917E0,-1.157596469E0,-1.084393787E1,-9.020155072E-1
1.658100730E0,-1.085770488E0,-1.085351467E1,-9.690531492E-1
1.660588542E0,-1.018732786E0,-1.086309147E1,-1.002571940E0
1.663076355E0,-9.947907925E-1,-1.087266827E1,-1.093551636E0
1.665564167E0,-9.995791912E-1,-1.088703346E1,-1.170166135E0
1.668051980E0,-9.995791912E-1,-1.087266827E1,-1.208473325E0
1.670539792E0,-1.018732786E0,-1.086309147E1,-1.227626920E0
1.673027605E0,-1.033097982E0,-1.090139866E1,-1.198896527E0
1.675515417E0,-1.057040095E0,-1.094928265E1,-1.141435623E0
1.678003230E0,-1.076193690E0,-1.100195503E1,-1.088763237E0
1.680491042E0,-1.080982089E0,-1.106420422E1,-1.069609642E0
1.682978855E0,-1.085770488E0,-1.115039539E1,-1.069609642E0
1.685466667E0,-1.109712481E0,-1.124616432E1,-1.088763237E0
1.687954480E0,-1.143231273E0,-1.135150909E1,-1.064821243E0
1.690442292E0,-1.191115379E0,-1.147121906E1,-1.036090732E0
1.692930105E0,-1.272518158E0,-1.157656384E1,-1.031302333E0
1.695417917E0,-1.339555860E0,-1.167712021E1,-1.074398041E0
1.697905730E0,-1.411381960E0,-1.175373459E1,-1.107916832E0
1.700393542E0,-1.497573137E0,-1.183034897E1,-1.141435623E0
1.702881355E0,-1.574187636E0,-1.191175175E1,-1.165377736E0
1.705369167E0,-1.636436820E0,-1.197400093E1,-1.165377736E0
1.707856980E0,-1.665167332E0,-1.203146172E1,-1.136647224E0
1.710344792E0,-1.708262920E0,-1.208892250E1,-1.098340034E0
1.712832605E0,-1.727416515E0,-1.213680744E1,-1.079186440E0
1.715320417E0,-1.741781712E0,-1.218469143E1,-1.026513934E0
1.717808230E0,-1.775300503E0,-1.223736382E1,-9.977835417E-1
1.720296042E0,-1.823184609E0,-1.226130581E1,-9.929951429E-1
1.722783855E0,-1.890222192E0,-1.230440140E1,-1.012148738E0
1.725271667E0,-1.990778685E0,-1.231397820E1,-1.012148738E0
1.727759480E0,-2.115277290E0,-1.233313179E1,-1.064821243E0
1.730247292E0,-2.282871246E0,-1.233313179E1,-1.127070427E0
1.732735105E0,-2.450465441E0,-1.234749699E1,-1.213261724E0
1.735222917E0,-2.622848034E0,-1.234270859E1,-1.285087705E0
1.737710730E0,-2.747346401E0,-1.235707378E1,-1.280299306E0
1.740198542E0,-2.780865192E0,-1.240974617E1,-1.198896527E0
1.742686355E0,-2.742558002E0,-1.246720695E1,-1.117493629E0
1.745174167E0,-2.632424831E0,-1.250551414E1,-1.012148738E0
1.747661980E0,-2.474407434E0,-1.256297493E1,-8.541314602E-1
1.750149792E0,-2.258929253E0,-1.262522411E1,-7.200561762E-1
1.752637605E0,-2.014720678E0,-1.269705009E1,-6.482301354E-1
1.755125417E0,-1.794454217E0,-1.276887608E1,-6.386532784E-1
1.757613230E0,-1.631648421E0,-1.282154846E1,-6.386532784E-1
1.760101042E0,-1.540668845E0,-1.288379765E1,-6.147112846E-1
1.762588855E0,-1.507149935E0,-1.293168163E1,-6.530185342E-1
1.765076667E0,-1.497573137E0,-1.296998882E1,-7.152677774E-1
1.767564480E0,-1.521515131E0,-1.301787281E1,-7.583633661E-1
1.770052292E0,-1.531091928E0,-1.307533360E1,-7.823054194E-1
1.772540105E0,-1.540668845E0,-1.311364079E1,-8.493430614E-1
1.775027917E0,-1.574187636E0,-1.314716053E1,-9.163807034E-1
1.777515730E0,-1.578976035E0,-1.319025612E1,-9.115923047E-1
1.780003542E0,-1.569399238E0,-1.323335171E1,-8.684966564E-1
1.782491355E0,-1.555034041E0,-1.328602409E1,-7.823054194E-1
1.784979167E0,-1.502361536E0,-1.332911968E1,-7.056909800E-1
1.787466980E0,-1.435323954E0,-1.337221527E1,-6.673837304E-1
1.789954792E0,-1.344344258E0,-1.342009926E1,-6.338648796E-1
1.792442605E0,-1.229422569E0,-1.346319485E1,-6.194996834E-1
1.794930417E0,-1.104924083E0,-1.351586723E1,-6.673837304E-1
1.797418230E0,-9.852139950E-1,-1.356375122E1,-7.009025216E-1
1.799906042E0,-8.894459605E-1,-1.359727001E1,-7.152677774E-1
1.802393855E0,-8.032546639E-1,-1.364994240E1,-7.248445749E-1
1.804881667E0,-7.697358727E-1,-1.368824959E1,-7.296329737E-1
1.807369480E0,-7.362170219E-1,-1.372176838E1,-7.966706157E-1
1.809857292E0,-7.170634270E-1,-1.374571037E1,-9.259575009E-1
1.812345105E0,-7.314286232E-1,-1.375528717E1,-1.083974838E0
1.814832917E0,-7.314286232E-1,-1.377922916E1,-1.275510907E0
1.817320730E0,-7.553706169E-1,-1.380795956E1,-1.400009394E0
1.819808542E0,-7.841010690E-1,-1.385105515E1,-1.534084797E0
1.822296355E0,-8.032546639E-1,-1.388936234E1,-1.658583283E0
1.824784167E0,-8.080430627E-1,-1.392766953E1,-1.763928056E0
1.827271980E0,-7.984662652E-1,-1.396597672E1,-1.850119352E0
1.829759792E0,-7.793126702E-1,-1.398991871E1,-1.869272947E0
1.832247605E0,-7.314286232E-1,-1.401386070E1,-1.835754156E0
1.834735417E0,-7.170634270E-1,-1.403780270E1,-1.759139657E0
1.837223230E0,-7.457938194E-1,-1.404737949E1,-1.658583283E0
1.839711042E0,-8.319851160E-1,-1.400907230E1,-1.543661594E0
1.842198855E0,-9.660604000E-1,-1.395161152E1,-1.471835494E0
1.844686667E0,-1.090558887E0,-1.387020874E1,-1.414374709E0
1.847174480E0,-1.200692177E0,-1.379359436E1,-1.390432596E0
1.849662292E0,-1.248576164E0,-1.370740318E1,-1.371279001E0
1.852150105E0,-1.200692177E0,-1.363557720E1,-1.318606615E0
1.854637917E0,-1.109712481E0,-1.357811642E1,-1.222838521E0
1.857125730E0,-9.421183467E-1,-1.353980923E1,-1.060032845E0
1.859613542E0,-7.457938194E-1,-1.348234844E1,-8.732850552E-1
1.862101355E0,-5.638344884E-1,-1.344404125E1,-7.248445749E-1
1.864589167E0,-4.010287821E-1,-1.339615726E1,-5.907692909E-1
1.867076980E0,-2.525882721E-1,-1.330996609E1,-4.758476019E-1
1.869564792E0,-1.233013868E-1,-1.323814011E1,-3.992331326E-1
1.872052553E0,1.197100850E-3,-1.318067932E1,-3.321954906E-1
1.874540313E0,4.908113554E-2,-1.309927559E1,-2.890998423E-1
1.877028074E0,7.302315533E-2,-1.304181480E1,-2.460042238E-1
1.879515834E0,1.017535701E-1,-1.297477722E1,-1.981201917E-1
1.882003595E0,1.304839998E-1,-1.294604683E1,-1.215057373E-1
1.884491355E0,2.023100406E-1,-1.291731644E1,-5.925649032E-2
1.886979115E0,2.980781198E-1,-1.295562363E1,-6.584054790E-3
1.889466876E0,4.369418025E-1,-1.299393082E1,-2.573766746E-2
1.891954636E0,5.853823423E-1,-1.306096840E1,-1.215057373E-1
1.894442397E0,7.673416734E-1,-1.312321854E1,-2.747346461E-1
1.896930157E0,9.349357486E-1,-1.322377491E1,-4.231751561E-1
1.899417917E0,1.040280581E0,-1.328602409E1,-5.907692909E-1
1.901905678E0,1.112106681E0,-1.336263847E1,-7.535749674E-1
1.904393438E0,1.112106681E0,-1.342009926E1,-8.924387097E-1
1.906881199E0,1.083376288E0,-1.346319485E1,-9.738415480E-1
1.909368959E0,1.040280581E0,-1.350629044E1,-1.007360339E0
1.911856720E0,9.780313969E-1,-1.352544403E1,-9.977835417E-1
1.914344480E0,9.540894032E-1,-1.357332802E1,-9.211691022E-1
1.916832240E0,9.493009448E-1,-1.360205841E1,-8.349778652E-1
1.919320001E0,9.971849918E-1,-1.364515400E1,-7.727286220E-1
1.921807761E0,1.078587890E0,-1.368824959E1,-7.631517649E-1
1.924295522E0,1.112106681E0,-1.371219158E1,-7.823054194E-1
1.926783282E0,1.145625472E0,-1.371697998E1,-7.870938182E-1
1.929271042E0,1.116895080E0,-1.374571037E1,-7.679402232E-1
1.931758803E0,1.102529883E0,-1.373134518E1,-7.535749674E-1
1.934246563E0,1.073799491E0,-1.370740318E1,-7.344213724E-1
1.936734324E0,1.025915384E0,-1.364515400E1,-6.578069329E-1
1.939222084E0,9.445125461E-1,-1.358290482E1,-5.572504401E-1
1.941709845E0,8.631097078E-1,-1.351586723E1,-4.566939771E-1
1.944197657E0,7.864952683E-1,-1.343925285E1,-3.705027103E-1
1.946685470E0,7.338228226E-1,-1.336263847E1,-3.034650683E-1
1.949173282E0,7.146692276E-1,-1.330517769E1,-2.603694201E-1
1.951661095E0,7.290344238E-1,-1.325250530E1,-2.268506140E-1
1.954148907E0,7.769184709E-1,-1.319983292E1,-2.220622003E-1
1.956636720E0,8.200140595E-1,-1.316631413E1,-2.364274114E-1
1.959124532E0,9.205705523E-1,-1.312800694E1,-2.890998423E-1
1.961612345E0,9.780313969E-1,-1.310885239E1,-3.369838893E-1
1.964100157E0,1.021126986E0,-1.309448719E1,-3.369838893E-1
1.966587970E0,1.059434295E0,-1.309927559E1,-2.938882709E-1
1.969075782E0,1.112106681E0,-1.311364079E1,-2.076970041E-1
1.971563595E0,1.188721180E0,-1.310885239E1,-1.406593472E-1
1.974051407E0,1.236605167E0,-1.309927559E1,-7.362170517E-2
1.976539220E0,1.246181965E0,-1.308491039E1,2.992752008E-3
1.979027032E0,1.250970364E0,-1.303223801E1,1.035492271E-1
1.981514845E0,1.270123959E0,-1.296041203E1,1.897404790E-1
1.984002657E0,1.298854470E0,-1.290295124E1,2.663549483E-1
1.986490470E0,1.322796464E0,-1.284070206E1,2.567781210E-1
1.988978282E0,1.399410844E0,-1.278324127E1,2.567781210E-1
1.991466095E0,1.495178938E0,-1.272578049E1,2.424129248E-1
1.993953907E0,1.581370234E0,-1.266831970E1,2.472013235E-1
1.996441720E0,1.672349930E0,-1.260128212E1,2.615665495E-1
1.998929532E0,1.772906303E0,-1.256297493E1,2.807201445E-1
2.001417345E0,1.849520802E0,-1.250551414E1,2.902969420E-1
2.003905157E0,1.930923700E0,-1.245763016E1,2.950853705E-1
2.006392970E0,2.017114878E0,-1.245284176E1,2.902969420E-1
2.008880782E0,2.088941097E0,-1.244805336E1,2.376245260E-1
2.011368595E0,2.141613483E0,-1.244805336E1,1.657984704E-1
2.013856407E0,2.199074268E0,-1.245284176E1,7.960720360E-2
2.016344220E0,2.266111851E0,-1.248636055E1,-1.795651275E-3
2.018832032E0,2.313995838E0,-1.250551414E1,-1.616086066E-2
2.021319845E0,2.357091665E0,-1.251987934E1,-3.531447425E-2
2.023807657E0,2.337938070E0,-1.251030254E1,-8.798690885E-2
2.026295470E0,2.290053844E0,-1.247678375E1,-9.756372124E-2
2.028783282E0,2.242169857E0,-1.243847656E1,-6.883329898E-2
2.031271095E0,2.223016262E0,-1.239059258E1,-1.795651275E-3
2.033758907E0,2.208651066E0,-1.236186218E1,1.256955881E-2
2.036246720E0,2.232593060E0,-1.232834339E1,2.992752008E-3
2.038734532E0,2.280477047E0,-1.232355499E1,-4.967968538E-2
2.041222345E0,2.357091665E0,-1.233792019E1,-1.071405262E-1
2.043710157E0,2.414552450E0,-1.235228539E1,-1.693897694E-1
2.046197970E0,2.491166830E0,-1.238580418E1,-2.507926226E-1
2.048685782E0,2.553416014E0,-1.240974617E1,-3.752911091E-1
2.051173595E0,2.615665436E0,-1.243847656E1,-5.380968451E-1
2.053661407E0,2.630030632E0,-1.246241856E1,-6.578069329E-1
2.056149220E0,2.601300240E0,-1.247199535E1,-7.535749674E-1
2.058637032E0,2.529474020E0,-1.246241856E1,-8.589198589E-1
2.061124845E0,2.472013235E0,-1.242411137E1,-9.738415480E-1
2.063612657E0,2.472013235E0,-1.236665058E1,-1.055244446E0
2.066100470E0,2.529474020E0,-1.230440140E1,-1.088763237E0
2.068588282E0,2.620453835E0,-1.225651741E1,-1.012148738E0
2.071076095E0,2.711433411E0,-1.220384502E1,-8.397662640E-1
2.073563907E0,2.778470993E0,-1.212244129E1,-5.620388389E-1
2.076051720E0,2.859874010E0,-1.203146172E1,-2.555810213E-1
2.078539532E0,2.907757998E0,-1.194527054E1,1.179144308E-1
2.081027345E0,2.898181200E0,-1.185429096E1,4.961982965E-1
2.083515157E0,2.835932016E0,-1.174894619E1,8.744821548E-1
2.086002970E0,2.716221809E0,-1.164360142E1,1.214458823E0
2.088490782E0,2.644395828E0,-1.154783344E1,1.511339784E0
2.090978595E0,2.591723442E0,-1.141854668E1,1.731606364E0
2.093466407E0,2.610877037E0,-1.127968311E1,1.913565755E0
2.095954220E0,2.673126221E0,-1.112166500E1,2.014122248E0
2.098442032E0,2.749740601E0,-1.096843624E1,2.062006235E0
2.100929845E0,2.797624588E0,-1.077211189E1,2.076371431E0
2.103417657E0,2.811989784E0,-1.054705715E1,2.038064241E0
2.105905470E0,2.764105797E0,-1.034115601E1,1.975814939E0
2.108393282E0,2.711433411E0,-1.015919590E1,1.903988957E0
2.110881095E0,2.663549423E0,-1.000117874E1,1.808220863E0
2.113368907E0,2.630030632E0,-9.900622368E0,1.755548358E0
2.115856720E0,2.644395828E0,-9.847949982E0,1.736394763E0
2.118344532E0,2.658761024E0,-9.843161583E0,1.726817966E0
2.120832345E0,2.701856613E0,-9.871891975E0,1.702875972E0
2.123320157E0,2.744952202E0,-9.948506355E0,1.626261473E0
2.125807970E0,2.754528999E0,-1.007779312E1,1.496974587E0
2.128295782E0,2.725798607E0,-1.021665764E1,1.286284804E0
2.130783595E0,2.644395828E0,-1.037467480E1,1.032499433E0
2.133271407E0,2.572569609E0,-1.056621075E1,8.170213103E-1
2.135759220E0,2.495955229E0,-1.073380470E1,5.871779919E-1
2.138247032E0,2.433706045E0,-1.090139866E1,4.052186310E-1
2.140734845E0,2.419340849E0,-1.105462742E1,2.519897223E-1
2.143222657E0,2.424129248E0,-1.119828033E1,1.418564469E-1
2.145710470E0,2.462436438E0,-1.133714390E1,8.439560980E-2
2.148198282E0,2.500743628E0,-1.142812347E1,7.003039867E-2
2.150686095E0,2.505532026E0,-1.147600746E1,4.608838260E-2
2.153173907E0,2.491166830E0,-1.146643066E1,2.214636654E-2
2.155661720E0,2.457648039E0,-1.139939308E1,5.566519126E-2
2.158149532E0,2.433706045E0,-1.127968311E1,1.322796494E-1
2.160637345E0,2.424129248E0,-1.109293461E1,2.855085433E-1
2.163125157E0,2.467224836E0,-1.087266827E1,5.201402903E-1
2.165612970E0,2.615665436E0,-1.061888313E1,8.026561141E-1
2.168100782E0,2.893392801E0,-1.033636761E1,1.075595140E0
2.170588595E0,3.238157749E0,-1.004906273E1,1.300650120E0
2.173076407E0,3.530250311E0,-9.752182007E0,1.473032594E0
2.175564220E0,3.731363297E0,-9.421782494E0,1.597531080E0
2.178052032E0,3.784035683E0,-9.115324020E0,1.659780383E0
2.180539845E0,3.702632904E0,-8.804078102E0,1.731606364E0
2.183027657E0,3.549403906E0,-8.492832184E0,1.808220863E0
2.185515470E0,3.362656355E0,-8.234258652E0,1.903988957E0
2.188003282E0,3.180696964E0,-8.042721748E0,1.951872945E0
2.190491095E0,2.979583979E0,-7.860762596E0,1.927930951E0
2.192978907E0,2.797624588E0,-7.736264229E0,1.784278870E0
2.195466720E0,2.610877037E0,-7.654861450E0,1.578377485E0
2.197954532E0,2.443282843E0,-7.659649849E0,1.291073322E0
2.200442345E0,2.318784237E0,-7.697957039E0,9.798270464E-1
2.202930157E0,2.256535053E0,-7.808090210E0,6.446388364E-1
2.205417970E0,2.223016262E0,-7.970896244E0,2.998737693E-1
2.207905782E0,2.242169857E0,-8.133701324E0,2.214636654E-2
2.210393595E0,2.275688648E0,-8.306084633E0,-1.454477459E-1
2.212881407E0,2.333149672E0,-8.459313393E0,-1.406593472E-1
2.215369220E0,2.404975653E0,-8.574234962E0,-7.841010392E-2
2.217857032E0,2.481590033E0,-8.641272545E0,2.693476900E-2
2.220344845E0,2.529474020E0,-8.670002937E0,2.088941038E-1
2.222832657E0,2.577358246E0,-8.650849342E0,4.004302323E-1
2.225320470E0,2.586935043E0,-8.588600159E0,6.206967831E-1
2.227808282E0,2.558204412E0,-8.468890190E0,8.409633636E-1
2.230296095E0,2.519897223E0,-8.315661430E0,1.046864748E0
2.232783907E0,2.481590033E0,-8.143278122E0,1.176151633E0
2.235271720E0,2.476801634E0,-7.946953773E0,1.247977614E0
2.237759532E0,2.539050817E0,-7.707533836E0,1.329380512E0
2.240247345E0,2.692279816E0,-7.453748226E0,1.405994892E0
2.242735157E0,2.845508814E0,-7.185597897E0,1.473032594E0
2.245222970E0,2.965218782E0,-6.859986305E0,1.530493379E0
2.247710782E0,3.017891169E0,-6.505644798E0,1.559223890E0
2.250198595E0,3.051409960E0,-6.127360821E0,1.535281897E0
2.252686407E0,3.075352192E0,-5.725134850E0,1.477820992E0
2.255174220E0,3.046621561E0,-5.337274075E0,1.458667397E0
2.257662032E0,2.960430384E0,-4.935048103E0,1.439513803E0
2.260149845E0,2.821566820E0,-4.518456936E0,1.415571809E0
2.262637657E0,2.596511841E0,-4.125808239E0,1.315015316E0
2.265125470E0,2.333149672E0,-3.737947464E0,1.176151633E0
2.267613282E0,1.983596087E0,-3.393182278E0,1.051653147E0
2.270101095E0,1.634042621E0,-3.072359324E0,9.415197968E-1
2.272588907E0,1.356315255E0,-2.775478363E0,8.457517624E-1
2.275076720E0,1.126471877E0,-2.516904593E0,8.313865662E-1
2.277564532E0,9.636662006E-1,-2.282272816E0,8.313865662E-1
2.280052345E0,8.583213091E-1,-2.071583033E0,8.840589523E-1
2.282540157E0,7.769184709E-1,-1.865681648E0,9.846154451E-1
2.285027970E0,7.146692276E-1,-1.659780383E0,1.190516829E0
2.287515782E0,6.189011335E-1,-1.477820992E0,1.429937005E0
2.290003595E0,4.369418025E-1,-1.291073322E0,1.698087573E0
2.292491407E0,1.783680320E-1,-1.094748735E0,1.851316452E0
2.294979220E0,-1.472434103E-1,-9.127894044E-1,1.923142552E0
2.297467032E0,-4.824316502E-1,-7.308300734E-1,1.971026540E0
2.299954845E0,-8.080430627E-1,-5.632359385E-1,1.903988957E0
2.302442657E0,-1.100135684E0,-3.764882088E-1,1.779490471E0
2.304930470E0,-1.358709455E0,-2.184709013E-1,1.650203466E0
2.307418282E0,-1.593341231E0,-5.566519126E-2,1.573589087E0
2.309906095E0,-1.741781712E0,8.798690885E-2,1.564012289E0
2.312393907E0,-1.760935307E0,2.412158251E-1,1.645415068E0
2.314881720E0,-1.669955730E0,3.609259129E-1,1.798644066E0
2.317369532E0,-1.502361536E0,4.471171796E-1,1.903988957E0
2.319857345E0,-1.243787766E0,5.764040351E-1,1.956661344E0
2.322345157E0,-9.325415492E-1,7.009025216E-1,1.999756932E0
2.324832970E0,-5.925649405E-1,8.110358119E-1,2.023699045E0
2.327320782E0,-2.861070931E-1,9.211691022E-1,2.062006235E0
2.329808595E0,5.985504016E-3,1.060032845E0,2.076371431E0
2.332296407E0,2.310404629E-1,1.227626920E0,2.105101824E0
2.334784220E0,3.794809580E-1,1.419163108E0,2.143409014E0
2.337272032E0,4.513070285E-1,1.639429569E0,2.167351007E0
2.339759845E0,4.608838260E-1,1.830965757E0,2.215235233E0
2.342247657E0,4.321534038E-1,2.051232338E0,2.248754025E0
2.344735470E0,3.699041605E-1,2.257133722E0,2.210446835E0
2.347223282E0,2.645592988E-1,2.482188702E0,2.143409014E0
2.349711095E0,1.448491961E-1,2.664147854E0,2.114678621E0
2.352198907E0,5.386953801E-2,2.831742048E0,2.114678621E0
2.354686720E0,-3.232172132E-2,2.956240654E0,2.081159830E0
2.357174532E0,-1.185129806E-1,3.032855034E0,1.899200439E0
2.359662345E0,-2.190694511E-1,3.099892616E0,1.549647093E0
2.362150157E0,-3.435679376E-1,3.152565002E0,1.113902330E0
2.364637970E0,-4.967968464E-1,3.171718597E0,6.829460263E-1
2.367125782E0,-7.074866295E-1,3.205237627E0,2.088941038E-1
2.369613542E0,-9.612720013E-1,3.238756418E0,-2.651578486E-1
2.372101303E0,-1.267729759E0,3.262698412E0,-6.721721292E-1
2.374589063E0,-1.555034041E0,3.277063608E0,-1.012148738E0
2.377076824E0,-1.842338204E0,3.305794001E0,-1.222838521E0
2.379564584E0,-2.100912094E0,3.334524393E0,-1.328183413E0
2.382052345E0,-2.297236443E0,3.387196779E0,-1.256357312E0
2.384540105E0,-2.479195833E0,3.401561975E0,-1.088763237E0
2.387027865E0,-2.632424831E0,3.411138773E0,-8.972271085E-1
2.389515626E0,-2.790441990E0,3.411138773E0,-6.913257241E-1
2.392003386E0,-2.943670988E0,3.382408381E0,-4.902127981E-1
2.394491147E0,-3.092111588E0,3.363254786E0,-2.076970041E-1
2.396978907E0,-3.187879562E0,3.339312792E0,1.035492271E-1
2.399466667E0,-3.216609955E0,3.262698412E0,3.860650361E-1
2.401954428E0,-3.192667961E0,3.171718597E0,6.733692288E-1
2.404442188E0,-3.077746391E0,3.056797028E0,9.510966539E-1
2.406929949E0,-2.934094191E0,2.903568029E0,1.219247222E0
2.409417709E0,-2.780865192E0,2.745550871E0,1.415571809E0
2.411905470E0,-2.622848034E0,2.563591480E0,1.530493379E0
2.414393230E0,-2.479195833E0,2.372055292E0,1.626261473E0
2.416880990E0,-2.325966835E0,2.175730705E0,1.702875972E0
2.419368751E0,-2.196680069E0,1.984194636E0,1.736394763E0
2.421856511E0,-2.062604666E0,1.778293371E0,1.741183162E0
2.424344272E0,-1.957259893E0,1.567603588E0,1.717241168E0
2.426832032E0,-1.861491799E0,1.376067400E0,1.731606364E0
2.429319792E0,-1.775300503E0,1.179742932E0,1.769913554E0
2.431807553E0,-1.708262920E0,9.786299467E-1,1.817797661E0
2.434295313E0,-1.631648421E0,7.727286220E-1,1.884835243E0
2.436783074E0,-1.564610839E0,5.716156363E-1,1.884835243E0
2.439270834E0,-1.516726732E0,3.609259129E-1,1.827374458E0
2.441758647E0,-1.516726732E0,1.358709484E-1,1.645415068E0
2.444246459E0,-1.526303530E0,-9.397241473E-2,1.429937005E0
2.446734272E0,-1.593341231E0,-3.333925903E-1,1.142632723E0
2.449222084E0,-1.727416515E0,-5.776011348E-1,8.313865662E-1
2.451709897E0,-1.861491799E0,-8.553285599E-1,5.488707423E-1
2.454197709E0,-1.976413488E0,-1.094748735E0,2.998737693E-1
2.456685522E0,-1.995567083E0,-1.353322506E0,7.960720360E-2
2.459173334E0,-1.928529501E0,-1.650203466E0,-6.883329898E-2
2.461661147E0,-1.847126603E0,-1.951872945E0,-1.358709484E-1
2.464148959E0,-1.736993313E0,-2.248754025E0,-1.023521200E-1
2.466636772E0,-1.669955730E0,-2.555211782E0,2.992752008E-3
2.469124584E0,-1.612494826E0,-2.866457939E0,1.083376259E-1
2.471612397E0,-1.550245643E0,-3.153762102E0,2.663549483E-1
2.474100209E0,-1.468842745E0,-3.431489468E0,4.243722558E-1
2.476588022E0,-1.334767461E0,-3.699640274E0,5.967547894E-1
2.479075834E0,-1.157596469E0,-3.943848848E0,7.451952696E-1
2.481563647E0,-9.469067454E-1,-4.192845821E0,8.840589523E-1
2.484051459E0,-6.931213737E-1,-4.408323765E0,1.109113932E0
2.486539272E0,-4.345476031E-1,-4.614225388E0,1.362899303E0
2.489027084E0,-1.855506301E-1,-4.810549736E0,1.650203466E0
2.491514897E0,4.908113554E-2,-4.997297287E0,1.994968534E0
2.494002709E0,2.501940727E-1,-5.145738125E0,2.306214809E0
2.496490522E0,4.225766063E-1,-5.251082897E0,2.583942175E0
2.498978334E0,5.614402890E-1,-5.318120480E0,2.808997154E0
2.501466147E0,6.572083831E-1,-5.409100056E0,2.933495522E0
2.503953959E0,7.290344238E-1,-5.466560841E0,2.947860956E0
2.506441772E0,7.338228226E-1,-5.519233704E0,2.899976730E0
2.508929584E0,7.146692276E-1,-5.562329292E0,2.799420357E0
2.511417397E0,6.572083831E-1,-5.571906090E0,2.641402960E0
2.513905209E0,5.566518903E-1,-5.595848083E0,2.440289974E0
2.516393022E0,4.034229815E-1,-5.600636482E0,2.239177227E0
2.518880834E0,2.741360962E-1,-5.638943672E0,2.090736628E0
2.521368647E0,1.400607973E-1,-5.715558052E0,1.918354154E0
2.523856459E0,5.985504016E-3,-5.835268021E0,1.798644066E0
2.526344272E0,-8.020575345E-2,-5.974131584E0,1.640626669E0
2.528832084E0,-1.233013868E-1,-6.112995625E0,1.473032594E0
2.531319897E0,-1.711854190E-1,-6.275801182E0,1.362899303E0
2.533807709E0,-1.759738177E-1,-6.481702328E0,1.315015316E0
2.536295522E0,-1.041477770E-1,-6.692392349E0,1.382052898E0
2.538783334E0,5.865794048E-2,-6.922235489E0,1.501762986E0
2.541271147E0,3.076549172E-1,-7.185597897E0,1.678933978E0
2.543758959E0,5.949591398E-1,-7.463325024E0,1.908777356E0
2.546246772E0,8.918401599E-1,-7.769783020E0,2.133832216E0
2.548734584E0,1.169567585E0,-8.081028938E0,2.325368404E0
2.551222397E0,1.418564558E0,-8.387487411E0,2.488174200E0
2.553710209E0,1.595735431E0,-8.689156532E0,2.665344954E0
2.556198022E0,1.739387512E0,-9.000402451E0,2.832939148E0
2.558685834E0,1.878251195E0,-9.297284126E0,2.995744944E0
2.561173647E0,2.017114878E0,-9.584588051E0,3.091512918E0
2.563661459E0,2.136825085E0,-9.824007988E0,3.067570925E0
2.566149272E0,2.294842243E0,-1.004906273E1,2.995744944E0
2.568637084E0,2.457648039E0,-1.024059963E1,2.962226152E0
2.571124897E0,2.606088638E0,-1.039861679E1,2.971802950E0
2.573612709E0,2.658761024E0,-1.052311516E1,3.005321741E0
2.576100522E0,2.687491417E0,-1.062367153E1,2.976591349E0
2.578588334E0,2.649184227E0,-1.066197872E1,2.808997154E0
2.581076147E0,2.582146645E0,-1.069549751E1,2.622249365E0
2.583563959E0,2.519897223E0,-1.069549751E1,2.378040791E0
2.586051772E0,2.486378431E0,-1.066676712E1,2.129043818E0
2.588539584E0,2.486378431E0,-1.066197872E1,1.899200439E0
2.591027397E0,2.519897223E0,-1.065719032E1,1.693299174E0
2.593515209E0,2.591723442E0,-1.064761353E1,1.520916581E0
2.596003022E0,2.682703018E0,-1.066197872E1,1.367687702E0
2.598490834E0,2.768894196E0,-1.067155552E1,1.300650120E0
2.600978647E0,2.816778183E0,-1.071465111E1,1.291073322E0
2.603466459E0,2.802412987E0,-1.075774670E1,1.319803715E0
2.605954272E0,2.749740601E0,-1.081041908E1,1.372476101E0
2.608442084E0,2.668337822E0,-1.087266827E1,1.420360208E0
2.610929897E0,2.591723442E0,-1.093012905E1,1.482609391E0
2.613417709E0,2.572569609E0,-1.101153183E1,1.564012289E0
2.615905522E0,2.582146645E0,-1.111208820E1,1.664568782E0
2.618393334E0,2.682703018E0,-1.120785713E1,1.817797661E0
2.620881147E0,2.816778183E0,-1.130841351E1,1.980603337E0
2.623368959E0,2.955641985E0,-1.137545109E1,2.143409014E0
2.625856772E0,3.089717388E0,-1.139460468E1,2.330156803E0
2.628344584E0,3.180696964E0,-1.139939308E1,2.492962599E0
2.630832397E0,3.195062160E0,-1.138502789E1,2.617460966E0
2.633320209E0,3.166331768E0,-1.131799030E1,2.665344954E0
2.635808022E0,3.075352192E0,-1.125095272E1,2.617460966E0
2.638295834E0,2.893392801E0,-1.115997314E1,2.483385801E0
2.640783647E0,2.668337822E0,-1.105941582E1,2.330156803E0
2.643271459E0,2.424129248E0,-1.094928265E1,2.167351007E0
2.645759272E0,2.208651066E0,-1.086787987E1,2.042852640E0
2.648247084E0,2.036268473E0,-1.077211189E1,1.966238141E0
2.650734897E0,1.935712099E0,-1.070507431E1,1.951872945E0
2.653222709E0,1.930923700E0,-1.068113232E1,2.018910646E0
2.655710522E0,1.974019289E0,-1.068113232E1,2.124255419E0
2.658198334E0,2.055422068E0,-1.070507431E1,2.239177227E0
2.660686147E0,2.184709072E0,-1.073380470E1,2.363675594E0
2.663173959E0,2.347514868E0,-1.080084229E1,2.521692991E0
2.665661772E0,2.519897223E0,-1.083914948E1,2.631826162E0
2.668149584E0,2.692279816E0,-1.086787987E1,2.689286947E0
2.670637397E0,2.864662409E0,-1.087266827E1,2.670133352E0
2.673125209E0,2.955641985E0,-1.083914948E1,2.507327795E0
2.675613022E0,2.965218782E0,-1.078168869E1,2.248754025E0
2.678100834E0,2.850297213E0,-1.066676712E1,1.937507749E0
2.680588647E0,2.663549423E0,-1.054705715E1,1.650203466E0
2.683076459E0,2.481590033E0,-1.047044277E1,1.396418095E0
2.685564272E0,2.352303267E0,-1.045607758E1,1.233612418E0
2.688052084E0,2.266111851E0,-1.048959637E1,1.089960337E0
2.690539897E0,2.218227863E0,-1.055184555E1,9.367313981E-1
2.693027709E0,2.189497471E0,-1.062845993E1,8.505401611E-1
2.695515522E0,2.179920673E0,-1.068592072E1,7.547720671E-1
2.698003334E0,2.155978680E0,-1.075295830E1,7.212532759E-1
2.700491147E0,2.108094692E0,-1.080563068E1,6.637924314E-1
2.702978959E0,2.041056871E0,-1.079126549E1,6.063315868E-1
2.705466772E0,1.959654093E0,-1.077211189E1,6.015431881E-1
2.707954584E0,1.883039594E0,-1.071465111E1,6.206967831E-1
2.710442397E0,1.816002011E0,-1.064761353E1,7.164648771E-1
2.712930209E0,1.811213613E0,-1.056142235E1,8.744821548E-1
2.715418022E0,1.854309201E0,-1.047044277E1,1.113902330E0
2.717905834E0,1.916558504E0,-1.037467480E1,1.449090600E0
2.720393647E0,1.945288897E0,-1.025975323E1,1.822586060E0
2.722881459E0,1.954865694E0,-1.010173512E1,2.243965626E0
2.725369272E0,1.902193308E0,-9.943717957E0,2.722805977E0
2.727857084E0,1.772906303E0,-9.800065994E0,3.134608507E0
2.730344897E0,1.634042621E0,-9.656414032E0,3.421912670E0
2.732832709E0,1.471236944E0,-9.560646057E0,3.579930067E0
2.735320522E0,1.389834046E0,-9.536704063E0,3.584718466E0
2.737808334E0,1.418564558E0,-9.589376450E0,3.474585295E0
2.740296147E0,1.614889026E0,-9.728240013E0,3.326144695E0
2.742783959E0,1.959654093E0,-9.900622368E0,3.201646328E0
2.745271772E0,2.404975653E0,-1.008736992E1,3.129820108E0
2.747759584E0,2.864662409E0,-1.025496483E1,3.086724520E0
2.750247397E0,3.257311344E0,-1.037467480E1,3.062782526E0
2.752735209E0,3.525461912E0,-1.042734718E1,3.043628931E0
2.755223022E0,3.611653328E0,-1.040340519E1,3.043628931E0
2.757710834E0,3.525461912E0,-1.033157921E1,2.957437754E0
2.760198647E0,3.271676540E0,-1.023102283E1,2.775478363E0
2.762686459E0,2.912546396E0,-1.014961910E1,2.473809004E0
2.765174272E0,2.510320425E0,-1.009694672E1,2.047641039E0
2.767662084E0,2.127248287E0,-1.009694672E1,1.568800688E0
2.770149897E0,1.796848416E0,-1.014483070E1,1.056441545E0
2.772637709E0,1.533486247E0,-1.025017643E1,6.446388364E-1
2.775125522E0,1.375468850E0,-1.036509800E1,2.759317458E-1
2.777613334E0,1.318008065E0,-1.047523117E1,-1.616086066E-2
2.780101147E0,1.365892053E0,-1.058536434E1,-1.741781682E-1
2.782588959E0,1.452083349E0,-1.068592072E1,-1.741781682E-1
2.785076772E0,1.581370234E0,-1.075295830E1,-3.531447425E-2
2.787564584E0,1.662773132E0,-1.081520748E1,2.232593149E-1
2.790052397E0,1.677138329E0,-1.088224506E1,5.392939448E-1
2.792540209E0,1.619677424E0,-1.093012905E1,8.457517624E-1
2.795028022E0,1.495178938E0,-1.093970585E1,1.123479128E0
2.797515834E0,1.361103654E0,-1.090618706E1,1.382052898E0
2.800003647E0,1.217451572E0,-1.086787987E1,1.587954283E0
2.802491459E0,1.164779186E0,-1.078647709E1,1.765125155E0
2.804979272E0,1.164779186E0,-1.068592072E1,1.990180135E0
2.807467084E0,1.150413871E0,-1.057099915E1,2.306214809E0
2.809954897E0,1.169567585E0,-1.042734718E1,2.689286947E0
2.812442709E0,1.140837073E0,-1.027890682E1,3.024475336E0
2.814930522E0,1.064222693E0,-1.014961910E1,3.244741917E0
2.817418334E0,1.006761789E0,-1.004427433E1,3.330933094E0
2.819906147E0,9.780313969E-1,-9.986813545E0,3.306991100E0
2.822393959E0,1.030703783E0,-9.977236748E0,3.235165119E0
2.824881772E0,1.155202270E0,-1.000596714E1,3.110666513E0
2.827369584E0,1.351526856E0,-1.004427433E1,3.010110140E0
2.829857397E0,1.610100627E0,-1.007779312E1,2.938283920E0
2.832345209E0,1.854309201E0,-1.007300472E1,2.885611534E0
2.834833022E0,2.074575663E0,-1.002033234E1,2.847304344E0
2.837320834E0,2.194285870E0,-9.924564362E0,2.852092743E0
2.839808647E0,2.208651066E0,-9.795277596E0,2.866457939E0
2.842296407E0,2.170343876E0,-9.665990829E0,2.832939148E0
2.844784167E0,2.060210466E0,-9.565434456E0,2.751536369E0
2.847271928E0,1.983596087E0,-9.488820076E0,2.622249365E0
2.849759688E0,1.926135302E0,-9.455301285E0,2.473809004E0
2.852247449E0,1.897404790E0,-9.450512886E0,2.282272816E0
2.854735209E0,1.911770105E0,-9.464878082E0,2.052429438E0
2.857222970E0,1.926135302E0,-9.474454880E0,1.808220863E0
2.859710730E0,1.988384485E0,-9.498396873E0,1.602319479E0
2.862198490E0,2.007538080E0,-9.517550468E0,1.420360208E0
2.864686251E0,1.997961283E0,-9.531915665E0,1.315015316E0
2.867174011E0,1.921346903E0,-9.560646057E0,1.243189216E0
2.869661772E0,1.792060018E0,-9.603741646E0,1.243189216E0
2.872149532E0,1.677138329E0,-9.685144424E0,1.219247222E0
2.874637292E0,1.600523829E0,-9.776124001E0,1.200093627E0
2.877125053E0,1.614889026E0,-9.919775963E0,1.262342811E0
2.879612813E0,1.686715126E0,-1.007779312E1,1.348534107E0
2.882100574E0,1.820790410E0,-1.024538803E1,1.449090600E0
2.884588334E0,1.983596087E0,-1.037467480E1,1.564012289E0
2.887076095E0,2.146401882E0,-1.040819359E1,1.659780383E0
2.889563855E0,2.275688648E0,-1.039861679E1,1.765125155E0
2.892051615E0,2.333149672E0,-1.032200241E1,1.899200439E0
2.894539376E0,2.323572636E0,-1.017356110E1,2.023699045E0
2.897027136E0,2.256535053E0,-1.001554394E1,2.172139406E0
2.899514897E0,2.170343876E0,-9.857526779E0,2.296638012E0
2.902002657E0,2.060210466E0,-9.728240013E0,2.287061214E0
2.904490417E0,2.002749681E0,-9.637260437E0,2.220023632E0
2.906978178E0,1.978807688E0,-9.637260437E0,2.152985811E0
2.909465938E0,2.031480074E0,-9.661202431E0,2.114678621E0
2.911953699E0,2.132036686E0,-9.718663216E0,2.085948229E0
2.914441511E0,2.275688648E0,-9.785700798E0,2.047641039E0
2.916929324E0,2.452859640E0,-9.843161583E0,2.018910646E0
2.919417136E0,2.601300240E0,-9.871891975E0,1.951872945E0
2.921904949E0,2.697068214E0,-9.871891975E0,1.903988957E0
2.924392761E0,2.711433411E0,-9.871891975E0,1.851316452E0
2.926880574E0,2.697068214E0,-9.862315178E0,1.760336757E0
2.929368386E0,2.630030632E0,-9.867103577E0,1.616684675E0
2.931856199E0,2.548627615E0,-9.905410767E0,1.463455796E0
2.934344011E0,2.491166830E0,-9.962871552E0,1.310226917E0
2.936831824E0,2.467224836E0,-1.007779312E1,1.224035621E0
2.939319636E0,2.481590033E0,-1.023581123E1,1.152209520E0
2.941807449E0,2.529474020E0,-1.036030960E1,1.123479128E0
2.944295261E0,2.601300240E0,-1.046565437E1,1.113902330E0
2.946783074E0,2.687491417E0,-1.058536434E1,1.128267527E0
2.949270886E0,2.740163803E0,-1.065719032E1,1.185728431E0
2.951758699E0,2.754528999E0,-1.071943951E1,1.252766013E0
2.954246511E0,2.716221809E0,-1.072901630E1,1.281496406E0
2.956734324E0,2.649184227E0,-1.072422791E1,1.358110905E0
2.959222136E0,2.558204412E0,-1.070986271E1,1.410783410E0
2.961709949E0,2.433706045E0,-1.068113232E1,1.377264500E0
2.964197761E0,2.290053844E0,-1.060930634E1,1.353322506E0
2.966685574E0,2.170343876E0,-1.053748035E1,1.310226917E0
2.969173386E0,2.079364061E0,-1.045607758E1,1.329380512E0
2.971661199E0,2.031480074E0,-1.037467480E1,1.396418095E0
2.974149011E0,2.036268473E0,-1.031242561E1,1.425148606E0
2.976636824E0,2.045845270E0,-1.021665764E1,1.473032594E0
2.979124636E0,2.074575663E0,-1.010652351E1,1.587954283E0
2.981612449E0,2.098517895E0,-1.002033234E1,1.736394763E0
2.984100261E0,2.084152699E0,-9.948506355E0,1.851316452E0
2.986588074E0,2.055422068E0,-9.891045570E0,1.947084546E0
2.989075886E0,2.007538080E0,-9.867103577E0,1.990180135E0
2.991563699E0,1.959654093E0,-9.862315178E0,1.937507749E0
2.994051511E0,1.930923700E0,-9.910199165E0,1.836951256E0
2.996539324E0,1.921346903E0,-1.000596714E1,1.683722377E0
2.999027136E0,1.950077295E0,-1.012088871E1,1.540070295E0
3.001514949E0,2.017114878E0,-1.027890682E1,1.425148606E0
3.004002761E0,2.136825085E0,-1.043213558E1,1.334168911E0
3.006490574E0,2.266111851E0,-1.057099915E1,1.247977614E0
3.008978386E0,2.381033659E0,-1.071465111E1,1.171363235E0
3.011466199E0,2.457648039E0,-1.080563068E1,1.137844324E0
3.013954011E0,2.467224836E0,-1.089182186E1,1.070806742E0
3.016441824E0,2.404975653E0,-1.093970585E1,1.003769040E0
3.018929636E0,2.304419041E0,-1.095885944E1,9.558850527E-1
3.021417449E0,2.146401882E0,-1.094449425E1,8.553285599E-1
3.023905261E0,1.978807688E0,-1.092055225E1,7.547720671E-1
3.026393074E0,1.839944005E0,-1.090139866E1,6.781576276E-1
3.028880886E0,1.772906303E0,-1.087745667E1,5.967547894E-1
3.031368699E0,1.734599113E0,-1.086787987E1,4.818331003E-1
3.033856511E0,1.753752708E0,-1.085830307E1,3.860650361E-1
3.036344324E0,1.806425214E0,-1.080563068E1,3.764882088E-1
3.038832136E0,1.892616391E0,-1.077690029E1,4.339490533E-1
3.041319949E0,2.017114878E0,-1.074816990E1,5.632359385E-1
3.043807761E0,2.151190281E0,-1.074816990E1,7.787141204E-1
3.046295574E0,2.290053844E0,-1.075774670E1,1.046864748E0
3.048783386E0,2.390610456E0,-1.076732349E1,1.271919608E0
3.051271199E0,2.476801634E0,-1.075295830E1,1.468244195E0
3.053759011E0,2.500743628E0,-1.073380470E1,1.640626669E0
3.056246824E0,2.515108824E0,-1.067155552E1,1.769913554E0
3.058734636E0,2.534262419E0,-1.059972954E1,1.836951256E0
3.061222449E0,2.558204412E0,-1.049917316E1,1.880046844E0
3.063710261E0,2.572569609E0,-1.038903999E1,1.889623642E0
3.066198074E0,2.558204412E0,-1.026933002E1,1.870470047E0
3.068685886E0,2.524685621E0,-1.014004230E1,1.827374458E0
3.071173699E0,2.491166830E0,-1.004906273E1,1.726817966E0
3.073661511E0,2.443282843E0,-9.977236748E0,1.549647093E0
3.076149324E0,2.357091665E0,-9.919775963E0,1.291073322E0
3.078637136E0,2.275688648E0,-9.914987564E0,1.003769040E0
3.081124949E0,2.203862667E0,-9.958083153E0,7.404068708E-1
3.083612761E0,2.132036686E0,-1.002033234E1,5.392939448E-1
3.086100574E0,2.036268473E0,-1.007300472E1,3.764882088E-1
3.088588386E0,1.954865694E0,-1.013525391E1,2.615665495E-1
3.091076199E0,1.854309201E0,-1.018792725E1,1.801636815E-1
3.093564011E0,1.744175911E0,-1.022623444E1,9.876082093E-2
3.096051824E0,1.629254222E0,-1.025975323E1,9.876082093E-2
3.098539636E0,1.480813742E0,-1.026933002E1,9.876082093E-2
3.101027449E0,1.322796464E0,-1.026933002E1,8.918401599E-2
3.103515261E0,1.188721180E0,-1.025017643E1,1.227028370E-1
3.106003074E0,1.059434295E0,-1.025496483E1,2.472013235E-1
3.108490886E0,9.588778019E-1,-1.023581123E1,3.764882088E-1
3.110978699E0,8.870517015E-1,-1.019271564E1,5.009866953E-1
3.113466511E0,8.535329103E-1,-1.012567711E1,6.877344251E-1
3.115954324E0,8.678981066E-1,-1.006821632E1,1.027711034E0
3.118442136E0,9.014169574E-1,-1.004427433E1,1.425148606E0
3.120929949E0,9.828197956E-1,-1.005863953E1,1.784278870E0
3.123417761E0,1.073799491E0,-1.009215832E1,2.105101824E0
3.125905574E0,1.207874775E0,-1.016877270E1,2.306214809E0
3.128393386E0,1.365892053E0,-1.029806042E1,2.363675594E0
3.130881199E0,1.533486247E0,-1.046086597E1,2.301426411E0
3.133369011E0,1.715445518E0,-1.061888313E1,2.124255419E0
3.135856824E0,1.878251195E0,-1.075295830E1,1.865681648E0
3.138344636E0,2.026691675E0,-1.086309147E1,1.520916581E0
3.140832449E0,2.127248287E0,-1.092534065E1,1.147421122E0
3.143320261E0,2.165555477E0,-1.095885944E1,7.643488646E-1
3.145808074E0,2.189497471E0,-1.095407104E1,4.147954583E-1
3.148295886E0,2.155978680E0,-1.090139866E1,1.131260321E-1
3.150783699E0,2.103306293E0,-1.083914948E1,-1.598129570E-1
3.153271511E0,2.017114878E0,-1.077211189E1,-3.752911091E-1
3.155759324E0,1.906981707E0,-1.071943951E1,-5.811924338E-1
3.158247136E0,1.777694821E0,-1.069070911E1,-7.487865686E-1
3.160734949E0,1.629254222E0,-1.066197872E1,-9.211691022E-1
3.163222761E0,1.504755735E0,-1.064761353E1,-1.040879130E0
3.165710574E0,1.385045648E0,-1.060451794E1,-1.098340034E0
3.168198386E0,1.303642869E0,-1.058536434E1,-1.107916832E0
3.170686199E0,1.246181965E0,-1.056621075E1,-1.036090732E0
3.173174011E0,1.250970364E0,-1.052790356E1,-9.594763517E-1
3.175661824E0,1.313219666E0,-1.048480797E1,-8.301894665E-1
3.178149636E0,1.337161660E0,-1.044171238E1,-6.625953317E-1
3.180637449E0,1.346738458E0,-1.038425159E1,-4.231751561E-1
3.183125261E0,1.308431268E0,-1.029806042E1,-2.076970041E-1
3.185613074E0,1.212663174E0,-1.017356110E1,2.693476900E-2
3.188100886E0,1.088164687E0,-1.003948593E1,2.567781210E-1
3.190588699E0,9.732429981E-1,-9.895833969E0,5.680243373E-1
3.193076511E0,9.014169574E-1,-9.766547203E0,8.888474107E-1
3.195564324E0,8.774749041E-1,-9.637260437E0,1.204882026E0
3.198052136E0,9.397241473E-1,-9.570222855E0,1.511339784E0
3.200539949E0,1.088164687E0,-9.512762070E0,1.827374458E0
3.203027761E0,1.284489155E0,-9.546280861E0,2.181716204E0
3.205515574E0,1.495178938E0,-9.646837234E0,2.483385801E0
3.208003386E0,1.696291924E0,-9.756970406E0,2.650979757E0
3.210491199E0,1.854309201E0,-9.910199165E0,2.650979757E0
3.212979011E0,1.940500498E0,-1.009694672E1,2.588730574E0
3.215466824E0,1.940500498E0,-1.027411842E1,2.306214809E0
3.217954636E0,1.926135302E0,-1.043692398E1,1.884835243E0
3.220442449E0,1.897404790E0,-1.060451794E1,1.382052898E0
3.222930261E0,1.859097600E0,-1.076732349E1,9.127894044E-1
3.225418074E0,1.801636815E0,-1.090139866E1,5.105634928E-1
3.227905886E0,1.729810715E0,-1.100195503E1,1.083376259E-1
3.230393699E0,1.624465823E0,-1.105462742E1,-2.364274114E-1
3.232881511E0,1.471236944E0,-1.109772301E1,-5.620388389E-1
3.235369324E0,1.308431268E0,-1.113124180E1,-8.301894665E-1
3.237857136E0,1.102529883E0,-1.115039539E1,-1.064821243E0
3.240344949E0,9.014169574E-1,-1.115997314E1,-1.265934110E0
3.242832761E0,7.050924301E-1,-1.117912674E1,-1.371279001E0
3.245320574E0,5.087678432E-1,-1.118870354E1,-1.443105102E0
3.247808386E0,3.507505357E-1,-1.118391514E1,-1.490989089E0
3.250296199E0,2.358288616E-1,-1.115518475E1,-1.471835494E0
3.252784011E0,1.496376097E-1,-1.114560699E1,-1.404797792E0
3.255271824E0,8.259996027E-2,-1.109293461E1,-1.313818216E0
3.257759636E0,3.950432688E-2,-1.103547382E1,-1.227626920E0
3.260247449E0,5.985504016E-3,-1.096843624E1,-1.136647224E0
3.262735261E0,-2.753331885E-2,-1.087745667E1,-1.079186440E0
3.265223074E0,-8.978256583E-2,-1.076253510E1,-1.040879130E0
3.267710886E0,-1.616086215E-1,-1.066197872E1,-9.451110959E-1
3.270198699E0,-2.430114746E-1,-1.054705715E1,-8.445546627E-1
3.272686511E0,-3.244143426E-1,-1.040340519E1,-6.865373254E-1
3.275174324E0,-3.627215624E-1,-1.026933002E1,-4.710591733E-1
3.277662136E0,-3.292027414E-1,-1.014483070E1,-2.460042238E-1
3.280149949E0,-2.238578647E-1,-1.004427433E1,3.651157767E-2
3.282637709E0,-6.584054977E-2,-9.977236748E0,2.855085433E-1
3.285125470E0,1.687912196E-1,-9.943717957E0,5.249287486E-1
3.287613230E0,4.082113802E-1,-9.919775963E0,7.882909179E-1
3.290100990E0,6.189011335E-1,-9.914987564E0,9.846154451E-1
3.292588751E0,8.008604646E-1,-9.948506355E0,1.123479128E0
3.295076511E0,9.253589511E-1,-9.962871552E0,1.195305228E0
3.297564272E0,9.876081944E-1,-1.001554394E1,1.233612418E0
3.300052032E0,1.006761789E0,-1.003469753E1,1.233612418E0
3.302539792E0,9.732429981E-1,-1.006821632E1,1.113902330E0
3.305027553E0,9.157821536E-1,-1.008258152E1,8.888474107E-1
3.307515313E0,8.439561129E-1,-1.012088871E1,6.159083843E-1
3.310003074E0,7.912836671E-1,-1.015919590E1,3.669114113E-1
3.312490834E0,7.529764175E-1,-1.016877270E1,1.657984704E-1
3.314978595E0,7.098808289E-1,-1.019750404E1,-4.967968538E-2
3.317466355E0,7.050924301E-1,-1.023581123E1,-2.412158251E-1
3.319954115E0,7.194576263E-1,-1.025496483E1,-3.848679364E-1
3.322441876E0,7.050924301E-1,-1.027890682E1,-5.141547918E-1
3.324929636E0,7.003039718E-1,-1.027890682E1,-6.099228859E-1
3.327417397E0,6.907271743E-1,-1.027411842E1,-6.721721292E-1
3.329905157E0,6.667851806E-1,-1.029327202E1,-7.392097712E-1
3.332392917E0,6.667851806E-1,-1.031721401E1,-7.679402232E-1
3.334880678E0,6.715735793E-1,-1.035073280E1,-8.062474132E-1
3.337368438E0,6.955155730E-1,-1.041777039E1,-8.924387097E-1
3.339856199E0,7.625532150E-1,-1.049917316E1,-9.451110959E-1
3.342343959E0,7.960720658E-1,-1.056621075E1,-9.451110959E-1
3.344831720E0,8.056488633E-1,-1.063803673E1,-9.163807034E-1
3.347319480E0,7.817068696E-1,-1.069549751E1,-8.876502514E-1
3.349807240E0,7.242460251E-1,-1.075295830E1,-9.020155072E-1
3.352295001E0,6.236895323E-1,-1.079126549E1,-9.355342984E-1
3.354782813E0,5.135562420E-1,-1.082478428E1,-9.882067442E-1
3.357270626E0,4.129997790E-1,-1.085351467E1,-1.055244446E0
3.359758438E0,3.076549172E-1,-1.088703346E1,-1.131858826E0
3.362246251E0,2.023100406E-1,-1.091097546E1,-1.241992116E0
3.364734063E0,1.161187813E-1,-1.093970585E1,-1.371279001E0
3.367221876E0,2.992752194E-2,-1.094928265E1,-1.495777488E0
3.369709688E0,-6.105214357E-2,-1.095407104E1,-1.586757183E0
3.372197501E0,-1.424549967E-1,-1.095885944E1,-1.629852772E0
3.374685313E0,-2.430114746E-1,-1.093970585E1,-1.620275974E0
3.377173126E0,-3.531447649E-1,-1.089661026E1,-1.615487576E0
3.379660938E0,-4.680664241E-1,-1.083914948E1,-1.586757183E0
3.382148751E0,-5.829881430E-1,-1.076732349E1,-1.548449993E0
3.384636563E0,-7.266402245E-1,-1.066676712E1,-1.519719481E0
3.387124376E0,-8.511387110E-1,-1.058057594E1,-1.476623893E0
3.389612188E0,-9.900023937E-1,-1.049438477E1,-1.395220995E0
3.392100001E0,-1.100135684E0,-1.043213558E1,-1.218050122E0
3.394587813E0,-1.152808070E0,-1.036988640E1,-1.002571940E0
3.397075626E0,-1.152808070E0,-1.032679081E1,-8.158242106E-1
3.399563438E0,-1.104924083E0,-1.029806042E1,-6.242880821E-1
3.402051251E0,-9.995791912E-1,-1.029327202E1,-4.519055784E-1
3.404539063E0,-8.511387110E-1,-1.030763721E1,-3.609259129E-1
3.407026876E0,-7.362170219E-1,-1.032679081E1,-3.034650683E-1
3.409514688E0,-6.548141837E-1,-1.032679081E1,-2.555810213E-1
3.412002501E0,-6.356605291E-1,-1.033636761E1,-2.172738016E-1
3.414490313E0,-6.979097724E-1,-1.032679081E1,-2.795230448E-1
3.416978126E0,-8.128314614E-1,-1.030763721E1,-3.657143116E-1
3.419465938E0,-9.181763530E-1,-1.029327202E1,-4.950011969E-1
3.421953751E0,-1.037886381E0,-1.028369522E1,-6.338648796E-1
3.424441563E0,-1.114500880E0,-1.028848362E1,-7.535749674E-1
3.426929376E0,-1.176750183E0,-1.029327202E1,-8.828618526E-1
3.429417188E0,-1.205480576E0,-1.026454163E1,-1.045667648E0
3.431905001E0,-1.210268974E0,-1.028369522E1,-1.103128433E0
3.434392813E0,-1.181538582E0,-1.028369522E1,-1.179742932E0
3.436880626E0,-1.148019671E0,-1.028848362E1,-1.270722508E0
3.439368438E0,-1.085770488E0,-1.027411842E1,-1.332971811E0
3.441856251E0,-1.085770488E0,-1.024059963E1,-1.356913805E0
3.444344063E0,-1.104924083E0,-1.019750404E1,-1.352125406E0
3.446831876E0,-1.167173386E0,-1.014961910E1,-1.332971811E0
3.449319688E0,-1.253364563E0,-1.010173512E1,-1.328183413E0
3.451807501E0,-1.358709455E0,-1.004906273E1,-1.289876223E0
3.454295313E0,-1.473631144E0,-1.001075554E1,-1.280299306E0
3.456783126E0,-1.555034041E0,-9.986813545E0,-1.275510907E0
3.459270938E0,-1.626860023E0,-9.962871552E0,-1.251568913E0
3.461758751E0,-1.708262920E0,-9.962871552E0,-1.208473325E0
3.464246563E0,-1.736993313E0,-9.977236748E0,-1.112705231E0
3.466734376E0,-1.717839718E0,-1.000117874E1,-9.882067442E-1
3.469222188E0,-1.693897724E0,-1.002512074E1,-8.637082577E-1
3.471710001E0,-1.650802016E0,-1.005863953E1,-7.823054194E-1
3.474197813E0,-1.598129630E0,-1.010652351E1,-7.104793787E-1
3.476685626E0,-1.516726732E0,-1.013525391E1,-6.290764809E-1
3.479173438E0,-1.425747156E0,-1.015919590E1,-5.237316489E-1
3.481661251E0,-1.320402265E0,-1.017356110E1,-4.279635549E-1
3.484149063E0,-1.215057373E0,-1.017835045E1,-3.896563351E-1
3.486636876E0,-1.104924083E0,-1.014961910E1,-3.609259129E-1
3.489124688E0,-9.900023937E-1,-1.010173512E1,-2.986766696E-1
3.491612501E0,-8.942343593E-1,-1.004427433E1,-2.316390127E-1
3.494100313E0,-8.032546639E-1,-9.977236748E0,-1.933317930E-1
3.496588126E0,-7.314286232E-1,-9.886257172E0,-1.789665818E-1
3.499075938E0,-6.787561774E-1,-9.804854393E0,-2.172738016E-1
3.501563751E0,-6.500257850E-1,-9.728240013E0,-2.555810213E-1
3.504051563E0,-6.548141837E-1,-9.675567627E0,-3.274070919E-1
3.506539376E0,-6.739677787E-1,-9.637260437E0,-4.135983288E-1
3.509027188E0,-6.835445762E-1,-9.622895241E0,-5.045779943E-1
3.511515001E0,-6.787561774E-1,-9.594164848E0,-5.764040351E-1
3.514002813E0,-6.787561774E-1,-9.632472038E0,-6.338648796E-1
3.516490626E0,-6.548141837E-1,-9.665990829E0,-6.913257241E-1
3.518978438E0,-5.829881430E-1,-9.699509621E0,-7.248445749E-1
3.521466251E0,-5.303156972E-1,-9.766547203E0,-7.679402232E-1
3.523954063E0,-4.441244006E-1,-9.838373184E0,-8.206126094E-1
3.526441876E0,-3.675099611E-1,-9.900622368E0,-8.732850552E-1
3.528929688E0,-3.435679376E-1,-9.958083153E0,-9.163807034E-1
3.531417501E0,-3.387795389E-1,-1.002512074E1,-9.834183455E-1
3.533905313E0,-3.914519846E-1,-1.005863953E1,-1.012148738E0
3.536393126E0,-4.632780254E-1,-1.007300472E1,-1.016937137E0
3.538880938E0,-5.734112859E-1,-1.008736992E1,-1.074398041E0
3.541368751E0,-6.931213737E-1,-1.008258152E1,-1.117493629E0
3.543856563E0,-8.367735147E-1,-1.008258152E1,-1.136647224E0
3.546344376E0,-9.804255962E-1,-1.006342793E1,-1.198896527E0
3.548832188E0,-1.114500880E0,-1.006821632E1,-1.270722508E0
3.551320001E0,-1.243787766E0,-1.006342793E1,-1.289876223E0
3.553807813E0,-1.353921056E0,-1.005863953E1,-1.275510907E0
3.556295626E0,-1.440112352E0,-1.006821632E1,-1.261145711E0
3.558783438E0,-1.511938334E0,-1.004906273E1,-1.232415318E0
3.561271251E0,-1.559822440E0,-1.003469753E1,-1.189319730E0
3.563759063E0,-1.574187636E0,-1.002033234E1,-1.122282028E0
3.566246876E0,-1.564610839E0,-1.000596714E1,-1.050456047E0
3.568734688E0,-1.545457244E0,-9.986813545E0,-9.594763517E-1
3.571222501E0,-1.507149935E0,-9.972448349E0,-8.637082577E-1
3.573710313E0,-1.454477549E0,-9.953294754E0,-7.775170207E-1
3.576198126E0,-1.401805043E0,-9.958083153E0,-6.721721292E-1
3.578685938E0,-1.349132657E0,-9.967659950E0,-5.764040351E-1
3.581173751E0,-1.291671872E0,-9.953294754E0,-4.662707746E-1
3.583661563E0,-1.243787766E0,-9.962871552E0,-4.088099301E-1
3.586149376E0,-1.191115379E0,-9.977236748E0,-3.752911091E-1
3.588637188E0,-1.148019671E0,-9.991601944E0,-3.896563351E-1
3.591125001E0,-1.133654475E0,-1.000117874E1,-4.375403523E-1
3.593612813E0,-1.128866076E0,-1.001075554E1,-4.950011969E-1
3.596100626E0,-1.133654475E0,-1.003948593E1,-5.333084464E-1
3.598588438E0,-1.133654475E0,-1.007300472E1,-5.859808922E-1
3.601076251E0,-1.124077678E0,-1.010652351E1,-6.147112846E-1
3.603564063E0,-1.095347285E0,-1.014483070E1,-6.386532784E-1
3.606051876E0,-1.076193690E0,-1.016398430E1,-6.338648796E-1
3.608539688E0,-1.047463298E0,-1.022144604E1,-6.530185342E-1
3.611027501E0,-1.042674899E0,-1.024538803E1,-6.530185342E-1
3.613515313E0,-1.052251697E0,-1.025975323E1,-6.434416771E-1
3.616003126E0,-1.066616893E0,-1.025496483E1,-6.434416771E-1
3.618490938E0,-1.080982089E0,-1.024059963E1,-6.578069329E-1
3.620978751E0,-1.119289279E0,-1.022144604E1,-6.865373254E-1
3.623466563E0,-1.152808070E0,-1.020708084E1,-7.009025216E-1
3.625954376E0,-1.200692177E0,-1.018313885E1,-7.009025216E-1
3.628442188E0,-1.277306557E0,-1.015440750E1,-6.913257241E-1
3.630930001E0,-1.358709455E0,-1.012088871E1,-7.009025216E-1
3.633417813E0,-1.440112352E0,-1.009694672E1,-6.769605279E-1
3.635905626E0,-1.502361536E0,-1.007300472E1,-6.434416771E-1
3.638393438E0,-1.559822440E0,-1.003948593E1,-6.051344872E-1
3.640881251E0,-1.626860023E0,-1.000117874E1,-6.051344872E-1
3.643369063E0,-1.703474522E0,-9.967659950E0,-6.051344872E-1
3.645856876E0,-1.808819413E0,-9.938929558E0,-5.524620414E-1
3.648344688E0,-1.899798989E0,-9.905410767E0,-5.764040351E-1
3.650832501E0,-1.923741102E0,-9.891045570E0,-6.194996834E-1
3.653320313E0,-1.933317900E0,-9.895833969E0,-6.051344872E-1
3.655808126E0,-1.890222192E0,-9.905410767E0,-5.428852439E-1
3.658295938E0,-1.823184609E0,-9.919775963E0,-5.189431906E-1
3.660783751E0,-1.756146908E0,-9.924564362E0,-4.950011969E-1
3.663271563E0,-1.674744129E0,-9.934141159E0,-4.662707746E-1
3.665759376E0,-1.574187636E0,-9.914987564E0,-4.375403523E-1
3.668247188E0,-1.502361536E0,-9.862315178E0,-4.423287511E-1
3.670735001E0,-1.459265947E0,-9.819219589E0,-4.662707746E-1
3.673222813E0,-1.377863050E0,-9.804854393E0,-4.471171796E-1
3.675710626E0,-1.286883354E0,-9.780912399E0,-4.614823759E-1
3.678198438E0,-1.171961784E0,-9.776124001E0,-5.189431906E-1
3.680686251E0,-1.080982089E0,-9.790489197E0,-5.859808922E-1
3.683174063E0,-9.708487988E-1,-9.814431190E0,-6.530185342E-1
3.685661876E0,-8.367735147E-1,-9.867103577E0,-7.535749674E-1
3.688149688E0,-7.170634270E-1,-9.886257172E0,-8.062474132E-1
3.690637501E0,-6.356605291E-1,-9.948506355E0,-8.684966564E-1
3.693125313E0,-5.542576909E-1,-9.977236748E0,-9.259575009E-1
3.695613126E0,-4.920084476E-1,-1.000117874E1,-1.016937137E0
3.698100938E0,-4.632780254E-1,-1.002512074E1,-1.060032845E0
3.700588751E0,-4.872200489E-1,-1.002033234E1,-1.098340034E0
3.703076511E0,-5.063736439E-1,-1.001554394E1,-1.112705231E0
3.705564272E0,-5.351040959E-1,-1.002990913E1,-1.107916832E0
3.708052032E0,-5.781996846E-1,-1.001554394E1,-1.131858826E0
3.710539792E0,-6.069301367E-1,-1.000117874E1,-1.122282028E0
3.713027553E0,-6.500257850E-1,-1.000117874E1,-1.103128433E0
3.715515313E0,-6.787561774E-1,-1.000117874E1,-1.093551636E0
3.718003074E0,-7.266402245E-1,-1.001075554E1,-1.098340034E0
3.720490834E0,-7.888894677E-1,-1.000117874E1,-1.088763237E0
3.722978595E0,-8.511387110E-1,-1.000117874E1,-1.064821243E0
3.725466355E0,-9.038111567E-1,-9.996390343E0,-1.050456047E0
3.727954115E0,-9.852139950E-1,-9.996390343E0,-1.050456047E0
3.730441876E0,-1.071405292E0,-1.000117874E1,-1.050456047E0
3.732929636E0,-1.138442874E0,-9.996390343E0,-1.060032845E0
3.735417397E0,-1.181538582E0,-9.996390343E0,-1.045667648E0
3.737905157E0,-1.200692177E0,-1.000596714E1,-1.036090732E0
3.740392917E0,-1.186326981E0,-1.002033234E1,-1.021725535E0
3.742880678E0,-1.152808070E0,-1.003469753E1,-9.882067442E-1
3.745368438E0,-1.104924083E0,-1.004906273E1,-9.115923047E-1
3.747856199E0,-1.023521185E0,-1.004427433E1,-8.541314602E-1
3.750343959E0,-9.469067454E-1,-1.003469753E1,-8.254010081E-1
3.752831720E0,-8.607155085E-1,-1.002033234E1,-7.870938182E-1
3.755319480E0,-7.362170219E-1,-1.001075554E1,-7.535749674E-1
3.757807240E0,-6.452373862E-1,-9.991601944E0,-7.439981699E-1
3.760295001E0,-5.590460896E-1,-9.962871552E0,-7.344213724E-1
3.762782761E0,-4.728548229E-1,-9.938929558E0,-7.200561762E-1
3.765270522E0,-3.914519846E-1,-9.900622368E0,-7.056909800E-1
3.767758282E0,-2.908954918E-1,-9.862315178E0,-6.721721292E-1
3.770246042E0,-2.142810524E-1,-9.847949982E0,-6.482301354E-1
3.772733803E0,-1.472434103E-1,-9.828796387E0,-6.386532784E-1
3.775221563E0,-8.499415964E-2,-9.795277596E0,-6.386532784E-1
3.777709376E0,-6.584054977E-2,-9.761758804E0,-6.338648796E-1
3.780197188E0,-4.668693244E-2,-9.723451614E0,-6.434416771E-1
3.782685001E0,-5.147533491E-2,-9.694721222E0,-6.961141229E-1
3.785172813E0,-5.147533491E-2,-9.646837234E0,-7.200561762E-1
3.787660626E0,-7.062894851E-2,-9.627683640E0,-7.487865686E-1
3.790148438E0,-9.457096457E-2,-9.603741646E0,-7.439981699E-1
3.792636251E0,-1.185129806E-1,-9.594164848E0,-7.296329737E-1
3.795124063E0,-1.520318091E-1,-9.575011253E0,-7.152677774E-1
3.797611876E0,-1.759738177E-1,-9.570222855E0,-7.200561762E-1
3.800099688E0,-2.238578647E-1,-9.570222855E0,-7.583633661E-1
3.802587501E0,-2.477998734E-1,-9.589376450E0,-7.966706157E-1
3.805075313E0,-3.052607179E-1,-9.613318443E0,-8.254010081E-1
3.807563126E0,-3.770867586E-1,-9.622895241E0,-8.397662640E-1
3.810050938E0,-4.584896266E-1,-9.651625633E0,-8.493430614E-1
3.812538751E0,-5.303156972E-1,-9.665990829E0,-8.637082577E-1
3.815026563E0,-5.829881430E-1,-9.718663216E0,-8.445546627E-1
3.817514376E0,-6.404489279E-1,-9.761758804E0,-8.493430614E-1
3.820002188E0,-6.931213737E-1,-9.804854393E0,-8.206126094E-1
3.822490001E0,-7.266402245E-1,-9.843161583E0,-8.254010081E-1
3.824977813E0,-7.410054207E-1,-9.852738380E0,-8.110358119E-1
3.827465626E0,-7.266402245E-1,-9.867103577E0,-7.727286220E-1
3.829953438E0,-6.739677787E-1,-9.905410767E0,-7.535749674E-1
3.832441251E0,-6.452373862E-1,-9.924564362E0,-7.200561762E-1
3.834929063E0,-6.260837317E-1,-9.934141159E0,-6.865373254E-1
3.837416876E0,-5.925649405E-1,-9.914987564E0,-6.865373254E-1
3.839904688E0,-5.781996846E-1,-9.910199165E0,-6.625953317E-1
3.842392501E0,-5.590460896E-1,-9.881468773E0,-6.434416771E-1
3.844880313E0,-5.494692922E-1,-9.862315178E0,-6.865373254E-1
3.847368126E0,-5.159504414E-1,-9.857526779E0,-7.439981699E-1
3.849855938E0,-5.111620426E-1,-9.852738380E0,-8.014590144E-1
3.852343751E0,-4.967968464E-1,-9.828796387E0,-8.397662640E-1
3.854831563E0,-4.824316502E-1,-9.828796387E0,-8.445546627E-1
3.857319376E0,-4.776432514E-1,-9.833584785E0,-8.684966564E-1
3.859807188E0,-4.824316502E-1,-9.847949982E0,-8.828618526E-1
3.862295001E0,-5.015852451E-1,-9.867103577E0,-8.876502514E-1
3.864782813E0,-5.159504414E-1,-9.886257172E0,-9.068039060E-1
3.867270626E0,-5.494692922E-1,-9.905410767E0,-9.115923047E-1
3.869758438E0,-5.877765417E-1,-9.943717957E0,-9.163807034E-1
3.872246251E0,-6.452373862E-1,-9.967659950E0,-9.355342984E-1
3.874734063E0,-6.787561774E-1,-9.986813545E0,-9.259575009E-1
3.877221876E0,-7.266402245E-1,-1.002990913E1,-8.924387097E-1
3.879709688E0,-7.553706169E-1,-1.007300472E1,-8.732850552E-1
3.882197501E0,-7.745242715E-1,-1.011610031E1,-8.589198589E-1
3.884685313E0,-8.128314614E-1,-1.015440750E1,-8.254010081E-1
3.887173126E0,-8.176198602E-1,-1.017356110E1,-8.493430614E-1
3.889660938E0,-8.271966577E-1,-1.023102283E1,-8.684966564E-1
3.892148751E0,-8.607155085E-1,-1.025496483E1,-9.163807034E-1
3.894636563E0,-8.846575022E-1,-1.031242561E1,-8.828618526E-1
3.897124376E0,-9.325415492E-1,-1.036509800E1,-8.589198589E-1
3.899612188E0,-9.995791912E-1,-1.039861679E1,-8.445546627E-1
3.902100001E0,-1.061828494E0,-1.045128918E1,-8.062474132E-1
3.904587813E0,-1.152808070E0,-1.048480797E1,-8.014590144E-1
3.907075626E0,-1.248576164E0,-1.052790356E1,-8.014590144E-1
3.909563438E0,-1.325190663E0,-1.058536434E1,-8.110358119E-1
3.912051251E0,-1.440112352E0,-1.064282513E1,-8.541314602E-1
3.914539063E0,-1.511938334E0,-1.070986271E1,-8.876502514E-1
3.917026876E0,-1.569399238E0,-1.080084229E1,-9.451110959E-1
3.919514688E0,-1.646013618E0,-1.089182186E1,-9.882067442E-1
3.922002501E0,-1.727416515E0,-1.100674343E1,-1.016937137E0
3.924490313E0,-1.804031014E0,-1.111687660E1,-1.045667648E0
3.926978126E0,-1.847126603E0,-1.120785713E1,-1.060032845E0
3.929465938E0,-1.909375906E0,-1.132277870E1,-1.007360339E0
3.931953751E0,-1.981201887E0,-1.143770027E1,-9.498994946E-1
3.934441563E0,-2.048239470E0,-1.154304504E1,-9.020155072E-1
3.936929376E0,-2.115277290E0,-1.161487103E1,-8.445546627E-1
3.939417188E0,-2.167949677E0,-1.168669701E1,-8.445546627E-1
3.941905001E0,-2.196680069E0,-1.175373459E1,-8.637082577E-1
3.944392813E0,-2.201468468E0,-1.181119537E1,-8.062474132E-1
3.946880626E0,-2.167949677E0,-1.185429096E1,-7.439981699E-1
3.949368438E0,-2.148796082E0,-1.191654015E1,-6.721721292E-1
3.951856251E0,-2.129642487E0,-1.196921253E1,-6.242880821E-1
3.954344063E0,-2.100912094E0,-1.200751972E1,-5.907692909E-1
3.956831876E0,-2.053027868E0,-1.203625011E1,-5.476736426E-1
3.959319688E0,-1.990778685E0,-1.206976891E1,-5.333084464E-1
3.961807501E0,-1.885433793E0,-1.210328770E1,-5.333084464E-1
3.964295313E0,-1.736993313E0,-1.213201809E1,-5.237316489E-1
3.966783126E0,-1.617283225E0,-1.218947983E1,-4.950011969E-1
3.969270938E0,-1.516726732E0,-1.225172901E1,-4.519055784E-1
3.971758751E0,-1.406593442E0,-1.229961300E1,-3.944447339E-1
3.974246563E0,-1.368286252E0,-1.236186218E1,-3.226186931E-1
3.976734376E0,-1.430535555E0,-1.242889977E1,-3.226186931E-1
3.979222188E0,-1.574187636E0,-1.251509094E1,-3.657143116E-1
3.981710001E0,-1.780089021E0,-1.258691692E1,-4.519055784E-1
3.984197813E0,-2.057816267E0,-1.269226170E1,-6.386532784E-1
3.986685626E0,-2.388216257E0,-1.278802967E1,-8.876502514E-1
3.989173438E0,-2.689885616E0,-1.294125843E1,-1.136647224E0
3.991661251E0,-2.981978178E0,-1.311364079E1,-1.376067400E0
3.994149063E0,-3.192667961E0,-1.332433128E1,-1.615487576E0
3.996636876E0,-3.331531763E0,-1.357811642E1,-1.802235365E0
3.999124688E0,-3.374627352E0,-1.383190155E1,-1.893214941E0
4.001612501E0,-3.326743364E0,-1.409526348E1,-1.926733851E0
4.004100313E0,-3.235763550E0,-1.436820316E1,-1.883638144E0
4.006588126E0,-3.125630379E0,-1.459804630E1,-1.835754156E0
4.009075938E0,-3.025073767E0,-1.480873585E1,-1.720832467E0
4.011563751E0,-2.934094191E0,-1.495238781E1,-1.567603588E0
4.014051563E0,-2.838326216E0,-1.507209778E1,-1.380855799E0
4.016539376E0,-2.747346401E0,-1.511998272E1,-1.227626920E0
4.019027188E0,-2.661155224E0,-1.516307831E1,-9.882067442E-1
4.021515001E0,-2.570175409E0,-1.516786671E1,-7.535749674E-1
4.024002813E0,-2.431311846E0,-1.514871311E1,-4.997895956E-1
4.026490626E0,-2.287659645E0,-1.512955952E1,-2.124854028E-1
4.028978438E0,-2.105700493E0,-1.509604073E1,3.172317147E-2
4.031466251E0,-1.942894697E0,-1.502900219E1,2.567781210E-1
4.033954063E0,-1.760935307E0,-1.497632980E1,4.674678743E-1
4.036441876E0,-1.578976035E0,-1.491408062E1,6.206967831E-1
4.038929688E0,-1.397016644E0,-1.484704304E1,7.020996213E-1
4.041417501E0,-1.219845772E0,-1.479437065E1,6.925228238E-1
4.043905313E0,-1.033097982E0,-1.475127506E1,6.015431881E-1
4.046393126E0,-8.415619135E-1,-1.469860268E1,4.626794755E-1
4.048880938E0,-6.787561774E-1,-1.466987228E1,3.046621680E-1
4.051368751E0,-5.446808934E-1,-1.464593029E1,1.801636815E-1
4.053856563E0,-4.058171809E-1,-1.464114189E1,5.566519126E-2
4.056344376E0,-3.100491166E-1,-1.466029549E1,-7.841010392E-2
4.058832188E0,-2.573766708E-1,-1.466987228E1,-1.885433793E-1
4.061320001E0,-1.903390288E-1,-1.467466068E1,-3.226186931E-1
4.063807813E0,-1.568202078E-1,-1.469860268E1,-4.040215313E-1
4.066295626E0,-1.089361757E-1,-1.474169827E1,-4.710591733E-1
4.068783438E0,-5.626374111E-2,-1.478958225E1,-5.955576897E-1
4.071271251E0,5.865794048E-2,-1.485183144E1,-6.913257241E-1
4.073759063E0,1.400607973E-1,-1.494281101E1,-8.158242106E-1
4.076246876E0,2.118868530E-1,-1.505294418E1,-9.546879530E-1
4.078734688E0,2.549824715E-1,-1.516786671E1,-1.098340034E0
4.081222501E0,2.693476975E-1,-1.531151867E1,-1.265934110E0
4.083710313E0,2.645592988E-1,-1.547911263E1,-1.419163108E0
4.086198126E0,2.023100406E-1,-1.566586018E1,-1.534084797E0
4.088685938E0,1.209071875E-1,-1.583824253E1,-1.577180386E0
4.091173751E0,2.035071515E-2,-1.600583649E1,-1.529296279E0
4.093661563E0,-7.062894851E-2,-1.615906525E1,-1.428739905E0
4.096149376E0,-8.020575345E-2,-1.630750656E1,-1.299453020E0
4.098637188E0,-5.626374111E-2,-1.641763878E1,-1.189319730E0
4.101125001E0,1.556231081E-2,-1.652777290E1,-1.069609642E0
4.103612813E0,1.304839998E-1,-1.659481049E1,-9.115923047E-1
4.106100626E0,2.454056740E-1,-1.664269447E1,-7.392097712E-1
4.108588438E0,3.842693865E-1,-1.669536781E1,-6.099228859E-1
4.111076251E0,5.374982953E-1,-1.672409821E1,-5.189431906E-1
4.113564063E0,6.859387755E-1,-1.670973206E1,-5.285200477E-1
4.116051876E0,8.056488633E-1,-1.666184807E1,-5.524620414E-1
4.118539688E0,8.678981066E-1,-1.656129265E1,-5.189431906E-1
4.121027501E0,8.726865053E-1,-1.645115852E1,-4.040215313E-1
4.123515313E0,8.678981066E-1,-1.633144760E1,-2.651578486E-1
4.126003126E0,8.487445116E-1,-1.618779564E1,-1.646013707E-1
4.128490886E0,8.295909166E-1,-1.604893303E1,-1.071405262E-1
4.130978647E0,8.056488633E-1,-1.594358730E1,-1.358709484E-1
4.133466407E0,7.912836671E-1,-1.585739613E1,-2.460042238E-1
4.135954167E0,8.008604646E-1,-1.582387733E1,-3.609259129E-1
4.138441928E0,8.583213091E-1,-1.584303093E1,-4.471171796E-1
4.140929688E0,9.540894032E-1,-1.591485691E1,-4.614823759E-1
4.143417449E0,1.078587890E0,-1.602977943E1,-4.327519536E-1
4.145905209E0,1.246181965E0,-1.614470100E1,-3.657143116E-1
4.148392970E0,1.408987641E0,-1.623567963E1,-3.034650683E-1
4.150880730E0,1.552639842E0,-1.629792976E1,-2.699462473E-1
4.153368490E0,1.691503525E0,-1.628835297E1,-2.651578486E-1
4.155856251E0,1.772906303E0,-1.623567963E1,-2.986766696E-1
4.158344011E0,1.835155606E0,-1.618779564E1,-3.274070919E-1
4.160831772E0,1.873462796E0,-1.613991165E1,-4.088099301E-1
4.163319532E0,1.911770105E0,-1.608245087E1,-5.237316489E-1
4.165807292E0,1.959654093E0,-1.605850983E1,-6.482301354E-1
4.168295053E0,2.045845270E0,-1.607287407E1,-7.583633661E-1
4.170782813E0,2.117671490E0,-1.607287407E1,-8.014590144E-1
4.173270574E0,2.141613483E0,-1.608245087E1,-8.206126094E-1
4.175758334E0,2.136825085E0,-1.605850983E1,-8.206126094E-1
4.178246095E0,2.117671490E0,-1.603456688E1,-7.918822169E-1
4.180733855E0,2.117671490E0,-1.599147129E1,-7.296329737E-1
4.183221615E0,2.117671490E0,-1.591964531E1,-6.482301354E-1
4.185709376E0,2.184709072E0,-1.587176132E1,-5.955576897E-1
4.188197136E0,2.309207439E0,-1.583824253E1,-5.907692909E-1
4.190684897E0,2.462436438E0,-1.578557014E1,-5.476736426E-1
4.193172657E0,2.625242233E0,-1.574247456E1,-5.045779943E-1
4.195660417E0,2.768894196E0,-1.566586018E1,-4.854243994E-1
4.198148178E0,2.869450808E0,-1.556051540E1,-4.231751561E-1
4.200635938E0,2.936488390E0,-1.546474743E1,-2.651578486E-1
4.203123751E0,3.056198359E0,-1.535940266E1,-2.573766746E-2
4.205611563E0,3.204638958E0,-1.522532749E1,2.232593149E-1
4.208099376E0,3.362656355E0,-1.508646393E1,3.764882088E-1
4.210587188E0,3.501519918E0,-1.491408062E1,4.626794755E-1
4.213075001E0,3.558980942E0,-1.474169827E1,4.435258508E-1
4.215562813E0,3.506308317E0,-1.453579712E1,3.812766075E-1
4.218050626E0,3.429693937E0,-1.435383797E1,2.855085433E-1
4.220538438E0,3.305195332E0,-1.417666721E1,1.418564469E-1
4.223026251E0,3.180696964E0,-1.401864910E1,2.693476900E-2
4.225514063E0,3.075352192E0,-1.389893913E1,-1.071405262E-1
4.228001876E0,3.027467966E0,-1.379838276E1,-2.268506140E-1
4.230489688E0,3.041833162E0,-1.374571037E1,-2.555810213E-1
4.232977501E0,3.084928989E0,-1.372655678E1,-2.507926226E-1
4.235465313E0,3.195062160E0,-1.372176838E1,-1.933317930E-1
4.237953126E0,3.286041737E0,-1.370261478E1,-9.756372124E-2
4.240440938E0,3.343502760E0,-1.374571037E1,9.876082093E-2
4.242928751E0,3.396175146E0,-1.375528717E1,3.286041915E-1
4.245416563E0,3.420117140E0,-1.382711315E1,5.776011348E-1
4.247904376E0,3.405751944E0,-1.385105515E1,8.218097091E-1
4.250392188E0,3.415328741E0,-1.393245792E1,1.032499433E0
4.252880001E0,3.434482336E0,-1.396597672E1,1.243189216E0
4.255367813E0,3.472789526E0,-1.398034191E1,1.405994892E0
4.257855626E0,3.582922935E0,-1.400428391E1,1.597531080E0
4.260343438E0,3.721786499E0,-1.398034191E1,1.822586060E0
4.262831251E0,3.894169092E0,-1.394203472E1,2.009333849E0
4.265319063E0,4.071340084E0,-1.387978554E1,2.129043818E0
4.267806876E0,4.243722439E0,-1.380795956E1,2.220023632E0
4.270294688E0,4.416105270E0,-1.373134518E1,2.263119221E0
4.272782501E0,4.535815239E0,-1.362600040E1,2.258330822E0
4.275270313E0,4.607641220E0,-1.347277164E1,2.181716204E0
4.277758126E0,4.636371613E0,-1.328602409E1,2.100313425E0
4.280245938E0,4.622006416E0,-1.309448719E1,2.004545450E0
4.282733751E0,4.564545631E0,-1.294604683E1,1.827374458E0
4.285221563E0,4.487931252E0,-1.285506725E1,1.626261473E0
4.287709376E0,4.411316395E0,-1.284070206E1,1.367687702E0
4.290197188E0,4.420893669E0,-1.292210484E1,1.152209520E0
4.292685001E0,4.449624062E0,-1.300829601E1,1.066018343E0
4.295172813E0,4.497508049E0,-1.314237213E1,1.061229944E0
4.297660626E0,4.598064423E0,-1.331954288E1,1.037287831E0
4.300148438E0,4.760869980E0,-1.351107883E1,1.123479128E0
4.302636251E0,4.952406406E0,-1.368346119E1,1.224035621E0
4.305124063E0,5.134365559E0,-1.379838276E1,1.386841297E0
4.307611876E0,5.330689907E0,-1.394203472E1,1.559223890E0
4.310099688E0,5.536591530E0,-1.396597672E1,1.813009262E0
4.312587501E0,5.718550682E0,-1.396597672E1,2.038064241E0
4.315075313E0,5.895721912E0,-1.388936234E1,2.339733601E0
4.317563126E0,6.092046261E0,-1.382711315E1,2.569576979E0
4.320050938E0,6.278793812E0,-1.372655678E1,2.737171173E0
4.322538751E0,6.484695435E0,-1.357811642E1,2.842515945E0
4.325026563E0,6.642712593E0,-1.341531086E1,2.794631958E0
4.327514376E0,6.786364555E0,-1.322856331E1,2.631826162E0
4.330002188E0,6.891709805E0,-1.304181480E1,2.502539396E0
4.332490001E0,6.973112583E0,-1.279760647E1,2.378040791E0
4.334977813E0,7.020996571E0,-1.254382133E1,2.124255419E0
4.337465626E0,7.025784969E0,-1.227088261E1,1.741183162E0
4.339953438E0,6.973112583E0,-1.195005894E1,1.252766013E0
4.342441251E0,6.862978935E0,-1.160529423E1,6.637924314E-1
4.344929063E0,6.704961777E0,-1.126052952E1,1.131260321E-1
4.347416876E0,6.513425827E0,-1.092055225E1,-3.274070919E-1
4.349904688E0,6.326677799E0,-1.055184555E1,-6.817489266E-1
4.352392501E0,6.120776653E0,-1.018313885E1,-9.020155072E-1
4.354880313E0,5.943605900E0,-9.814431190E0,-9.259575009E-1
4.357368126E0,5.814318657E0,-9.397840500E0,-7.966706157E-1
4.359855938E0,5.699397087E0,-8.947730064E0,-6.434416771E-1
4.362343751E0,5.570110321E0,-8.492832184E0,-4.806360006E-1
4.364831563E0,5.455188751E0,-8.004414558E0,-2.172738016E-1
4.367319376E0,5.388150692E0,-7.501632690E0,2.376245260E-1
4.369807188E0,5.368997097E0,-6.979696274E0,9.271546006E-1
4.372295001E0,5.412093163E0,-6.486490726E0,1.707664371E0
4.374782813E0,5.483919144E0,-6.002861977E0,2.540846586E0
4.377270626E0,5.632359505E0,-5.538387299E0,3.383605480E0
4.379758438E0,5.823895454E0,-5.097854137E0,4.144961834E0
4.382246251E0,6.025008678E0,-4.671686172E0,4.705204964E0
4.384734063E0,6.168660641E0,-4.235941410E0,4.868010521E0
4.387221876E0,6.221333027E0,-3.781043053E0,4.609436989E0
4.389709688E0,6.139930248E0,-3.330933094E0,4.077924252E0
4.392197501E0,5.929240704E0,-2.876034737E0,3.397970676E0
4.394685313E0,5.613205910E0,-2.435501575E0,2.622249365E0
4.397173126E0,5.244498730E0,-1.999756932E0,1.836951256E0
4.399660938E0,4.861426353E0,-1.592742682E0,1.133055925E0
4.402148751E0,4.463989258E0,-1.200093627E0,4.961982965E-1
4.404636563E0,4.076128483E0,-8.265981078E-1,-4.010287672E-2
4.407124376E0,3.731363297E0,-4.483142793E-1,-4.279635549E-1
4.409612188E0,3.472789526E0,-6.524199992E-2,-6.530185342E-1
4.412100001E0,3.271676540E0,3.465606868E-1,-7.152677774E-1
4.414587813E0,3.132812977E0,7.679402232E-1,-6.625953317E-1
4.417075626E0,3.070563793E0,1.194108129E0,-5.668272376E-1
4.419563438E0,3.065775394E0,1.658583283E0,-4.088099301E-1
4.422051251E0,3.132812977E0,2.113481522E0,-1.119289324E-1
4.424539063E0,3.276464939E0,2.611475468E0,2.998737693E-1
4.427026876E0,3.453635931E0,3.104681015E0,7.739257216E-1
4.429514688E0,3.645172119E0,3.593098164E0,1.195305228E0
4.432002501E0,3.784035683E0,4.119822502E0,1.597531080E0
4.434490313E0,3.764882088E0,4.656123638E0,1.880046844E0
4.436978126E0,3.578134537E0,5.211578369E0,2.129043818E0
4.439465938E0,3.214215755E0,5.776610374E0,2.296638012E0
4.441953751E0,2.716221809E0,6.413467884E0,2.435501575E0
4.444441563E0,2.203862667E0,7.035960197E0,2.526481390E0
4.446929376E0,1.686715126E0,7.668029308E0,2.478597403E0
4.449417188E0,1.227028370E0,8.252214432E0,2.272696018E0
4.451905001E0,8.535329103E-1,8.778939247E0,1.942296147E0
4.454392813E0,5.662286878E-1,9.214683533E0,1.631049871E0
4.456880626E0,3.555389643E-1,9.588179588E0,1.310226917E0
4.459368438E0,2.549824715E-1,9.889848709E0,1.118690729E0
4.461856251E0,2.023100406E-1,1.013405704E1,1.133055925E0
4.464344063E0,1.113303825E-1,1.035432339E1,1.262342811E0
4.466831876E0,-6.584054977E-2,1.055064869E1,1.310226917E0
4.469319688E0,-3.052607179E-1,1.079485703E1,1.338957310E0
4.471807501E0,-6.212953329E-1,1.104864216E1,1.329380512E0
4.474295313E0,-9.516952038E-1,1.127848530E1,1.209670424E0
4.476783126E0,-1.291671872E0,1.145565701E1,9.702502489E-1
4.479270938E0,-1.703474522E0,1.160409737E1,5.919663906E-1
4.481758751E0,-2.153584480E0,1.170465374E1,1.274912357E-1
4.484246563E0,-2.598906040E0,1.179084492E1,-2.747346461E-1
4.486734376E0,-3.029862165E0,1.185788250E1,-5.620388389E-1
4.489222188E0,-3.513490915E0,1.194886208E1,-6.673837304E-1
4.491710001E0,-4.030638695E0,1.206378365E1,-5.811924338E-1
4.494197813E0,-4.485537052E0,1.213560963E1,-3.705027103E-1
4.496685626E0,-4.906916618E0,1.219785881E1,-7.841010392E-2
4.499173438E0,-5.256469727E0,1.222180080E1,2.328361124E-1
4.501661251E0,-5.476736546E0,1.212124443E1,4.483142793E-1
4.504149063E0,-5.596446514E0,1.187224770E1,5.488707423E-1
4.506636876E0,-5.606023312E0,1.153705978E1,6.063315868E-1
4.509124688E0,-5.596446514E0,1.114919853E1,5.967547894E-1
4.511612501E0,-5.524620533E0,1.067514706E1,4.961982965E-1
4.514100313E0,-5.409698963E0,1.013405704E1,4.243722558E-1
4.516588126E0,-5.213374138E0,9.554660797E0,4.243722558E-1
4.519075938E0,-4.969165802E0,8.932168007E0,4.052186310E-1
4.521563751E0,-4.566939831E0,8.319252014E0,3.812766075E-1
4.524051563E0,-4.126406670E0,7.715913296E0,4.147954583E-1
4.526539376E0,-3.599682331E0,7.146093369E0,5.249287486E-1
4.529027136E0,-2.981978178E0,6.638522625E0,6.733692288E-1
4.531514897E0,-2.340332270E0,6.145317078E0,6.590040326E-1
4.534002657E0,-1.722628117E0,5.666476727E0,4.052186310E-1
4.536490417E0,-1.238999367E0,5.225943565E0,2.992752008E-3
4.538978178E0,-9.325415492E-1,4.828506470E0,-4.375403523E-1
4.541465938E0,-7.170634270E-1,4.464587688E0,-7.152677774E-1
4.543953699E0,-6.596025825E-1,4.105457306E0,-8.828618526E-1
4.546441459E0,-6.500257850E-1,3.765480757E0,-8.924387097E-1
4.548929220E0,-7.170634270E-1,3.468599796E0,-7.775170207E-1
4.551416980E0,-8.894459605E-1,3.195660830E0,-7.727286220E-1
4.553904740E0,-1.109712481E0,2.922721624E0,-1.040879130E0
4.556392501E0,-1.349132657E0,2.640205860E0,-1.467047095E0
4.558880261E0,-1.588552833E0,2.386420488E0,-1.874061346E0
4.561368022E0,-1.851915002E0,2.132635117E0,-2.142211914E0
4.563855782E0,-2.144007683E0,1.912368655E0,-2.295440912E0
4.566343542E0,-2.436100245E0,1.658583283E0,-2.372055292E0
4.568831303E0,-2.694674015E0,1.443105102E0,-2.391208887E0
4.571319063E0,-2.905363798E0,1.198896527E0,-2.405574083E0
4.573806824E0,-3.106476784E0,9.498994946E-1,-2.486977100E0
4.576294584E0,-3.293224335E0,7.009025216E-1,-2.606687069E0
4.578782345E0,-3.422511339E0,4.183867574E-1,-2.683301449E0
4.581270105E0,-3.503914118E0,1.119289324E-1,-2.664147854E0
4.583757865E0,-3.585317135E0,-1.993172914E-1,-2.621052265E0
4.586245626E0,-3.633201122E0,-5.153518915E-1,-2.525284290E0
4.588733386E0,-3.647566319E0,-8.457517624E-1,-2.381632090E0
4.591221147E0,-3.623624325E0,-1.156997919E0,-2.166153908E0
4.593708907E0,-3.594893932E0,-1.496974587E0,-1.845330954E0
4.596196667E0,-3.527856112E0,-1.846528053E0,-1.452681899E0
4.598684428E0,-3.422511339E0,-2.210446835E0,-1.016937137E0
4.601172188E0,-3.283647537E0,-2.569576979E0,-6.051344872E-1
4.603660001E0,-3.082534790E0,-2.928707123E0,-2.124854028E-1
4.606147813E0,-2.862268209E0,-3.287837505E0,1.705868691E-1
4.608635626E0,-2.579752445E0,-3.618237257E0,5.680243373E-1
4.611123438E0,-2.268506050E0,-3.939060450E0,1.046864748E0
4.613611251E0,-1.918952703E0,-4.279036999E0,1.626261473E0
4.616099063E0,-1.535880446E0,-4.614225388E0,2.258330822E0
4.618586876E0,-1.162384868E0,-4.920682907E0,2.957437754E0
4.621074688E0,-7.745242715E-1,-5.227140903E0,3.637390852E0
4.623562501E0,-4.106055796E-1,-5.480926037E0,4.211999416E0
4.626050313E0,-6.584054977E-2,-5.710769653E0,4.647744179E0
4.628538126E0,2.214636505E-1,-5.897517204E0,4.906317711E0
4.631025938E0,4.225766063E-1,-6.036381245E0,4.858433723E0
4.633513751E0,5.614402890E-1,-6.156091213E0,4.542399406E0
4.636001563E0,6.189011335E-1,-6.251859188E0,4.010886192E0
4.638489376E0,6.045359373E-1,-6.290166378E0,3.311779499E0
4.640977188E0,4.848258495E-1,-6.318896770E0,2.469020605E0
4.643465001E0,2.885012925E-1,-6.333261967E0,1.664568782E0
4.645952813E0,5.865794048E-2,-6.371569157E0,9.367313981E-1
4.648440626E0,-2.286462635E-1,-6.409876347E0,3.238157928E-1
4.650928438E0,-4.584896266E-1,-6.481702328E0,-8.798690885E-2
4.653416251E0,-6.212953329E-1,-6.563105583E0,-2.460042238E-1
4.655904063E0,-7.122750282E-1,-6.673238754E0,-1.167173311E-1
4.658391876E0,-6.548141837E-1,-6.802525520E0,2.424129248E-1
4.660879688E0,-5.063736439E-1,-6.931812286E0,7.356184721E-1
4.663367501E0,-2.334346622E-1,-7.056311131E0,1.257554412E0
4.665855313E0,7.302315533E-2,-7.185597897E0,1.803432465E0
4.668343126E0,3.890577853E-1,-7.319673061E0,2.373252392E0
4.670830938E0,6.763619781E-1,-7.453748226E0,2.904765129E0
4.673318751E0,9.780313969E-1,-7.597400665E0,3.350086689E0
4.675806563E0,1.246181965E0,-7.764994621E0,3.632602453E0
4.678294376E0,1.466448545E0,-7.937376976E0,3.814561844E0
4.680782188E0,1.667561531E0,-8.095394135E0,3.924695253E0
4.683270001E0,1.835155606E0,-8.272565842E0,4.073135853E0
4.685757813E0,1.993172884E0,-8.444948196E0,4.255095005E0
4.688245626E0,2.117671490E0,-8.588600159E0,4.427477360E0
4.690733438E0,2.313995838E0,-8.703521729E0,4.480149746E0
4.693221251E0,2.548627615E0,-8.775347710E0,4.451419353E0
4.695709063E0,2.835932016E0,-8.832808495E0,4.384381771E0
4.698196876E0,3.161543369E0,-8.890269279E0,4.365228176E0
4.700684688E0,3.487154722E0,-8.957306862E0,4.403535366E0
4.703172501E0,3.769670486E0,-9.019556046E0,4.446630955E0
4.705660313E0,3.970783472E0,-9.120112419E0,4.437054157E0
4.708148126E0,4.104858875E0,-9.249400139E0,4.393958569E0
4.710635938E0,4.133589268E0,-9.383475304E0,4.346074581E0
4.713123751E0,3.994725466E0,-9.536704063E0,4.264671803E0
4.715611563E0,3.745728493E0,-9.713874817E0,4.106654644E0
4.718099376E0,3.444059134E0,-9.910199165E0,3.915118217E0
4.720587188E0,3.137601376E0,-1.011610031E1,3.709217072E0
4.723075001E0,2.898181200E0,-1.032200241E1,3.536834478E0
4.725562813E0,2.797624588E0,-1.052311516E1,3.450643301E0
4.728050626E0,2.816778183E0,-1.075774670E1,3.436278105E0
4.730538438E0,2.941276789E0,-1.097801304E1,3.397970676E0
4.733026251E0,3.060986757E0,-1.117433834E1,3.321356297E0
4.735514063E0,3.128024578E0,-1.134672070E1,3.192069530E0
4.738001876E0,3.113659382E0,-1.147121906E1,2.995744944E0
4.740489688E0,2.989160776E0,-1.159092903E1,2.804208755E0
4.742977501E0,2.816778183E0,-1.172021580E1,2.641402960E0
4.745465313E0,2.649184227E0,-1.183513737E1,2.473809004E0
4.747953126E0,2.486378431E0,-1.192132854E1,2.296638012E0
4.750440938E0,2.385822058E0,-1.198357773E1,2.186504602E0
4.752928751E0,2.390610456E0,-1.204582691E1,2.205658197E0
4.755416563E0,2.438494444E0,-1.209371090E1,2.339733601E0
4.757904376E0,2.524685621E0,-1.213680744E1,2.526481390E0
4.760392188E0,2.582146645E0,-1.215596104E1,2.775478363E0
4.762880001E0,2.567781210E0,-1.215596104E1,3.110666513E0
4.765367813E0,2.476801634E0,-1.210328770E1,3.498527288E0
4.767855626E0,2.275688648E0,-1.200751972E1,3.862445831E0
4.770343438E0,1.974019289E0,-1.191654015E1,4.197634220E0
4.772831251E0,1.748964310E0,-1.183513737E1,4.446630955E0
4.775319063E0,1.715445518E0,-1.174894619E1,4.666897774E0
4.777806876E0,1.911770105E0,-1.169148540E1,4.925471306E0
4.780294688E0,2.294842243E0,-1.163402462E1,5.217564106E0
4.782782501E0,2.802412987E0,-1.158135223E1,5.533598900E0
4.785270313E0,3.353079557E0,-1.149516106E1,5.825691223E0
4.787758126E0,3.841496706E0,-1.138023949E1,6.036381245E0
4.790245938E0,4.143166065E0,-1.120306873E1,6.065111637E0
4.792733751E0,4.267664433E0,-1.098280144E1,5.854421616E0
4.795221563E0,4.214992046E0,-1.071943951E1,5.480926037E0
4.797709376E0,3.999513865E0,-1.046565437E1,4.987720490E0
4.800197188E0,3.716998100E0,-1.023102283E1,4.422688961E0
4.802685001E0,3.391386747E0,-1.001554394E1,3.838503838E0
4.805172813E0,3.070563793E0,-9.838373184E0,3.239953518E0
4.807660626E0,2.721010208E0,-9.680356026E0,2.598307371E0
4.810148438E0,2.337938070E0,-9.560646057E0,1.947084546E0
4.812636251E0,1.892616391E0,-9.474454880E0,1.353322506E0
4.815124063E0,1.418564558E0,-9.436147690E0,8.313865662E-1
4.817611876E0,9.540894032E-1,-9.436147690E0,4.291606545E-1
4.820099688E0,5.901707411E-1,-9.488820076E0,2.088941038E-1
4.822587501E0,4.034229815E-1,-9.627683640E0,2.759317458E-1
4.825075313E0,4.273650050E-1,-9.828796387E0,6.063315868E-1
4.827563126E0,6.236895323E-1,-1.009215832E1,1.190516829E0
4.830050938E0,9.062053561E-1,-1.046086597E1,1.841739655E0
4.832538751E0,1.217451572E0,-1.082478428E1,2.531269789E0
4.835026563E0,1.571793437E0,-1.113603020E1,3.460220098E0
4.837514376E0,1.887827992E0,-1.140418148E1,4.494514942E0
4.840002188E0,2.093729496E0,-1.162444782E1,5.447407246E0
4.842490001E0,2.227804661E0,-1.174415779E1,6.103418827E0
4.844977813E0,2.304419041E0,-1.175373459E1,6.438606739E0
4.847465626E0,2.371456861E0,-1.166754341E1,6.524798393E0
4.849953438E0,2.448071241E0,-1.151910305E1,6.424241543E0
4.852441251E0,2.572569609E0,-1.133714390E1,6.132149220E0
4.854929063E0,2.749740601E0,-1.113124180E1,5.720346451E0
4.857416876E0,2.946065187E0,-1.094449425E1,5.284601688E0
4.859904688E0,3.142389774E0,-1.074338150E1,4.829703331E0
4.862392501E0,3.305195332E0,-1.059015274E1,4.370016575E0
4.864880313E0,3.386598349E0,-1.048959637E1,3.881599426E0
4.867368126E0,3.372233152E0,-1.041298199E1,3.450643301E0
4.869855938E0,3.305195332E0,-1.040819359E1,3.101089716E0
4.872343751E0,3.276464939E0,-1.043213558E1,2.808997154E0
4.874831563E0,3.305195332E0,-1.050874996E1,2.483385801E0
4.877319376E0,3.396175146E0,-1.061888313E1,2.095525026E0
4.879807188E0,3.530250311E0,-1.071943951E1,1.674145579E0
4.882295001E0,3.578134537E0,-1.080084229E1,1.262342811E0
4.884782813E0,3.506308317E0,-1.086787987E1,9.223662019E-1
4.887270626E0,3.300406933E0,-1.090139866E1,6.446388364E-1
4.889758438E0,2.993949175E0,-1.093491745E1,3.046621680E-1
4.892246251E0,2.740163803E0,-1.098758984E1,9.397241473E-2
4.894734063E0,2.558204412E0,-1.108814621E1,1.179144308E-1
4.897221876E0,2.467224836E0,-1.122701073E1,2.280477136E-1
4.899709688E0,2.486378431E0,-1.137066269E1,4.147954583E-1
4.902197501E0,2.539050817E0,-1.149994946E1,6.685808301E-1
4.904685261E0,2.572569609E0,-1.156698704E1,9.271546006E-1
4.907173022E0,2.529474020E0,-1.156698704E1,1.300650120E0
4.909660782E0,2.424129248E0,-1.149994946E1,1.745971560E0
4.912148542E0,2.256535053E0,-1.137066269E1,2.267907619E0
4.914636303E0,2.045845270E0,-1.123658752E1,2.780266762E0
4.917124063E0,1.849520802E0,-1.109772301E1,3.297414303E0
4.919611824E0,1.691503525E0,-1.099237823E1,3.800196648E0
4.922099584E0,1.562216640E0,-1.093491745E1,4.250306606E0
4.924587345E0,1.504755735E0,-1.094928265E1,4.547187805E0
4.927075105E0,1.557428241E0,-1.104983902E1,4.671686172E0
4.929562865E0,1.715445518E0,-1.117912674E1,4.647744179E0
4.932050626E0,1.940500498E0,-1.132756710E1,4.580706596E0
4.934538386E0,2.175132275E0,-1.144248867E1,4.504091740E0
4.937026147E0,2.371456861E0,-1.150952625E1,4.393958569E0
4.939513907E0,2.481590033E0,-1.153346825E1,4.269460201E0
4.942001667E0,2.519897223E0,-1.151910305E1,4.154538631E0
4.944489428E0,2.476801634E0,-1.154783344E1,3.996521235E0
4.946977188E0,2.414552450E0,-1.157177544E1,3.809773445E0
4.949464949E0,2.376245260E0,-1.164360142E1,3.603872061E0
4.951952709E0,2.390610456E0,-1.176331139E1,3.402759075E0
4.954440470E0,2.539050817E0,-1.191175175E1,3.182492495E0
4.956928230E0,2.744952202E0,-1.205540371E1,2.971802950E0
4.959415990E0,3.022679567E0,-1.215596104E1,2.775478363E0
4.961903751E0,3.300406933E0,-1.220863342E1,2.641402960E0
4.964391511E0,3.563769341E0,-1.217032623E1,2.478597403E0
4.966879272E0,3.750516891E0,-1.206498051E1,2.287061214E0
4.969367032E0,3.836708307E0,-1.189738655E1,2.081159830E0
4.971854792E0,3.812766314E0,-1.169627380E1,1.841739655E0
4.974342553E0,3.678690910E0,-1.151431465E1,1.554435492E0
4.976830313E0,3.444059134E0,-1.131320190E1,1.233612418E0
4.979318074E0,3.161543369E0,-1.115997314E1,9.510966539E-1
4.981805886E0,2.855085611E0,-1.101153183E1,7.499836683E-1
4.984293699E0,2.591723442E0,-1.087745667E1,6.111199856E-1
4.986781511E0,2.395398855E0,-1.079605389E1,5.297171474E-1
4.989269324E0,2.266111851E0,-1.074816990E1,5.249287486E-1
4.991757136E0,2.227804661E0,-1.071943951E1,6.015431881E-1
4.994244949E0,2.223016262E0,-1.070028591E1,7.499836683E-1
4.996732761E0,2.203862667E0,-1.070507431E1,9.606734514E-1
4.999220574E0,2.141613483E0,-1.066676712E1,1.118690729E0
5.001708386E0,1.969230890E0,-1.062367153E1,1.209670424E0
5.004196199E0,1.701080322E0,-1.053269196E1,1.334168911E0
5.006684011E0,1.432929754E0,-1.045607758E1,1.492186189E0
5.009171824E0,1.155202270E0,-1.041298199E1,1.683722377E0
5.011659636E0,9.588778019E-1,-1.036509800E1,1.860893250E0
5.014147449E0,8.391677141E-1,-1.037467480E1,2.071583033E0
5.016635261E0,7.864952683E-1,-1.040819359E1,2.263119221E0
5.019123074E0,7.912836671E-1,-1.047044277E1,2.454655409E0
5.021610886E0,8.439561129E-1,-1.052790356E1,2.612672567E0
5.024098699E0,8.870517015E-1,-1.059972954E1,2.775478363E0
5.026586511E0,9.636662006E-1,-1.068592072E1,2.990956545E0
5.029074324E0,1.064222693E0,-1.073380470E1,3.139396906E0
5.031562136E0,1.121683478E0,-1.074816990E1,3.249530315E0
5.034049949E0,1.188721180E0,-1.073380470E1,3.311779499E0
5.036537761E0,1.255758762E0,-1.069070911E1,3.388393879E0
5.039025574E0,1.318008065E0,-1.060930634E1,3.469796896E0
5.041513386E0,1.404199243E0,-1.049917316E1,3.522469282E0
5.044001199E0,1.495178938E0,-1.038425159E1,3.508104086E0
5.046489011E0,1.605312228E0,-1.025017643E1,3.441066504E0
5.048976824E0,1.705868721E0,-1.013046551E1,3.311779499E0
5.051464636E0,1.820790410E0,-1.002512074E1,3.105878115E0
5.053952449E0,1.902193308E0,-9.943717957E0,2.852092743E0
5.056440261E0,1.983596087E0,-9.910199165E0,2.555211782E0
5.058928074E0,2.060210466E0,-9.910199165E0,2.287061214E0
5.061415886E0,2.141613483E0,-9.938929558E0,2.062006235E0
5.063903699E0,2.199074268E0,-1.002033234E1,1.870470047E0
5.066391511E0,2.223016262E0,-1.012567711E1,1.664568782E0
5.068879324E0,2.223016262E0,-1.022144604E1,1.487397790E0
5.071367136E0,2.170343876E0,-1.028369522E1,1.281496406E0
5.073854949E0,2.112883091E0,-1.033157921E1,1.085171938E0
5.076342761E0,2.055422068E0,-1.039382839E1,9.319429994E-1
5.078830574E0,2.074575663E0,-1.044171238E1,8.409633636E-1
5.081318386E0,2.146401882E0,-1.046086597E1,7.978677154E-1
5.083806199E0,2.227804661E0,-1.048001957E1,7.930793166E-1
5.086294011E0,2.333149672E0,-1.050396156E1,8.218097091E-1
5.088781824E0,2.381033659E0,-1.051832676E1,8.553285599E-1
5.091269636E0,2.376245260E0,-1.052311516E1,9.080010056E-1
