"Time (s)","Acceleration x (m/s^2)","Acceleration y (m/s^2)","Acceleration z (m/s^2)"
2.082693100E-2,-3.987542868E0,9.310451508E0,7.356184721E-1
2.332375400E-2,-3.987542868E0,9.291297913E0,7.643488646E-1
2.582021300E-2,-3.992331266E0,9.276932716E0,7.882909179E-1
2.831667100E-2,-4.001908302E0,9.262567520E0,7.930793166E-1
3.081312900E-2,-4.025850296E0,9.229048729E0,8.313865662E-1
3.330958800E-2,-4.045003891E0,9.233837128E0,8.696937561E-1
3.580604600E-2,-4.054580688E0,9.229048729E0,8.936358094E-1
3.830250400E-2,-4.112041473E0,9.243413925E0,9.271546006E-1
4.079896300E-2,-4.126406670E0,9.286509514E0,9.846154451E-1
4.329547300E-2,-4.150348663E0,9.300874710E0,1.003769040E0
4.579203600E-2,-4.188655853E0,9.305663109E0,9.989806414E-1
4.829469200E-2,-4.193444252E0,9.334393501E0,9.750386477E-1
5.074469200E-2,-4.164713860E0,9.320028305E0,9.941922426E-1
5.319469200E-2,-4.145560265E0,9.315239906E0,1.008557439E0
5.565016100E-2,-4.102464676E0,9.291297913E0,1.027711034E0
5.811255600E-2,-4.078522682E0,9.248202324E0,1.066018343E0
6.058297300E-2,-4.059369087E0,9.224260330E0,1.156997919E0
6.306219200E-2,-4.064157486E0,9.200318336E0,1.200093627E0
6.555057700E-2,-4.092887878E0,9.171587944E0,1.252766013E0
6.804797300E-2,-4.140771866E0,9.181164742E0,1.291073322E0
7.055365000E-2,-4.169502258E0,9.195529938E0,1.295861721E0
7.306656700E-2,-4.203021049E0,9.224260330E0,1.300650120E0
7.558542100E-2,-4.198232651E0,9.248202324E0,1.305438519E0
7.810875400E-2,-4.193444252E0,9.243413925E0,1.291073322E0
8.063495200E-2,-4.140771866E0,9.243413925E0,1.310226917E0
8.316234800E-2,-4.107253075E0,9.229048729E0,1.315015316E0
8.568000400E-2,-4.088099480E0,9.181164742E0,1.324592113E0
8.816786900E-2,-4.102464676E0,9.147645950E0,1.362899303E0
9.065573400E-2,-4.126406670E0,9.099761963E0,1.377264500E0
9.314359800E-2,-4.183867455E0,9.056666374E0,1.401206493E0
9.563146300E-2,-4.217386246E0,9.042301178E0,1.367687702E0
9.811932700E-2,-4.217386246E0,9.056666374E0,1.305438519E0
1.006071920E-1,-4.159925461E0,9.056666374E0,1.271919608E0
1.030950560E-1,-4.083311081E0,9.051877975E0,1.276708007E0
1.055829210E-1,-3.992331266E0,9.042301178E0,1.286284804E0
1.080707860E-1,-3.896563292E0,9.018359184E0,1.286284804E0
1.105586500E-1,-3.829525709E0,9.018359184E0,1.305438519E0
1.130465150E-1,-3.796006680E0,9.032724380E0,1.305438519E0
1.155343790E-1,-3.772064686E0,9.013570786E0,1.243189216E0
1.180222440E-1,-3.791218281E0,9.042301178E0,1.123479128E0
1.205101090E-1,-3.829525709E0,9.109338760E0,1.027711034E0
1.229979730E-1,-3.819948912E0,9.147645950E0,1.085171938E0
1.254858380E-1,-3.810372114E0,9.162011147E0,1.156997919E0
1.279737020E-1,-3.800795317E0,9.181164742E0,1.147421122E0
1.304615670E-1,-3.767276287E0,9.219471931E0,1.137844324E0
1.329494310E-1,-3.752911091E0,9.205106735E0,1.089960337E0
1.354372960E-1,-3.733757496E0,9.185953140E0,1.104325533E0
1.379251610E-1,-3.724180698E0,9.195529938E0,1.099537134E0
1.404130250E-1,-3.714603901E0,9.195529938E0,1.056441545E0
1.429008900E-1,-3.719392300E0,9.195529938E0,1.003769040E0
1.453887540E-1,-3.728969097E0,9.195529938E0,9.558850527E-1
1.478766190E-1,-3.748122692E0,9.185953140E0,8.361749649E-1
1.503644840E-1,-3.767276287E0,9.157222748E0,6.446388364E-1
1.528523480E-1,-3.752911091E0,9.128492355E0,4.818331003E-1
1.553401610E-1,-3.614047527E0,9.085396767E0,5.680243373E-1
1.578279730E-1,-3.427299738E0,9.066243172E0,6.973112226E-1
1.603157860E-1,-3.321954966E0,9.042301178E0,9.846154451E-1
1.628035980E-1,-3.293224335E0,9.023147583E0,1.353322506E0
1.652914110E-1,-3.360262156E0,9.047089577E0,1.501762986E0
1.677792230E-1,-3.542221308E0,9.056666374E0,1.434725404E0
1.702670360E-1,-3.800795317E0,9.013570786E0,1.348534107E0
1.727548480E-1,-4.040215492E0,8.956110001E0,1.243189216E0
1.752426610E-1,-4.188655853E0,8.889072418E0,1.109113932E0
1.777304730E-1,-4.212597847E0,8.817246437E0,9.750386477E-1
1.802182860E-1,-4.145560265E0,8.798092842E0,8.984242082E-1
1.827060980E-1,-3.997119665E0,8.750208855E0,9.367313981E-1
1.851939110E-1,-3.791218281E0,8.716690063E0,1.051653147E0
1.876817230E-1,-3.633201122E0,8.707113266E0,1.128267527E0
1.901695360E-1,-3.523067713E0,8.711901665E0,1.113902330E0
1.926573480E-1,-3.475183725E0,8.750208855E0,1.003769040E0
1.951451610E-1,-3.508702517E0,8.778939247E0,8.696937561E-1
1.976329730E-1,-3.556586742E0,8.783727646E0,7.930793166E-1
2.001207860E-1,-3.580528736E0,8.764574051E0,8.313865662E-1
2.026085980E-1,-3.570951939E0,8.745420456E0,8.553285599E-1
2.050964110E-1,-3.542221308E0,8.731055260E0,9.032126069E-1
2.075842230E-1,-3.527856112E0,8.740632057E0,8.074445128E-1
2.100720360E-1,-3.489548922E0,8.745420456E0,8.218097091E-1
2.125598480E-1,-3.460818529E0,8.759785652E0,7.643488646E-1
2.150476610E-1,-3.475183725E0,8.750208855E0,8.170213103E-1
2.175355250E-1,-3.465606928E0,8.745420456E0,7.930793166E-1
2.200233900E-1,-3.460818529E0,8.759785652E0,8.074445128E-1
2.225112540E-1,-3.470395327E0,8.750208855E0,8.265981078E-1
2.249991190E-1,-3.465606928E0,8.735843658E0,8.649053574E-1
2.274869840E-1,-3.446453333E0,8.740632057E0,8.457517624E-1
2.299748480E-1,-3.446453333E0,8.750208855E0,8.265981078E-1
2.324627130E-1,-3.422511339E0,8.754997253E0,8.218097091E-1
2.349505770E-1,-3.422511339E0,8.731055260E0,8.218097091E-1
2.374384420E-1,-3.422511339E0,8.707113266E0,8.361749649E-1
2.399263060E-1,-3.422511339E0,8.683171272E0,8.218097091E-1
2.424141710E-1,-3.446453333E0,8.668806076E0,8.409633636E-1
2.449020360E-1,-3.489548922E0,8.644864082E0,8.218097091E-1
2.473899000E-1,-3.513490915E0,8.625710487E0,8.601169586E-1
2.498777650E-1,-3.532644510E0,8.611345291E0,8.218097091E-1
2.523656290E-1,-3.547009706E0,8.587403297E0,8.984242082E-1
2.548534940E-1,-3.561375141E0,8.582614899E0,8.840589523E-1
2.573413590E-1,-3.566163540E0,8.592191696E0,9.463081956E-1
2.598292230E-1,-3.566163540E0,8.596980095E0,8.840589523E-1
2.623170880E-1,-3.599682331E0,8.606556892E0,9.702502489E-1
2.648049520E-1,-3.633201122E0,8.620922089E0,9.271546006E-1
2.672928170E-1,-3.637989521E0,8.635287285E0,1.008557439E0
2.697806810E-1,-3.671508312E0,8.644864082E0,9.463081956E-1
2.722685460E-1,-3.700238705E0,8.644864082E0,1.032499433E0
2.747564110E-1,-3.690661907E0,8.654440880E0,9.606734514E-1
2.772442750E-1,-3.657143116E0,8.659229279E0,1.075595140E0
2.797321400E-1,-3.652354717E0,8.673594475E0,1.003769040E0
2.822200040E-1,-3.628412724E0,8.687959671E0,1.089960337E0
2.847078690E-1,-3.623624325E0,8.711901665E0,1.042076349E0
2.871957340E-1,-3.604470730E0,8.707113266E0,1.089960337E0
2.896835980E-1,-3.590105534E0,8.711901665E0,1.013345838E0
2.921714630E-1,-3.590105534E0,8.711901665E0,1.094748735E0
2.946593270E-1,-3.570951939E0,8.721478462E0,1.018134236E0
2.971471920E-1,-3.542221308E0,8.721478462E0,1.080383539E0
2.996350560E-1,-3.508702517E0,8.735843658E0,1.042076349E0
3.021229210E-1,-3.518279314E0,8.745420456E0,1.099537134E0
3.046107860E-1,-3.523067713E0,8.750208855E0,1.042076349E0
3.070986500E-1,-3.527856112E0,8.745420456E0,1.089960337E0
3.095865150E-1,-3.547009706E0,8.774150848E0,1.032499433E0
3.120743790E-1,-3.551798105E0,8.774150848E0,1.066018343E0
3.145622440E-1,-3.566163540E0,8.788516045E0,1.003769040E0
3.170501090E-1,-3.575740337E0,8.793304443E0,1.022922635E0
3.195379730E-1,-3.551798105E0,8.817246437E0,1.018134236E0
3.220258380E-1,-3.527856112E0,8.817246437E0,1.066018343E0
3.245137020E-1,-3.518279314E0,8.826823235E0,1.051653147E0
3.270015670E-1,-3.518279314E0,8.822034836E0,1.080383539E0
3.294894310E-1,-3.508702517E0,8.807669640E0,1.080383539E0
3.319772960E-1,-3.508702517E0,8.826823235E0,1.113902330E0
3.344651610E-1,-3.508702517E0,8.836400032E0,1.147421122E0
3.369530250E-1,-3.532644510E0,8.836400032E0,1.147421122E0
3.394408900E-1,-3.547009706E0,8.855553627E0,1.171363235E0
3.419287540E-1,-3.575740337E0,8.874707222E0,1.176151633E0
3.444166190E-1,-3.570951939E0,8.898649216E0,1.204882026E0
3.469044840E-1,-3.594893932E0,8.922591209E0,1.171363235E0
3.493923480E-1,-3.594893932E0,8.917802811E0,1.219247222E0
3.518802130E-1,-3.633201122E0,8.927379608E0,1.190516829E0
3.543680770E-1,-3.642777920E0,8.913014412E0,1.262342811E0
3.568559420E-1,-3.652354717E0,8.922591209E0,1.219247222E0
3.593438060E-1,-3.671508312E0,8.922591209E0,1.300650120E0
3.618316710E-1,-3.705027103E0,8.946533203E0,1.233612418E0
3.643195360E-1,-3.714603901E0,8.951321602E0,1.305438519E0
3.668074000E-1,-3.724180698E0,8.956110001E0,1.219247222E0
3.692952650E-1,-3.695450306E0,8.951321602E0,1.300650120E0
3.717831290E-1,-3.695450306E0,8.965686798E0,1.204882026E0
3.742709940E-1,-3.676296711E0,8.980051994E0,1.276708007E0
3.767588590E-1,-3.652354717E0,8.999205589E0,1.147421122E0
3.792467230E-1,-3.609259129E0,8.984840393E0,1.224035621E0
3.817345880E-1,-3.609259129E0,9.008782387E0,1.152209520E0
3.842224520E-1,-3.590105534E0,8.999205589E0,1.252766013E0
3.867103170E-1,-3.575740337E0,9.027935982E0,1.161786318E0
3.891981810E-1,-3.580528736E0,9.027935982E0,1.238400817E0
3.916860460E-1,-3.594893932E0,9.085396767E0,1.147421122E0
3.941739110E-1,-3.599682331E0,9.085396767E0,1.233612418E0
3.966617750E-1,-3.604470730E0,9.138069153E0,1.147421122E0
3.991496400E-1,-3.604470730E0,9.157222748E0,1.243189216E0
4.016375040E-1,-3.594893932E0,9.185953140E0,1.180940032E0
4.041253690E-1,-3.590105534E0,9.190741539E0,1.281496406E0
4.066132340E-1,-3.590105534E0,9.219471931E0,1.219247222E0
4.091010980E-1,-3.618835926E0,9.229048729E0,1.291073322E0
4.115889630E-1,-3.628412724E0,9.243413925E0,1.228824019E0
4.140768270E-1,-3.657143116E0,9.248202324E0,1.300650120E0
4.165646920E-1,-3.676296711E0,9.257779121E0,1.214458823E0
4.190525560E-1,-3.709815502E0,9.233837128E0,1.247977614E0
4.215404210E-1,-3.733757496E0,9.224260330E0,1.224035621E0
4.240282860E-1,-3.757699490E0,9.224260330E0,1.262342811E0
4.265161500E-1,-3.781641483E0,9.233837128E0,1.286284804E0
4.290040150E-1,-3.815160513E0,9.229048729E0,1.310226917E0
4.314918790E-1,-3.834314108E0,9.248202324E0,1.305438519E0
4.339797440E-1,-3.858256102E0,9.243413925E0,1.343745708E0
4.364676090E-1,-3.853467703E0,9.229048729E0,1.362899303E0
4.389554730E-1,-3.863044500E0,9.233837128E0,1.353322506E0
4.414433380E-1,-3.843890905E0,9.219471931E0,1.382052898E0
4.439312020E-1,-3.858256102E0,9.238625526E0,1.372476101E0
4.464190670E-1,-3.877409697E0,9.238625526E0,1.410783410E0
4.489069310E-1,-3.930082083E0,9.257779121E0,1.372476101E0
4.513947960E-1,-3.963600874E0,9.276932716E0,1.401206493E0
4.538826610E-1,-3.992331266E0,9.300874710E0,1.338957310E0
4.563705250E-1,-3.987542868E0,9.324816704E0,1.377264500E0
4.588583900E-1,-3.973177671E0,9.329605103E0,1.315015316E0
4.613462540E-1,-3.915716887E0,9.339181900E0,1.391629696E0
4.638341190E-1,-3.867832899E0,9.348758698E0,1.315015316E0
4.663219840E-1,-3.815160513E0,9.343970299E0,1.396418095E0
4.688098480E-1,-3.776853085E0,9.358335495E0,1.295861721E0
4.712977130E-1,-3.767276287E0,9.367912292E0,1.377264500E0
4.737855770E-1,-3.781641483E0,9.391854286E0,1.276708007E0
4.762734420E-1,-3.776853085E0,9.382277489E0,1.358110905E0
4.787613060E-1,-3.776853085E0,9.377489090E0,1.267131209E0
4.812491710E-1,-3.781641483E0,9.363123894E0,1.362899303E0
4.837370360E-1,-3.805583715E0,9.377489090E0,1.247977614E0
4.862249000E-1,-3.834314108E0,9.372700691E0,1.329380512E0
4.887127650E-1,-3.863044500E0,9.382277489E0,1.214458823E0
4.912006290E-1,-3.877409697E0,9.353547096E0,1.305438519E0
4.936884940E-1,-3.882198095E0,9.358335495E0,1.200093627E0
4.961763590E-1,-3.872621298E0,9.348758698E0,1.262342811E0
4.986642230E-1,-3.877409697E0,9.343970299E0,1.166574836E0
5.011520880E-1,-3.872621298E0,9.334393501E0,1.247977614E0
5.036399520E-1,-3.882198095E0,9.339181900E0,1.161786318E0
5.061278170E-1,-3.906140089E0,9.343970299E0,1.228824019E0
5.086156810E-1,-3.930082083E0,9.363123894E0,1.166574836E0
5.111035460E-1,-3.958812475E0,9.348758698E0,1.228824019E0
5.135914110E-1,-3.963600874E0,9.363123894E0,1.180940032E0
5.160792750E-1,-3.963600874E0,9.363123894E0,1.281496406E0
5.185671400E-1,-3.944447279E0,9.363123894E0,1.247977614E0
5.210550040E-1,-3.958812475E0,9.353547096E0,1.315015316E0
5.235428690E-1,-3.973177671E0,9.348758698E0,1.315015316E0
5.260307340E-1,-3.997119665E0,9.372700691E0,1.372476101E0
5.285185980E-1,-4.016273499E0,9.372700691E0,1.334168911E0
5.310064630E-1,-4.030638695E0,9.377489090E0,1.338957310E0
5.334943270E-1,-4.030638695E0,9.382277489E0,1.291073322E0
5.359821920E-1,-4.030638695E0,9.382277489E0,1.276708007E0
5.384700560E-1,-3.997119665E0,9.387065887E0,1.271919608E0
5.409579210E-1,-3.977966070E0,9.382277489E0,1.271919608E0
5.434457860E-1,-3.954024076E0,9.353547096E0,1.324592113E0
5.459336500E-1,-3.944447279E0,9.334393501E0,1.305438519E0
5.484215150E-1,-3.939658880E0,9.334393501E0,1.334168911E0
5.509093790E-1,-3.973177671E0,9.334393501E0,1.291073322E0
5.533972440E-1,-3.977966070E0,9.305663109E0,1.334168911E0
5.558851090E-1,-3.987542868E0,9.291297913E0,1.267131209E0
5.583729730E-1,-3.977966070E0,9.281721115E0,1.334168911E0
5.608608380E-1,-3.992331266E0,9.272144318E0,1.271919608E0
5.633487020E-1,-3.992331266E0,9.233837128E0,1.367687702E0
5.658365670E-1,-3.992331266E0,9.219471931E0,1.324592113E0
5.683244310E-1,-3.992331266E0,9.195529938E0,1.434725404E0
5.708122960E-1,-4.035427094E0,9.185953140E0,1.367687702E0
5.733001610E-1,-4.045003891E0,9.176376343E0,1.434725404E0
5.757880250E-1,-4.030638695E0,9.190741539E0,1.353322506E0
5.782758900E-1,-4.016273499E0,9.195529938E0,1.439513803E0
5.807637540E-1,-3.992331266E0,9.195529938E0,1.353322506E0
5.832516190E-1,-3.958812475E0,9.176376343E0,1.468244195E0
5.857394840E-1,-3.915716887E0,9.147645950E0,1.377264500E0
5.882273480E-1,-3.910928488E0,9.133280754E0,1.473032594E0
5.907152130E-1,-3.910928488E0,9.128492355E0,1.362899303E0
5.932030770E-1,-3.915716887E0,9.109338760E0,1.425148606E0
5.956909420E-1,-3.920505285E0,9.099761963E0,1.300650120E0
5.981788060E-1,-3.920505285E0,9.090185165E0,1.367687702E0
6.006666710E-1,-3.891774893E0,9.099761963E0,1.243189216E0
6.031545360E-1,-3.858256102E0,9.094973564E0,1.295861721E0
6.056424000E-1,-3.819948912E0,9.080608368E0,1.209670424E0
6.081302650E-1,-3.762487888E0,9.085396767E0,1.315015316E0
6.106181290E-1,-3.724180698E0,9.094973564E0,1.247977614E0
6.131059940E-1,-3.719392300E0,9.080608368E0,1.319803715E0
6.155938590E-1,-3.714603901E0,9.099761963E0,1.257554412E0
6.180817230E-1,-3.743334293E0,9.109338760E0,1.319803715E0
6.205695880E-1,-3.748122692E0,9.133280754E0,1.238400817E0
6.230574520E-1,-3.757699490E0,9.128492355E0,1.310226917E0
6.255453170E-1,-3.757699490E0,9.152434349E0,1.281496406E0
6.280331810E-1,-3.743334293E0,9.123703957E0,1.324592113E0
6.305210460E-1,-3.728969097E0,9.109338760E0,1.295861721E0
6.330089110E-1,-3.728969097E0,9.094973564E0,1.338957310E0
6.354967750E-1,-3.728969097E0,9.085396767E0,1.329380512E0
6.379846400E-1,-3.733757496E0,9.071031570E0,1.343745708E0
6.404725040E-1,-3.728969097E0,9.066243172E0,1.353322506E0
6.429603690E-1,-3.752911091E0,9.061454773E0,1.353322506E0
6.454482340E-1,-3.762487888E0,9.037512779E0,1.386841297E0
6.479360980E-1,-3.776853085E0,9.037512779E0,1.377264500E0
6.504239630E-1,-3.796006680E0,9.056666374E0,1.429937005E0
6.529118270E-1,-3.848679304E0,9.037512779E0,1.410783410E0
6.553996920E-1,-3.863044500E0,9.037512779E0,1.477820992E0
6.578875560E-1,-3.882198095E0,9.051877975E0,1.434725404E0
6.603754210E-1,-3.872621298E0,9.047089577E0,1.520916581E0
6.628632860E-1,-3.886986494E0,9.037512779E0,1.453878999E0
6.653511500E-1,-3.858256102E0,9.027935982E0,1.535281897E0
6.678390150E-1,-3.872621298E0,9.018359184E0,1.468244195E0
6.703268790E-1,-3.824737310E0,9.013570786E0,1.540070295E0
6.728147440E-1,-3.834314108E0,9.018359184E0,1.468244195E0
6.753026090E-1,-3.800795317E0,9.023147583E0,1.544858694E0
6.777904730E-1,-3.810372114E0,9.032724380E0,1.482609391E0
6.802783380E-1,-3.810372114E0,9.027935982E0,1.554435492E0
6.827662020E-1,-3.843890905E0,9.047089577E0,1.415571809E0
6.852540670E-1,-3.829525709E0,9.047089577E0,1.477820992E0
6.877419310E-1,-3.815160513E0,9.066243172E0,1.338957310E0
6.902297960E-1,-3.796006680E0,9.023147583E0,1.420360208E0
6.927176610E-1,-3.772064686E0,9.032724380E0,1.305438519E0
6.952055250E-1,-3.733757496E0,9.013570786E0,1.410783410E0
6.976933900E-1,-3.705027103E0,9.008782387E0,1.305438519E0
7.001812540E-1,-3.700238705E0,9.013570786E0,1.382052898E0
7.026691190E-1,-3.681085110E0,9.032724380E0,1.367687702E0
7.051569840E-1,-3.700238705E0,9.047089577E0,1.391629696E0
7.076448480E-1,-3.695450306E0,9.051877975E0,1.372476101E0
7.101327130E-1,-3.700238705E0,9.071031570E0,1.353322506E0
7.126205770E-1,-3.738545895E0,9.075819969E0,1.338957310E0
7.151084420E-1,-3.743334293E0,9.085396767E0,1.329380512E0
7.175963060E-1,-3.748122692E0,9.090185165E0,1.338957310E0
7.200841710E-1,-3.752911091E0,9.090185165E0,1.319803715E0
7.225720360E-1,-3.738545895E0,9.099761963E0,1.329380512E0
7.250599000E-1,-3.752911091E0,9.104550362E0,1.334168911E0
7.275477650E-1,-3.772064686E0,9.094973564E0,1.353322506E0
7.300356290E-1,-3.796006680E0,9.071031570E0,1.367687702E0
7.325234940E-1,-3.824737310E0,9.071031570E0,1.367687702E0
7.350113590E-1,-3.848679304E0,9.080608368E0,1.358110905E0
7.374992230E-1,-3.882198095E0,9.075819969E0,1.358110905E0
7.399870880E-1,-3.910928488E0,9.085396767E0,1.382052898E0
7.424749520E-1,-3.925293684E0,9.071031570E0,1.386841297E0
7.449628170E-1,-3.939658880E0,9.075819969E0,1.415571809E0
7.474506810E-1,-3.944447279E0,9.090185165E0,1.425148606E0
7.499385460E-1,-3.963600874E0,9.080608368E0,1.434725404E0
7.524264110E-1,-3.977966070E0,9.066243172E0,1.449090600E0
7.549142750E-1,-4.001908302E0,9.071031570E0,1.449090600E0
7.574021400E-1,-4.035427094E0,9.051877975E0,1.458667397E0
7.598900040E-1,-4.054580688E0,9.051877975E0,1.453878999E0
7.623778690E-1,-4.073734283E0,9.061454773E0,1.410783410E0
7.648657340E-1,-4.092887878E0,9.056666374E0,1.405994892E0
7.673535980E-1,-4.088099480E0,9.080608368E0,1.429937005E0
7.698414630E-1,-4.073734283E0,9.066243172E0,1.415571809E0
7.723293270E-1,-4.045003891E0,9.071031570E0,1.420360208E0
7.748171920E-1,-4.030638695E0,9.080608368E0,1.405994892E0
7.773050560E-1,-4.006696701E0,9.090185165E0,1.343745708E0
7.797929210E-1,-4.001908302E0,9.094973564E0,1.281496406E0
7.822807860E-1,-4.025850296E0,9.094973564E0,1.238400817E0
7.847686500E-1,-4.016273499E0,9.114127159E0,1.204882026E0
7.872565150E-1,-4.016273499E0,9.138069153E0,1.171363235E0
7.897443790E-1,-4.011485100E0,9.147645950E0,1.156997919E0
7.922322440E-1,-3.997119665E0,9.185953140E0,1.113902330E0
7.947201090E-1,-3.997119665E0,9.214683533E0,1.066018343E0
7.972079730E-1,-3.987542868E0,9.229048729E0,1.042076349E0
7.996958380E-1,-3.982754469E0,9.243413925E0,1.018134236E0
8.021837020E-1,-3.982754469E0,9.262567520E0,1.003769040E0
8.046715670E-1,-3.973177671E0,9.276932716E0,1.008557439E0
8.071594310E-1,-4.001908302E0,9.296086311E0,9.798270464E-1
8.096472960E-1,-4.016273499E0,9.305663109E0,9.702502489E-1
8.121351610E-1,-4.040215492E0,9.315239906E0,9.463081956E-1
8.146230250E-1,-4.054580688E0,9.334393501E0,9.606734514E-1
8.171108900E-1,-4.073734283E0,9.343970299E0,9.750386477E-1
8.195987540E-1,-4.116829872E0,9.329605103E0,1.003769040E0
8.220866190E-1,-4.135983467E0,9.320028305E0,1.022922635E0
8.245744840E-1,-4.164713860E0,9.329605103E0,1.056441545E0
8.270623480E-1,-4.183867455E0,9.339181900E0,1.066018343E0
8.295502130E-1,-4.198232651E0,9.343970299E0,1.123479128E0
8.320380770E-1,-4.222174644E0,9.343970299E0,1.171363235E0
8.345259420E-1,-4.231751442E0,9.353547096E0,1.228824019E0
8.370138060E-1,-4.250905037E0,9.334393501E0,1.238400817E0
8.395016710E-1,-4.289212227E0,9.334393501E0,1.252766013E0
8.419895360E-1,-4.317942619E0,9.329605103E0,1.257554412E0
8.444774000E-1,-4.332307816E0,9.339181900E0,1.262342811E0
8.469652650E-1,-4.322731018E0,9.348758698E0,1.305438519E0
8.494531290E-1,-4.327519417E0,9.343970299E0,1.305438519E0
8.519409940E-1,-4.303577423E0,9.348758698E0,1.329380512E0
8.544288590E-1,-4.294000626E0,9.353547096E0,1.343745708E0
8.569167230E-1,-4.284423828E0,9.353547096E0,1.362899303E0
8.594045880E-1,-4.303577423E0,9.334393501E0,1.382052898E0
8.618924520E-1,-4.289212227E0,9.343970299E0,1.382052898E0
8.643803170E-1,-4.313154221E0,9.329605103E0,1.382052898E0
8.668681810E-1,-4.308365822E0,9.320028305E0,1.382052898E0
8.693560460E-1,-4.284423828E0,9.320028305E0,1.391629696E0
8.718439110E-1,-4.265270233E0,9.320028305E0,1.391629696E0
8.743317750E-1,-4.217386246E0,9.310451508E0,1.420360208E0
8.768196400E-1,-4.164713860E0,9.276932716E0,1.420360208E0
8.793075040E-1,-4.126406670E0,9.276932716E0,1.434725404E0
8.817953690E-1,-4.083311081E0,9.248202324E0,1.429937005E0
8.842832340E-1,-4.059369087E0,9.248202324E0,1.434725404E0
8.867710980E-1,-4.054580688E0,9.238625526E0,1.415571809E0
8.892589630E-1,-4.054580688E0,9.243413925E0,1.401206493E0
8.917468270E-1,-4.049792290E0,9.243413925E0,1.377264500E0
8.942346920E-1,-4.011485100E0,9.243413925E0,1.386841297E0
8.967225560E-1,-3.968389273E0,9.233837128E0,1.396418095E0
8.992104210E-1,-3.915716887E0,9.224260330E0,1.415571809E0
9.016982860E-1,-3.858256102E0,9.219471931E0,1.410783410E0
9.041861500E-1,-3.824737310E0,9.214683533E0,1.410783410E0
9.066740150E-1,-3.800795317E0,9.205106735E0,1.377264500E0
9.091618790E-1,-3.776853085E0,9.185953140E0,1.362899303E0
9.116497440E-1,-3.748122692E0,9.157222748E0,1.362899303E0
9.141376090E-1,-3.714603901E0,9.142857552E0,1.377264500E0
9.166254730E-1,-3.681085110E0,9.133280754E0,1.362899303E0
9.191133380E-1,-3.657143116E0,9.123703957E0,1.358110905E0
9.216012020E-1,-3.652354717E0,9.085396767E0,1.353322506E0
9.240890670E-1,-3.623624325E0,9.047089577E0,1.367687702E0
9.265769310E-1,-3.614047527E0,9.013570786E0,1.410783410E0
9.290647960E-1,-3.594893932E0,8.994417191E0,1.425148606E0
9.315526610E-1,-3.594893932E0,8.970475197E0,1.463455796E0
9.340405250E-1,-3.590105534E0,8.946533203E0,1.525704980E0
9.365283900E-1,-3.585317135E0,8.903437614E0,1.568800688E0
9.390162540E-1,-3.570951939E0,8.874707222E0,1.583165884E0
9.415041190E-1,-3.556586742E0,8.865130424E0,1.592742682E0
9.439919840E-1,-3.542221308E0,8.817246437E0,1.616684675E0
9.464798480E-1,-3.527856112E0,8.769362450E0,1.621473074E0
9.489677130E-1,-3.523067713E0,8.750208855E0,1.607107878E0
9.514555770E-1,-3.542221308E0,8.740632057E0,1.602319479E0
9.539434420E-1,-3.532644510E0,8.711901665E0,1.602319479E0
9.564313060E-1,-3.513490915E0,8.664017677E0,1.602319479E0
9.589191710E-1,-3.499125719E0,8.630498886E0,1.611896276E0
9.614070360E-1,-3.465606928E0,8.601768494E0,1.616684675E0
9.638949000E-1,-3.422511339E0,8.577826500E0,1.578377485E0
9.663827650E-1,-3.384204149E0,8.549096107E0,1.559223890E0
9.688706290E-1,-3.384204149E0,8.515577316E0,1.544858694E0
9.713584940E-1,-3.379415751E0,8.501212120E0,1.516128182E0
9.738463590E-1,-3.384204149E0,8.467693329E0,1.482609391E0
9.763342230E-1,-3.384204149E0,8.443750381E0,1.482609391E0
9.788220880E-1,-3.403357744E0,8.419808388E0,1.487397790E0
9.813099520E-1,-3.422511339E0,8.395866394E0,1.473032594E0
9.837978170E-1,-3.451241732E0,8.391077995E0,1.473032594E0
9.862856810E-1,-3.446453333E0,8.371924400E0,1.477820992E0
9.887735460E-1,-3.427299738E0,8.362347603E0,1.473032594E0
9.912614110E-1,-3.393780947E0,8.357559204E0,1.449090600E0
9.937492750E-1,-3.384204149E0,8.314463615E0,1.420360208E0
9.962371400E-1,-3.374627352E0,8.280944824E0,1.410783410E0
9.987250040E-1,-3.388992548E0,8.223484039E0,1.386841297E0
1.001212869E0,-3.388992548E0,8.199542046E0,1.358110905E0
1.003700734E0,-3.427299738E0,8.170811653E0,1.334168911E0
1.006188598E0,-3.451241732E0,8.132504463E0,1.329380512E0
1.008676463E0,-3.470395327E0,8.089408875E0,1.286284804E0
1.011164327E0,-3.484760523E0,8.055890083E0,1.257554412E0
1.013652192E0,-3.465606928E0,8.027159691E0,1.247977614E0
1.016140056E0,-3.451241732E0,8.008006096E0,1.228824019E0
1.018627921E0,-3.432088137E0,7.998429298E0,1.219247222E0
1.021115786E0,-3.412934542E0,7.969698906E0,1.238400817E0
1.023603650E0,-3.403357744E0,7.936180115E0,1.233612418E0
1.026091515E0,-3.360262156E0,7.907449722E0,1.209670424E0
1.028579379E0,-3.341108561E0,7.897872925E0,1.166574836E0
1.031067244E0,-3.355473757E0,7.878719330E0,1.128267527E0
1.033555109E0,-3.345896959E0,7.854777336E0,1.094748735E0
1.036042973E0,-3.360262156E0,7.849988937E0,1.046864748E0
1.038530838E0,-3.345896959E0,7.840412140E0,9.894038439E-1
1.041018702E0,-3.345896959E0,7.840412140E0,9.510966539E-1
1.043506567E0,-3.331531763E0,7.835623741E0,9.271546006E-1
1.045994431E0,-3.302801132E0,7.821258545E0,9.319429994E-1
1.048482296E0,-3.278859138E0,7.816470146E0,9.319429994E-1
1.050970161E0,-3.274070740E0,7.821258545E0,9.127894044E-1
1.053458025E0,-3.274070740E0,7.802104950E0,8.744821548E-1
1.055945890E0,-3.298012733E0,7.782951355E0,8.170213103E-1
1.058433754E0,-3.321954966E0,7.754220963E0,7.787141204E-1
1.060921619E0,-3.350685358E0,7.759009361E0,7.547720671E-1
1.063409484E0,-3.379415751E0,7.739855766E0,7.020996213E-1
1.065897348E0,-3.360262156E0,7.701548100E0,6.781576276E-1
1.068385213E0,-3.326743364E0,7.691971302E0,6.781576276E-1
1.070873077E0,-3.317166567E0,7.644087315E0,6.877344251E-1
1.073360942E0,-3.274070740E0,7.624933720E0,6.781576276E-1
1.075848806E0,-3.259705544E0,7.596203327E0,6.446388364E-1
1.078336671E0,-3.264493942E0,7.572261333E0,6.398503780E-1
1.080824536E0,-3.254917145E0,7.548319340E0,6.350619793E-1
1.083312400E0,-3.269282341E0,7.524377346E0,6.590040326E-1
1.085800265E0,-3.259705544E0,7.538742542E0,6.590040326E-1
1.088288129E0,-3.240551949E0,7.524377346E0,6.925228238E-1
1.090775994E0,-3.207033157E0,7.505223751E0,6.973112226E-1
1.093263859E0,-3.192667961E0,7.514800549E0,7.164648771E-1
1.095751723E0,-3.159149170E0,7.486070156E0,6.973112226E-1
1.098239588E0,-3.135207176E0,7.457339764E0,6.925228238E-1
1.100727452E0,-3.096899986E0,7.438186169E0,6.829460263E-1
1.103215317E0,-3.077746391E0,7.409455776E0,6.733692288E-1
1.105703181E0,-3.068169594E0,7.356783390E0,6.494272351E-1
1.108191046E0,-3.058592558E0,7.332841396E0,6.350619793E-1
1.110678911E0,-3.025073767E0,7.284957409E0,6.398503780E-1
1.113166775E0,-2.996343374E0,7.241861820E0,6.685808301E-1
1.115654640E0,-2.972401381E0,7.203554153E0,6.781576276E-1
1.118142504E0,-2.981978178E0,7.170035362E0,7.068880796E-1
1.120630369E0,-2.986766577E0,7.122151375E0,7.212532759E-1
1.123118234E0,-3.001131773E0,7.112574577E0,7.451952696E-1
1.125606098E0,-3.029862165E0,7.102997780E0,7.547720671E-1
1.128093963E0,-3.058592558E0,7.117362976E0,7.787141204E-1
1.130581827E0,-3.092111588E0,7.102997780E0,8.265981078E-1
1.133069692E0,-3.092111588E0,7.093420982E0,8.744821548E-1
1.135557556E0,-3.092111588E0,7.088632584E0,9.127894044E-1
1.138045421E0,-3.082534790E0,7.074267387E0,9.367313981E-1
1.140533286E0,-3.096899986E0,7.059902191E0,9.510966539E-1
1.143021150E0,-3.096899986E0,7.040748596E0,9.702502489E-1
1.145509015E0,-3.106476784E0,7.021595001E0,9.846154451E-1
1.147996879E0,-3.111265182E0,7.012018204E0,1.008557439E0
1.150484744E0,-3.130418777E0,7.012018204E0,1.013345838E0
1.152972609E0,-3.144783974E0,7.007229805E0,1.022922635E0
1.155460473E0,-3.139995575E0,6.988076210E0,1.032499433E0
1.157948338E0,-3.154360771E0,6.983287811E0,1.061229944E0
1.160436202E0,-3.173514366E0,6.988076210E0,1.066018343E0
1.162924067E0,-3.187879562E0,6.992864609E0,1.056441545E0
1.165411931E0,-3.211821556E0,6.988076210E0,1.051653147E0
1.167899796E0,-3.240551949E0,6.988076210E0,1.042076349E0
1.170387661E0,-3.226186752E0,6.978499413E0,1.022922635E0
1.172875525E0,-3.235763550E0,6.954557419E0,1.003769040E0
1.175363390E0,-3.221398354E0,6.930615425E0,1.003769040E0
1.177851254E0,-3.192667961E0,6.906673431E0,1.013345838E0
1.180339119E0,-3.202244759E0,6.873154640E0,1.022922635E0
1.182826984E0,-3.221398354E0,6.854001045E0,1.022922635E0
1.185314848E0,-3.240551949E0,6.854001045E0,1.018134236E0
1.187802713E0,-3.269282341E0,6.849212646E0,1.003769040E0
1.190290577E0,-3.302801132E0,6.834847450E0,1.018134236E0
1.192778442E0,-3.345896959E0,6.820482254E0,1.018134236E0
1.195266306E0,-3.374627352E0,6.806117058E0,1.008557439E0
1.197754171E0,-3.408146143E0,6.810905457E0,1.008557439E0
1.200242036E0,-3.408146143E0,6.815693855E0,9.463081956E-1
1.202729900E0,-3.384204149E0,6.815693855E0,8.744821548E-1
1.205217765E0,-3.350685358E0,6.825270653E0,8.313865662E-1
1.207705629E0,-3.302801132E0,6.834847450E0,7.930793166E-1
1.210193494E0,-3.245340347E0,6.844424248E0,7.499836683E-1
1.212681359E0,-3.197456360E0,6.868366241E0,7.068880796E-1
1.215169223E0,-3.173514366E0,6.916250229E0,6.973112226E-1
1.217657088E0,-3.154360771E0,6.944980621E0,6.973112226E-1
1.220144952E0,-3.178302765E0,6.973711014E0,7.020996213E-1
1.222632817E0,-3.216609955E0,7.045536995E0,7.164648771E-1
1.225120681E0,-3.278859138E0,7.112574577E0,7.739257216E-1
1.227608546E0,-3.379415751E0,7.160458565E0,8.409633636E-1
1.230096411E0,-3.537432909E0,7.232284546E0,9.080010056E-1
1.232584275E0,-3.709815502E0,7.289745808E0,9.702502489E-1
1.235072140E0,-3.867832899E0,7.356783390E0,9.941922426E-1
1.237560004E0,-4.011485100E0,7.419032574E0,1.008557439E0
1.240047869E0,-4.159925461E0,7.466916561E0,1.003769040E0
1.242535734E0,-4.222174644E0,7.490858555E0,9.702502489E-1
1.245023598E0,-4.226963043E0,7.510012150E0,9.750386477E-1
1.247511463E0,-4.198232651E0,7.490858555E0,9.558850527E-1
1.249999327E0,-4.107253075E0,7.457339764E0,9.127894044E-1
1.252487192E0,-4.035427094E0,7.419032574E0,8.984242082E-1
1.254975056E0,-3.973177671E0,7.385513783E0,9.080010056E-1
1.257462921E0,-3.930082083E0,7.366360188E0,8.649053574E-1
1.259950786E0,-3.920505285E0,7.356783390E0,8.361749649E-1
1.262438650E0,-3.934870481E0,7.371148586E0,8.026561141E-1
1.264926515E0,-3.973177671E0,7.371148586E0,7.835025191E-1
1.267414379E0,-3.997119665E0,7.395090580E0,7.739257216E-1
1.269902244E0,-4.021061897E0,7.404667377E0,7.691373229E-1
1.272390109E0,-4.011485100E0,7.442974567E0,7.787141204E-1
1.274877973E0,-3.987542868E0,7.495646954E0,7.691373229E-1
1.277365838E0,-3.958812475E0,7.538742542E0,7.835025191E-1
1.279853702E0,-3.915716887E0,7.586626530E0,8.122329116E-1
1.282341567E0,-3.848679304E0,7.615356922E0,8.457517624E-1
1.284829431E0,-3.772064686E0,7.620145321E0,8.457517624E-1
1.287317296E0,-3.695450306E0,7.658452511E0,8.696937561E-1
1.289805161E0,-3.637989521E0,7.672817707E0,8.649053574E-1
1.292293025E0,-3.614047527E0,7.706336498E0,8.313865662E-1
1.294780890E0,-3.590105534E0,7.754220963E0,7.691373229E-1
1.297268754E0,-3.594893932E0,7.782951355E0,6.733692288E-1
1.299756619E0,-3.590105534E0,7.816470146E0,5.871779919E-1
1.302244484E0,-3.561375141E0,7.840412140E0,5.009866953E-1
1.304732348E0,-3.508702517E0,7.849988937E0,4.818331003E-1
1.307220213E0,-3.422511339E0,7.849988937E0,4.866214991E-1
1.309708077E0,-3.345896959E0,7.840412140E0,4.626794755E-1
1.312195942E0,-3.259705544E0,7.854777336E0,4.722562730E-1
1.314683806E0,-3.211821556E0,7.859565735E0,4.722562730E-1
1.317171671E0,-3.202244759E0,7.869142532E0,4.722562730E-1
1.319659536E0,-3.202244759E0,7.912238121E0,4.578910768E-1
1.322147400E0,-3.221398354E0,7.940968513E0,4.243722558E-1
1.324635265E0,-3.226186752E0,7.950545311E0,4.004302323E-1
1.327123129E0,-3.240551949E0,7.964910507E0,4.291606545E-1
1.329610994E0,-3.221398354E0,7.984064102E0,4.961982965E-1
1.332098859E0,-3.207033157E0,7.998429298E0,5.584475398E-1
1.334586723E0,-3.197456360E0,8.017582893E0,6.063315868E-1
1.337074588E0,-3.226186752E0,8.017582893E0,6.781576276E-1
1.339562452E0,-3.278859138E0,8.022371292E0,7.451952696E-1
1.342050317E0,-3.369838953E0,8.036736488E0,8.074445128E-1
1.344538181E0,-3.465606928E0,8.055890083E0,8.696937561E-1
1.347026046E0,-3.580528736E0,8.079832077E0,9.175778031E-1
1.349513911E0,-3.709815502E0,8.108562469E0,1.013345838E0
1.352001775E0,-3.810372114E0,8.137292862E0,1.085171938E0
1.354489640E0,-3.863044500E0,8.151658058E0,1.190516829E0
1.356977504E0,-3.920505285E0,8.127716064E0,1.319803715E0
1.359465369E0,-3.958812475E0,8.137292862E0,1.415571809E0
1.361953234E0,-3.997119665E0,8.127716064E0,1.511339784E0
1.364441098E0,-4.054580688E0,8.127716064E0,1.592742682E0
1.366928963E0,-4.088099480E0,8.132504463E0,1.650203466E0
1.369416827E0,-4.131195068E0,8.161234856E0,1.664568782E0
1.371904692E0,-4.169502258E0,8.189965248E0,1.674145579E0
1.374392556E0,-4.164713860E0,8.213907242E0,1.683722377E0
1.376880421E0,-4.121618271E0,8.233060837E0,1.688510776E0
1.379368286E0,-4.068945885E0,8.233060837E0,1.698087573E0
1.381856150E0,-4.006696701E0,8.247426033E0,1.722029567E0
1.384344015E0,-3.944447279E0,8.252214432E0,1.736394763E0
1.386831879E0,-3.896563292E0,8.257002831E0,1.707664371E0
1.389319744E0,-3.877409697E0,8.261791229E0,1.698087573E0
1.391807609E0,-3.872621298E0,8.271368027E0,1.688510776E0
1.394295473E0,-3.906140089E0,8.314463615E0,1.674145579E0
1.396783338E0,-3.925293684E0,8.367136002E0,1.702875972E0
1.399271202E0,-3.934870481E0,8.424596786E0,1.736394763E0
1.401759067E0,-3.920505285E0,8.467693329E0,1.779490471E0
1.404246931E0,-3.886986494E0,8.501212120E0,1.841739655E0
1.406734796E0,-3.848679304E0,8.529942513E0,1.880046844E0
1.409222661E0,-3.839102507E0,8.553884506E0,1.899200439E0
1.411710525E0,-3.815160513E0,8.563461304E0,1.889623642E0
1.414198390E0,-3.824737310E0,8.553884506E0,1.880046844E0
1.416686254E0,-3.853467703E0,8.573038101E0,1.875258446E0
1.419174119E0,-3.858256102E0,8.596980095E0,1.851316452E0
1.421661984E0,-3.843890905E0,8.601768494E0,1.851316452E0
1.424149848E0,-3.834314108E0,8.630498886E0,1.870470047E0
1.426637713E0,-3.839102507E0,8.644864082E0,1.918354154E0
1.429125577E0,-3.834314108E0,8.668806076E0,1.980603337E0
1.431613442E0,-3.843890905E0,8.687959671E0,2.057217836E0
1.434101306E0,-3.853467703E0,8.711901665E0,2.129043818E0
1.436589171E0,-3.882198095E0,8.735843658E0,2.181716204E0
1.439077036E0,-3.930082083E0,8.754997253E0,2.191293001E0
1.441564900E0,-3.997119665E0,8.793304443E0,2.181716204E0
1.444052765E0,-4.035427094E0,8.793304443E0,2.196081400E0
1.446540629E0,-4.059369087E0,8.807669640E0,2.200869799E0
1.449028494E0,-4.083311081E0,8.822034836E0,2.205658197E0
1.451516359E0,-4.083311081E0,8.836400032E0,2.200869799E0
1.454004223E0,-4.064157486E0,8.850765228E0,2.215235233E0
1.456492088E0,-4.054580688E0,8.836400032E0,2.224812031E0
1.458979952E0,-4.059369087E0,8.812458038E0,2.215235233E0
1.461467817E0,-4.068945885E0,8.798092842E0,2.205658197E0
1.463955681E0,-4.088099480E0,8.788516045E0,2.172139406E0
1.466443546E0,-4.126406670E0,8.788516045E0,2.129043818E0
1.468931411E0,-4.169502258E0,8.812458038E0,2.085948229E0
1.471419275E0,-4.179079056E0,8.836400032E0,2.095525026E0
1.473907140E0,-4.179079056E0,8.850765228E0,2.090736628E0
1.476395004E0,-4.159925461E0,8.865130424E0,2.090736628E0
1.478882869E0,-4.135983467E0,8.884284019E0,2.109890223E0
1.481370734E0,-4.102464676E0,8.889072418E0,2.114678621E0
1.483858598E0,-4.073734283E0,8.884284019E0,2.119467020E0
1.486346463E0,-4.068945885E0,8.889072418E0,2.138620615E0
1.488834327E0,-4.054580688E0,8.903437614E0,2.148197412E0
1.491322192E0,-4.054580688E0,8.917802811E0,2.148197412E0
1.493810056E0,-4.035427094E0,8.913014412E0,2.119467020E0
1.496297921E0,-4.035427094E0,8.927379608E0,2.114678621E0
1.498785786E0,-4.040215492E0,8.951321602E0,2.100313425E0
1.501273650E0,-4.049792290E0,8.960898399E0,2.081159830E0
1.503761515E0,-4.040215492E0,8.975263596E0,2.052429438E0
1.506249379E0,-4.030638695E0,8.994417191E0,2.018910646E0
1.508737244E0,-4.030638695E0,9.003993988E0,1.994968534E0
1.511225109E0,-4.030638695E0,8.994417191E0,1.932719350E0
1.513712973E0,-3.987542868E0,8.975263596E0,1.880046844E0
1.516200838E0,-3.963600874E0,8.941744804E0,1.846528053E0
1.518688702E0,-3.958812475E0,8.893860817E0,1.841739655E0
1.521176567E0,-3.954024076E0,8.865130424E0,1.817797661E0
1.523664431E0,-3.982754469E0,8.850765228E0,1.832162857E0
1.526152296E0,-4.016273499E0,8.836400032E0,1.822586060E0
1.528640161E0,-4.059369087E0,8.822034836E0,1.846528053E0
1.531128025E0,-4.131195068E0,8.822034836E0,1.884835243E0
1.533615890E0,-4.179079056E0,8.826823235E0,1.923142552E0
1.536103754E0,-4.236539841E0,8.841188431E0,1.918354154E0
1.538591619E0,-4.313154221E0,8.860342026E0,1.923142552E0
1.541079484E0,-4.361038208E0,8.879495621E0,1.923142552E0
1.543567348E0,-4.394556999E0,8.903437614E0,1.918354154E0
1.546055213E0,-4.432864666E0,8.917802811E0,1.937507749E0
1.548543077E0,-4.447229862E0,8.908226013E0,1.913565755E0
1.551030942E0,-4.432864666E0,8.903437614E0,1.908777356E0
1.553518806E0,-4.442441463E0,8.903437614E0,1.903988957E0
1.556006671E0,-4.413711071E0,8.908226013E0,1.937507749E0
1.558494536E0,-4.389768600E0,8.898649216E0,1.980603337E0
1.560982400E0,-4.375403404E0,8.922591209E0,1.985391736E0
1.563470265E0,-4.380191803E0,8.946533203E0,1.980603337E0
1.565958129E0,-4.389768600E0,8.965686798E0,1.980603337E0
1.568445994E0,-4.384980202E0,9.008782387E0,1.942296147E0
1.570933859E0,-4.384980202E0,9.003993988E0,1.927930951E0
1.573421723E0,-4.380191803E0,8.989628792E0,1.923142552E0
1.575909588E0,-4.380191803E0,9.013570786E0,1.918354154E0
1.578397452E0,-4.389768600E0,8.984840393E0,1.908777356E0
1.580885317E0,-4.428076267E0,8.960898399E0,1.932719350E0
1.583373181E0,-4.471171856E0,8.956110001E0,1.966238141E0
1.585861046E0,-4.519055843E0,8.965686798E0,1.999756932E0
1.588348911E0,-4.547786236E0,8.965686798E0,2.028487444E0
1.590836775E0,-4.571728230E0,8.965686798E0,2.062006235E0
1.593324640E0,-4.595670223E0,8.970475197E0,2.119467020E0
1.595812504E0,-4.624400616E0,9.008782387E0,2.167351007E0
1.598300369E0,-4.657919407E0,9.032724380E0,2.186504602E0
1.600788234E0,-4.701014996E0,9.080608368E0,2.172139406E0
1.603276098E0,-4.705803394E0,9.099761963E0,2.172139406E0
1.605763963E0,-4.701014996E0,9.099761963E0,2.167351007E0
1.608251827E0,-4.686649799E0,9.080608368E0,2.186504602E0
1.610739692E0,-4.638765812E0,9.066243172E0,2.181716204E0
1.613227556E0,-4.624400616E0,9.047089577E0,2.172139406E0
1.615715421E0,-4.619612217E0,9.042301178E0,2.133832216E0
1.618203286E0,-4.619612217E0,9.075819969E0,2.090736628E0
1.620691150E0,-4.624400616E0,9.128492355E0,2.057217836E0
1.623179015E0,-4.638765812E0,9.166799545E0,2.042852640E0
1.625666879E0,-4.614823818E0,9.214683533E0,2.062006235E0
1.628154744E0,-4.590881824E0,9.238625526E0,2.133832216E0
1.630642609E0,-4.576516628E0,9.272144318E0,2.205658197E0
1.633130473E0,-4.566939831E0,9.300874710E0,2.234388828E0
1.635618338E0,-4.571728230E0,9.339181900E0,2.267907619E0
1.638106202E0,-4.571728230E0,9.353547096E0,2.291849613E0
1.640594067E0,-4.571728230E0,9.382277489E0,2.272696018E0
1.643081931E0,-4.571728230E0,9.396642685E0,2.210446835E0
1.645569796E0,-4.533421040E0,9.391854286E0,2.176927805E0
1.648057661E0,-4.509479046E0,9.367912292E0,2.143409014E0
1.650545525E0,-4.466383457E0,9.353547096E0,2.148197412E0
1.653033390E0,-4.447229862E0,9.305663109E0,2.172139406E0
1.655521254E0,-4.437653065E0,9.291297913E0,2.210446835E0
1.658009119E0,-4.466383457E0,9.276932716E0,2.267907619E0
1.660496984E0,-4.504690647E0,9.262567520E0,2.325368404E0
1.662984848E0,-4.552574635E0,9.262567520E0,2.382829189E0
1.665472713E0,-4.590881824E0,9.248202324E0,2.425924778E0
1.667960577E0,-4.586093426E0,9.238625526E0,2.421136379E0
1.670448442E0,-4.581305027E0,9.224260330E0,2.411559582E0
1.672936306E0,-4.542997837E0,9.185953140E0,2.421136379E0
1.675424171E0,-4.480748653E0,9.118915558E0,2.425924778E0
1.677912036E0,-4.437653065E0,9.047089577E0,2.401982784E0
1.680399900E0,-4.394556999E0,9.003993988E0,2.387617588E0
1.682887765E0,-4.384980202E0,8.965686798E0,2.401982784E0
1.685375629E0,-4.384980202E0,8.927379608E0,2.435501575E0
1.687863494E0,-4.399345398E0,8.927379608E0,2.464232206E0
1.690351359E0,-4.423287868E0,8.951321602E0,2.459443808E0
1.692839223E0,-4.399345398E0,8.984840393E0,2.416347980E0
1.695327088E0,-4.332307816E0,9.018359184E0,2.373252392E0
1.697814952E0,-4.260481834E0,9.018359184E0,2.382829189E0
1.700302817E0,-4.145560265E0,8.975263596E0,2.387617588E0
1.702790681E0,-4.073734283E0,8.936956406E0,2.354098797E0
1.705278546E0,-4.045003891E0,8.893860817E0,2.287061214E0
1.707766411E0,-4.045003891E0,8.865130424E0,2.200869799E0
1.710254275E0,-4.088099480E0,8.855553627E0,2.138620615E0
1.712742140E0,-4.121618271E0,8.845976830E0,2.100313425E0
1.715230004E0,-4.188655853E0,8.836400032E0,2.090736628E0
1.717717869E0,-4.236539841E0,8.869918823E0,2.114678621E0
1.720205734E0,-4.284423828E0,8.913014412E0,2.143409014E0
1.722693598E0,-4.294000626E0,8.951321602E0,2.148197412E0
1.725181463E0,-4.303577423E0,8.965686798E0,2.167351007E0
1.727669327E0,-4.270058632E0,8.960898399E0,2.172139406E0
1.730157192E0,-4.255693436E0,8.932168007E0,2.172139406E0
1.732645056E0,-4.265270233E0,8.908226013E0,2.191293001E0
1.735132921E0,-4.308365822E0,8.865130424E0,2.186504602E0
1.737620786E0,-4.394556999E0,8.826823235E0,2.215235233E0
1.740108650E0,-4.499902248E0,8.807669640E0,2.243965626E0
1.742596515E0,-4.633977413E0,8.831611633E0,2.282272816E0
1.745084379E0,-4.720168591E0,8.884284019E0,2.344521999E0
1.747572244E0,-4.772840977E0,8.951321602E0,2.416347980E0
1.750060109E0,-4.811148167E0,8.989628792E0,2.459443808E0
1.752547973E0,-4.787206173E0,9.018359184E0,2.526481390E0
1.755035838E0,-4.777629375E0,9.047089577E0,2.564788580E0
1.757523702E0,-4.724956989E0,9.047089577E0,2.593518972E0
1.760011567E0,-4.681861401E0,9.042301178E0,2.603095770E0
1.762499431E0,-4.657919407E0,9.013570786E0,2.588730574E0
1.764987296E0,-4.657919407E0,8.994417191E0,2.555211782E0
1.767475161E0,-4.662707806E0,8.975263596E0,2.497750998E0
1.769963025E0,-4.677073002E0,8.956110001E0,2.454655409E0
1.772450890E0,-4.696226597E0,8.932168007E0,2.430713177E0
1.774938754E0,-4.710591793E0,8.951321602E0,2.435501575E0
1.777426619E0,-4.739322186E0,8.970475197E0,2.445078373E0
1.779914484E0,-4.748898983E0,9.008782387E0,2.449866772E0
1.782402348E0,-4.715380192E0,9.047089577E0,2.445078373E0
1.784890213E0,-4.653131008E0,9.085396767E0,2.435501575E0
1.787378077E0,-4.542997837E0,9.104550362E0,2.445078373E0
1.789865942E0,-4.466383457E0,9.085396767E0,2.483385801E0
1.792353806E0,-4.456806660E0,9.094973564E0,2.483385801E0
1.794841671E0,-4.504690647E0,9.061454773E0,2.483385801E0
1.797329536E0,-4.614823818E0,9.047089577E0,2.469020605E0
1.799817400E0,-4.739322186E0,9.042301178E0,2.497750998E0
1.802305265E0,-4.882974148E0,9.037512779E0,2.540846586E0
1.804793129E0,-4.997896194E0,9.071031570E0,2.617460966E0
1.807280994E0,-5.093664169E0,9.157222748E0,2.698863983E0
1.809768859E0,-5.112817764E0,9.233837128E0,2.741959572E0
1.812256723E0,-5.069722176E0,9.310451508E0,2.775478363E0
1.814744588E0,-5.002684593E0,9.315239906E0,2.789843559E0
1.817232452E0,-4.926070213E0,9.315239906E0,2.804208755E0
1.819720317E0,-4.906916618E0,9.296086311E0,2.799420357E0
1.822208181E0,-4.930858612E0,9.248202324E0,2.785055161E0
1.824696046E0,-5.012261391E0,9.219471931E0,2.789843559E0
1.827183911E0,-5.117606163E0,9.238625526E0,2.799420357E0
1.829671775E0,-5.251681328E0,9.276932716E0,2.789843559E0
1.832159640E0,-5.347449303E0,9.334393501E0,2.832939148E0
1.834647504E0,-5.400122166E0,9.401431084E0,2.880823135E0
1.837135369E0,-5.419275761E0,9.449316025E0,2.943072557E0
1.839623234E0,-5.443217754E0,9.473258018E0,2.990956545E0
1.842111098E0,-5.471948147E0,9.511565208E0,3.067570925E0
1.844598963E0,-5.543774128E0,9.525930405E0,3.144185305E0
1.847086827E0,-5.582081318E0,9.554660797E0,3.187281132E0
1.849574692E0,-5.625176907E0,9.573814392E0,3.182492495E0
1.852062556E0,-5.644330502E0,9.588179588E0,3.196857929E0
1.854550421E0,-5.620388508E0,9.573814392E0,3.182492495E0
1.857038286E0,-5.567716122E0,9.545084000E0,3.163338900E0
1.859526150E0,-5.505466938E0,9.506776810E0,3.134608507E0
1.862014015E0,-5.481524944E0,9.482834816E0,3.086724520E0
1.864501879E0,-5.457582951E0,9.473258018E0,3.038840532E0
1.866989744E0,-5.467159748E0,9.487623215E0,3.005321741E0
1.869477609E0,-5.486313343E0,9.525930405E0,2.952649355E0
1.871965473E0,-5.467159748E0,9.540295601E0,2.923918724E0
1.874453338E0,-5.428852558E0,9.535507202E0,2.928707123E0
1.876941202E0,-5.380968094E0,9.511565208E0,2.962226152E0
1.879429067E0,-5.337872505E0,9.487623215E0,2.976591349E0
1.881916931E0,-5.304353714E0,9.482834816E0,2.990956545E0
1.884404796E0,-5.280411720E0,9.478046417E0,2.967014551E0
1.886892661E0,-5.251681328E0,9.506776810E0,2.919130325E0
1.889380525E0,-5.189432144E0,9.497200012E0,2.876034737E0
1.891868390E0,-5.127182961E0,9.463681221E0,2.967014551E0
1.894356254E0,-5.069722176E0,9.439739227E0,3.057994127E0
1.896844119E0,-5.050568581E0,9.425373077E0,3.125031710E0
1.899331984E0,-5.064933777E0,9.430161476E0,3.211223125E0
1.901819848E0,-5.165490150E0,9.454104424E0,3.268683910E0
1.904307713E0,-5.256469727E0,9.506776810E0,3.302202702E0
1.906795577E0,-5.323507309E0,9.525930405E0,3.316567898E0
1.909283442E0,-5.318718910E0,9.525930405E0,3.340509892E0
1.911771306E0,-5.246892929E0,9.482834816E0,3.345298290E0
1.914259171E0,-5.136759758E0,9.387065887E0,3.316567898E0
1.916747036E0,-5.026626587E0,9.286509514E0,3.249530315E0
1.919234900E0,-4.935647011E0,9.185953140E0,3.168127298E0
1.921722765E0,-4.892550945E0,9.090185165E0,3.129820108E0
1.924210629E0,-4.902127743E0,9.023147583E0,3.120243311E0
1.926698494E0,-4.935647011E0,8.994417191E0,3.120243311E0
1.929186359E0,-4.964377403E0,8.994417191E0,3.129820108E0
1.931674223E0,-4.978742599E0,9.027935982E0,3.110666513E0
1.934162088E0,-4.969165802E0,9.032724380E0,3.134608507E0
1.936649952E0,-4.940435410E0,9.056666374E0,3.153762102E0
1.939137817E0,-4.878185749E0,9.075819969E0,3.153762102E0
1.941625681E0,-4.791994572E0,9.051877975E0,3.172915697E0
1.944113546E0,-4.724956989E0,9.018359184E0,3.196857929E0
1.946601411E0,-4.677073002E0,8.989628792E0,3.244741917E0
1.949089275E0,-4.653131008E0,8.980051994E0,3.292625904E0
1.951577140E0,-4.672284603E0,8.984840393E0,3.316567898E0
1.954065004E0,-4.696226597E0,9.003993988E0,3.326144695E0
1.956552869E0,-4.715380192E0,9.042301178E0,3.345298290E0
1.959040734E0,-4.696226597E0,9.085396767E0,3.350086689E0
1.961528598E0,-4.672284603E0,9.085396767E0,3.326144695E0
1.964016463E0,-4.619612217E0,9.071031570E0,3.311779499E0
1.966504327E0,-4.566939831E0,9.027935982E0,3.278260708E0
1.968992192E0,-4.514267445E0,8.951321602E0,3.249530315E0
1.971480056E0,-4.509479046E0,8.879495621E0,3.225588322E0
1.973967921E0,-4.523844242E0,8.845976830E0,3.177704096E0
1.976455786E0,-4.557363033E0,8.836400032E0,3.115454912E0
1.978943650E0,-4.547786236E0,8.826823235E0,3.105878115E0
1.981431515E0,-4.504690647E0,8.831611633E0,3.101089716E0
1.983919379E0,-4.485537052E0,8.826823235E0,3.134608507E0
1.986407244E0,-4.475960255E0,8.822034836E0,3.139396906E0
1.988895109E0,-4.480748653E0,8.826823235E0,3.139396906E0
1.991382973E0,-4.471171856E0,8.802881241E0,3.139396906E0
1.993870838E0,-4.471171856E0,8.774150848E0,3.115454912E0
1.996358702E0,-4.447229862E0,8.721478462E0,3.105878115E0
1.998846567E0,-4.447229862E0,8.664017677E0,3.115454912E0
2.001334431E0,-4.452018261E0,8.620922089E0,3.129820108E0
2.003822296E0,-4.480748653E0,8.601768494E0,3.168127298E0
2.006310161E0,-4.499902248E0,8.601768494E0,3.211223125E0
2.008798025E0,-4.528632641E0,8.587403297E0,3.283049107E0
2.011285890E0,-4.557363033E0,8.582614899E0,3.369240284E0
2.013773754E0,-4.576516628E0,8.587403297E0,3.469796896E0
2.016261619E0,-4.605247021E0,8.606556892E0,3.508104086E0
2.018749484E0,-4.653131008E0,8.644864082E0,3.484162092E0
2.021237348E0,-4.667496204E0,8.644864082E0,3.402759075E0
2.023725213E0,-4.657919407E0,8.659229279E0,3.350086689E0
2.026213077E0,-4.600458622E0,8.611345291E0,3.330933094E0
2.028700942E0,-4.562151432E0,8.568249702E0,3.302202702E0
2.031188806E0,-4.523844242E0,8.529942513E0,3.287837505E0
2.033676671E0,-4.533421040E0,8.506000519E0,3.273472309E0
2.036164536E0,-4.566939831E0,8.525154114E0,3.268683910E0
2.038652400E0,-4.624400616E0,8.568249702E0,3.254318714E0
2.041140265E0,-4.657919407E0,8.649652481E0,3.230376720E0
2.043628129E0,-4.701014996E0,8.731055260E0,3.239953518E0
2.046115994E0,-4.720168591E0,8.769362450E0,3.283049107E0
2.048603859E0,-4.734533787E0,8.807669640E0,3.326144695E0
2.051091723E0,-4.748898983E0,8.817246437E0,3.335721493E0
2.053579588E0,-4.758475780E0,8.812458038E0,3.321356297E0
2.056067452E0,-4.748898983E0,8.793304443E0,3.311779499E0
2.058555317E0,-4.768052578E0,8.769362450E0,3.278260708E0
2.061043181E0,-4.801571369E0,8.750208855E0,3.268683910E0
2.063531046E0,-4.839878559E0,8.750208855E0,3.239953518E0
2.066018911E0,-4.887762547E0,8.745420456E0,3.216011524E0
2.068506775E0,-4.916493416E0,8.769362450E0,3.172915697E0
2.070994640E0,-4.926070213E0,8.841188431E0,3.168127298E0
2.073482504E0,-4.921281815E0,8.869918823E0,3.172915697E0
2.075970369E0,-4.897339344E0,8.908226013E0,3.196857929E0
2.078458234E0,-4.892550945E0,8.932168007E0,3.254318714E0
2.080946098E0,-4.906916618E0,8.960898399E0,3.278260708E0
2.083433963E0,-4.935647011E0,8.984840393E0,3.306991100E0
2.085921827E0,-4.930858612E0,8.965686798E0,3.311779499E0
2.088409692E0,-4.935647011E0,8.984840393E0,3.316567898E0
2.090897556E0,-4.906916618E0,8.975263596E0,3.350086689E0
2.093385421E0,-4.873397350E0,8.980051994E0,3.335721493E0
2.095873286E0,-4.811148167E0,8.975263596E0,3.297414303E0
2.098361150E0,-4.753687382E0,8.965686798E0,3.263895512E0
2.100849015E0,-4.681861401E0,8.951321602E0,3.249530315E0
2.103336879E0,-4.648342609E0,8.941744804E0,3.225588322E0
2.105824744E0,-4.638765812E0,8.951321602E0,3.177704096E0
2.108312609E0,-4.624400616E0,8.965686798E0,3.172915697E0
2.110800473E0,-4.605247021E0,8.984840393E0,3.134608507E0
2.113288338E0,-4.586093426E0,8.994417191E0,3.139396906E0
2.115776202E0,-4.547786236E0,8.960898399E0,3.163338900E0
2.118264067E0,-4.523844242E0,8.941744804E0,3.148973703E0
2.120751931E0,-4.509479046E0,8.936956406E0,3.125031710E0
2.123239796E0,-4.461595058E0,8.898649216E0,3.120243311E0
2.125727661E0,-4.428076267E0,8.860342026E0,3.148973703E0
2.128215525E0,-4.423287868E0,8.845976830E0,3.177704096E0
2.130703390E0,-4.404133797E0,8.865130424E0,3.196857929E0
2.133191254E0,-4.394556999E0,8.893860817E0,3.182492495E0
2.135679119E0,-4.370615005E0,8.927379608E0,3.211223125E0
2.138166984E0,-4.351461411E0,8.951321602E0,3.225588322E0
2.140654848E0,-4.322731018E0,8.989628792E0,3.235165119E0
2.143142713E0,-4.303577423E0,9.027935982E0,3.225588322E0
2.145630577E0,-4.255693436E0,9.071031570E0,3.211223125E0
2.148118442E0,-4.179079056E0,9.066243172E0,3.244741917E0
2.150606306E0,-4.088099480E0,9.066243172E0,3.268683910E0
2.153094171E0,-3.992331266E0,9.061454773E0,3.311779499E0
2.155582036E0,-3.944447279E0,9.061454773E0,3.345298290E0
2.158069900E0,-3.920505285E0,9.056666374E0,3.345298290E0
2.160557765E0,-3.934870481E0,9.090185165E0,3.311779499E0
2.163045629E0,-3.949235678E0,9.114127159E0,3.239953518E0
2.165533494E0,-3.939658880E0,9.138069153E0,3.177704096E0
2.168021359E0,-3.925293684E0,9.166799545E0,3.105878115E0
2.170509223E0,-3.858256102E0,9.190741539E0,3.034052134E0
2.172997088E0,-3.791218281E0,9.181164742E0,2.990956545E0
2.175484952E0,-3.757699490E0,9.157222748E0,2.976591349E0
2.177972817E0,-3.757699490E0,9.157222748E0,2.981379747E0
2.180460681E0,-3.805583715E0,9.176376343E0,3.014898539E0
2.182948546E0,-3.882198095E0,9.176376343E0,3.067570925E0
2.185436411E0,-3.968389273E0,9.185953140E0,3.096301317E0
2.187924275E0,-4.030638695E0,9.200318336E0,3.163338900E0
2.190412140E0,-4.078522682E0,9.190741539E0,3.187281132E0
2.192900004E0,-4.102464676E0,9.190741539E0,3.201646328E0
2.195387869E0,-4.121618271E0,9.162011147E0,3.244741917E0
2.197875734E0,-4.145560265E0,9.133280754E0,3.273472309E0
2.200363598E0,-4.164713860E0,9.094973564E0,3.302202702E0
2.202851463E0,-4.179079056E0,9.118915558E0,3.306991100E0
2.205339327E0,-4.155137062E0,9.109338760E0,3.321356297E0
2.207827192E0,-4.150348663E0,9.104550362E0,3.302202702E0
2.210315056E0,-4.131195068E0,9.080608368E0,3.273472309E0
2.212802921E0,-4.121618271E0,9.071031570E0,3.254318714E0
2.215290786E0,-4.078522682E0,9.071031570E0,3.216011524E0
2.217778650E0,-4.040215492E0,9.090185165E0,3.168127298E0
2.220266515E0,-3.997119665E0,9.094973564E0,3.125031710E0
2.222754379E0,-3.982754469E0,9.109338760E0,3.096301317E0
2.225242244E0,-3.982754469E0,9.118915558E0,3.091512918E0
2.227730109E0,-3.973177671E0,9.114127159E0,3.110666513E0
2.230217973E0,-3.992331266E0,9.128492355E0,3.120243311E0
2.232705838E0,-4.021061897E0,9.142857552E0,3.134608507E0
2.235193702E0,-4.030638695E0,9.176376343E0,3.168127298E0
2.237681567E0,-4.011485100E0,9.200318336E0,3.220799923E0
2.240169431E0,-4.045003891E0,9.224260330E0,3.244741917E0
2.242657296E0,-4.040215492E0,9.257779121E0,3.249530315E0
2.245145161E0,-4.025850296E0,9.291297913E0,3.297414303E0
2.247633025E0,-4.025850296E0,9.305663109E0,3.321356297E0
2.250120890E0,-4.040215492E0,9.305663109E0,3.340509892E0
2.252608754E0,-4.068945885E0,9.334393501E0,3.364451885E0
2.255096619E0,-4.107253075E0,9.353547096E0,3.374028683E0
2.257584484E0,-4.135983467E0,9.363123894E0,3.378817081E0
2.260072348E0,-4.174290657E0,9.372700691E0,3.383605480E0
2.262560213E0,-4.222174644E0,9.367912292E0,3.374028683E0
2.265048077E0,-4.260481834E0,9.334393501E0,3.369240284E0
2.267535942E0,-4.313154221E0,9.315239906E0,3.369240284E0
2.270023806E0,-4.380191803E0,9.296086311E0,3.388393879E0
2.272511671E0,-4.475960255E0,9.276932716E0,3.397970676E0
2.274999536E0,-4.547786236E0,9.257779121E0,3.421912670E0
2.277487400E0,-4.605247021E0,9.262567520E0,3.474585295E0
2.279975265E0,-4.643554211E0,9.262567520E0,3.527257681E0
2.282463129E0,-4.705803394E0,9.286509514E0,3.565564871E0
2.284950994E0,-4.753687382E0,9.291297913E0,3.608660460E0
2.287438859E0,-4.772840977E0,9.300874710E0,3.637390852E0
2.289926723E0,-4.772840977E0,9.300874710E0,3.666121244E0
2.292414588E0,-4.763264179E0,9.296086311E0,3.704428673E0
2.294902452E0,-4.729745388E0,9.272144318E0,3.728370667E0
2.297390317E0,-4.686649799E0,9.257779121E0,3.733159065E0
2.299878181E0,-4.677073002E0,9.296086311E0,3.699640274E0
2.302366046E0,-4.681861401E0,9.334393501E0,3.661332846E0
2.304853911E0,-4.653131008E0,9.372700691E0,3.618237257E0
2.307341775E0,-4.600458622E0,9.406219482E0,3.603872061E0
2.309829640E0,-4.552574635E0,9.439739227E0,3.546411276E0
2.312317504E0,-4.495113850E0,9.492411613E0,3.469796896E0
2.314805369E0,-4.423287868E0,9.521142006E0,3.426701069E0
2.317293234E0,-4.394556999E0,9.525930405E0,3.397970676E0
2.319781098E0,-4.394556999E0,9.549872398E0,3.374028683E0
2.322268963E0,-4.384980202E0,9.564237595E0,3.350086689E0
2.324756827E0,-4.384980202E0,9.569025993E0,3.321356297E0
2.327244692E0,-4.389768600E0,9.578602791E0,3.326144695E0
2.329732556E0,-4.389768600E0,9.564237595E0,3.326144695E0
2.332220421E0,-4.399345398E0,9.545084000E0,3.326144695E0
2.334708286E0,-4.423287868E0,9.521142006E0,3.292625904E0
2.337196150E0,-4.456806660E0,9.511565208E0,3.268683910E0
2.339684015E0,-4.542997837E0,9.501988411E0,3.263895512E0
2.342171879E0,-4.624400616E0,9.492411613E0,3.206434727E0
2.344659744E0,-4.653131008E0,9.530718803E0,3.153762102E0
2.347147609E0,-4.643554211E0,9.549872398E0,3.134608507E0
2.349635473E0,-4.605247021E0,9.530718803E0,3.148973703E0
2.352123338E0,-4.571728230E0,9.478046417E0,3.187281132E0
2.354611202E0,-4.595670223E0,9.473258018E0,3.244741917E0
2.357099067E0,-4.677073002E0,9.463681221E0,3.263895512E0
2.359586931E0,-4.791994572E0,9.444527626E0,3.292625904E0
2.362074796E0,-4.911705017E0,9.449316025E0,3.330933094E0
2.364562661E0,-5.026626587E0,9.482834816E0,3.369240284E0
2.367050525E0,-5.098452568E0,9.516353607E0,3.436278105E0
2.369538390E0,-5.112817764E0,9.535507202E0,3.512892485E0
2.372026254E0,-5.136759758E0,9.545084000E0,3.584718466E0
2.374514119E0,-5.098452568E0,9.540295601E0,3.608660460E0
2.377001984E0,-5.064933777E0,9.516353607E0,3.618237257E0
2.379489848E0,-5.026626587E0,9.487623215E0,3.560776472E0
2.381977713E0,-5.031414986E0,9.449316025E0,3.474585295E0
2.384465577E0,-5.031414986E0,9.411007881E0,3.393182278E0
2.386953442E0,-5.012261391E0,9.358335495E0,3.374028683E0
2.389441306E0,-4.997896194E0,9.315239906E0,3.316567898E0
2.391929171E0,-4.978742599E0,9.305663109E0,3.278260708E0
2.394417036E0,-4.935647011E0,9.310451508E0,3.235165119E0
2.396904900E0,-4.849455357E0,9.305663109E0,3.163338900E0
2.399392765E0,-4.734533787E0,9.310451508E0,3.086724520E0
2.401880629E0,-4.633977413E0,9.286509514E0,3.086724520E0
2.404368494E0,-4.533421040E0,9.257779121E0,3.077147722E0
2.406856359E0,-4.475960255E0,9.262567520E0,3.029263735E0
2.409344223E0,-4.442441463E0,9.252990723E0,2.952649355E0
2.411832088E0,-4.375403404E0,9.233837128E0,2.880823135E0
2.414319952E0,-4.313154221E0,9.209895134E0,2.823362350E0
2.416807817E0,-4.255693436E0,9.200318336E0,2.794631958E0
2.419295681E0,-4.207809448E0,9.171587944E0,2.818573952E0
2.421783546E0,-4.222174644E0,9.166799545E0,2.861669540E0
2.424271411E0,-4.255693436E0,9.190741539E0,2.895188332E0
2.426759275E0,-4.294000626E0,9.176376343E0,2.938283920E0
2.429247140E0,-4.356249809E0,9.190741539E0,2.957437754E0
2.431735004E0,-4.399345398E0,9.190741539E0,2.981379747E0
2.434222869E0,-4.408922195E0,9.205106735E0,3.005321741E0
2.436710734E0,-4.399345398E0,9.166799545E0,3.053205729E0
2.439198598E0,-4.370615005E0,9.109338760E0,3.091512918E0
2.441686463E0,-4.346673012E0,9.061454773E0,3.168127298E0
2.444174327E0,-4.375403404E0,9.027935982E0,3.230376720E0
2.446662192E0,-4.404133797E0,9.003993988E0,3.278260708E0
2.449150056E0,-4.475960255E0,9.042301178E0,3.311779499E0
2.451637921E0,-4.533421040E0,9.090185165E0,3.330933094E0
2.454125786E0,-4.605247021E0,9.099761963E0,3.374028683E0
2.456613650E0,-4.643554211E0,9.099761963E0,3.431489468E0
2.459101515E0,-4.648342609E0,9.061454773E0,3.503315687E0
2.461589379E0,-4.672284603E0,9.027935982E0,3.546411276E0
2.464077244E0,-4.691438198E0,8.994417191E0,3.575141668E0
2.466565109E0,-4.720168591E0,8.970475197E0,3.579930067E0
2.469052973E0,-4.729745388E0,8.936956406E0,3.594295263E0
2.471540838E0,-4.744110584E0,8.917802811E0,3.594295263E0
2.474028702E0,-4.715380192E0,8.898649216E0,3.646967649E0
2.476516567E0,-4.681861401E0,8.889072418E0,3.704428673E0
2.479004431E0,-4.686649799E0,8.913014412E0,3.752312660E0
2.481492296E0,-4.710591793E0,8.941744804E0,3.790619850E0
2.483980161E0,-4.715380192E0,8.970475197E0,3.838503838E0
2.486468025E0,-4.734533787E0,8.975263596E0,3.857657433E0
2.488955890E0,-4.729745388E0,8.980051994E0,3.828927040E0
2.491443754E0,-4.653131008E0,8.970475197E0,3.752312660E0
2.493931619E0,-4.538209438E0,8.917802811E0,3.694851875E0
2.496419484E0,-4.437653065E0,8.869918823E0,3.661332846E0
2.498907348E0,-4.380191803E0,8.826823235E0,3.646967649E0
2.501395213E0,-4.370615005E0,8.807669640E0,3.599083662E0
2.503883077E0,-4.394556999E0,8.826823235E0,3.565564871E0
2.506370942E0,-4.432864666E0,8.865130424E0,3.541622877E0
2.508858806E0,-4.475960255E0,8.932168007E0,3.551199675E0
2.511346671E0,-4.475960255E0,8.999205589E0,3.579930067E0
2.513834536E0,-4.432864666E0,9.042301178E0,3.642179251E0
2.516322400E0,-4.399345398E0,9.085396767E0,3.666121244E0
2.518810265E0,-4.370615005E0,9.104550362E0,3.699640274E0
2.521298129E0,-4.356249809E0,9.118915558E0,3.728370667E0
2.523785994E0,-4.370615005E0,9.109338760E0,3.757101059E0
2.526273859E0,-4.399345398E0,9.128492355E0,3.752312660E0
2.528761723E0,-4.442441463E0,9.123703957E0,3.699640274E0
2.531249588E0,-4.485537052E0,9.147645950E0,3.632602453E0
2.533737452E0,-4.504690647E0,9.157222748E0,3.584718466E0
2.536225317E0,-4.509479046E0,9.162011147E0,3.570353270E0
2.538713181E0,-4.514267445E0,9.166799545E0,3.570353270E0
2.541201046E0,-4.519055843E0,9.209895134E0,3.599083662E0
2.543688911E0,-4.557363033E0,9.267355919E0,3.623025656E0
2.546176775E0,-4.619612217E0,9.320028305E0,3.637390852E0
2.548664640E0,-4.667496204E0,9.363123894E0,3.694851875E0
2.551152504E0,-4.739322186E0,9.406219482E0,3.737947464E0
2.553640369E0,-4.796782970E0,9.420584679E0,3.747524261E0
2.556128234E0,-4.825513363E0,9.454104424E0,3.757101059E0
2.558616098E0,-4.868608952E0,9.458892822E0,3.733159065E0
2.561103963E0,-4.902127743E0,9.473258018E0,3.714005470E0
2.563591827E0,-4.926070213E0,9.478046417E0,3.709217072E0
2.566079692E0,-4.959589005E0,9.501988411E0,3.728370667E0
2.568567556E0,-4.978742599E0,9.516353607E0,3.737947464E0
2.571055421E0,-5.026626587E0,9.540295601E0,3.733159065E0
2.573543286E0,-5.055356979E0,9.597756386E0,3.742735863E0
2.576031150E0,-5.069722176E0,9.640851974E0,3.733159065E0
2.578519015E0,-5.093664169E0,9.674370766E0,3.709217072E0
2.581006879E0,-5.088875771E0,9.722254753E0,3.709217072E0
2.583494744E0,-5.084087372E0,9.741408348E0,3.714005470E0
2.585982609E0,-5.084087372E0,9.746196747E0,3.728370667E0
2.588470473E0,-5.088875771E0,9.760561943E0,3.737947464E0
2.590958338E0,-5.127182961E0,9.784503937E0,3.747524261E0
2.593446202E0,-5.141548157E0,9.808445930E0,3.752312660E0
2.595934067E0,-5.131971359E0,9.822811127E0,3.714005470E0
2.598421931E0,-5.131971359E0,9.837176323E0,3.623025656E0
2.600909796E0,-5.108029366E0,9.841964722E0,3.560776472E0
2.603397661E0,-5.079298973E0,9.827599525E0,3.517680883E0
2.605885525E0,-5.045780182E0,9.818022728E0,3.498527288E0
2.608373390E0,-5.045780182E0,9.803657532E0,3.512892485E0
2.610861254E0,-5.055356979E0,9.837176323E0,3.536834478E0
2.613349119E0,-5.093664169E0,9.875483513E0,3.565564871E0
2.615836984E0,-5.136759758E0,9.928155899E0,3.584718466E0
2.618324848E0,-5.136759758E0,9.999981880E0,3.599083662E0
2.620812713E0,-5.141548157E0,1.002392387E1,3.637390852E0
2.623300577E0,-5.136759758E0,1.004307747E1,3.632602453E0
2.625788442E0,-5.127182961E0,1.003828907E1,3.608660460E0
2.628276306E0,-5.108029366E0,1.003350067E1,3.579930067E0
2.630764171E0,-5.122394562E0,1.002392387E1,3.551199675E0
2.633252036E0,-5.151124954E0,1.002392387E1,3.517680883E0
2.635739900E0,-5.208585739E0,1.004786587E1,3.522469282E0
2.638227765E0,-5.251681328E0,1.008138466E1,3.555988073E0
2.640715629E0,-5.270834923E0,1.011969185E1,3.618237257E0
2.643203494E0,-5.309142113E0,1.017236423E1,3.699640274E0
2.645691359E0,-5.380968094E0,1.021545982E1,3.809773445E0
2.648179223E0,-5.433640957E0,1.027292061E1,3.886387825E0
2.650667088E0,-5.476736546E0,1.031122780E1,3.939060450E0
2.653154952E0,-5.538985729E0,1.033038139E1,3.919906616E0
2.655642817E0,-5.572504520E0,1.033995819E1,3.881599426E0
2.658130681E0,-5.596446514E0,1.029686260E1,3.804985046E0
2.660618546E0,-5.577292919E0,1.022503662E1,3.742735863E0
2.663106411E0,-5.548562527E0,1.012926865E1,3.690063477E0
2.665594275E0,-5.505466938E0,1.006223106E1,3.666121244E0
2.668082140E0,-5.471948147E0,1.001913548E1,3.642179251E0
2.670570004E0,-5.448006153E0,9.999981880E0,3.642179251E0
2.673057869E0,-5.428852558E0,1.000477028E1,3.656544447E0
2.675545734E0,-5.443217754E0,1.000477028E1,3.704428673E0
2.678033598E0,-5.476736546E0,9.985616684E0,3.742735863E0
2.680521463E0,-5.529408932E0,9.971251488E0,3.800196648E0
2.683009327E0,-5.591658115E0,9.952097893E0,3.833715439E0
2.685497192E0,-5.634753704E0,9.937732697E0,3.843292236E0
2.687985056E0,-5.620388508E0,9.918579102E0,3.819350243E0
2.690472921E0,-5.534197330E0,9.885060310E0,3.766677856E0
2.692960786E0,-5.419275761E0,9.832387924E0,3.699640274E0
2.695448650E0,-5.275623322E0,9.774927139E0,3.656544447E0
2.697936515E0,-5.155913353E0,9.693524361E0,3.632602453E0
2.700424379E0,-5.074510574E0,9.621698380E0,3.642179251E0
2.702912244E0,-5.045780182E0,9.588179588E0,3.603872061E0
2.705400109E0,-5.036203384E0,9.569025993E0,3.608660460E0
2.707887973E0,-5.060145378E0,9.569025993E0,3.613448858E0
2.710375838E0,-5.045780182E0,9.588179588E0,3.632602453E0
2.712863702E0,-5.036203384E0,9.607333183E0,3.675698042E0
2.715351567E0,-4.993107796E0,9.626486778E0,3.714005470E0
2.717839431E0,-4.930858612E0,9.626486778E0,3.761889458E0
2.720327296E0,-4.859032154E0,9.607333183E0,3.809773445E0
2.722815161E0,-4.772840977E0,9.607333183E0,3.814561844E0
2.725303025E0,-4.691438198E0,9.573814392E0,3.800196648E0
2.727790890E0,-4.624400616E0,9.521142006E0,3.785831451E0
2.730278754E0,-4.566939831E0,9.458892822E0,3.800196648E0
2.732766619E0,-4.542997837E0,9.391854286E0,3.828927040E0
2.735254484E0,-4.566939831E0,9.348758698E0,3.843292236E0
2.737742348E0,-4.586093426E0,9.343970299E0,3.857657433E0
2.740230213E0,-4.581305027E0,9.300874710E0,3.872022629E0
2.742718077E0,-4.586093426E0,9.267355919E0,3.905541420E0
2.745205942E0,-4.547786236E0,9.219471931E0,3.910329819E0
2.747693806E0,-4.499902248E0,9.190741539E0,3.900753021E0
2.750181671E0,-4.437653065E0,9.142857552E0,3.886387825E0
2.752669536E0,-4.399345398E0,9.090185165E0,3.867234230E0
2.755157400E0,-4.365826607E0,9.042301178E0,3.867234230E0
2.757645265E0,-4.332307816E0,8.999205589E0,3.862445831E0
2.760133129E0,-4.313154221E0,8.941744804E0,3.862445831E0
2.762620994E0,-4.298789024E0,8.913014412E0,3.862445831E0
2.765108859E0,-4.284423828E0,8.893860817E0,3.876811028E0
2.767596723E0,-4.250905037E0,8.893860817E0,3.852869034E0
2.770084588E0,-4.241328239E0,8.903437614E0,3.843292236E0
2.772572452E0,-4.217386246E0,8.936956406E0,3.852869034E0
2.775060317E0,-4.203021049E0,8.951321602E0,3.838503838E0
2.777548181E0,-4.155137062E0,8.946533203E0,3.848080635E0
2.780036046E0,-4.088099480E0,8.936956406E0,3.838503838E0
2.782523911E0,-4.035427094E0,8.908226013E0,3.824138641E0
2.785011775E0,-4.006696701E0,8.893860817E0,3.776254654E0
2.787499640E0,-4.001908302E0,8.874707222E0,3.694851875E0
2.789987504E0,-4.016273499E0,8.860342026E0,3.651756048E0
2.792475369E0,-4.016273499E0,8.869918823E0,3.603872061E0
2.794963234E0,-4.011485100E0,8.889072418E0,3.575141668E0
2.797451098E0,-4.006696701E0,8.922591209E0,3.570353270E0
2.799938963E0,-3.992331266E0,8.932168007E0,3.603872061E0
2.802426827E0,-3.982754469E0,8.936956406E0,3.618237257E0
2.804914692E0,-3.977966070E0,8.927379608E0,3.623025656E0
2.807402556E0,-3.992331266E0,8.932168007E0,3.608660460E0
2.809890421E0,-4.035427094E0,8.936956406E0,3.599083662E0
2.812378286E0,-4.092887878E0,8.927379608E0,3.579930067E0
2.814866150E0,-4.126406670E0,8.922591209E0,3.546411276E0
2.817354015E0,-4.169502258E0,8.927379608E0,3.517680883E0
2.819841879E0,-4.193444252E0,8.936956406E0,3.469796896E0
2.822329744E0,-4.169502258E0,8.946533203E0,3.460220098E0
2.824817609E0,-4.131195068E0,8.960898399E0,3.512892485E0
2.827305473E0,-4.116829872E0,8.941744804E0,3.599083662E0
2.829793338E0,-4.140771866E0,8.965686798E0,3.646967649E0
2.832281202E0,-4.193444252E0,8.970475197E0,3.690063477E0
2.834769067E0,-4.298789024E0,9.003993988E0,3.718793869E0
2.837256931E0,-4.394556999E0,9.037512779E0,3.670909643E0
2.839744796E0,-4.447229862E0,9.071031570E0,3.579930067E0
2.842232661E0,-4.466383457E0,9.094973564E0,3.503315687E0
2.844720525E0,-4.442441463E0,9.104550362E0,3.436278105E0
2.847208390E0,-4.384980202E0,9.123703957E0,3.369240284E0
2.849696254E0,-4.346673012E0,9.142857552E0,3.302202702E0
2.852184119E0,-4.298789024E0,9.152434349E0,3.268683910E0
2.854671984E0,-4.303577423E0,9.181164742E0,3.249530315E0
2.857159848E0,-4.404133797E0,9.219471931E0,3.254318714E0
2.859647713E0,-4.519055843E0,9.272144318E0,3.249530315E0
2.862135577E0,-4.624400616E0,9.329605103E0,3.249530315E0
2.864623442E0,-4.691438198E0,9.387065887E0,3.263895512E0
2.867111306E0,-4.715380192E0,9.444527626E0,3.268683910E0
2.869599171E0,-4.734533787E0,9.478046417E0,3.287837505E0
2.872087036E0,-4.772840977E0,9.540295601E0,3.283049107E0
2.874574900E0,-4.825513363E0,9.602544785E0,3.259107113E0
2.877062765E0,-4.878185749E0,9.626486778E0,3.239953518E0
2.879550629E0,-4.935647011E0,9.640851974E0,3.230376720E0
2.882038494E0,-4.959589005E0,9.655217171E0,3.230376720E0
2.884526359E0,-5.045780182E0,9.664793968E0,3.216011524E0
2.887014223E0,-5.088875771E0,9.693524361E0,3.206434727E0
2.889502088E0,-5.146336555E0,9.683947563E0,3.239953518E0
2.891989952E0,-5.184643745E0,9.669582367E0,3.273472309E0
2.894477817E0,-5.237316132E0,9.674370766E0,3.297414303E0
2.896965681E0,-5.289988518E0,9.683947563E0,3.316567898E0
2.899453546E0,-5.347449303E0,9.688735962E0,3.340509892E0
2.901941411E0,-5.376179695E0,9.683947563E0,3.340509892E0
2.904429275E0,-5.419275761E0,9.669582367E0,3.316567898E0
2.906917140E0,-5.404910564E0,9.664793968E0,3.316567898E0
2.909405004E0,-5.357026100E0,9.626486778E0,3.311779499E0
2.911892869E0,-5.299565315E0,9.616909981E0,3.311779499E0
2.914380734E0,-5.227739334E0,9.607333183E0,3.292625904E0
2.916868598E0,-5.151124954E0,9.583391190E0,3.283049107E0
2.919356463E0,-5.117606163E0,9.559449196E0,3.259107113E0
2.921844327E0,-5.108029366E0,9.540295601E0,3.244741917E0
2.924332192E0,-5.112817764E0,9.549872398E0,3.216011524E0
2.926820056E0,-5.093664169E0,9.554660797E0,3.129820108E0
2.929307921E0,-5.079298973E0,9.554660797E0,3.062782526E0
2.931795786E0,-5.040991783E0,9.530718803E0,3.057994127E0
2.934283650E0,-4.993107796E0,9.525930405E0,3.048417330E0
2.936771515E0,-4.964377403E0,9.521142006E0,3.053205729E0
2.939259379E0,-4.930858612E0,9.530718803E0,3.043628931E0
2.941747244E0,-4.906916618E0,9.545084000E0,3.067570925E0
2.944235109E0,-4.887762547E0,9.578602791E0,3.077147722E0
2.946722973E0,-4.854243755E0,9.597756386E0,3.077147722E0
2.949210838E0,-4.825513363E0,9.597756386E0,3.086724520E0
2.951698702E0,-4.782417774E0,9.592967987E0,3.129820108E0
2.954186567E0,-4.758475780E0,9.564237595E0,3.129820108E0
2.956674431E0,-4.724956989E0,9.506776810E0,3.158550501E0
2.959162296E0,-4.705803394E0,9.482834816E0,3.134608507E0
2.961650161E0,-4.734533787E0,9.458892822E0,3.067570925E0
2.964138025E0,-4.744110584E0,9.444527626E0,3.014898539E0
2.966625890E0,-4.758475780E0,9.444527626E0,2.943072557E0
2.969113754E0,-4.772840977E0,9.463681221E0,2.909553528E0
2.971601619E0,-4.763264179E0,9.487623215E0,2.890399933E0
2.974089484E0,-4.748898983E0,9.492411613E0,2.890399933E0
2.976577348E0,-4.744110584E0,9.506776810E0,2.923918724E0
2.979065213E0,-4.748898983E0,9.492411613E0,2.967014551E0
2.981553077E0,-4.758475780E0,9.458892822E0,3.005321741E0
2.984040942E0,-4.777629375E0,9.434949875E0,3.024475336E0
2.986528806E0,-4.811148167E0,9.444527626E0,3.048417330E0
2.989016671E0,-4.844666958E0,9.454104424E0,3.077147722E0
2.991504536E0,-4.887762547E0,9.463681221E0,3.091512918E0
2.993992400E0,-4.930858612E0,9.482834816E0,3.091512918E0
2.996480265E0,-4.964377403E0,9.487623215E0,3.096301317E0
2.998968129E0,-4.973954201E0,9.482834816E0,3.091512918E0
3.001455994E0,-4.978742599E0,9.473258018E0,3.096301317E0
3.003943859E0,-5.002684593E0,9.449316025E0,3.115454912E0
3.006431723E0,-5.007472992E0,9.411007881E0,3.153762102E0
3.008919588E0,-5.017049789E0,9.387065887E0,3.201646328E0
3.011407452E0,-5.045780182E0,9.391854286E0,3.211223125E0
3.013895317E0,-5.045780182E0,9.420584679E0,3.206434727E0
3.016383181E0,-5.017049789E0,9.434949875E0,3.177704096E0
3.018871046E0,-4.988319397E0,9.425373077E0,3.163338900E0
3.021358911E0,-4.945223808E0,9.411007881E0,3.158550501E0
3.023846775E0,-4.868608952E0,9.396642685E0,3.134608507E0
3.026334640E0,-4.782417774E0,9.367912292E0,3.110666513E0
3.028822504E0,-4.696226597E0,9.320028305E0,3.091512918E0
3.031310317E0,-4.581305027E0,9.276932716E0,3.091512918E0
3.033798129E0,-4.528632641E0,9.238625526E0,3.081936121E0
3.036285942E0,-4.523844242E0,9.248202324E0,3.057994127E0
3.038773754E0,-4.547786236E0,9.286509514E0,3.005321741E0
3.041261567E0,-4.528632641E0,9.310451508E0,2.990956545E0
3.043749379E0,-4.499902248E0,9.324816704E0,2.971802950E0
3.046237192E0,-4.442441463E0,9.320028305E0,2.952649355E0
3.048725004E0,-4.380191803E0,9.286509514E0,2.933495522E0
3.051212817E0,-4.322731018E0,9.262567520E0,2.919130325E0
3.053700629E0,-4.270058632E0,9.233837128E0,2.856881142E0
3.056188442E0,-4.226963043E0,9.200318336E0,2.780266762E0
3.058676254E0,-4.241328239E0,9.185953140E0,2.746747971E0
3.061164067E0,-4.265270233E0,9.152434349E0,2.751536369E0
3.063651879E0,-4.274847031E0,9.142857552E0,2.722805977E0
3.066139692E0,-4.270058632E0,9.118915558E0,2.741959572E0
3.068627504E0,-4.274847031E0,9.090185165E0,2.780266762E0
3.071115317E0,-4.289212227E0,9.056666374E0,2.847304344E0
3.073603129E0,-4.317942619E0,9.032724380E0,2.895188332E0
3.076090942E0,-4.375403404E0,9.018359184E0,2.914341927E0
3.078578754E0,-4.432864666E0,9.003993988E0,2.923918724E0
3.081066567E0,-4.485537052E0,8.984840393E0,2.880823135E0
3.083554379E0,-4.514267445E0,8.946533203E0,2.895188332E0
3.086042192E0,-4.528632641E0,8.908226013E0,2.914341927E0
3.088530004E0,-4.562151432E0,8.879495621E0,2.928707123E0
3.091017817E0,-4.576516628E0,8.869918823E0,2.928707123E0
3.093505629E0,-4.581305027E0,8.822034836E0,2.952649355E0
3.095993442E0,-4.581305027E0,8.793304443E0,2.981379747E0
3.098481306E0,-4.571728230E0,8.778939247E0,3.019686937E0
3.100969171E0,-4.576516628E0,8.726266861E0,3.024475336E0
3.103457036E0,-4.586093426E0,8.692748070E0,3.062782526E0
3.105944900E0,-4.619612217E0,8.664017677E0,3.105878115E0
3.108432765E0,-4.624400616E0,8.659229279E0,3.125031710E0
3.110920629E0,-4.633977413E0,8.630498886E0,3.110666513E0
3.113408494E0,-4.600458622E0,8.611345291E0,3.125031710E0
3.115896359E0,-4.566939831E0,8.587403297E0,3.125031710E0
3.118384223E0,-4.533421040E0,8.544307709E0,3.139396906E0
3.120872088E0,-4.509479046E0,8.515577316E0,3.129820108E0
3.123359952E0,-4.504690647E0,8.486846924E0,3.120243311E0
3.125847817E0,-4.504690647E0,8.462904930E0,3.139396906E0
3.128335681E0,-4.523844242E0,8.458115578E0,3.125031710E0
3.130823546E0,-4.495113850E0,8.434173584E0,3.110666513E0
3.133311411E0,-4.475960255E0,8.424596786E0,3.110666513E0
3.135799275E0,-4.442441463E0,8.400654793E0,3.086724520E0
3.138287140E0,-4.399345398E0,8.362347603E0,3.067570925E0
3.140775004E0,-4.389768600E0,8.347982407E0,3.067570925E0
3.143262869E0,-4.384980202E0,8.333617210E0,3.057994127E0
3.145750734E0,-4.356249809E0,8.357559204E0,3.038840532E0
3.148238598E0,-4.322731018E0,8.343194008E0,3.000533342E0
3.150726463E0,-4.255693436E0,8.338405609E0,2.962226152E0
3.153214327E0,-4.159925461E0,8.343194008E0,2.938283920E0
3.155702192E0,-4.078522682E0,8.347982407E0,2.899976730E0
3.158190056E0,-4.045003891E0,8.343194008E0,2.832939148E0
3.160677921E0,-3.992331266E0,8.338405609E0,2.780266762E0
3.163165786E0,-3.958812475E0,8.314463615E0,2.741959572E0
3.165653650E0,-3.930082083E0,8.319252014E0,2.694075346E0
3.168141515E0,-3.906140089E0,8.309675217E0,2.670133352E0
3.170629379E0,-3.872621298E0,8.295310020E0,2.650979757E0
3.173117244E0,-3.863044500E0,8.266579628E0,2.641402960E0
3.175605109E0,-3.877409697E0,8.261791229E0,2.641402960E0
3.178092973E0,-3.882198095E0,8.223484039E0,2.665344954E0
3.180580838E0,-3.906140089E0,8.204330444E0,2.694075346E0
3.183068702E0,-3.920505285E0,8.185176849E0,2.689286947E0
3.185556567E0,-3.954024076E0,8.189965248E0,2.679710150E0
3.188044431E0,-3.982754469E0,8.194753647E0,2.679710150E0
3.190532296E0,-3.997119665E0,8.180388451E0,2.684498549E0
3.193020161E0,-3.987542868E0,8.156446457E0,2.737171173E0
3.195508025E0,-3.977966070E0,8.142081261E0,2.789843559E0
3.197995890E0,-3.987542868E0,8.122927666E0,2.818573952E0
3.200483754E0,-3.982754469E0,8.108562469E0,2.813785553E0
3.202971619E0,-4.001908302E0,8.079832077E0,2.818573952E0
3.205459484E0,-4.040215492E0,8.046313286E0,2.813785553E0
3.207947348E0,-4.112041473E0,8.017582893E0,2.799420357E0
3.210435213E0,-4.169502258E0,8.017582893E0,2.765901566E0
3.212923077E0,-4.169502258E0,8.008006096E0,2.737171173E0
3.215410942E0,-4.155137062E0,7.964910507E0,2.751536369E0
3.217898806E0,-4.126406670E0,7.926603317E0,2.765901566E0
3.220386671E0,-4.107253075E0,7.902661324E0,2.746747971E0
3.222874536E0,-4.116829872E0,7.878719330E0,2.722805977E0
3.225362400E0,-4.121618271E0,7.849988937E0,2.684498549E0
3.227850265E0,-4.121618271E0,7.826046944E0,2.646191359E0
3.230338129E0,-4.112041473E0,7.806893349E0,2.627037764E0
3.232825994E0,-4.088099480E0,7.792528152E0,2.617460966E0
3.235313859E0,-4.054580688E0,7.787739754E0,2.612672567E0
3.237801723E0,-4.025850296E0,7.792528152E0,2.579153776E0
3.240289588E0,-4.001908302E0,7.792528152E0,2.569576979E0
3.242777452E0,-4.006696701E0,7.806893349E0,2.540846586E0
3.245265317E0,-3.982754469E0,7.821258545E0,2.507327795E0
3.247753181E0,-3.954024076E0,7.835623741E0,2.469020605E0
3.250241046E0,-3.925293684E0,7.849988937E0,2.411559582E0
3.252728911E0,-3.867832899E0,7.849988937E0,2.368463993E0
3.255216775E0,-3.839102507E0,7.849988937E0,2.354098797E0
3.257704640E0,-3.791218281E0,7.840412140E0,2.344521999E0
3.260192504E0,-3.767276287E0,7.830835342E0,2.311003208E0
3.262680369E0,-3.752911091E0,7.835623741E0,2.272696018E0
3.265168234E0,-3.776853085E0,7.849988937E0,2.239177227E0
3.267656098E0,-3.796006680E0,7.873930931E0,2.215235233E0
3.270143963E0,-3.819948912E0,7.869142532E0,2.220023632E0
3.272631827E0,-3.843890905E0,7.869142532E0,2.215235233E0
3.275119692E0,-3.834314108E0,7.873930931E0,2.210446835E0
3.277607556E0,-3.829525709E0,7.873930931E0,2.172139406E0
3.280095421E0,-3.839102507E0,7.869142532E0,2.148197412E0
3.282583286E0,-3.839102507E0,7.864354134E0,2.162562609E0
3.285071150E0,-3.863044500E0,7.849988937E0,2.205658197E0
3.287559015E0,-3.863044500E0,7.816470146E0,2.234388828E0
3.290046879E0,-3.863044500E0,7.806893349E0,2.248754025E0
3.292534744E0,-3.882198095E0,7.787739754E0,2.263119221E0
3.295022609E0,-3.925293684E0,7.759009361E0,2.287061214E0
3.297510473E0,-3.944447279E0,7.763797760E0,2.287061214E0
3.299998338E0,-3.954024076E0,7.749432564E0,2.282272816E0
3.302486202E0,-3.939658880E0,7.725490570E0,2.287061214E0
3.304974067E0,-3.915716887E0,7.696759701E0,2.291849613E0
3.307461931E0,-3.886986494E0,7.682394505E0,2.320580006E0
3.309949796E0,-3.877409697E0,7.668029308E0,2.334945202E0
3.312437661E0,-3.858256102E0,7.663240910E0,2.320580006E0
3.314925525E0,-3.834314108E0,7.644087315E0,2.339733601E0
3.317413390E0,-3.815160513E0,7.653664112E0,2.344521999E0
3.319901254E0,-3.781641483E0,7.605780125E0,2.344521999E0
3.322389119E0,-3.762487888E0,7.572261333E0,2.349310398E0
3.324876984E0,-3.738545895E0,7.553107738E0,2.363675594E0
3.327364848E0,-3.738545895E0,7.510012150E0,2.363675594E0
3.329852713E0,-3.714603901E0,7.471704960E0,2.368463993E0
3.332340577E0,-3.681085110E0,7.442974567E0,2.344521999E0
3.334828442E0,-3.652354717E0,7.404667377E0,2.334945202E0
3.337316306E0,-3.618835926E0,7.347206593E0,2.325368404E0
3.339804171E0,-3.561375141E0,7.313687801E0,2.301426411E0
3.342292036E0,-3.518279314E0,7.261015415E0,2.263119221E0
3.344779900E0,-3.479972124E0,7.213130951E0,2.253542423E0
3.347267765E0,-3.465606928E0,7.189188957E0,2.243965626E0
3.349755629E0,-3.427299738E0,7.155670166E0,2.205658197E0
3.352243494E0,-3.403357744E0,7.117362976E0,2.186504602E0
3.354731359E0,-3.355473757E0,7.079055786E0,2.191293001E0
3.357219223E0,-3.302801132E0,7.035960197E0,2.191293001E0
3.359707088E0,-3.278859138E0,7.016806602E0,2.172139406E0
3.362194952E0,-3.250128746E0,6.959345818E0,2.172139406E0
3.364682817E0,-3.230975151E0,6.911461830E0,2.138620615E0
3.367170681E0,-3.202244759E0,6.863577843E0,2.081159830E0
3.369658546E0,-3.187879562E0,6.834847450E0,2.033275843E0
3.372146411E0,-3.154360771E0,6.786963463E0,1.975814939E0
3.374634275E0,-3.111265182E0,6.772598267E0,1.932719350E0
3.377122140E0,-3.058592558E0,6.739078999E0,1.908777356E0
3.379610004E0,-3.001131773E0,6.700771809E0,1.889623642E0
3.382097869E0,-2.953247786E0,6.676829815E0,1.860893250E0
3.384585734E0,-2.905363798E0,6.652887821E0,1.827374458E0
3.387073598E0,-2.881421804E0,6.633734226E0,1.789067268E0
3.389561463E0,-2.847903013E0,6.581061840E0,1.769913554E0
3.392049327E0,-2.809595585E0,6.557119846E0,1.736394763E0
3.394537192E0,-2.771288395E0,6.533177853E0,1.702875972E0
3.397025056E0,-2.737769604E0,6.480505466E0,1.688510776E0
3.399512921E0,-2.680308819E0,6.427833080E0,1.669357181E0
3.402000786E0,-2.642001629E0,6.370372295E0,1.688510776E0
3.404488650E0,-2.637213230E0,6.312911510E0,1.693299174E0
3.406976515E0,-2.622848034E0,6.255450726E0,1.674145579E0
3.409464379E0,-2.646790028E0,6.202777863E0,1.650203466E0
3.411952244E0,-2.661155224E0,6.154893875E0,1.592742682E0
3.414440109E0,-2.670732021E0,6.130951881E0,1.559223890E0
3.416927973E0,-2.675520420E0,6.087856293E0,1.554435492E0
3.419415838E0,-2.670732021E0,6.063914299E0,1.540070295E0
3.421903702E0,-2.646790028E0,6.006453514E0,1.559223890E0
3.424391567E0,-2.622848034E0,5.972934723E0,1.568800688E0
3.426879431E0,-2.613271236E0,5.934627533E0,1.587954283E0
3.429367296E0,-2.603694439E0,5.915473938E0,1.607107878E0
3.431855161E0,-2.565387011E0,5.877166748E0,1.583165884E0
3.434343025E0,-2.584540844E0,5.853224754E0,1.544858694E0
3.436830890E0,-2.579752445E0,5.838859558E0,1.511339784E0
3.439318754E0,-2.589329243E0,5.814917564E0,1.492186189E0
3.441806619E0,-2.598906040E0,5.790975571E0,1.463455796E0
3.444294484E0,-2.618059635E0,5.767033577E0,1.449090600E0
3.446782348E0,-2.589329243E0,5.757456303E0,1.396418095E0
3.449270213E0,-2.565387011E0,5.723937511E0,1.372476101E0
3.451758077E0,-2.546233416E0,5.704783916E0,1.324592113E0
3.454245942E0,-2.507926226E0,5.690418720E0,1.295861721E0
3.456733806E0,-2.474407434E0,5.661688328E0,1.267131209E0
3.459221671E0,-2.445677042E0,5.642534733E0,1.233612418E0
3.461709536E0,-2.416946650E0,5.632957935E0,1.219247222E0
3.464197400E0,-2.407369852E0,5.637746334E0,1.195305228E0
3.466685265E0,-2.426523447E0,5.637746334E0,1.166574836E0
3.469173129E0,-2.469619036E0,5.637746334E0,1.118690729E0
3.471660994E0,-2.493561029E0,5.647323132E0,1.042076349E0
3.474148859E0,-2.546233416E0,5.666476727E0,9.941922426E-1
3.476636723E0,-2.594117641E0,5.652111530E0,9.558850527E-1
3.479124588E0,-2.627636433E0,5.613804340E0,9.415197968E-1
3.481612452E0,-2.646790028E0,5.599439144E0,9.032126069E-1
3.484100317E0,-2.656366825E0,5.589862347E0,8.984242082E-1
3.486588181E0,-2.656366825E0,5.580285549E0,8.649053574E-1
3.489076046E0,-2.656366825E0,5.575497150E0,8.505401611E-1
3.491563911E0,-2.656366825E0,5.580285549E0,8.553285599E-1
3.494051775E0,-2.637213230E0,5.556343555E0,8.649053574E-1
3.496539640E0,-2.632424831E0,5.561131954E0,8.888474107E-1
3.499027504E0,-2.651578426E0,5.551555157E0,9.175778031E-1
3.501515369E0,-2.675520420E0,5.565920353E0,8.984242082E-1
3.504003234E0,-2.699462414E0,5.594650745E0,8.696937561E-1
3.506491098E0,-2.723404408E0,5.632957935E0,8.170213103E-1
3.508978963E0,-2.747346401E0,5.661688328E0,7.787141204E-1
3.511466827E0,-2.780865192E0,5.680841923E0,7.068880796E-1
3.513954692E0,-2.804807186E0,5.733514309E0,6.590040326E-1
3.516442556E0,-2.823961020E0,5.767033577E0,6.254851818E-1
3.518930421E0,-2.833537817E0,5.786187172E0,6.206967831E-1
3.521418286E0,-2.843114614E0,5.810129166E0,6.159083843E-1
3.523906150E0,-2.843114614E0,5.834071159E0,6.063315868E-1
3.526394015E0,-2.838326216E0,5.872378349E0,5.680243373E-1
3.528881879E0,-2.862268209E0,5.925050735E0,5.440823436E-1
3.531369744E0,-2.862268209E0,5.963357925E0,5.297171474E-1
3.533857609E0,-2.905363798E0,5.992088318E0,5.440823436E-1
3.536345473E0,-2.958036184E0,6.039972305E0,5.297171474E-1
3.538833338E0,-3.020285368E0,6.078279495E0,5.009866953E-1
3.541321202E0,-3.092111588E0,6.140528679E0,4.435258508E-1
3.543809067E0,-3.163937569E0,6.197989464E0,4.195838571E-1
3.546296931E0,-3.235763550E0,6.231508255E0,4.052186310E-1
3.548784796E0,-3.283647537E0,6.260239124E0,4.100070298E-1
3.551272661E0,-3.312378168E0,6.293757915E0,4.243722558E-1
3.553760525E0,-3.317166567E0,6.341641903E0,4.674678743E-1
3.556248390E0,-3.312378168E0,6.403891087E0,5.153518915E-1
3.558736254E0,-3.326743364E0,6.451775074E0,5.776011348E-1
3.561224119E0,-3.336320162E0,6.514024258E0,6.590040326E-1
3.563711984E0,-3.341108561E0,6.590638638E0,6.877344251E-1
3.566199848E0,-3.393780947E0,6.676829815E0,7.020996213E-1
3.568687713E0,-3.441664934E0,6.758233070E0,7.020996213E-1
3.571175577E0,-3.484760523E0,6.830059052E0,6.781576276E-1
3.573663442E0,-3.547009706E0,6.916250229E0,6.733692288E-1
3.576151306E0,-3.570951939E0,6.997653008E0,6.542156339E-1
3.578639171E0,-3.590105534E0,7.083844185E0,6.302735806E-1
3.581127036E0,-3.609259129E0,7.150881767E0,6.590040326E-1
3.583614900E0,-3.604470730E0,7.208342552E0,7.212532759E-1
3.586102765E0,-3.599682331E0,7.265803814E0,7.739257216E-1
3.588590629E0,-3.590105534E0,7.337629795E0,8.265981078E-1
3.591078494E0,-3.599682331E0,7.414244175E0,8.601169586E-1
3.593566306E0,-3.614047527E0,7.500435352E0,8.649053574E-1
3.596054119E0,-3.642777920E0,7.567472935E0,8.553285599E-1
3.598541931E0,-3.666719913E0,7.639298916E0,8.744821548E-1
3.601029744E0,-3.719392300E0,7.696759701E0,8.840589523E-1
3.603517556E0,-3.791218281E0,7.778162956E0,8.792705536E-1
3.606005369E0,-3.863044500E0,7.845200539E0,8.792705536E-1
3.608493181E0,-3.920505285E0,7.902661324E0,8.936358094E-1
3.610980994E0,-3.958812475E0,7.945756912E0,9.415197968E-1
3.613468806E0,-4.006696701E0,8.017582893E0,9.941922426E-1
3.615956619E0,-4.045003891E0,8.098985672E0,1.046864748E0
3.618444431E0,-4.102464676E0,8.175600052E0,1.070806742E0
3.620932244E0,-4.183867455E0,8.261791229E0,1.118690729E0
3.623420056E0,-4.217386246E0,8.367136002E0,1.137844324E0
3.625907869E0,-4.241328239E0,8.448538780E0,1.185728431E0
3.628395681E0,-4.284423828E0,8.515577316E0,1.233612418E0
3.630883494E0,-4.313154221E0,8.592191696E0,1.281496406E0
3.633371306E0,-4.351461411E0,8.687959671E0,1.343745708E0
3.635859119E0,-4.399345398E0,8.783727646E0,1.382052898E0
3.638346931E0,-4.418499470E0,8.855553627E0,1.453878999E0
3.640834744E0,-4.452018261E0,8.932168007E0,1.525704980E0
3.643322556E0,-4.485537052E0,9.003993988E0,1.583165884E0
3.645810369E0,-4.519055843E0,9.075819969E0,1.635838270E0
3.648298181E0,-4.552574635E0,9.118915558E0,1.626261473E0
3.650785994E0,-4.590881824E0,9.200318336E0,1.597531080E0
3.653273806E0,-4.614823818E0,9.243413925E0,1.587954283E0
3.655761619E0,-4.614823818E0,9.281721115E0,1.592742682E0
3.658249431E0,-4.605247021E0,9.320028305E0,1.592742682E0
3.660737244E0,-4.576516628E0,9.348758698E0,1.602319479E0
3.663225056E0,-4.581305027E0,9.391854286E0,1.602319479E0
3.665712921E0,-4.586093426E0,9.415796280E0,1.611896276E0
3.668200786E0,-4.595670223E0,9.434949875E0,1.602319479E0
3.670688650E0,-4.643554211E0,9.439739227E0,1.611896276E0
3.673176515E0,-4.701014996E0,9.454104424E0,1.631049871E0
3.675664379E0,-4.772840977E0,9.473258018E0,1.616684675E0
3.678152244E0,-4.830301762E0,9.506776810E0,1.602319479E0
3.680640109E0,-4.868608952E0,9.521142006E0,1.607107878E0
3.683127973E0,-4.892550945E0,9.511565208E0,1.626261473E0
3.685615838E0,-4.911705017E0,9.525930405E0,1.631049871E0
3.688103702E0,-4.892550945E0,9.525930405E0,1.631049871E0
3.690591567E0,-4.849455357E0,9.516353607E0,1.635838270E0
3.693079431E0,-4.801571369E0,9.501988411E0,1.654991984E0
3.695567296E0,-4.753687382E0,9.478046417E0,1.688510776E0
3.698055161E0,-4.696226597E0,9.458892822E0,1.707664371E0
3.700543025E0,-4.648342609E0,9.444527626E0,1.702875972E0
3.703030890E0,-4.605247021E0,9.444527626E0,1.717241168E0
3.705518754E0,-4.557363033E0,9.425373077E0,1.712452769E0
3.708006619E0,-4.504690647E0,9.425373077E0,1.674145579E0
3.710494484E0,-4.475960255E0,9.396642685E0,1.645415068E0
3.712982348E0,-4.442441463E0,9.396642685E0,1.631049871E0
3.715470213E0,-4.404133797E0,9.363123894E0,1.578377485E0
3.717958077E0,-4.346673012E0,9.343970299E0,1.544858694E0
3.720445942E0,-4.270058632E0,9.315239906E0,1.501762986E0
3.722933806E0,-4.193444252E0,9.300874710E0,1.458667397E0
3.725421671E0,-4.083311081E0,9.281721115E0,1.434725404E0
3.727909536E0,-4.001908302E0,9.272144318E0,1.429937005E0
3.730397400E0,-3.920505285E0,9.238625526E0,1.458667397E0
3.732885265E0,-3.863044500E0,9.224260330E0,1.458667397E0
3.735373129E0,-3.786429882E0,9.205106735E0,1.439513803E0
3.737860994E0,-3.757699490E0,9.195529938E0,1.425148606E0
3.740348859E0,-3.757699490E0,9.185953140E0,1.415571809E0
3.742836723E0,-3.743334293E0,9.185953140E0,1.377264500E0
3.745324588E0,-3.724180698E0,9.176376343E0,1.338957310E0
3.747812452E0,-3.700238705E0,9.171587944E0,1.310226917E0
3.750300317E0,-3.714603901E0,9.181164742E0,1.310226917E0
3.752788181E0,-3.714603901E0,9.157222748E0,1.319803715E0
3.755276046E0,-3.728969097E0,9.138069153E0,1.334168911E0
3.757763911E0,-3.757699490E0,9.109338760E0,1.348534107E0
3.760251775E0,-3.772064686E0,9.109338760E0,1.367687702E0
3.762739640E0,-3.757699490E0,9.118915558E0,1.386841297E0
3.765227504E0,-3.733757496E0,9.133280754E0,1.410783410E0
3.767715369E0,-3.719392300E0,9.118915558E0,1.434725404E0
3.770203234E0,-3.681085110E0,9.123703957E0,1.425148606E0
3.772691098E0,-3.666719913E0,9.104550362E0,1.444302201E0
3.775178963E0,-3.647566319E0,9.080608368E0,1.468244195E0
3.777666827E0,-3.647566319E0,9.090185165E0,1.501762986E0
3.780154692E0,-3.661931515E0,9.085396767E0,1.511339784E0
3.782642556E0,-3.671508312E0,9.080608368E0,1.506551385E0
3.785130421E0,-3.695450306E0,9.085396767E0,1.477820992E0
3.787618286E0,-3.700238705E0,9.090185165E0,1.420360208E0
3.790106150E0,-3.719392300E0,9.109338760E0,1.401206493E0
3.792594015E0,-3.700238705E0,9.118915558E0,1.401206493E0
3.795081879E0,-3.714603901E0,9.133280754E0,1.434725404E0
3.797569744E0,-3.724180698E0,9.157222748E0,1.468244195E0
3.800057609E0,-3.738545895E0,9.171587944E0,1.506551385E0
3.802545473E0,-3.757699490E0,9.195529938E0,1.520916581E0
3.805033338E0,-3.796006680E0,9.205106735E0,1.554435492E0
3.807521202E0,-3.843890905E0,9.238625526E0,1.549647093E0
3.810009067E0,-3.901351690E0,9.267355919E0,1.559223890E0
3.812496931E0,-3.939658880E0,9.262567520E0,1.602319479E0
3.814984796E0,-3.958812475E0,9.300874710E0,1.631049871E0
3.817472661E0,-3.982754469E0,9.320028305E0,1.659780383E0
3.819960525E0,-3.982754469E0,9.334393501E0,1.688510776E0
3.822448390E0,-3.987542868E0,9.358335495E0,1.693299174E0
3.824936254E0,-4.025850296E0,9.391854286E0,1.702875972E0
3.827424119E0,-4.059369087E0,9.411007881E0,1.726817966E0
3.829911984E0,-4.097676277E0,9.439739227E0,1.745971560E0
3.832399848E0,-4.140771866E0,9.454104424E0,1.755548358E0
3.834887713E0,-4.174290657E0,9.463681221E0,1.750759959E0
3.837375577E0,-4.188655853E0,9.501988411E0,1.760336757E0
3.839863442E0,-4.212597847E0,9.506776810E0,1.769913554E0
3.842351306E0,-4.226963043E0,9.525930405E0,1.798644066E0
3.844839171E0,-4.270058632E0,9.549872398E0,1.817797661E0
3.847327036E0,-4.313154221E0,9.573814392E0,1.822586060E0
3.849814900E0,-4.327519417E0,9.616909981E0,1.808220863E0
3.852302765E0,-4.346673012E0,9.669582367E0,1.779490471E0
3.854790629E0,-4.361038208E0,9.703101158E0,1.779490471E0
3.857278494E0,-4.356249809E0,9.717466354E0,1.803432465E0
3.859766359E0,-4.351461411E0,9.741408348E0,1.851316452E0
3.862254223E0,-4.356249809E0,9.722254753E0,1.880046844E0
3.864742088E0,-4.356249809E0,9.727043152E0,1.875258446E0
3.867229952E0,-4.356249809E0,9.717466354E0,1.870470047E0
3.869717817E0,-4.384980202E0,9.698312759E0,1.884835243E0
3.872205681E0,-4.413711071E0,9.698312759E0,1.884835243E0
3.874693546E0,-4.404133797E0,9.674370766E0,1.875258446E0
3.877181411E0,-4.394556999E0,9.664793968E0,1.851316452E0
3.879669275E0,-4.404133797E0,9.660005569E0,1.827374458E0
3.882157140E0,-4.399345398E0,9.660005569E0,1.803432465E0
3.884645004E0,-4.394556999E0,9.626486778E0,1.793855667E0
3.887132869E0,-4.380191803E0,9.607333183E0,1.774701953E0
3.889620734E0,-4.346673012E0,9.597756386E0,1.765125155E0
3.892108598E0,-4.313154221E0,9.592967987E0,1.774701953E0
3.894596463E0,-4.298789024E0,9.588179588E0,1.789067268E0
3.897084327E0,-4.270058632E0,9.564237595E0,1.784278870E0
3.899572192E0,-4.212597847E0,9.545084000E0,1.745971560E0
3.902060056E0,-4.169502258E0,9.525930405E0,1.702875972E0
3.904547921E0,-4.107253075E0,9.501988411E0,1.688510776E0
3.907035786E0,-4.040215492E0,9.478046417E0,1.683722377E0
3.909523650E0,-3.977966070E0,9.458892822E0,1.664568782E0
3.912011515E0,-3.901351690E0,9.434949875E0,1.640626669E0
3.914499379E0,-3.848679304E0,9.411007881E0,1.592742682E0
3.916987244E0,-3.805583715E0,9.377489090E0,1.554435492E0
3.919475109E0,-3.757699490E0,9.348758698E0,1.496974587E0
3.921962973E0,-3.709815502E0,9.320028305E0,1.449090600E0
3.924450838E0,-3.700238705E0,9.305663109E0,1.444302201E0
3.926938702E0,-3.690661907E0,9.286509514E0,1.425148606E0
3.929426567E0,-3.700238705E0,9.252990723E0,1.382052898E0
3.931914431E0,-3.728969097E0,9.248202324E0,1.372476101E0
3.934402296E0,-3.724180698E0,9.238625526E0,1.386841297E0
3.936890161E0,-3.700238705E0,9.243413925E0,1.401206493E0
3.939378025E0,-3.676296711E0,9.224260330E0,1.405994892E0
3.941865890E0,-3.661931515E0,9.224260330E0,1.410783410E0
3.944353754E0,-3.628412724E0,9.229048729E0,1.372476101E0
3.946841619E0,-3.575740337E0,9.229048729E0,1.367687702E0
3.949329484E0,-3.542221308E0,9.209895134E0,1.367687702E0
3.951817348E0,-3.523067713E0,9.209895134E0,1.372476101E0
3.954305213E0,-3.523067713E0,9.214683533E0,1.382052898E0
3.956793077E0,-3.532644510E0,9.205106735E0,1.372476101E0
3.959280942E0,-3.537432909E0,9.195529938E0,1.377264500E0
3.961768806E0,-3.537432909E0,9.181164742E0,1.401206493E0
3.964256671E0,-3.532644510E0,9.157222748E0,1.420360208E0
3.966744536E0,-3.537432909E0,9.142857552E0,1.429937005E0
3.969232400E0,-3.547009706E0,9.152434349E0,1.420360208E0
3.971720265E0,-3.542221308E0,9.147645950E0,1.439513803E0
3.974208129E0,-3.570951939E0,9.142857552E0,1.453878999E0
3.976695994E0,-3.604470730E0,9.147645950E0,1.487397790E0
3.979183859E0,-3.628412724E0,9.138069153E0,1.511339784E0
3.981671723E0,-3.657143116E0,9.138069153E0,1.564012289E0
3.984159588E0,-3.690661907E0,9.152434349E0,1.597531080E0
3.986647452E0,-3.700238705E0,9.162011147E0,1.607107878E0
3.989135317E0,-3.700238705E0,9.166799545E0,1.635838270E0
3.991623181E0,-3.690661907E0,9.162011147E0,1.654991984E0
3.994111046E0,-3.661931515E0,9.157222748E0,1.674145579E0
3.996598911E0,-3.637989521E0,9.133280754E0,1.678933978E0
3.999086775E0,-3.599682331E0,9.128492355E0,1.693299174E0
4.001574640E0,-3.566163540E0,9.118915558E0,1.678933978E0
4.004062504E0,-3.547009706E0,9.128492355E0,1.659780383E0
4.006550369E0,-3.513490915E0,9.109338760E0,1.640626669E0
4.009038234E0,-3.465606928E0,9.104550362E0,1.631049871E0
4.011526098E0,-3.408146143E0,9.090185165E0,1.621473074E0
4.014013963E0,-3.374627352E0,9.094973564E0,1.583165884E0
4.016501827E0,-3.336320162E0,9.094973564E0,1.568800688E0
4.018989692E0,-3.312378168E0,9.099761963E0,1.540070295E0
4.021477556E0,-3.302801132E0,9.133280754E0,1.501762986E0
4.023965421E0,-3.293224335E0,9.166799545E0,1.453878999E0
4.026453286E0,-3.278859138E0,9.171587944E0,1.401206493E0
4.028941150E0,-3.250128746E0,9.185953140E0,1.358110905E0
4.031428963E0,-3.207033157E0,9.190741539E0,1.338957310E0
4.033916775E0,-3.178302765E0,9.162011147E0,1.334168911E0
4.036404588E0,-3.135207176E0,9.142857552E0,1.353322506E0
4.038892400E0,-3.120841980E0,9.123703957E0,1.343745708E0
4.041380213E0,-3.101688385E0,9.109338760E0,1.334168911E0
4.043868025E0,-3.120841980E0,9.090185165E0,1.310226917E0
4.046355838E0,-3.120841980E0,9.071031570E0,1.291073322E0
4.048843650E0,-3.144783974E0,9.075819969E0,1.281496406E0
4.051331463E0,-3.173514366E0,9.061454773E0,1.295861721E0
4.053819275E0,-3.197456360E0,9.056666374E0,1.319803715E0
4.056307088E0,-3.230975151E0,9.056666374E0,1.338957310E0
4.058794900E0,-3.264493942E0,9.051877975E0,1.377264500E0
4.061282713E0,-3.302801132E0,9.047089577E0,1.377264500E0
4.063770525E0,-3.331531763E0,9.047089577E0,1.362899303E0
4.066258338E0,-3.355473757E0,9.032724380E0,1.372476101E0
4.068746150E0,-3.365050554E0,9.023147583E0,1.372476101E0
4.071233963E0,-3.384204149E0,9.032724380E0,1.372476101E0
4.073721775E0,-3.408146143E0,9.023147583E0,1.410783410E0
4.076209588E0,-3.417722940E0,9.027935982E0,1.429937005E0
4.078697400E0,-3.432088137E0,9.018359184E0,1.444302201E0
4.081185213E0,-3.436876535E0,9.023147583E0,1.453878999E0
4.083673025E0,-3.446453333E0,9.047089577E0,1.449090600E0
4.086160838E0,-3.456030130E0,9.056666374E0,1.449090600E0
4.088648650E0,-3.494337320E0,9.066243172E0,1.439513803E0
4.091136463E0,-3.527856112E0,9.061454773E0,1.439513803E0
4.093624275E0,-3.532644510E0,9.066243172E0,1.410783410E0
4.096112088E0,-3.551798105E0,9.047089577E0,1.386841297E0
4.098599900E0,-3.547009706E0,9.042301178E0,1.362899303E0
4.101087713E0,-3.561375141E0,9.042301178E0,1.358110905E0
4.103575525E0,-3.556586742E0,9.023147583E0,1.362899303E0
4.106063390E0,-3.542221308E0,9.027935982E0,1.343745708E0
4.108551254E0,-3.561375141E0,9.023147583E0,1.324592113E0
4.111039119E0,-3.575740337E0,9.027935982E0,1.329380512E0
4.113526984E0,-3.599682331E0,9.027935982E0,1.315015316E0
4.116014848E0,-3.623624325E0,9.023147583E0,1.315015316E0
4.118502713E0,-3.633201122E0,9.008782387E0,1.310226917E0
4.120990577E0,-3.642777920E0,9.013570786E0,1.319803715E0
4.123478442E0,-3.633201122E0,9.018359184E0,1.319803715E0
4.125966306E0,-3.637989521E0,9.008782387E0,1.343745708E0
4.128454171E0,-3.637989521E0,9.008782387E0,1.362899303E0
4.130942036E0,-3.647566319E0,9.003993988E0,1.367687702E0
4.133429900E0,-3.652354717E0,8.994417191E0,1.396418095E0
4.135917765E0,-3.666719913E0,8.989628792E0,1.429937005E0
4.138405629E0,-3.690661907E0,8.975263596E0,1.439513803E0
4.140893494E0,-3.724180698E0,8.946533203E0,1.453878999E0
4.143381359E0,-3.767276287E0,8.946533203E0,1.477820992E0
4.145869223E0,-3.772064686E0,8.951321602E0,1.487397790E0
4.148357088E0,-3.800795317E0,8.936956406E0,1.482609391E0
4.150844952E0,-3.829525709E0,8.965686798E0,1.496974587E0
4.153332817E0,-3.829525709E0,8.960898399E0,1.487397790E0
4.155820681E0,-3.815160513E0,8.960898399E0,1.516128182E0
4.158308546E0,-3.824737310E0,8.936956406E0,1.573589087E0
4.160796411E0,-3.824737310E0,8.932168007E0,1.607107878E0
4.163284275E0,-3.824737310E0,8.917802811E0,1.626261473E0
4.165772140E0,-3.829525709E0,8.913014412E0,1.631049871E0
4.168260004E0,-3.843890905E0,8.922591209E0,1.607107878E0
4.170747869E0,-3.839102507E0,8.922591209E0,1.587954283E0
4.173235734E0,-3.843890905E0,8.927379608E0,1.578377485E0
4.175723598E0,-3.834314108E0,8.932168007E0,1.549647093E0
4.178211463E0,-3.815160513E0,8.956110001E0,1.540070295E0
4.180699327E0,-3.800795317E0,8.965686798E0,1.568800688E0
4.183187192E0,-3.786429882E0,8.960898399E0,1.573589087E0
4.185675056E0,-3.776853085E0,8.960898399E0,1.564012289E0
4.188162921E0,-3.752911091E0,8.951321602E0,1.554435492E0
4.190650786E0,-3.748122692E0,8.975263596E0,1.549647093E0
4.193138650E0,-3.752911091E0,8.980051994E0,1.516128182E0
4.195626515E0,-3.752911091E0,8.965686798E0,1.525704980E0
4.198114379E0,-3.772064686E0,8.960898399E0,1.540070295E0
4.200602244E0,-3.810372114E0,8.970475197E0,1.535281897E0
4.203090109E0,-3.824737310E0,8.970475197E0,1.530493379E0
4.205577973E0,-3.858256102E0,8.960898399E0,1.530493379E0
4.208065838E0,-3.853467703E0,8.965686798E0,1.525704980E0
4.210553702E0,-3.886986494E0,8.960898399E0,1.501762986E0
4.213041567E0,-3.891774893E0,8.946533203E0,1.492186189E0
4.215529431E0,-3.915716887E0,8.927379608E0,1.487397790E0
4.218017296E0,-3.901351690E0,8.927379608E0,1.482609391E0
4.220505161E0,-3.896563292E0,8.913014412E0,1.463455796E0
4.222993025E0,-3.901351690E0,8.908226013E0,1.449090600E0
4.225480890E0,-3.886986494E0,8.893860817E0,1.453878999E0
4.227968754E0,-3.877409697E0,8.874707222E0,1.444302201E0
4.230456619E0,-3.872621298E0,8.874707222E0,1.425148606E0
4.232944484E0,-3.886986494E0,8.898649216E0,1.405994892E0
4.235432348E0,-3.915716887E0,8.903437614E0,1.429937005E0
4.237920213E0,-3.963600874E0,8.908226013E0,1.458667397E0
4.240408077E0,-4.021061897E0,8.917802811E0,1.487397790E0
4.242895942E0,-4.054580688E0,8.932168007E0,1.511339784E0
4.245383806E0,-4.088099480E0,8.951321602E0,1.501762986E0
4.247871671E0,-4.116829872E0,8.965686798E0,1.487397790E0
4.250359536E0,-4.126406670E0,8.975263596E0,1.468244195E0
4.252847400E0,-4.097676277E0,8.989628792E0,1.468244195E0
4.255335265E0,-4.092887878E0,8.999205589E0,1.463455796E0
4.257823129E0,-4.073734283E0,9.008782387E0,1.473032594E0
4.260310994E0,-4.064157486E0,9.018359184E0,1.501762986E0
4.262798859E0,-4.064157486E0,9.027935982E0,1.520916581E0
4.265286723E0,-4.083311081E0,9.047089577E0,1.501762986E0
4.267774588E0,-4.112041473E0,9.047089577E0,1.506551385E0
4.270262452E0,-4.126406670E0,9.051877975E0,1.482609391E0
4.272750317E0,-4.169502258E0,9.027935982E0,1.482609391E0
4.275238181E0,-4.203021049E0,9.013570786E0,1.496974587E0
4.277726046E0,-4.222174644E0,9.013570786E0,1.516128182E0
4.280213911E0,-4.231751442E0,9.008782387E0,1.535281897E0
4.282701775E0,-4.207809448E0,8.994417191E0,1.544858694E0
4.285189640E0,-4.188655853E0,8.984840393E0,1.578377485E0
4.287677504E0,-4.159925461E0,8.994417191E0,1.602319479E0
4.290165369E0,-4.140771866E0,8.980051994E0,1.611896276E0
4.292653234E0,-4.145560265E0,8.975263596E0,1.611896276E0
4.295141098E0,-4.140771866E0,8.960898399E0,1.597531080E0
4.297628963E0,-4.169502258E0,8.941744804E0,1.597531080E0
4.300116827E0,-4.198232651E0,8.927379608E0,1.592742682E0
4.302604692E0,-4.212597847E0,8.922591209E0,1.607107878E0
4.305092556E0,-4.236539841E0,8.927379608E0,1.607107878E0
4.307580421E0,-4.241328239E0,8.932168007E0,1.583165884E0
4.310068286E0,-4.250905037E0,8.946533203E0,1.583165884E0
4.312556150E0,-4.270058632E0,8.960898399E0,1.564012289E0
4.315044015E0,-4.274847031E0,8.951321602E0,1.573589087E0
4.317531879E0,-4.289212227E0,8.951321602E0,1.549647093E0
4.320019744E0,-4.332307816E0,8.946533203E0,1.506551385E0
4.322507609E0,-4.337096214E0,8.956110001E0,1.458667397E0
4.324995473E0,-4.341884613E0,8.965686798E0,1.396418095E0
4.327483338E0,-4.346673012E0,8.960898399E0,1.348534107E0
4.329971202E0,-4.361038208E0,8.965686798E0,1.338957310E0
4.332459067E0,-4.380191803E0,8.989628792E0,1.348534107E0
4.334946931E0,-4.365826607E0,9.008782387E0,1.348534107E0
4.337434796E0,-4.375403404E0,9.027935982E0,1.353322506E0
4.339922661E0,-4.384980202E0,9.051877975E0,1.353322506E0
4.342410525E0,-4.408922195E0,9.071031570E0,1.377264500E0
4.344898390E0,-4.437653065E0,9.094973564E0,1.396418095E0
4.347386254E0,-4.485537052E0,9.109338760E0,1.415571809E0
4.349874119E0,-4.523844242E0,9.114127159E0,1.420360208E0
4.352361984E0,-4.557363033E0,9.123703957E0,1.458667397E0
4.354849848E0,-4.600458622E0,9.133280754E0,1.482609391E0
4.357337713E0,-4.614823818E0,9.142857552E0,1.496974587E0
4.359825577E0,-4.629189014E0,9.171587944E0,1.501762986E0
4.362313442E0,-4.629189014E0,9.176376343E0,1.520916581E0
4.364801306E0,-4.629189014E0,9.190741539E0,1.535281897E0
4.367289171E0,-4.629189014E0,9.195529938E0,1.549647093E0
4.369777036E0,-4.614823818E0,9.209895134E0,1.573589087E0
4.372264900E0,-4.610035419E0,9.195529938E0,1.597531080E0
4.374752765E0,-4.624400616E0,9.190741539E0,1.602319479E0
4.377240629E0,-4.638765812E0,9.171587944E0,1.607107878E0
4.379728494E0,-4.633977413E0,9.162011147E0,1.602319479E0
4.382216359E0,-4.638765812E0,9.162011147E0,1.607107878E0
4.384704223E0,-4.629189014E0,9.162011147E0,1.583165884E0
4.387192088E0,-4.600458622E0,9.142857552E0,1.587954283E0
4.389679952E0,-4.566939831E0,9.142857552E0,1.602319479E0
4.392167817E0,-4.533421040E0,9.133280754E0,1.626261473E0
4.394655681E0,-4.509479046E0,9.123703957E0,1.635838270E0
4.397143546E0,-4.504690647E0,9.123703957E0,1.645415068E0
4.399631411E0,-4.490325451E0,9.142857552E0,1.659780383E0
4.402119275E0,-4.466383457E0,9.133280754E0,1.654991984E0
4.404607140E0,-4.456806660E0,9.138069153E0,1.631049871E0
4.407095004E0,-4.447229862E0,9.138069153E0,1.631049871E0
4.409582869E0,-4.423287868E0,9.152434349E0,1.626261473E0
4.412070734E0,-4.399345398E0,9.162011147E0,1.621473074E0
4.414558598E0,-4.389768600E0,9.166799545E0,1.616684675E0
4.417046463E0,-4.370615005E0,9.185953140E0,1.616684675E0
4.419534327E0,-4.370615005E0,9.190741539E0,1.616684675E0
4.422022192E0,-4.341884613E0,9.200318336E0,1.607107878E0
4.424510004E0,-4.289212227E0,9.195529938E0,1.645415068E0
4.426997817E0,-4.255693436E0,9.185953140E0,1.698087573E0
4.429485629E0,-4.231751442E0,9.185953140E0,1.707664371E0
4.431973442E0,-4.250905037E0,9.171587944E0,1.717241168E0
4.434461254E0,-4.265270233E0,9.166799545E0,1.693299174E0
4.436949067E0,-4.274847031E0,9.152434349E0,1.664568782E0
4.439436879E0,-4.317942619E0,9.138069153E0,1.635838270E0
4.441924692E0,-4.294000626E0,9.118915558E0,1.611896276E0
4.444412504E0,-4.284423828E0,9.094973564E0,1.602319479E0
4.446900317E0,-4.255693436E0,9.051877975E0,1.631049871E0
4.449388129E0,-4.231751442E0,9.018359184E0,1.678933978E0
4.451875942E0,-4.236539841E0,8.989628792E0,1.712452769E0
4.454363754E0,-4.217386246E0,8.970475197E0,1.712452769E0
4.456851567E0,-4.198232651E0,8.941744804E0,1.712452769E0
4.459339379E0,-4.203021049E0,8.913014412E0,1.722029567E0
4.461827192E0,-4.217386246E0,8.898649216E0,1.741183162E0
4.464315004E0,-4.250905037E0,8.855553627E0,1.760336757E0
4.466802817E0,-4.250905037E0,8.845976830E0,1.760336757E0
4.469290629E0,-4.241328239E0,8.841188431E0,1.745971560E0
4.471778442E0,-4.236539841E0,8.855553627E0,1.745971560E0
4.474266254E0,-4.212597847E0,8.845976830E0,1.745971560E0
4.476754067E0,-4.198232651E0,8.845976830E0,1.726817966E0
4.479241879E0,-4.155137062E0,8.836400032E0,1.726817966E0
4.481729692E0,-4.145560265E0,8.836400032E0,1.717241168E0
4.484217504E0,-4.121618271E0,8.817246437E0,1.726817966E0
4.486705317E0,-4.097676277E0,8.793304443E0,1.736394763E0
4.489193129E0,-4.064157486E0,8.783727646E0,1.726817966E0
4.491680942E0,-4.045003891E0,8.778939247E0,1.731606364E0
4.494168754E0,-4.006696701E0,8.759785652E0,1.722029567E0
4.496656567E0,-3.982754469E0,8.759785652E0,1.674145579E0
4.499144379E0,-3.954024076E0,8.759785652E0,1.645415068E0
4.501632244E0,-3.915716887E0,8.750208855E0,1.597531080E0
4.504120109E0,-3.858256102E0,8.731055260E0,1.564012289E0
4.506607973E0,-3.815160513E0,8.740632057E0,1.525704980E0
4.509095838E0,-3.743334293E0,8.735843658E0,1.496974587E0
4.511583702E0,-3.700238705E0,8.726266861E0,1.473032594E0
4.514071567E0,-3.671508312E0,8.716690063E0,1.439513803E0
4.516559431E0,-3.647566319E0,8.707113266E0,1.410783410E0
4.519047296E0,-3.633201122E0,8.683171272E0,1.382052898E0
4.521535161E0,-3.652354717E0,8.668806076E0,1.353322506E0
4.524023025E0,-3.671508312E0,8.659229279E0,1.324592113E0
4.526510890E0,-3.690661907E0,8.630498886E0,1.315015316E0
4.528998754E0,-3.700238705E0,8.616133690E0,1.286284804E0
4.531486619E0,-3.709815502E0,8.596980095E0,1.271919608E0
4.533974484E0,-3.685873508E0,8.582614899E0,1.271919608E0
4.536462348E0,-3.690661907E0,8.549096107E0,1.286284804E0
4.538950213E0,-3.685873508E0,8.515577316E0,1.291073322E0
4.541438077E0,-3.705027103E0,8.491635323E0,1.315015316E0
4.543925942E0,-3.724180698E0,8.453327179E0,1.319803715E0
4.546413806E0,-3.757699490E0,8.410231590E0,1.353322506E0
4.548901671E0,-3.767276287E0,8.371924400E0,1.353322506E0
4.551389536E0,-3.781641483E0,8.347982407E0,1.386841297E0
4.553877400E0,-3.796006680E0,8.314463615E0,1.405994892E0
4.556365265E0,-3.815160513E0,8.290521622E0,1.410783410E0
4.558853129E0,-3.834314108E0,8.257002831E0,1.425148606E0
4.561340994E0,-3.843890905E0,8.209118843E0,1.439513803E0
4.563828859E0,-3.843890905E0,8.189965248E0,1.420360208E0
4.566316723E0,-3.848679304E0,8.151658058E0,1.405994892E0
4.568804588E0,-3.843890905E0,8.113350868E0,1.405994892E0
4.571292452E0,-3.819948912E0,8.079832077E0,1.410783410E0
4.573780317E0,-3.786429882E0,8.046313286E0,1.367687702E0
4.576268181E0,-3.743334293E0,8.012794495E0,1.353322506E0
4.578756046E0,-3.724180698E0,7.998429298E0,1.362899303E0
4.581243911E0,-3.695450306E0,7.969698906E0,1.372476101E0
4.583731775E0,-3.685873508E0,7.921814919E0,1.362899303E0
4.586219640E0,-3.661931515E0,7.902661324E0,1.329380512E0
4.588707504E0,-3.661931515E0,7.869142532E0,1.310226917E0
4.591195369E0,-3.642777920E0,7.835623741E0,1.286284804E0
4.593683234E0,-3.618835926E0,7.816470146E0,1.271919608E0
4.596171098E0,-3.599682331E0,7.754220963E0,1.247977614E0
4.598658963E0,-3.575740337E0,7.701548100E0,1.214458823E0
4.601146827E0,-3.551798105E0,7.653664112E0,1.209670424E0
4.603634692E0,-3.513490915E0,7.605780125E0,1.185728431E0
4.606122556E0,-3.479972124E0,7.548319340E0,1.156997919E0
4.608610421E0,-3.460818529E0,7.500435352E0,1.152209520E0
4.611098286E0,-3.436876535E0,7.428609371E0,1.156997919E0
4.613586150E0,-3.398569345E0,7.371148586E0,1.161786318E0
4.616074015E0,-3.374627352E0,7.299322605E0,1.171363235E0
4.618561879E0,-3.345896959E0,7.227496147E0,1.204882026E0
4.621049744E0,-3.321954966E0,7.150881767E0,1.200093627E0
4.623537609E0,-3.317166567E0,7.074267387E0,1.200093627E0
4.626025473E0,-3.312378168E0,6.983287811E0,1.209670424E0
4.628513338E0,-3.317166567E0,6.901885033E0,1.185728431E0
4.631001202E0,-3.302801132E0,6.825270653E0,1.147421122E0
4.633489067E0,-3.288435936E0,6.748656273E0,1.123479128E0
4.635976931E0,-3.230975151E0,6.672041416E0,1.104325533E0
4.638464796E0,-3.192667961E0,6.609792233E0,1.070806742E0
4.640952661E0,-3.135207176E0,6.518812656E0,1.061229944E0
4.643440525E0,-3.063380957E0,6.456563473E0,1.051653147E0
4.645928390E0,-2.981978178E0,6.375160694E0,1.085171938E0
4.648416254E0,-2.910152197E0,6.293757915E0,1.109113932E0
4.650904119E0,-2.890998602E0,6.241085052E0,1.109113932E0
4.653391984E0,-2.871845007E0,6.183624268E0,1.099537134E0
4.655879848E0,-2.852691412E0,6.121375084E0,1.080383539E0
4.658367713E0,-2.857479811E0,6.059125900E0,1.104325533E0
4.660855577E0,-2.838326216E0,6.016030312E0,1.128267527E0
4.663343442E0,-2.814383984E0,5.972934723E0,1.113902330E0
4.665831306E0,-2.795230389E0,5.939415932E0,1.046864748E0
4.668319171E0,-2.737769604E0,5.929839134E0,9.846154451E-1
4.670807036E0,-2.689885616E0,5.896320343E0,9.127894044E-1
4.673294900E0,-2.651578426E0,5.858013153E0,8.649053574E-1
4.675782765E0,-2.637213230E0,5.810129166E0,8.601169586E-1
4.678270629E0,-2.627636433E0,5.776610374E0,8.026561141E-1
4.680758494E0,-2.618059635E0,5.752667904E0,7.739257216E-1
4.683246359E0,-2.608482838E0,5.723937511E0,7.595604658E-1
4.685734223E0,-2.589329243E0,5.704783916E0,7.164648771E-1
4.688222088E0,-2.589329243E0,5.723937511E0,6.733692288E-1
4.690709952E0,-2.570175409E0,5.752667904E0,6.302735806E-1
4.693197817E0,-2.570175409E0,5.786187172E0,6.159083843E-1
4.695685681E0,-2.622848034E0,5.786187172E0,6.398503780E-1
4.698173546E0,-2.718616009E0,5.805340767E0,6.733692288E-1
4.700661411E0,-2.814383984E0,5.838859558E0,7.068880796E-1
4.703149275E0,-2.914940596E0,5.843647957E0,7.451952696E-1
4.705637140E0,-3.015496969E0,5.848436356E0,7.978677154E-1
4.708125004E0,-3.101688385E0,5.862801552E0,8.696937561E-1
4.710612869E0,-3.187879562E0,5.862801552E0,9.223662019E-1
4.713100734E0,-3.250128746E0,5.881955147E0,1.013345838E0
4.715588598E0,-3.293224335E0,5.901108742E0,1.094748735E0
4.718076463E0,-3.345896959E0,5.948992729E0,1.161786318E0
4.720564327E0,-3.388992548E0,5.958569527E0,1.224035621E0
4.723052192E0,-3.441664934E0,5.982511520E0,1.271919608E0
4.725540056E0,-3.523067713E0,6.001665115E0,1.310226917E0
4.728027921E0,-3.594893932E0,6.020818710E0,1.338957310E0
4.730515786E0,-3.685873508E0,6.054337502E0,1.382052898E0
4.733003650E0,-3.781641483E0,6.107009888E0,1.391629696E0
4.735491515E0,-3.853467703E0,6.154893875E0,1.410783410E0
4.737979379E0,-3.886986494E0,6.226719856E0,1.458667397E0
4.740467244E0,-3.920505285E0,6.255450726E0,1.501762986E0
4.742955109E0,-3.944447279E0,6.298546314E0,1.559223890E0
4.745442973E0,-3.954024076E0,6.370372295E0,1.602319479E0
4.747930838E0,-3.977966070E0,6.418256283E0,1.626261473E0
4.750418702E0,-3.977966070E0,6.480505466E0,1.659780383E0
4.752906567E0,-3.997119665E0,6.533177853E0,1.650203466E0
4.755394431E0,-4.011485100E0,6.590638638E0,1.626261473E0
4.757882296E0,-4.030638695E0,6.657676220E0,1.568800688E0
4.760370161E0,-4.040215492E0,6.705560207E0,1.511339784E0
4.762858025E0,-4.064157486E0,6.753444672E0,1.468244195E0
4.765345890E0,-4.049792290E0,6.786963463E0,1.453878999E0
4.767833754E0,-4.040215492E0,6.854001045E0,1.401206493E0
4.770321619E0,-4.016273499E0,6.906673431E0,1.386841297E0
4.772809484E0,-3.977966070E0,6.935403824E0,1.391629696E0
4.775297348E0,-3.954024076E0,6.978499413E0,1.396418095E0
4.777785213E0,-3.906140089E0,7.040748596E0,1.420360208E0
4.780273077E0,-3.886986494E0,7.107786179E0,1.439513803E0
4.782760890E0,-3.877409697E0,7.198765755E0,1.439513803E0
4.785248702E0,-3.896563292E0,7.270592213E0,1.473032594E0
4.787736515E0,-3.891774893E0,7.351994991E0,1.516128182E0
4.790224327E0,-3.925293684E0,7.447762966E0,1.516128182E0
4.792712140E0,-3.939658880E0,7.548319340E0,1.540070295E0
4.795199952E0,-3.944447279E0,7.658452511E0,1.568800688E0
4.797687765E0,-3.930082083E0,7.744644165E0,1.564012289E0
4.800175577E0,-3.910928488E0,7.821258545E0,1.592742682E0
4.802663390E0,-3.886986494E0,7.893084526E0,1.611896276E0
4.805151202E0,-3.882198095E0,7.979275703E0,1.626261473E0
4.807639015E0,-3.872621298E0,8.031948090E0,1.602319479E0
4.810126827E0,-3.896563292E0,8.070255280E0,1.564012289E0
4.812614640E0,-3.949235678E0,8.079832077E0,1.516128182E0
4.815102452E0,-4.016273499E0,8.075043678E0,1.492186189E0
4.817590265E0,-4.092887878E0,8.075043678E0,1.458667397E0
4.820078077E0,-4.183867455E0,8.070255280E0,1.415571809E0
4.822565890E0,-4.217386246E0,8.084620476E0,1.396418095E0
4.825053702E0,-4.231751442E0,8.098985672E0,1.386841297E0
4.827541515E0,-4.217386246E0,8.075043678E0,1.396418095E0
4.830029327E0,-4.198232651E0,8.079832077E0,1.429937005E0
4.832517140E0,-4.203021049E0,8.098985672E0,1.444302201E0
4.835004952E0,-4.198232651E0,8.118139267E0,1.420360208E0
4.837492765E0,-4.212597847E0,8.132504463E0,1.386841297E0
4.839980577E0,-4.241328239E0,8.146869659E0,1.382052898E0
4.842468390E0,-4.289212227E0,8.161234856E0,1.358110905E0
4.844956202E0,-4.308365822E0,8.185176849E0,1.319803715E0
4.847444015E0,-4.308365822E0,8.180388451E0,1.291073322E0
4.849931827E0,-4.289212227E0,8.213907242E0,1.262342811E0
4.852419640E0,-4.246116638E0,8.237849236E0,1.224035621E0
4.854907452E0,-4.203021049E0,8.247426033E0,1.176151633E0
4.857395265E0,-4.145560265E0,8.266579628E0,1.180940032E0
4.859883077E0,-4.121618271E0,8.295310020E0,1.204882026E0
4.862370942E0,-4.112041473E0,8.338405609E0,1.200093627E0
4.864858806E0,-4.131195068E0,8.376712799E0,1.200093627E0
4.867346671E0,-4.188655853E0,8.415019989E0,1.180940032E0
4.869834536E0,-4.222174644E0,8.453327179E0,1.195305228E0
4.872322400E0,-4.274847031E0,8.510788918E0,1.195305228E0
4.874810265E0,-4.308365822E0,8.577826500E0,1.180940032E0
4.877298129E0,-4.308365822E0,8.630498886E0,1.180940032E0
4.879785994E0,-4.303577423E0,8.654440880E0,1.180940032E0
4.882273859E0,-4.289212227E0,8.687959671E0,1.190516829E0
4.884761723E0,-4.274847031E0,8.726266861E0,1.185728431E0
4.887249588E0,-4.226963043E0,8.745420456E0,1.171363235E0
4.889737452E0,-4.188655853E0,8.764574051E0,1.171363235E0
4.892225317E0,-4.198232651E0,8.788516045E0,1.166574836E0
4.894713181E0,-4.212597847E0,8.788516045E0,1.171363235E0
4.897201046E0,-4.241328239E0,8.807669640E0,1.161786318E0
4.899688911E0,-4.260481834E0,8.822034836E0,1.185728431E0
4.902176775E0,-4.279635429E0,8.826823235E0,1.233612418E0
4.904664640E0,-4.313154221E0,8.850765228E0,1.305438519E0
4.907152504E0,-4.361038208E0,8.884284019E0,1.367687702E0
4.909640369E0,-4.399345398E0,8.936956406E0,1.382052898E0
4.912128234E0,-4.442441463E0,8.980051994E0,1.391629696E0
4.914616098E0,-4.466383457E0,9.051877975E0,1.420360208E0
4.917103963E0,-4.461595058E0,9.118915558E0,1.420360208E0
4.919591827E0,-4.432864666E0,9.147645950E0,1.468244195E0
4.922079692E0,-4.408922195E0,9.157222748E0,1.506551385E0
4.924567556E0,-4.380191803E0,9.185953140E0,1.525704980E0
4.927055421E0,-4.361038208E0,9.181164742E0,1.535281897E0
4.929543286E0,-4.365826607E0,9.171587944E0,1.587954283E0
4.932031150E0,-4.375403404E0,9.157222748E0,1.645415068E0
4.934519015E0,-4.394556999E0,9.152434349E0,1.698087573E0
4.937006879E0,-4.418499470E0,9.142857552E0,1.702875972E0
4.939494744E0,-4.418499470E0,9.152434349E0,1.717241168E0
4.941982609E0,-4.399345398E0,9.152434349E0,1.765125155E0
4.944470473E0,-4.375403404E0,9.157222748E0,1.827374458E0
4.946958338E0,-4.370615005E0,9.176376343E0,1.908777356E0
4.949446202E0,-4.375403404E0,9.185953140E0,1.961449742E0
4.951934067E0,-4.375403404E0,9.185953140E0,1.975814939E0
4.954421931E0,-4.351461411E0,9.195529938E0,1.980603337E0
4.956909796E0,-4.313154221E0,9.185953140E0,1.990180135E0
4.959397661E0,-4.279635429E0,9.176376343E0,1.980603337E0
4.961885525E0,-4.236539841E0,9.147645950E0,2.014122248E0
4.964373390E0,-4.183867455E0,9.104550362E0,2.071583033E0
4.966861254E0,-4.131195068E0,9.071031570E0,2.133832216E0
4.969349119E0,-4.112041473E0,9.047089577E0,2.220023632E0
4.971836984E0,-4.092887878E0,9.023147583E0,2.296638012E0
4.974324848E0,-4.068945885E0,9.018359184E0,2.330156803E0
4.976812713E0,-4.083311081E0,9.003993988E0,2.354098797E0
4.979300577E0,-4.092887878E0,8.989628792E0,2.339733601E0
4.981788442E0,-4.112041473E0,8.989628792E0,2.334945202E0
4.984276306E0,-4.135983467E0,8.980051994E0,2.339733601E0
4.986764171E0,-4.174290657E0,8.960898399E0,2.330156803E0
4.989252036E0,-4.198232651E0,8.922591209E0,2.358887196E0
4.991739900E0,-4.217386246E0,8.903437614E0,2.392405987E0
4.994227765E0,-4.217386246E0,8.903437614E0,2.435501575E0
4.996715629E0,-4.198232651E0,8.889072418E0,2.473809004E0
4.999203494E0,-4.155137062E0,8.860342026E0,2.497750998E0
5.001691359E0,-4.078522682E0,8.831611633E0,2.540846586E0
5.004179223E0,-4.049792290E0,8.788516045E0,2.593518972E0
5.006667088E0,-4.035427094E0,8.774150848E0,2.603095770E0
5.009154952E0,-4.025850296E0,8.774150848E0,2.579153776E0
5.011642817E0,-4.025850296E0,8.769362450E0,2.540846586E0
5.014130681E0,-3.997119665E0,8.750208855E0,2.507327795E0
5.016618546E0,-3.982754469E0,8.731055260E0,2.483385801E0
5.019106411E0,-3.954024076E0,8.740632057E0,2.464232206E0
5.021594275E0,-3.930082083E0,8.711901665E0,2.449866772E0
5.024082140E0,-3.910928488E0,8.687959671E0,2.435501575E0
5.026570004E0,-3.896563292E0,8.625710487E0,2.425924778E0
5.029057869E0,-3.891774893E0,8.582614899E0,2.382829189E0
5.031545734E0,-3.872621298E0,8.539519310E0,2.368463993E0
5.034033598E0,-3.843890905E0,8.515577316E0,2.382829189E0
5.036521463E0,-3.810372114E0,8.477270126E0,2.387617588E0
5.039009327E0,-3.791218281E0,8.443750381E0,2.401982784E0
5.041497192E0,-3.757699490E0,8.434173584E0,2.397194386E0
5.043985056E0,-3.709815502E0,8.429385185E0,2.378040791E0
5.046472921E0,-3.700238705E0,8.410231590E0,2.349310398E0
5.048960786E0,-3.685873508E0,8.386289597E0,2.325368404E0
5.051448650E0,-3.676296711E0,8.367136002E0,2.311003208E0
5.053936515E0,-3.700238705E0,8.343194008E0,2.344521999E0
5.056424379E0,-3.743334293E0,8.338405609E0,2.368463993E0
5.058912244E0,-3.796006680E0,8.347982407E0,2.378040791E0
5.061400109E0,-3.877409697E0,8.352770805E0,2.416347980E0
5.063887973E0,-3.934870481E0,8.352770805E0,2.459443808E0
5.066375838E0,-4.001908302E0,8.352770805E0,2.488174200E0
5.068863702E0,-4.054580688E0,8.338405609E0,2.521692991E0
5.071351567E0,-4.102464676E0,8.319252014E0,2.536058187E0
5.073839431E0,-4.121618271E0,8.271368027E0,2.531269789E0
5.076327296E0,-4.150348663E0,8.233060837E0,2.521692991E0
5.078815161E0,-4.193444252E0,8.194753647E0,2.469020605E0
5.081303025E0,-4.274847031E0,8.185176849E0,2.406771183E0
5.083790890E0,-4.337096214E0,8.185176849E0,2.344521999E0
5.086278754E0,-4.389768600E0,8.194753647E0,2.330156803E0
5.088766619E0,-4.408922195E0,8.209118843E0,2.320580006E0
5.091254484E0,-4.437653065E0,8.228272438E0,2.325368404E0
5.093742348E0,-4.461595058E0,8.237849236E0,2.354098797E0
5.096230213E0,-4.466383457E0,8.261791229E0,2.392405987E0
5.098718077E0,-4.480748653E0,8.304886818E0,2.411559582E0
5.101205942E0,-4.509479046E0,8.324040413E0,2.416347980E0
5.103693806E0,-4.557363033E0,8.328828812E0,2.411559582E0
5.106181671E0,-4.586093426E0,8.362347603E0,2.397194386E0
5.108669536E0,-4.633977413E0,8.381501198E0,2.373252392E0
5.111157400E0,-4.633977413E0,8.419808388E0,2.339733601E0
5.113645265E0,-4.648342609E0,8.438961983E0,2.287061214E0
5.116133129E0,-4.619612217E0,8.458115578E0,2.267907619E0
5.118620994E0,-4.605247021E0,8.462904930E0,2.239177227E0
5.121108859E0,-4.576516628E0,8.458115578E0,2.200869799E0
5.123596723E0,-4.542997837E0,8.477270126E0,2.172139406E0
5.126084588E0,-4.509479046E0,8.482058525E0,2.152985811E0
5.128572452E0,-4.485537052E0,8.477270126E0,2.162562609E0
5.131060317E0,-4.495113850E0,8.491635323E0,2.186504602E0
5.133548181E0,-4.552574635E0,8.510788918E0,2.220023632E0
5.136035994E0,-4.590881824E0,8.544307709E0,2.186504602E0
5.138523806E0,-4.633977413E0,8.573038101E0,2.167351007E0
5.141011619E0,-4.662707806E0,8.587403297E0,2.200869799E0
5.143499431E0,-4.667496204E0,8.573038101E0,2.253542423E0
5.145987244E0,-4.691438198E0,8.573038101E0,2.287061214E0
5.148475056E0,-4.739322186E0,8.577826500E0,2.267907619E0
5.150962869E0,-4.791994572E0,8.553884506E0,2.287061214E0
5.153450681E0,-4.892550945E0,8.525154114E0,2.339733601E0
5.155938494E0,-4.988319397E0,8.525154114E0,2.387617588E0
5.158426306E0,-5.084087372E0,8.534730911E0,2.421136379E0
5.160914119E0,-5.199008942E0,8.539519310E0,2.473809004E0
5.163401931E0,-5.270834923E0,8.534730911E0,2.555211782E0
5.165889744E0,-5.352237701E0,8.558672905E0,2.631826162E0
5.168377556E0,-5.414487362E0,8.587403297E0,2.689286947E0
5.170865369E0,-5.462371349E0,8.596980095E0,2.732382774E0
5.173353181E0,-5.481524944E0,8.625710487E0,2.775478363E0
5.175840994E0,-5.500678539E0,8.635287285E0,2.799420357E0
5.178328806E0,-5.515043736E0,8.649652481E0,2.775478363E0
5.180816619E0,-5.529408932E0,8.678382874E0,2.746747971E0
5.183304431E0,-5.515043736E0,8.702324867E0,2.713229179E0
5.185792244E0,-5.491101742E0,8.721478462E0,2.670133352E0
5.188280056E0,-5.471948147E0,8.745420456E0,2.627037764E0
5.190767869E0,-5.433640957E0,8.759785652E0,2.622249365E0
5.193255681E0,-5.424064159E0,8.778939247E0,2.631826162E0
5.195743494E0,-5.419275761E0,8.812458038E0,2.622249365E0
5.198231306E0,-5.385756493E0,8.845976830E0,2.631826162E0
5.200719119E0,-5.309142113E0,8.850765228E0,2.636614561E0
5.203206931E0,-5.242104530E0,8.850765228E0,2.612672567E0
5.205694744E0,-5.199008942E0,8.826823235E0,2.607884169E0
5.208182556E0,-5.160701752E0,8.812458038E0,2.603095770E0
5.210670369E0,-5.141548157E0,8.807669640E0,2.612672567E0
5.213158181E0,-5.131971359E0,8.831611633E0,2.564788580E0
5.215646046E0,-5.122394562E0,8.860342026E0,2.521692991E0
5.218133911E0,-5.098452568E0,8.893860817E0,2.536058187E0
5.220621775E0,-5.069722176E0,8.960898399E0,2.507327795E0
5.223109640E0,-5.026626587E0,8.984840393E0,2.478597403E0
