"Time (s)","Gyroscope x (rad/s)","Gyroscope y (rad/s)","Gyroscope z (rad/s)"
8.063495200E-2,5.459476262E-2,1.756353378E-1,7.084003091E-2
8.316234800E-2,5.672528967E-2,1.756353378E-1,7.510108501E-2
8.568000400E-2,5.885581672E-2,1.745700836E-1,7.936213911E-2
8.816786900E-2,6.205160543E-2,1.735048145E-1,8.362319320E-2
9.065573400E-2,6.631266326E-2,1.713742912E-1,8.788424730E-2
9.314359800E-2,7.163897902E-2,1.681784987E-1,9.108003974E-2
9.563146300E-2,7.696529478E-2,1.660479754E-1,9.427583218E-2
9.811932700E-2,8.229161799E-2,1.639174372E-1,9.747162461E-2
1.006071920E-1,8.761793375E-2,1.607216448E-1,1.006674170E-1
1.030950560E-1,9.294424951E-2,1.553953290E-1,1.027979404E-1
1.055829210E-1,9.614004195E-2,1.468732208E-1,1.038632020E-1
1.080707860E-1,1.004010960E-1,1.372858584E-1,1.038632020E-1
1.105586500E-1,1.046621501E-1,1.255679578E-1,1.027979404E-1
1.130465150E-1,1.099884734E-1,1.149153188E-1,1.006674170E-1
1.155343790E-1,1.153147891E-1,1.031974182E-1,9.853688627E-2
1.180222440E-1,1.217063740E-1,9.254477918E-2,9.534109384E-2
1.205101090E-1,1.259674281E-1,8.189214021E-2,9.427583218E-2
1.229979730E-1,1.302284747E-1,7.443529367E-2,9.321057051E-2
1.254858380E-1,1.344895363E-1,7.123950869E-2,9.214530140E-2
1.279737020E-1,1.387505829E-1,7.123950869E-2,9.108003974E-2
1.304615670E-1,1.419463754E-1,7.443529367E-2,9.108003974E-2
1.329494310E-1,1.430116445E-1,8.082687855E-2,9.001477808E-2
1.354372960E-1,1.440769136E-1,8.828372508E-2,9.108003974E-2
1.379251610E-1,1.462074369E-1,9.680583328E-2,9.214530140E-2
1.404130250E-1,1.472726911E-1,1.063932031E-1,9.321057051E-2
1.429008900E-1,1.483379602E-1,1.149153188E-1,9.534109384E-2
1.453887540E-1,1.494032294E-1,1.223721579E-1,9.960214794E-2
1.478766190E-1,1.504684836E-1,1.298290044E-1,1.027979404E-1
1.503644840E-1,1.504684836E-1,1.351553202E-1,1.081242561E-1
1.528523480E-1,1.494032294E-1,1.383511126E-1,1.123853177E-1
1.553401610E-1,1.462074369E-1,1.394163817E-1,1.177116334E-1
1.578279730E-1,1.440769136E-1,1.394163817E-1,1.198421568E-1
1.603157860E-1,1.430116445E-1,1.362205893E-1,1.187768951E-1
1.628035980E-1,1.483379602E-1,1.319595277E-1,1.155811027E-1
1.652914110E-1,1.547295451E-1,1.276984811E-1,1.102547869E-1
1.677792230E-1,1.632516533E-1,1.234374270E-1,1.049284711E-1
1.702670360E-1,1.717737615E-1,1.213068962E-1,9.960214794E-2
1.727548480E-1,1.771000773E-1,1.234374270E-1,9.640636295E-2
1.752426610E-1,1.802958697E-1,1.298290044E-1,9.640636295E-2
1.777304730E-1,1.802958697E-1,1.394163817E-1,9.853688627E-2
1.802182860E-1,1.760348231E-1,1.500690132E-1,1.017326787E-1
1.827060980E-1,1.696432382E-1,1.564605981E-1,1.049284711E-1
1.851939110E-1,1.632516533E-1,1.596563905E-1,1.070589945E-1
1.876817230E-1,1.589905918E-1,1.564605981E-1,1.059937328E-1
1.901695360E-1,1.557948142E-1,1.468732208E-1,1.027979404E-1
1.926573480E-1,1.536642760E-1,1.308942735E-1,9.640636295E-2
1.951451610E-1,1.536642760E-1,1.117195264E-1,8.894951642E-2
1.976329730E-1,1.547295451E-1,8.828372508E-2,8.149266988E-2
2.001207860E-1,1.547295451E-1,6.484792382E-2,7.403582335E-2
2.026085980E-1,1.557948142E-1,4.354264960E-2,6.764423847E-2
2.050964110E-1,1.579253376E-1,2.436790615E-2,6.231792271E-2
2.075842230E-1,1.589905918E-1,9.454214945E-3,5.699160323E-2
2.100720360E-1,1.589905918E-1,-2.263685223E-3,5.379581451E-2
2.125598480E-1,1.579253376E-1,-8.655266836E-3,5.060002208E-2
2.150476610E-1,1.568600684E-1,-1.078579482E-2,4.846949503E-2
2.175355250E-1,1.536642760E-1,-8.655266836E-3,4.633896798E-2
2.200233900E-1,1.504684836E-1,-3.328948980E-3,4.527370632E-2
2.225112540E-1,1.472726911E-1,4.127896391E-3,4.420844093E-2
2.249991190E-1,1.430116445E-1,1.371526904E-2,4.420844093E-2
2.274869840E-1,1.398158520E-1,2.436790615E-2,4.527370632E-2
2.299748480E-1,1.366200596E-1,3.395527974E-2,4.740423337E-2
2.324627130E-1,1.323590130E-1,4.354264960E-2,4.846949503E-2
2.349505770E-1,1.280979514E-1,5.206476152E-2,5.060002208E-2
2.374384420E-1,1.227716357E-1,5.952160433E-2,5.273054913E-2
2.399263060E-1,1.174453199E-1,6.697845459E-2,5.486107618E-2
2.424141710E-1,1.121189967E-1,7.337003201E-2,5.699160323E-2
2.449020360E-1,1.067926809E-1,7.869634777E-2,5.699160323E-2
2.473899000E-1,1.004010960E-1,8.295740932E-2,5.805686861E-2
2.498777650E-1,9.400951862E-2,8.721846342E-2,5.805686861E-2
2.523656290E-1,8.655267209E-2,9.041424841E-2,5.805686861E-2
2.548534940E-1,7.909582555E-2,9.361004084E-2,5.699160323E-2
2.573413590E-1,7.163897902E-2,9.467530251E-2,5.379581451E-2
2.598292230E-1,6.311687082E-2,9.467530251E-2,5.166528746E-2
2.623170880E-1,5.459476262E-2,9.254477918E-2,4.953476042E-2
2.648049520E-1,4.820318148E-2,9.041424841E-2,4.527370632E-2
2.672928170E-1,3.968106955E-2,8.615319431E-2,4.207791388E-2
2.697806810E-1,3.222422674E-2,8.189214021E-2,3.675159439E-2
2.722685460E-1,2.583264373E-2,7.656582445E-2,3.249054030E-2
2.747564110E-1,1.837579720E-2,7.017423958E-2,2.822948620E-2
2.772442750E-1,9.853689000E-3,6.271740049E-2,2.290316857E-2
2.797321400E-1,2.396843163E-3,5.419528857E-2,1.757685095E-2
2.822200040E-1,-6.125265732E-3,4.567318037E-2,1.225053146E-2
2.847078690E-1,-1.358211134E-2,3.502054140E-2,6.924213842E-3
2.871957340E-1,-2.103895694E-2,2.543316968E-2,5.326318205E-4
2.896835980E-1,-2.849580161E-2,1.478053257E-2,-4.793686327E-3
2.921714630E-1,-3.488738462E-2,4.127896391E-3,-1.012000442E-2
2.946593270E-1,-4.234423116E-2,-7.590003312E-3,-1.651158556E-2
2.971471920E-1,-4.873581231E-2,-1.824264042E-2,-2.183790505E-2
2.996350560E-1,-5.406212807E-2,-2.783001214E-2,-2.822948620E-2
3.021229210E-1,-6.045371294E-2,-3.741738573E-2,-3.355580568E-2
3.046107860E-1,-6.578002870E-2,-4.380896688E-2,-3.888212144E-2
3.070986500E-1,-7.110634446E-2,-4.807002097E-2,-4.207791388E-2
3.095865150E-1,-7.749792933E-2,-5.126581341E-2,-4.527370632E-2
3.120743790E-1,-8.495477587E-2,-5.233107507E-2,-4.740423337E-2
3.145622440E-1,-9.134636074E-2,-5.126581341E-2,-4.846949503E-2
3.170501090E-1,-9.773793817E-2,-4.807002097E-2,-4.953476042E-2
3.195379730E-1,-1.051947847E-1,-4.487423226E-2,-5.060002208E-2
3.220258380E-1,-1.105211005E-1,-4.061317816E-2,-5.166528746E-2
3.245137020E-1,-1.169126853E-1,-3.635212034E-2,-5.166528746E-2
3.270015670E-1,-1.222390011E-1,-3.102580272E-2,-5.273054913E-2
3.294894310E-1,-1.275653243E-1,-2.783001214E-2,-5.379581451E-2
3.319772960E-1,-1.328916401E-1,-2.356895804E-2,-5.592634156E-2
3.344651610E-1,-1.360874325E-1,-2.037316747E-2,-5.699160323E-2
3.369530250E-1,-1.392832249E-1,-1.717737690E-2,-6.018739566E-2
3.394408900E-1,-1.435442716E-1,-1.398158539E-2,-6.231792271E-2
3.419287540E-1,-1.467400640E-1,-1.291632187E-2,-6.551371515E-2
3.444166190E-1,-1.499358565E-1,-1.078579482E-2,-6.764423847E-2
3.469044840E-1,-1.531316489E-1,-8.655266836E-3,-6.977476925E-2
3.493923480E-1,-1.573926955E-1,-8.655266836E-3,-7.190529257E-2
3.518802130E-1,-1.605884880E-1,-8.655266836E-3,-7.297056168E-2
3.543680770E-1,-1.648495495E-1,-8.655266836E-3,-7.510108501E-2
3.568559420E-1,-1.669800729E-1,-1.078579482E-2,-7.723161578E-2
3.593438060E-1,-1.701758653E-1,-1.185105834E-2,-7.936213911E-2
3.618316710E-1,-1.712411344E-1,-1.291632187E-2,-8.149266988E-2
3.643195360E-1,-1.723063886E-1,-1.504684892E-2,-8.362319320E-2
3.668074000E-1,-1.733716577E-1,-1.824264042E-2,-8.681898564E-2
3.692952650E-1,-1.744369268E-1,-2.037316747E-2,-8.894951642E-2
3.717831290E-1,-1.744369268E-1,-2.463422157E-2,-9.214530140E-2
3.742709940E-1,-1.765674502E-1,-2.783001214E-2,-9.427583218E-2
3.767588590E-1,-1.765674502E-1,-3.209106624E-2,-9.640636295E-2
3.792467230E-1,-1.765674502E-1,-3.528685868E-2,-9.853688627E-2
3.817345880E-1,-1.765674502E-1,-4.061317816E-2,-1.006674170E-1
3.842224520E-1,-1.755021811E-1,-4.593949392E-2,-1.027979404E-1
3.867103170E-1,-1.744369268E-1,-5.020054802E-2,-1.049284711E-1
3.891981810E-1,-1.723063886E-1,-5.552686751E-2,-1.059937328E-1
3.916860460E-1,-1.712411344E-1,-5.978792161E-2,-1.070589945E-1
3.941739110E-1,-1.701758653E-1,-6.298371404E-2,-1.070589945E-1
3.966617750E-1,-1.680453420E-1,-6.404897571E-2,-1.070589945E-1
3.991496400E-1,-1.669800729E-1,-6.404897571E-2,-1.070589945E-1
4.016375040E-1,-1.659148186E-1,-6.404897571E-2,-1.049284711E-1
4.041253690E-1,-1.648495495E-1,-6.191844866E-2,-1.027979404E-1
4.066132340E-1,-1.627190262E-1,-5.978792161E-2,-9.960214794E-2
4.091010980E-1,-1.616537571E-1,-5.659212917E-2,-9.747162461E-2
4.115889630E-1,-1.605884880E-1,-5.339634046E-2,-9.427583218E-2
4.140768270E-1,-1.595232338E-1,-4.913528636E-2,-9.108003974E-2
4.165646920E-1,-1.573926955E-1,-4.380896688E-2,-8.788424730E-2
4.190525560E-1,-1.563274413E-1,-3.848264739E-2,-8.575372398E-2
4.215404210E-1,-1.552621722E-1,-3.209106624E-2,-8.255793154E-2
4.240282860E-1,-1.552621722E-1,-2.569948509E-2,-8.042740822E-2
4.265161500E-1,-1.541969180E-1,-1.824264042E-2,-8.042740822E-2
4.290040150E-1,-1.531316489E-1,-1.078579482E-2,-7.936213911E-2
4.314918790E-1,-1.520663798E-1,-4.394212738E-3,-7.936213911E-2
4.339797440E-1,-1.510011256E-1,9.321057005E-4,-8.042740822E-2
4.364676090E-1,-1.499358565E-1,5.193160381E-3,-8.255793154E-2
4.389554730E-1,-1.488705873E-1,5.193160381E-3,-8.468846232E-2
4.414433380E-1,-1.467400640E-1,4.127896391E-3,-8.681898564E-2
4.439312020E-1,-1.456748098E-1,-1.331579551E-4,-9.001477808E-2
4.464190670E-1,-1.424790174E-1,-4.394212738E-3,-9.214530140E-2
4.489069310E-1,-1.392832249E-1,-1.078579482E-2,-9.427583218E-2
4.513947960E-1,-1.350221634E-1,-1.717737690E-2,-9.640636295E-2
4.538826610E-1,-1.307611167E-1,-2.463422157E-2,-9.853688627E-2
4.563705250E-1,-1.254348010E-1,-2.889527567E-2,-9.960214794E-2
4.588583900E-1,-1.201084778E-1,-3.422159329E-2,-1.006674170E-1
4.613462540E-1,-1.158474237E-1,-3.741738573E-2,-1.017326787E-1
4.638341190E-1,-1.115863696E-1,-4.061317816E-2,-1.027979404E-1
4.663219840E-1,-1.073253155E-1,-4.274370521E-2,-1.049284711E-1
4.688098480E-1,-1.019989923E-1,-4.593949392E-2,-1.059937328E-1
4.712977130E-1,-9.773793817E-2,-4.700475931E-2,-1.081242561E-1
4.737855770E-1,-9.134636074E-2,-5.020054802E-2,-1.091895252E-1
4.762734420E-1,-8.708529919E-2,-5.126581341E-2,-1.091895252E-1
4.787613060E-1,-8.175898343E-2,-5.233107507E-2,-1.081242561E-1
4.812491710E-1,-7.643266767E-2,-5.339634046E-2,-1.059937328E-1
4.837370360E-1,-7.110634446E-2,-5.446160212E-2,-1.038632020E-1
4.862249000E-1,-6.578002870E-2,-5.446160212E-2,-1.006674170E-1
4.887127650E-1,-6.045371294E-2,-5.339634046E-2,-9.640636295E-2
4.912006290E-1,-5.512739345E-2,-5.020054802E-2,-9.108003974E-2
4.936884940E-1,-4.873581231E-2,-4.807002097E-2,-8.468846232E-2
4.961763590E-1,-4.447475821E-2,-4.274370521E-2,-8.042740822E-2
4.986642230E-1,-4.021370411E-2,-3.848264739E-2,-7.510108501E-2
5.011520880E-1,-3.488738462E-2,-3.209106624E-2,-6.977476925E-2
5.036399520E-1,-3.169159219E-2,-2.463422157E-2,-6.551371515E-2
5.061278170E-1,-2.849580161E-2,-1.611211337E-2,-6.125266105E-2
5.086156810E-1,-2.423474751E-2,-6.524739787E-3,-5.699160323E-2
5.111035460E-1,-2.103895694E-2,1.997369342E-3,-5.379581451E-2
5.135914110E-1,-1.677790284E-2,1.051947847E-2,-4.953476042E-2
5.160792750E-1,-1.251684781E-2,2.010685205E-2,-4.527370632E-2
5.185671400E-1,-8.255792782E-3,2.756369673E-2,-3.994738683E-2
5.210550040E-1,-5.060002208E-3,3.395527974E-2,-3.568633273E-2
5.235428690E-1,-1.864211401E-3,3.928159550E-2,-3.142527863E-2
5.260307340E-1,1.331579522E-3,4.354264960E-2,-2.716422267E-2
5.285185980E-1,5.592633970E-3,4.673844203E-2,-2.183790505E-2
5.310064630E-1,9.853689000E-3,4.993423447E-2,-1.757685095E-2
5.334943270E-1,1.198421605E-2,5.313002318E-2,-1.225053146E-2
5.359821920E-1,1.411474310E-2,5.632581562E-2,-5.858949851E-3
5.384700560E-1,1.731053367E-2,5.952160433E-2,-5.326318205E-4
5.409579210E-1,1.944106072E-2,6.058686972E-2,3.728422802E-3
5.434457860E-1,2.157158963E-2,6.378266215E-2,6.924213842E-3
5.459336500E-1,2.476738021E-2,6.591318548E-2,1.012000442E-2
5.484215150E-1,2.796317078E-2,6.591318548E-2,1.331579592E-2
5.509093790E-1,3.115896136E-2,6.697845459E-2,1.544632297E-2
5.533972440E-1,3.328948840E-2,6.804371625E-2,1.757685095E-2
5.558851090E-1,3.542001545E-2,6.804371625E-2,1.757685095E-2
5.583729730E-1,3.648528084E-2,6.697845459E-2,1.864211448E-2
5.608608380E-1,3.755054250E-2,6.697845459E-2,1.864211448E-2
5.633487020E-1,3.861580789E-2,6.804371625E-2,1.757685095E-2
5.658365670E-1,3.861580789E-2,6.804371625E-2,1.757685095E-2
5.683244310E-1,3.861580789E-2,6.697845459E-2,1.651158556E-2
5.708122960E-1,3.968106955E-2,6.591318548E-2,1.544632297E-2
5.733001610E-1,3.861580789E-2,6.271740049E-2,1.331579592E-2
5.757880250E-1,3.861580789E-2,5.845634267E-2,1.225053146E-2
5.782758900E-1,3.861580789E-2,5.313002318E-2,1.012000442E-2
5.807637540E-1,3.861580789E-2,4.460791498E-2,9.054740891E-3
5.832516190E-1,3.968106955E-2,3.608580679E-2,6.924213842E-3
5.857394840E-1,4.074633494E-2,2.543316968E-2,5.858949851E-3
5.882273480E-1,4.181159660E-2,1.584579609E-2,4.793686327E-3
5.907152130E-1,4.394212365E-2,5.193160381E-3,3.728422802E-3
5.932030770E-1,4.500738904E-2,-5.459476262E-3,3.728422802E-3
5.956909420E-1,4.713791609E-2,-1.398158539E-2,3.728422802E-3
5.981788060E-1,4.926844314E-2,-1.930790395E-2,3.728422802E-3
6.006666710E-1,5.033370852E-2,-2.250369452E-2,5.858949851E-3
6.031545360E-1,5.139897019E-2,-2.250369452E-2,6.924213842E-3
6.056424000E-1,5.139897019E-2,-2.143843099E-2,7.989477366E-3
6.081302650E-1,5.139897019E-2,-1.824264042E-2,7.989477366E-3
6.106181290E-1,5.246423557E-2,-1.398158539E-2,6.924213842E-3
6.131059940E-1,5.352949724E-2,-8.655266836E-3,6.924213842E-3
6.155938590E-1,5.352949724E-2,-2.263685223E-3,5.858949851E-3
6.180817230E-1,5.459476262E-2,6.258423906E-3,4.793686327E-3
6.205695880E-1,5.566002429E-2,1.371526904E-2,3.728422802E-3
6.230574520E-1,5.779055133E-2,2.117211558E-2,3.728422802E-3
6.255453170E-1,5.779055133E-2,2.862896025E-2,4.793686327E-3
6.280331810E-1,5.885581672E-2,3.502054140E-2,6.924213842E-3
6.305210460E-1,5.992107838E-2,4.141212255E-2,7.989477366E-3
6.330089110E-1,5.992107838E-2,4.673844203E-2,9.054740891E-3
6.354967750E-1,5.992107838E-2,5.099949613E-2,1.012000442E-2
6.379846400E-1,6.098634377E-2,5.419528857E-2,1.225053146E-2
6.404725040E-1,6.098634377E-2,5.632581562E-2,1.331579592E-2
6.429603690E-1,6.098634377E-2,5.845634267E-2,1.225053146E-2
6.454482340E-1,6.098634377E-2,5.845634267E-2,1.331579592E-2
6.479360980E-1,5.992107838E-2,5.952160433E-2,1.225053146E-2
6.504239630E-1,5.885581672E-2,5.845634267E-2,1.225053146E-2
6.529118270E-1,5.779055133E-2,5.739107728E-2,1.118526794E-2
6.553996920E-1,5.779055133E-2,5.526055023E-2,1.012000442E-2
6.578875560E-1,5.566002429E-2,5.206476152E-2,7.989477366E-3
6.603754210E-1,5.459476262E-2,4.780370742E-2,5.858949851E-3
6.628632860E-1,5.352949724E-2,4.141212255E-2,3.728422802E-3
6.653511500E-1,5.246423557E-2,3.608580679E-2,1.597895520E-3
6.678390150E-1,5.033370852E-2,2.862896025E-2,-1.597895520E-3
6.703268790E-1,4.713791609E-2,2.010685205E-2,-4.793686327E-3
6.728147440E-1,4.607265070E-2,1.051947847E-2,-7.989477366E-3
6.753026090E-1,4.394212365E-2,9.321057005E-4,-1.225053146E-2
6.777904730E-1,4.287686199E-2,-8.655266836E-3,-1.651158556E-2
6.802783380E-1,4.287686199E-2,-1.717737690E-2,-2.077264152E-2
6.827662020E-1,4.287686199E-2,-2.569948509E-2,-2.290316857E-2
6.852540670E-1,4.181159660E-2,-3.209106624E-2,-2.716422267E-2
6.877419310E-1,3.968106955E-2,-3.635212034E-2,-2.929474972E-2
6.902297960E-1,3.861580789E-2,-3.954791278E-2,-3.142527863E-2
6.927176610E-1,3.648528084E-2,-4.167843983E-2,-3.355580568E-2
6.952055250E-1,3.648528084E-2,-4.167843983E-2,-3.568633273E-2
6.976933900E-1,3.542001545E-2,-4.061317816E-2,-3.675159439E-2
7.001812540E-1,3.542001545E-2,-4.061317816E-2,-3.888212144E-2
7.026691190E-1,3.542001545E-2,-3.848264739E-2,-3.994738683E-2
7.051569840E-1,3.435475379E-2,-3.528685868E-2,-4.207791388E-2
7.076448480E-1,3.435475379E-2,-3.102580272E-2,-4.314317927E-2
7.101327130E-1,3.435475379E-2,-2.676474862E-2,-4.420844093E-2
7.126205770E-1,3.328948840E-2,-2.037316747E-2,-4.420844093E-2
7.151084420E-1,3.328948840E-2,-1.504684892E-2,-4.314317927E-2
7.175963060E-1,3.222422674E-2,-9.720530361E-3,-4.314317927E-2
7.200841710E-1,3.115896136E-2,-5.459476262E-3,-4.314317927E-2
7.225720360E-1,3.009369783E-2,-1.198421582E-3,-4.207791388E-2
7.250599000E-1,3.009369783E-2,3.062632866E-3,-4.101264849E-2
7.275477650E-1,3.009369783E-2,7.323687430E-3,-4.101264849E-2
7.300356290E-1,3.009369783E-2,1.158474199E-2,-3.994738683E-2
7.325234940E-1,3.009369783E-2,1.478053257E-2,-3.994738683E-2
7.350113590E-1,2.902843431E-2,1.904158667E-2,-4.101264849E-2
7.374992230E-1,2.796317078E-2,2.436790615E-2,-4.101264849E-2
7.399870880E-1,2.583264373E-2,2.862896025E-2,-4.207791388E-2
7.424749520E-1,2.370211668E-2,3.289001435E-2,-4.420844093E-2
7.449628170E-1,2.050632425E-2,3.502054140E-2,-4.740423337E-2
7.474506810E-1,1.731053367E-2,3.608580679E-2,-4.953476042E-2
7.499385460E-1,1.411474310E-2,3.608580679E-2,-5.273054913E-2
7.524264110E-1,1.198421605E-2,3.395527974E-2,-5.805686861E-2
7.549142750E-1,9.853689000E-3,2.969422378E-2,-6.125266105E-2
7.574021400E-1,6.657897960E-3,2.543316968E-2,-6.657897681E-2
7.598900040E-1,4.527370445E-3,1.797632314E-2,-7.084003091E-2
7.623778690E-1,1.331579522E-3,1.051947847E-2,-7.510108501E-2
7.648657340E-1,-1.864211401E-3,1.997369342E-3,-8.042740822E-2
7.673535980E-1,-3.994738683E-3,-8.655266836E-3,-8.788424730E-2
7.698414630E-1,-6.125265732E-3,-1.824264042E-2,-9.214530140E-2
7.723293270E-1,-7.190529723E-3,-2.889527567E-2,-9.747162461E-2
7.748171920E-1,-9.321057238E-3,-4.167843983E-2,-1.017326787E-1
7.773050560E-1,-1.145158429E-2,-5.339634046E-2,-1.049284711E-1
7.797929210E-1,-1.251684781E-2,-6.511423737E-2,-1.081242561E-1
7.822807860E-1,-1.358211134E-2,-7.576687634E-2,-1.102547869E-1
7.847686500E-1,-1.571263932E-2,-8.641951531E-2,-1.113200486E-1
7.872565150E-1,-1.571263932E-2,-9.494162351E-2,-1.113200486E-1
7.897443790E-1,-1.677790284E-2,-1.002679393E-1,-1.102547869E-1
7.922322440E-1,-1.571263932E-2,-1.055942550E-1,-1.091895252E-1
7.947201090E-1,-1.677790284E-2,-1.077247858E-1,-1.070589945E-1
7.972079730E-1,-1.677790284E-2,-1.087900475E-1,-1.049284711E-1
7.996958380E-1,-1.677790284E-2,-1.077247858E-1,-1.017326787E-1
8.021837020E-1,-1.677790284E-2,-1.055942550E-1,-9.853688627E-2
8.046715670E-1,-1.677790284E-2,-1.013332009E-1,-9.427583218E-2
8.071594310E-1,-1.571263932E-2,-9.707214683E-2,-8.894951642E-2
8.096472960E-1,-1.358211134E-2,-9.174583107E-2,-8.362319320E-2
8.121351610E-1,-1.251684781E-2,-8.428898454E-2,-7.829687744E-2
8.146230250E-1,-1.038632076E-2,-7.683213800E-2,-7.297056168E-2
8.171108900E-1,-9.321057238E-3,-6.831002980E-2,-6.657897681E-2
8.195987540E-1,-8.255792782E-3,-5.872265995E-2,-6.125266105E-2
8.220866190E-1,-8.255792782E-3,-4.913528636E-2,-5.486107618E-2
8.245744840E-1,-8.255792782E-3,-3.848264739E-2,-4.846949503E-2
8.270623480E-1,-9.321057238E-3,-2.783001214E-2,-4.314317927E-2
8.295502130E-1,-9.321057238E-3,-1.930790395E-2,-3.888212144E-2
8.320380770E-1,-1.038632076E-2,-1.078579482E-2,-3.355580568E-2
8.345259420E-1,-1.145158429E-2,-3.328948980E-3,-2.929474972E-2
8.370138060E-1,-1.251684781E-2,1.997369342E-3,-2.503369562E-2
8.395016710E-1,-1.358211134E-2,4.127896391E-3,-1.970737800E-2
8.419895360E-1,-1.571263932E-2,6.258423906E-3,-1.544632297E-2
8.444774000E-1,-1.677790284E-2,7.323687430E-3,-1.225053146E-2
8.469652650E-1,-1.784316637E-2,7.323687430E-3,-7.989477366E-3
8.494531290E-1,-1.997369342E-2,7.323687430E-3,-3.728422802E-3
8.519409940E-1,-2.210422046E-2,5.193160381E-3,-5.326318205E-4
8.544288590E-1,-2.316948399E-2,1.997369342E-3,2.663159044E-3
8.569167230E-1,-2.530001104E-2,-1.331579551E-4,4.793686327E-3
8.594045880E-1,-2.743053809E-2,-4.394212738E-3,5.858949851E-3
8.618924520E-1,-2.849580161E-2,-7.590003312E-3,5.858949851E-3
8.643803170E-1,-2.956106514E-2,-1.291632187E-2,5.858949851E-3
8.668681810E-1,-3.062633052E-2,-1.930790395E-2,3.728422802E-3
8.693560460E-1,-3.169159219E-2,-2.676474862E-2,2.663159044E-3
8.718439110E-1,-3.169159219E-2,-3.422159329E-2,5.326318205E-4
8.743317750E-1,-3.275685757E-2,-4.274370521E-2,-1.597895520E-3
8.768196400E-1,-3.169159219E-2,-5.233107507E-2,-3.728422802E-3
8.793075040E-1,-3.169159219E-2,-6.298371404E-2,-4.793686327E-3
8.817953690E-1,-3.169159219E-2,-7.150582224E-2,-5.858949851E-3
8.842832340E-1,-3.169159219E-2,-8.215846121E-2,-7.989477366E-3
8.867710980E-1,-3.275685757E-2,-8.961530030E-2,-9.054740891E-3
8.892589630E-1,-3.275685757E-2,-9.494162351E-2,-1.012000442E-2
8.917468270E-1,-3.275685757E-2,-9.920267761E-2,-1.118526794E-2
8.942346920E-1,-3.275685757E-2,-1.023984700E-1,-1.225053146E-2
8.967225560E-1,-3.275685757E-2,-1.034637317E-1,-1.225053146E-2
8.992104210E-1,-3.275685757E-2,-1.034637317E-1,-1.331579592E-2
9.016982860E-1,-3.169159219E-2,-1.034637317E-1,-1.438105945E-2
9.041861500E-1,-3.062633052E-2,-1.023984700E-1,-1.438105945E-2
9.066740150E-1,-2.956106514E-2,-1.002679393E-1,-1.438105945E-2
9.091618790E-1,-2.743053809E-2,-9.813741595E-2,-1.331579592E-2
9.116497440E-1,-2.530001104E-2,-9.387636185E-2,-1.225053146E-2
9.141376090E-1,-2.210422046E-2,-8.855003864E-2,-1.225053146E-2
9.166254730E-1,-1.997369342E-2,-8.215846121E-2,-1.118526794E-2
9.191133380E-1,-1.784316637E-2,-7.576687634E-2,-1.012000442E-2
9.216012020E-1,-1.677790284E-2,-6.724476814E-2,-9.054740891E-3
9.240890670E-1,-1.571263932E-2,-5.765739456E-2,-1.012000442E-2
9.265769310E-1,-1.358211134E-2,-4.807002097E-2,-1.012000442E-2
9.290647960E-1,-1.251684781E-2,-3.848264739E-2,-1.118526794E-2
9.315526610E-1,-1.038632076E-2,-2.996053919E-2,-1.331579592E-2
9.340405250E-1,-9.321057238E-3,-2.143843099E-2,-1.651158556E-2
9.365283900E-1,-7.190529723E-3,-1.611211337E-2,-1.864211448E-2
9.390162540E-1,-5.060002208E-3,-1.078579482E-2,-2.290316857E-2
9.415041190E-1,-1.864211401E-3,-7.590003312E-3,-2.716422267E-2
9.439919840E-1,1.331579522E-3,-6.524739787E-3,-3.142527863E-2
9.464798480E-1,3.462106921E-3,-8.655266836E-3,-3.568633273E-2
9.489677130E-1,6.657897960E-3,-1.185105834E-2,-4.101264849E-2
9.514555770E-1,1.091895252E-2,-1.504684892E-2,-4.527370632E-2
9.539434420E-1,1.411474310E-2,-2.037316747E-2,-5.060002208E-2
9.564313060E-1,1.731053367E-2,-2.463422157E-2,-5.699160323E-2
9.589191710E-1,2.157158963E-2,-2.996053919E-2,-6.231792271E-2
9.614070360E-1,2.476738021E-2,-3.315633163E-2,-6.764423847E-2
9.638949000E-1,2.902843431E-2,-3.528685868E-2,-7.403582335E-2
9.663827650E-1,3.115896136E-2,-3.635212034E-2,-8.042740822E-2
9.688706290E-1,3.435475379E-2,-3.741738573E-2,-8.788424730E-2
9.713584940E-1,3.542001545E-2,-3.741738573E-2,-9.534109384E-2
9.738463590E-1,3.648528084E-2,-3.528685868E-2,-1.017326787E-1
9.763342230E-1,3.861580789E-2,-3.422159329E-2,-1.081242561E-1
9.788220880E-1,3.968106955E-2,-3.102580272E-2,-1.155811027E-1
9.813099520E-1,4.074633494E-2,-2.676474862E-2,-1.209074259E-1
9.837978170E-1,4.287686199E-2,-2.356895804E-2,-1.262337416E-1
9.862856810E-1,4.394212365E-2,-1.824264042E-2,-1.326253265E-1
9.887735460E-1,4.500738904E-2,-1.398158539E-2,-1.379516423E-1
9.912614110E-1,4.607265070E-2,-1.078579482E-2,-1.422126889E-1
9.937492750E-1,4.713791609E-2,-6.524739787E-3,-1.464737505E-1
9.962371400E-1,4.926844314E-2,-3.328948980E-3,-1.518000662E-1
9.987250040E-1,5.033370852E-2,-2.263685223E-3,-1.571263820E-1
1.001212869E0,5.246423557E-2,-1.198421582E-3,-1.624527127E-1
1.003700734E0,5.566002429E-2,-1.331579551E-4,-1.667137593E-1
1.006188598E0,5.885581672E-2,1.997369342E-3,-1.720400751E-1
1.008676463E0,6.098634377E-2,4.127896391E-3,-1.763011366E-1
1.011164327E0,6.418213248E-2,7.323687430E-3,-1.805621833E-1
1.013652192E0,6.524740160E-2,1.158474199E-2,-1.837579757E-1
1.016140056E0,6.524740160E-2,1.584579609E-2,-1.880190372E-1
1.018627921E0,6.737792492E-2,2.010685205E-2,-1.922800839E-1
1.021115786E0,6.737792492E-2,2.543316968E-2,-1.954758763E-1
1.023603650E0,6.737792492E-2,2.862896025E-2,-1.976063997E-1
1.026091515E0,6.737792492E-2,2.969422378E-2,-1.997369379E-1
1.028579379E0,6.844318658E-2,3.075948730E-2,-2.008021921E-1
1.031067244E0,6.844318658E-2,3.075948730E-2,-2.008021921E-1
1.033555109E0,6.950845569E-2,3.075948730E-2,-1.997369379E-1
1.036042973E0,6.950845569E-2,2.969422378E-2,-1.976063997E-1
1.038530838E0,6.844318658E-2,2.969422378E-2,-1.954758763E-1
1.041018702E0,6.844318658E-2,3.075948730E-2,-1.933453530E-1
1.043506567E0,6.844318658E-2,3.182475269E-2,-1.901495606E-1
1.045994431E0,6.844318658E-2,3.395527974E-2,-1.869537681E-1
1.048482296E0,6.950845569E-2,3.608580679E-2,-1.848232448E-1
1.050970161E0,7.057371736E-2,3.928159550E-2,-1.816274524E-1
1.053458025E0,7.163897902E-2,4.247738793E-2,-1.784316599E-1
1.055945890E0,7.270424068E-2,4.673844203E-2,-1.752358675E-1
1.058433754E0,7.376950979E-2,4.993423447E-2,-1.720400751E-1
1.060921619E0,7.483477145E-2,5.419528857E-2,-1.688442826E-1
1.063409484E0,7.803056389E-2,5.739107728E-2,-1.667137593E-1
1.065897348E0,8.016108721E-2,6.058686972E-2,-1.635179669E-1
1.068385213E0,8.335687965E-2,6.378266215E-2,-1.592569202E-1
1.070873077E0,8.548741043E-2,6.591318548E-2,-1.571263820E-1
1.073360942E0,8.868319541E-2,6.910897791E-2,-1.560611278E-1
1.075848806E0,9.187898785E-2,7.017423958E-2,-1.549958587E-1
1.078336671E0,9.507478029E-2,7.230477035E-2,-1.549958587E-1
1.080824536E0,9.827057272E-2,7.443529367E-2,-1.539305896E-1
1.083312400E0,1.014663652E-1,7.763108611E-2,-1.528653353E-1
1.085800265E0,1.025316268E-1,8.082687855E-2,-1.518000662E-1
1.088288129E0,1.035968885E-1,8.402267098E-2,-1.507348120E-1
1.090775994E0,1.046621501E-1,8.721846342E-2,-1.496695429E-1
1.093263859E0,1.057274193E-1,8.934898674E-2,-1.464737505E-1
1.095751723E0,1.057274193E-1,9.254477918E-2,-1.443432271E-1
1.098239588E0,1.046621501E-1,9.574057162E-2,-1.422126889E-1
1.100727452E0,1.035968885E-1,9.680583328E-2,-1.379516423E-1
1.103215317E0,1.025316268E-1,9.787109494E-2,-1.347558498E-1
1.105703181E0,1.014663652E-1,9.787109494E-2,-1.294295341E-1
1.108191046E0,1.004010960E-1,9.787109494E-2,-1.251684725E-1
1.110678911E0,1.004010960E-1,9.787109494E-2,-1.198421568E-1
1.113166775E0,9.827057272E-2,9.787109494E-2,-1.155811027E-1
1.115654640E0,9.614004195E-2,9.787109494E-2,-1.113200486E-1
1.118142504E0,9.294424951E-2,9.787109494E-2,-1.081242561E-1
1.120630369E0,8.868319541E-2,1.000016257E-1,-1.049284711E-1
1.123118234E0,8.442214131E-2,1.010668874E-1,-1.038632020E-1
1.125606098E0,7.909582555E-2,1.042626798E-1,-1.017326787E-1
1.128093963E0,7.376950979E-2,1.074584723E-1,-9.960214794E-2
1.130581827E0,6.631266326E-2,1.095889956E-1,-9.747162461E-2
1.133069692E0,6.098634377E-2,1.117195264E-1,-9.534109384E-2
1.135557556E0,5.459476262E-2,1.106542572E-1,-9.534109384E-2
1.138045421E0,4.820318148E-2,1.085237339E-1,-9.534109384E-2
1.140533286E0,4.181159660E-2,1.042626798E-1,-9.534109384E-2
1.143021150E0,3.435475379E-2,9.893636405E-2,-9.427583218E-2
1.145509015E0,2.796317078E-2,9.147951752E-2,-9.427583218E-2
1.147996879E0,2.157158963E-2,8.295740932E-2,-9.321057051E-2
1.150484744E0,1.518000662E-2,7.550056279E-2,-9.321057051E-2
1.152972609E0,7.723161485E-3,6.804371625E-2,-9.214530140E-2
1.155460473E0,2.663159103E-4,6.165213138E-2,-9.001477808E-2
1.157948338E0,-8.255792782E-3,5.632581562E-2,-8.894951642E-2
1.160436202E0,-1.677790284E-2,5.206476152E-2,-8.788424730E-2
1.162924067E0,-2.530001104E-2,4.993423447E-2,-8.788424730E-2
1.165411931E0,-3.488738462E-2,4.780370742E-2,-8.575372398E-2
1.167899796E0,-4.340949282E-2,4.673844203E-2,-8.575372398E-2
1.170387661E0,-5.086633936E-2,4.567318037E-2,-8.575372398E-2
1.172875525E0,-5.832318589E-2,4.460791498E-2,-8.575372398E-2
1.175363390E0,-6.471476704E-2,4.354264960E-2,-8.575372398E-2
1.177851254E0,-7.217161357E-2,4.247738793E-2,-8.788424730E-2
1.180339119E0,-7.856319100E-2,4.141212255E-2,-8.894951642E-2
1.182826984E0,-8.495477587E-2,3.821633384E-2,-9.108003974E-2
1.185314848E0,-9.028109163E-2,3.715106845E-2,-9.214530140E-2
1.187802713E0,-9.667267650E-2,3.502054140E-2,-9.534109384E-2
1.190290577E0,-1.041295230E-1,3.502054140E-2,-9.747162461E-2
1.192778442E0,-1.094558388E-1,3.395527974E-2,-9.960214794E-2
1.195266306E0,-1.158474237E-1,3.395527974E-2,-9.960214794E-2
1.197754171E0,-1.222390011E-1,3.395527974E-2,-1.006674170E-1
1.200242036E0,-1.286305785E-1,3.182475269E-2,-9.960214794E-2
1.202729900E0,-1.350221634E-1,2.862896025E-2,-9.747162461E-2
1.205217765E0,-1.424790174E-1,2.543316968E-2,-9.427583218E-2
1.207705629E0,-1.510011256E-1,1.797632314E-2,-9.001477808E-2
1.210193494E0,-1.605884880E-1,1.051947847E-2,-8.681898564E-2
1.212681359E0,-1.712411344E-1,9.321057005E-4,-8.362319320E-2
1.215169223E0,-1.829590350E-1,-8.655266836E-3,-8.042740822E-2
1.217657088E0,-1.946769357E-1,-1.824264042E-2,-7.723161578E-2
1.220144952E0,-2.085253596E-1,-2.463422157E-2,-7.616634667E-2
1.222632817E0,-2.245043069E-1,-2.889527567E-2,-7.616634667E-2
1.225120681E0,-2.404832691E-1,-2.783001214E-2,-7.510108501E-2
1.227608546E0,-2.585927546E-1,-2.143843099E-2,-7.616634667E-2
1.230096411E0,-2.767022252E-1,-1.185105834E-2,-7.510108501E-2
1.232584275E0,-2.937464416E-1,1.997369342E-3,-7.510108501E-2
1.235072140E0,-3.129211962E-1,2.010685205E-2,-7.297056168E-2
1.237560004E0,-3.299654126E-1,4.034686089E-2,-7.190529257E-2
1.240047869E0,-3.470096290E-1,6.165213138E-2,-6.870950758E-2
1.242535734E0,-3.640538454E-1,8.189214021E-2,-6.338318437E-2
1.245023598E0,-3.789675534E-1,1.010668874E-1,-6.018739566E-2
1.247511463E0,-3.938812315E-1,1.159805804E-1,-5.805686861E-2
1.249999327E0,-4.055991173E-1,1.255679578E-1,-5.699160323E-2
1.252487192E0,-4.173170328E-1,1.287637353E-1,-5.912213027E-2
1.254975056E0,-4.269044101E-1,1.266332120E-1,-6.338318437E-2
1.257462921E0,-4.343612492E-1,1.191763729E-1,-6.870950758E-2
1.259950786E0,-4.407528341E-1,1.074584723E-1,-7.616634667E-2
1.262438650E0,-4.450138807E-1,9.361004084E-2,-8.575372398E-2
1.264926515E0,-4.503402114E-1,7.869634777E-2,-9.427583218E-2
1.267414379E0,-4.546012580E-1,6.271740049E-2,-1.049284711E-1
1.269902244E0,-4.588623047E-1,4.886896908E-2,-1.145158410E-1
1.272390109E0,-4.620580971E-1,3.395527974E-2,-1.251684725E-1
1.274877973E0,-4.641886353E-1,2.010685205E-2,-1.347558498E-1
1.277365838E0,-4.652538896E-1,6.258423906E-3,-1.443432271E-1
1.279853702E0,-4.641886353E-1,-8.655266836E-3,-1.539305896E-1
1.282341567E0,-4.620580971E-1,-2.463422157E-2,-1.635179669E-1
1.284829431E0,-4.588623047E-1,-4.167843983E-2,-1.720400751E-1
1.287317296E0,-4.546012580E-1,-5.978792161E-2,-1.773663908E-1
1.289805161E0,-4.503402114E-1,-7.896266878E-2,-1.826927215E-1
1.292293025E0,-4.439486265E-1,-9.707214683E-2,-1.848232448E-1
1.294780890E0,-4.386222959E-1,-1.151816323E-1,-1.858884990E-1
1.297268754E0,-4.322307110E-1,-1.311605871E-1,-1.837579757E-1
1.299756619E0,-4.269044101E-1,-1.439437568E-1,-1.794969290E-1
1.302244484E0,-4.205128253E-1,-1.524658650E-1,-1.731053442E-1
1.304732348E0,-4.162517786E-1,-1.577921808E-1,-1.645832360E-1
1.307220213E0,-4.109254479E-1,-1.588574350E-1,-1.560611278E-1
1.309708077E0,-4.055991173E-1,-1.567269117E-1,-1.454084814E-1
1.312195942E0,-4.013380706E-1,-1.514005959E-1,-1.336905807E-1
1.314683806E0,-3.949464858E-1,-1.418132186E-1,-1.230379492E-1
1.317171671E0,-3.896201849E-1,-1.279647946E-1,-1.102547869E-1
1.319659536E0,-3.842938542E-1,-1.109205782E-1,-9.747162461E-2
1.322147400E0,-3.800328076E-1,-9.068056941E-2,-8.255793154E-2
1.324635265E0,-3.768370152E-1,-6.937529147E-2,-6.764423847E-2
1.327123129E0,-3.747064769E-1,-4.700475931E-2,-5.060002208E-2
1.329610994E0,-3.725759685E-1,-2.250369452E-2,-3.355580568E-2
1.332098859E0,-3.715106845E-1,9.321057005E-4,-1.438105945E-2
1.334586723E0,-3.704454303E-1,2.330264263E-2,4.793686327E-3
1.337074588E0,-3.704454303E-1,4.567318037E-2,2.396843210E-2
1.339562452E0,-3.704454303E-1,6.591318548E-2,4.207791388E-2
1.342050317E0,-3.715106845E-1,8.508793265E-2,6.018739566E-2
1.344538181E0,-3.715106845E-1,1.042626798E-1,7.723161578E-2
1.347026046E0,-3.725759685E-1,1.213068962E-1,9.427583218E-2
1.349513911E0,-3.736412227E-1,1.362205893E-1,1.091895252E-1
1.352001775E0,-3.736412227E-1,1.490037590E-1,1.241032109E-1
1.354489640E0,-3.747064769E-1,1.585911214E-1,1.379516423E-1
1.356977504E0,-3.757717609E-1,1.639174372E-1,1.496695429E-1
1.359465369E0,-3.768370152E-1,1.639174372E-1,1.592569202E-1
1.361953234E0,-3.768370152E-1,1.607216448E-1,1.677790284E-1
1.364441098E0,-3.768370152E-1,1.521995366E-1,1.741705984E-1
1.366928963E0,-3.768370152E-1,1.394163817E-1,1.773663908E-1
1.369416827E0,-3.747064769E-1,1.234374270E-1,1.794969290E-1
1.371904692E0,-3.725759685E-1,1.063932031E-1,1.805621833E-1
1.374392556E0,-3.725759685E-1,8.615319431E-2,1.805621833E-1
1.376880421E0,-3.715106845E-1,6.484792382E-2,1.805621833E-1
1.379368286E0,-3.715106845E-1,4.247738793E-2,1.784316599E-1
1.381856150E0,-3.693801761E-1,2.010685205E-2,1.773663908E-1
1.384344015E0,-3.683148921E-1,-1.198421582E-3,1.741705984E-1
1.386831879E0,-3.672496378E-1,-2.356895804E-2,1.688442826E-1
1.389319744E0,-3.661843836E-1,-4.380896688E-2,1.645832360E-1
1.391807609E0,-3.651190996E-1,-6.191844866E-2,1.592569202E-1
1.394295473E0,-3.651190996E-1,-7.789740711E-2,1.539305896E-1
1.396783338E0,-3.651190996E-1,-9.174583107E-2,1.486042738E-1
1.399271202E0,-3.640538454E-1,-1.002679393E-1,1.432779580E-1
1.401759067E0,-3.640538454E-1,-1.066595241E-1,1.368863732E-1
1.404246931E0,-3.640538454E-1,-1.087900475E-1,1.326253265E-1
1.406734796E0,-3.651190996E-1,-1.098553166E-1,1.283642650E-1
1.409222661E0,-3.651190996E-1,-1.077247858E-1,1.241032109E-1
1.411710525E0,-3.651190996E-1,-1.034637317E-1,1.209074259E-1
1.414198390E0,-3.661843836E-1,-9.920267761E-2,1.187768951E-1
1.416686254E0,-3.661843836E-1,-9.174583107E-2,1.155811027E-1
1.419174119E0,-3.672496378E-1,-8.428898454E-2,1.123853177E-1
1.421661984E0,-3.683148921E-1,-7.363634557E-2,1.081242561E-1
1.424149848E0,-3.693801761E-1,-6.298371404E-2,1.049284711E-1
1.426637713E0,-3.725759685E-1,-5.020054802E-2,9.960214794E-2
1.429125577E0,-3.757717609E-1,-3.848264739E-2,9.427583218E-2
1.431613442E0,-3.789675534E-1,-2.463422157E-2,8.894951642E-2
1.434101306E0,-3.821633458E-1,-1.185105834E-2,8.255793154E-2
1.436589171E0,-3.842938542E-1,-1.331579551E-4,7.616634667E-2
1.439077036E0,-3.864243925E-1,1.051947847E-2,6.977476925E-2
1.441564900E0,-3.896201849E-1,2.117211558E-2,6.444845349E-2
1.444052765E0,-3.917506933E-1,3.075948730E-2,5.912213027E-2
1.446540629E0,-3.949464858E-1,3.928159550E-2,5.379581451E-2
1.449028494E0,-3.960117698E-1,4.673844203E-2,4.846949503E-2
1.451516359E0,-3.970770240E-1,5.099949613E-2,4.101264849E-2
1.454004223E0,-3.970770240E-1,5.419528857E-2,3.462106735E-2
1.456492088E0,-3.960117698E-1,5.526055023E-2,2.716422267E-2
1.458979952E0,-3.949464858E-1,5.419528857E-2,1.970737800E-2
1.461467817E0,-3.928159773E-1,5.206476152E-2,1.118526794E-2
1.463955681E0,-3.906854391E-1,4.886896908E-2,2.663159044E-3
1.466443546E0,-3.864243925E-1,4.460791498E-2,-7.989477366E-3
1.468931411E0,-3.832286000E-1,4.141212255E-2,-1.651158556E-2
1.471419275E0,-3.779022694E-1,3.928159550E-2,-2.609895915E-2
1.473907140E0,-3.725759685E-1,3.715106845E-2,-3.675159439E-2
1.476395004E0,-3.683148921E-1,3.395527974E-2,-4.740423337E-2
1.478882869E0,-3.629885912E-1,3.182475269E-2,-5.699160323E-2
1.481370734E0,-3.576622605E-1,2.756369673E-2,-6.764423847E-2
1.483858598E0,-3.502054214E-1,2.223737910E-2,-7.936213911E-2
1.486346463E0,-3.438138366E-1,1.691105962E-2,-9.001477808E-2
1.488834327E0,-3.374222517E-1,9.454214945E-3,-9.960214794E-2
1.491322192E0,-3.310306668E-1,3.062632866E-3,-1.091895252E-1
1.493810056E0,-3.235738277E-1,-2.263685223E-3,-1.177116334E-1
1.496297921E0,-3.171822429E-1,-7.590003312E-3,-1.241032109E-1
1.498785786E0,-3.107906580E-1,-1.078579482E-2,-1.304948032E-1
1.501273650E0,-3.043990731E-1,-1.185105834E-2,-1.347558498E-1
1.503761515E0,-2.980075181E-1,-1.185105834E-2,-1.379516423E-1
1.506249379E0,-2.916159332E-1,-1.185105834E-2,-1.400821656E-1
1.508737244E0,-2.841590643E-1,-1.078579482E-2,-1.411474347E-1
1.511225109E0,-2.777675092E-1,-8.655266836E-3,-1.422126889E-1
1.513712973E0,-2.703106403E-1,-8.655266836E-3,-1.432779580E-1
1.516200838E0,-2.628538013E-1,-8.655266836E-3,-1.422126889E-1
1.518688702E0,-2.543317080E-1,-8.655266836E-3,-1.411474347E-1
1.521176567E0,-2.479401082E-1,-7.590003312E-3,-1.411474347E-1
1.523664431E0,-2.404832691E-1,-6.524739787E-3,-1.390169114E-1
1.526152296E0,-2.330264151E-1,-4.394212738E-3,-1.379516423E-1
1.528640161E0,-2.266348451E-1,-2.263685223E-3,-1.358211190E-1
1.531128025E0,-2.202432603E-1,3.062632866E-3,-1.336905807E-1
1.533615890E0,-2.138516754E-1,8.388951421E-3,-1.304948032E-1
1.536103754E0,-2.074600905E-1,1.371526904E-2,-1.262337416E-1
1.538591619E0,-2.000032514E-1,1.797632314E-2,-1.219726875E-1
1.541079484E0,-1.914811432E-1,2.223737910E-2,-1.177116334E-1
1.543567348E0,-1.829590350E-1,2.436790615E-2,-1.123853177E-1
1.546055213E0,-1.733716577E-1,2.436790615E-2,-1.059937328E-1
1.548543077E0,-1.627190262E-1,2.330264263E-2,-1.006674170E-1
1.551030942E0,-1.520663798E-1,2.117211558E-2,-9.534109384E-2
1.553518806E0,-1.414137483E-1,1.691105962E-2,-9.001477808E-2
1.556006671E0,-1.318263710E-1,1.265000552E-2,-8.575372398E-2
1.558494536E0,-1.233042628E-1,9.454214945E-3,-8.042740822E-2
1.560982400E0,-1.147821546E-1,7.323687430E-3,-7.510108501E-2
1.563470265E0,-1.062600464E-1,5.193160381E-3,-6.977476925E-2
1.565958129E0,-9.880319983E-2,5.193160381E-3,-6.338318437E-2
1.568445994E0,-9.241162241E-2,5.193160381E-3,-5.805686861E-2
1.570933859E0,-8.602003753E-2,5.193160381E-3,-5.273054913E-2
1.573421723E0,-8.069372177E-2,6.258423906E-3,-4.633896798E-2
1.575909588E0,-7.536740601E-2,6.258423906E-3,-4.101264849E-2
1.578397452E0,-7.110634446E-2,8.388951421E-3,-3.568633273E-2
1.580885317E0,-6.684529036E-2,1.051947847E-2,-3.142527863E-2
1.583373181E0,-6.364950538E-2,1.158474199E-2,-2.822948620E-2
1.585861046E0,-6.151897460E-2,1.371526904E-2,-2.609895915E-2
1.588348911E0,-6.045371294E-2,1.478053257E-2,-2.396843210E-2
1.590836775E0,-5.832318589E-2,1.691105962E-2,-2.396843210E-2
1.593324640E0,-5.832318589E-2,1.691105962E-2,-2.503369562E-2
1.595812504E0,-5.725792050E-2,1.691105962E-2,-2.503369562E-2
1.598300369E0,-5.725792050E-2,1.478053257E-2,-2.609895915E-2
1.600788234E0,-5.619265884E-2,1.158474199E-2,-2.822948620E-2
1.603276098E0,-5.619265884E-2,6.258423906E-3,-2.929474972E-2
1.605763963E0,-5.512739345E-2,9.321057005E-4,-3.036001325E-2
1.608251827E0,-5.512739345E-2,-7.590003312E-3,-3.142527863E-2
1.610739692E0,-5.299686641E-2,-1.824264042E-2,-3.249054030E-2
1.613227556E0,-5.299686641E-2,-2.889527567E-2,-3.675159439E-2
1.615715421E0,-5.193160102E-2,-4.061317816E-2,-4.101264849E-2
1.618203286E0,-5.193160102E-2,-5.233107507E-2,-4.420844093E-2
1.620691150E0,-5.193160102E-2,-6.298371404E-2,-4.953476042E-2
1.623179015E0,-5.406212807E-2,-7.470161468E-2,-5.486107618E-2
1.625666879E0,-5.512739345E-2,-8.535424620E-2,-5.912213027E-2
1.628154744E0,-5.619265884E-2,-9.494162351E-2,-6.338318437E-2
1.630642609E0,-5.725792050E-2,-1.045289934E-1,-6.764423847E-2
1.633130473E0,-5.725792050E-2,-1.119858399E-1,-6.977476925E-2
1.635618338E0,-5.725792050E-2,-1.183774248E-1,-7.297056168E-2
1.638106202E0,-5.725792050E-2,-1.226384789E-1,-7.403582335E-2
1.640594067E0,-5.619265884E-2,-1.247690022E-1,-7.403582335E-2
1.643081931E0,-5.512739345E-2,-1.247690022E-1,-7.297056168E-2
1.645569796E0,-5.512739345E-2,-1.247690022E-1,-7.084003091E-2
1.648057661E0,-5.406212807E-2,-1.237037405E-1,-6.870950758E-2
1.650545525E0,-5.406212807E-2,-1.226384789E-1,-6.657897681E-2
1.653033390E0,-5.406212807E-2,-1.205079481E-1,-6.551371515E-2
1.655521254E0,-5.512739345E-2,-1.173121557E-1,-6.444845349E-2
1.658009119E0,-5.406212807E-2,-1.130511016E-1,-6.551371515E-2
1.660496984E0,-5.406212807E-2,-1.066595241E-1,-6.551371515E-2
1.662984848E0,-5.406212807E-2,-1.002679393E-1,-6.657897681E-2
1.665472713E0,-5.406212807E-2,-9.281109273E-2,-6.764423847E-2
1.667960577E0,-5.299686641E-2,-8.535424620E-2,-6.977476925E-2
1.670448442E0,-5.299686641E-2,-8.002793044E-2,-7.084003091E-2
1.672936306E0,-5.299686641E-2,-7.789740711E-2,-7.190529257E-2
1.675424171E0,-5.299686641E-2,-7.896266878E-2,-7.403582335E-2
1.677912036E0,-5.299686641E-2,-8.322372288E-2,-7.829687744E-2
1.680399900E0,-5.193160102E-2,-9.174583107E-2,-8.255793154E-2
1.682887765E0,-5.193160102E-2,-1.023984700E-1,-8.788424730E-2
1.685375629E0,-5.086633936E-2,-1.141163707E-1,-9.321057051E-2
1.687863494E0,-5.086633936E-2,-1.247690022E-1,-9.960214794E-2
1.690351359E0,-5.086633936E-2,-1.354216337E-1,-1.038632020E-1
1.692839223E0,-5.193160102E-2,-1.450090110E-1,-1.081242561E-1
1.695327088E0,-5.406212807E-2,-1.524658650E-1,-1.102547869E-1
1.697814952E0,-5.512739345E-2,-1.599227041E-1,-1.123853177E-1
1.700302817E0,-5.406212807E-2,-1.684448123E-1,-1.134505793E-1
1.702790681E0,-5.193160102E-2,-1.759016514E-1,-1.145158410E-1
1.705278546E0,-4.980107397E-2,-1.844237745E-1,-1.155811027E-1
1.707766411E0,-4.767054692E-2,-1.929458827E-1,-1.166463718E-1
1.710254275E0,-4.447475821E-2,-1.993374527E-1,-1.177116334E-1
1.712742140E0,-4.340949282E-2,-2.046637833E-1,-1.166463718E-1
1.715230004E0,-4.340949282E-2,-2.078595608E-1,-1.145158410E-1
1.717717869E0,-4.340949282E-2,-2.078595608E-1,-1.113200486E-1
1.720205734E0,-4.447475821E-2,-2.046637833E-1,-1.081242561E-1
1.722693598E0,-4.554001987E-2,-1.993374527E-1,-1.038632020E-1
1.725181463E0,-4.660528526E-2,-1.929458827E-1,-1.006674170E-1
1.727669327E0,-4.873581231E-2,-1.876195520E-1,-9.853688627E-2
1.730157192E0,-5.086633936E-2,-1.801627129E-1,-9.853688627E-2
1.732645056E0,-5.193160102E-2,-1.748363972E-1,-9.853688627E-2
1.735132921E0,-5.406212807E-2,-1.695100814E-1,-1.006674170E-1
1.737620786E0,-5.619265884E-2,-1.652490199E-1,-1.027979404E-1
1.740108650E0,-6.045371294E-2,-1.599227041E-1,-1.059937328E-1
1.742596515E0,-6.471476704E-2,-1.567269117E-1,-1.081242561E-1
1.745084379E0,-6.897582114E-2,-1.524658650E-1,-1.081242561E-1
1.747572244E0,-7.430213690E-2,-1.503353268E-1,-1.081242561E-1
1.750060109E0,-8.069372177E-2,-1.482048035E-1,-1.081242561E-1
1.752547973E0,-8.602003753E-2,-1.482048035E-1,-1.081242561E-1
1.755035838E0,-9.241162241E-2,-1.514005959E-1,-1.081242561E-1
1.757523702E0,-9.773793817E-2,-1.588574350E-1,-1.091895252E-1
1.760011567E0,-1.019989923E-1,-1.684448123E-1,-1.102547869E-1
1.762499431E0,-1.062600464E-1,-1.822932363E-1,-1.123853177E-1
1.764987296E0,-1.105211005E-1,-1.972069293E-1,-1.134505793E-1
1.767475161E0,-1.147821546E-1,-2.110553533E-1,-1.166463718E-1
1.769963025E0,-1.169126853E-1,-2.249037921E-1,-1.177116334E-1
1.772450890E0,-1.190432087E-1,-2.387522161E-1,-1.187768951E-1
1.774938754E0,-1.222390011E-1,-2.504701018E-1,-1.198421568E-1
1.777426619E0,-1.243695319E-1,-2.589922249E-1,-1.198421568E-1
1.779914484E0,-1.254348010E-1,-2.653838098E-1,-1.177116334E-1
1.782402348E0,-1.275653243E-1,-2.696448565E-1,-1.166463718E-1
1.784890213E0,-1.296958476E-1,-2.707101107E-1,-1.155811027E-1
1.787378077E0,-1.318263710E-1,-2.707101107E-1,-1.145158410E-1
1.789865942E0,-1.350221634E-1,-2.685796022E-1,-1.134505793E-1
1.792353806E0,-1.371526867E-1,-2.653838098E-1,-1.134505793E-1
1.794841671E0,-1.382179558E-1,-2.611227632E-1,-1.123853177E-1
1.797329536E0,-1.382179558E-1,-2.557964325E-1,-1.102547869E-1
1.799817400E0,-1.392832249E-1,-2.472743243E-1,-1.049284711E-1
1.802305265E0,-1.403484792E-1,-2.376869470E-1,-9.640636295E-2
1.804793129E0,-1.414137483E-1,-2.249037921E-1,-8.575372398E-2
1.807280994E0,-1.424790174E-1,-2.099900991E-1,-7.297056168E-2
1.809768859E0,-1.435442716E-1,-1.940111369E-1,-6.018739566E-2
1.812256723E0,-1.446095407E-1,-1.801627129E-1,-4.527370632E-2
1.814744588E0,-1.456748098E-1,-1.684448123E-1,-3.249054030E-2
1.817232452E0,-1.446095407E-1,-1.609879732E-1,-2.077264152E-2
1.819720317E0,-1.435442716E-1,-1.599227041E-1,-1.012000442E-2
1.822208181E0,-1.414137483E-1,-1.620532274E-1,-5.326318205E-4
1.824696046E0,-1.392832249E-1,-1.663142890E-1,7.989477366E-3
1.827183911E0,-1.360874325E-1,-1.727058738E-1,1.757685095E-2
1.829671775E0,-1.328916401E-1,-1.780321896E-1,2.716422267E-2
1.832159640E0,-1.296958476E-1,-1.812279820E-1,3.781685978E-2
1.834647504E0,-1.275653243E-1,-1.822932363E-1,4.846949503E-2
1.837135369E0,-1.265000552E-1,-1.822932363E-1,6.018739566E-2
1.839623234E0,-1.243695319E-1,-1.812279820E-1,7.297056168E-2
1.842111098E0,-1.222390011E-1,-1.801627129E-1,8.362319320E-2
1.844598963E0,-1.190432087E-1,-1.801627129E-1,9.427583218E-2
1.847086827E0,-1.169126853E-1,-1.801627129E-1,1.049284711E-1
1.849574692E0,-1.158474237E-1,-1.812279820E-1,1.145158410E-1
1.852062556E0,-1.137168929E-1,-1.844237745E-1,1.230379492E-1
1.854550421E0,-1.137168929E-1,-1.897500902E-1,1.294295341E-1
1.857038286E0,-1.137168929E-1,-1.961416751E-1,1.358211190E-1
1.859526150E0,-1.158474237E-1,-2.057290375E-1,1.411474347E-1
1.862014015E0,-1.179779470E-1,-2.174469382E-1,1.443432271E-1
1.864501879E0,-1.201084778E-1,-2.302301079E-1,1.454084814E-1
1.866989744E0,-1.243695319E-1,-2.419480085E-1,1.443432271E-1
1.869477609E0,-1.275653243E-1,-2.536658943E-1,1.422126889E-1
1.871965473E0,-1.318263710E-1,-2.632532716E-1,1.390169114E-1
1.874453338E0,-1.371526867E-1,-2.717753947E-1,1.347558498E-1
1.876941202E0,-1.424790174E-1,-2.781669796E-1,1.304948032E-1
1.879429067E0,-1.478053331E-1,-2.834932804E-1,1.251684725E-1
1.881916931E0,-1.520663798E-1,-2.866890728E-1,1.198421568E-1
1.884404796E0,-1.563274413E-1,-2.888196111E-1,1.145158410E-1
1.886892661E0,-1.595232338E-1,-2.866890728E-1,1.113200486E-1
1.889380525E0,-1.659148186E-1,-2.824280262E-1,1.081242561E-1
1.891868390E0,-1.723063886E-1,-2.749711871E-1,1.049284711E-1
1.894356254E0,-1.797632426E-1,-2.643185556E-1,1.038632020E-1
1.896844119E0,-1.872200817E-1,-2.504701018E-1,1.017326787E-1
1.899331984E0,-1.946769357E-1,-2.366216928E-1,1.006674170E-1
1.901819848E0,-2.010685056E-1,-2.195774615E-1,1.017326787E-1
1.904307713E0,-2.074600905E-1,-2.025332451E-1,1.027979404E-1
1.906795577E0,-2.127864063E-1,-1.854890287E-1,1.070589945E-1
1.909283442E0,-2.170474678E-1,-1.673795432E-1,1.113200486E-1
1.911771306E0,-2.202432603E-1,-1.514005959E-1,1.166463718E-1
1.914259171E0,-2.223737836E-1,-1.396826953E-1,1.219726875E-1
1.916747036E0,-2.234390527E-1,-1.322258562E-1,1.251684725E-1
1.919234900E0,-2.234390527E-1,-1.290300637E-1,1.262337416E-1
1.921722765E0,-2.234390527E-1,-1.300953180E-1,1.251684725E-1
1.924210629E0,-2.213085145E-1,-1.343563795E-1,1.219726875E-1
1.926698494E0,-2.202432603E-1,-1.396826953E-1,1.166463718E-1
1.929186359E0,-2.181127369E-1,-1.450090110E-1,1.134505793E-1
1.931674223E0,-2.159821987E-1,-1.492700726E-1,1.081242561E-1
1.934162088E0,-2.138516754E-1,-1.535311192E-1,1.038632020E-1
1.936649952E0,-2.106558830E-1,-1.545963883E-1,9.853688627E-2
1.939137817E0,-2.063948363E-1,-1.567269117E-1,9.321057051E-2
1.941625681E0,-2.021337748E-1,-1.588574350E-1,8.894951642E-2
1.944113546E0,-1.968074590E-1,-1.631184965E-1,8.362319320E-2
1.946601411E0,-1.925463974E-1,-1.673795432E-1,7.829687744E-2
1.949089275E0,-1.872200817E-1,-1.716406047E-1,7.297056168E-2
1.951577140E0,-1.840242893E-1,-1.748363972E-1,6.977476925E-2
1.954065004E0,-1.808284968E-1,-1.748363972E-1,6.657897681E-2
1.956552869E0,-1.776327193E-1,-1.716406047E-1,6.551371515E-2
1.959040734E0,-1.765674502E-1,-1.673795432E-1,6.657897681E-2
1.961528598E0,-1.733716577E-1,-1.620532274E-1,6.977476925E-2
1.964016463E0,-1.701758653E-1,-1.556616426E-1,7.297056168E-2
1.966504327E0,-1.669800729E-1,-1.492700726E-1,7.616634667E-2
1.968992192E0,-1.627190262E-1,-1.450090110E-1,8.042740822E-2
1.971480056E0,-1.573926955E-1,-1.407479644E-1,8.362319320E-2
1.973967921E0,-1.510011256E-1,-1.364869028E-1,8.788424730E-2
1.976455786E0,-1.446095407E-1,-1.332911104E-1,9.214530140E-2
1.978943650E0,-1.371526867E-1,-1.290300637E-1,9.640636295E-2
1.981431515E0,-1.307611167E-1,-1.226384789E-1,9.960214794E-2
1.983919379E0,-1.222390011E-1,-1.151816323E-1,1.027979404E-1
1.986407244E0,-1.137168929E-1,-1.087900475E-1,1.059937328E-1
1.988895109E0,-1.041295230E-1,-1.023984700E-1,1.081242561E-1
1.991382973E0,-9.454214573E-2,-9.707214683E-2,1.091895252E-1
1.993870838E0,-8.282424510E-2,-9.387636185E-2,1.102547869E-1
1.996358702E0,-7.217161357E-2,-8.961530030E-2,1.113200486E-1
1.998846567E0,-6.045371294E-2,-8.748477697E-2,1.123853177E-1
2.001334431E0,-4.873581231E-2,-8.641951531E-2,1.123853177E-1
2.003822296E0,-3.808317333E-2,-8.535424620E-2,1.113200486E-1
2.006310161E0,-2.849580161E-2,-8.428898454E-2,1.102547869E-1
2.008798025E0,-1.997369342E-2,-8.428898454E-2,1.091895252E-1
2.011285890E0,-1.251684781E-2,-8.428898454E-2,1.081242561E-1
2.013773754E0,-6.125265732E-3,-8.535424620E-2,1.081242561E-1
2.016261619E0,2.663159103E-4,-8.641951531E-2,1.081242561E-1
2.018749484E0,6.657897960E-3,-8.855003864E-2,1.091895252E-1
2.021237348E0,1.198421605E-2,-9.174583107E-2,1.113200486E-1
2.023725213E0,1.731053367E-2,-9.600688517E-2,1.155811027E-1
2.026213077E0,2.157158963E-2,-1.002679393E-1,1.198421568E-1
2.028700942E0,2.583264373E-2,-1.055942550E-1,1.230379492E-1
2.031188806E0,2.796317078E-2,-1.087900475E-1,1.272990108E-1
2.033676671E0,3.115896136E-2,-1.098553166E-1,1.304948032E-1
2.036164536E0,3.222422674E-2,-1.087900475E-1,1.326253265E-1
2.038652400E0,3.222422674E-2,-1.023984700E-1,1.336905807E-1
2.041140265E0,3.115896136E-2,-9.281109273E-2,1.358211190E-1
2.043628129E0,2.796317078E-2,-8.002793044E-2,1.368863732E-1
2.046115994E0,2.476738021E-2,-6.511423737E-2,1.379516423E-1
2.048603859E0,2.157158963E-2,-5.233107507E-2,1.390169114E-1
2.051091723E0,1.837579720E-2,-3.848264739E-2,1.379516423E-1
2.053579588E0,1.624527015E-2,-2.889527567E-2,1.368863732E-1
2.056067452E0,1.304947957E-2,-2.250369452E-2,1.347558498E-1
2.058555317E0,8.788425475E-3,-1.824264042E-2,1.326253265E-1
2.061043181E0,5.592633970E-3,-1.504684892E-2,1.294295341E-1
2.063531046E0,1.331579522E-3,-1.398158539E-2,1.262337416E-1
2.066018911E0,-3.994738683E-3,-1.291632187E-2,1.230379492E-1
2.068506775E0,-9.321057238E-3,-1.185105834E-2,1.209074259E-1
2.070994640E0,-1.571263932E-2,-9.720530361E-3,1.187768951E-1
2.073482504E0,-2.210422046E-2,-6.524739787E-3,1.166463718E-1
2.075970369E0,-2.849580161E-2,-3.328948980E-3,1.134505793E-1
2.078458234E0,-3.382211924E-2,-1.331579551E-4,1.091895252E-1
2.080946098E0,-4.021370411E-2,1.997369342E-3,1.049284711E-1
2.083433963E0,-4.554001987E-2,4.127896391E-3,1.017326787E-1
2.085921827E0,-5.193160102E-2,5.193160381E-3,9.853688627E-2
2.088409692E0,-5.938844755E-2,4.127896391E-3,9.534109384E-2
2.090897556E0,-6.684529036E-2,3.062632866E-3,9.427583218E-2
2.093385421E0,-7.430213690E-2,-1.331579551E-4,9.321057051E-2
2.095873286E0,-8.175898343E-2,-4.394212738E-3,9.321057051E-2
2.098361150E0,-9.028109163E-2,-8.655266836E-3,9.321057051E-2
2.100849015E0,-9.880319983E-2,-1.185105834E-2,9.321057051E-2
2.103336879E0,-1.062600464E-1,-1.504684892E-2,9.321057051E-2
2.105824744E0,-1.137168929E-1,-1.611211337E-2,9.214530140E-2
2.108312609E0,-1.211737394E-1,-1.611211337E-2,9.001477808E-2
2.110800473E0,-1.286305785E-1,-1.398158539E-2,8.681898564E-2
2.113288338E0,-1.350221634E-1,-9.720530361E-3,8.468846232E-2
2.115776202E0,-1.414137483E-1,-4.394212738E-3,8.042740822E-2
2.118264067E0,-1.478053331E-1,1.997369342E-3,7.616634667E-2
2.120751931E0,-1.531316489E-1,9.454214945E-3,7.084003091E-2
2.123239796E0,-1.584579647E-1,1.691105962E-2,6.444845349E-2
2.125727661E0,-1.648495495E-1,2.436790615E-2,5.805686861E-2
2.128215525E0,-1.701758653E-1,3.182475269E-2,5.060002208E-2
2.130703390E0,-1.744369268E-1,3.928159550E-2,4.314317927E-2
2.133191254E0,-1.797632426E-1,4.567318037E-2,3.568633273E-2
2.135679119E0,-1.850895584E-1,5.206476152E-2,2.929474972E-2
2.138166984E0,-1.872200817E-1,5.739107728E-2,2.183790505E-2
2.140654848E0,-1.904158741E-1,6.165213138E-2,1.438105945E-2
2.143142713E0,-1.936116666E-1,6.484792382E-2,6.924213842E-3
2.145630577E0,-1.957421899E-1,6.591318548E-2,5.326318205E-4
2.148118442E0,-2.000032514E-1,6.697845459E-2,-5.858949851E-3
2.150606306E0,-2.021337748E-1,6.591318548E-2,-1.331579592E-2
2.153094171E0,-2.053295672E-1,6.484792382E-2,-1.970737800E-2
2.155582036E0,-2.085253596E-1,6.165213138E-2,-2.396843210E-2
2.158069900E0,-2.106558830E-1,5.845634267E-2,-2.716422267E-2
2.160557765E0,-2.117211521E-1,5.526055023E-2,-2.929474972E-2
2.163045629E0,-2.138516754E-1,5.313002318E-2,-2.929474972E-2
2.165533494E0,-2.149169445E-1,5.206476152E-2,-2.716422267E-2
2.168021359E0,-2.149169445E-1,5.099949613E-2,-2.290316857E-2
2.170509223E0,-2.149169445E-1,5.099949613E-2,-1.651158556E-2
2.172997088E0,-2.127864063E-1,5.099949613E-2,-9.054740891E-3
2.175484952E0,-2.095906287E-1,5.099949613E-2,-2.663159044E-3
2.177972817E0,-2.053295672E-1,5.313002318E-2,3.728422802E-3
2.180460681E0,-1.989379823E-1,5.845634267E-2,9.054740891E-3
2.182948546E0,-1.925463974E-1,6.378266215E-2,1.331579592E-2
2.185436411E0,-1.850895584E-1,7.123950869E-2,1.864211448E-2
2.187924275E0,-1.786979735E-1,7.976161689E-2,2.396843210E-2
2.190412140E0,-1.723063886E-1,8.721846342E-2,2.929474972E-2
2.192900004E0,-1.659148186E-1,9.147951752E-2,3.462106735E-2
2.195387869E0,-1.595232338E-1,9.467530251E-2,3.888212144E-2
2.197875734E0,-1.541969180E-1,9.254477918E-2,4.101264849E-2
2.200363598E0,-1.478053331E-1,8.828372508E-2,4.420844093E-2
2.202851463E0,-1.424790174E-1,8.082687855E-2,4.740423337E-2
2.205339327E0,-1.371526867E-1,7.017423958E-2,4.846949503E-2
2.207827192E0,-1.328916401E-1,5.739107728E-2,4.953476042E-2
2.210315056E0,-1.286305785E-1,4.354264960E-2,5.166528746E-2
2.212802921E0,-1.233042628E-1,2.862896025E-2,5.060002208E-2
2.215290786E0,-1.190432087E-1,1.584579609E-2,5.060002208E-2
2.217778650E0,-1.147821546E-1,3.062632866E-3,4.953476042E-2
2.220266515E0,-1.115863696E-1,-7.590003312E-3,4.740423337E-2
2.222754379E0,-1.073253155E-1,-1.504684892E-2,4.527370632E-2
2.225242244E0,-1.041295230E-1,-2.037316747E-2,4.101264849E-2
2.227730109E0,-1.009337306E-1,-2.250369452E-2,3.781685978E-2
2.230217973E0,-9.773793817E-2,-2.356895804E-2,3.249054030E-2
2.232705838E0,-9.454214573E-2,-2.250369452E-2,2.929474972E-2
2.235193702E0,-9.241162241E-2,-1.930790395E-2,2.503369562E-2
2.237681567E0,-9.028109163E-2,-1.611211337E-2,2.183790505E-2
2.240169431E0,-8.921582997E-2,-1.078579482E-2,1.970737800E-2
2.242657296E0,-8.921582997E-2,-6.524739787E-3,1.651158556E-2
2.245145161E0,-9.134636074E-2,-1.198421582E-3,1.438105945E-2
2.247633025E0,-9.347688407E-2,4.127896391E-3,1.331579592E-2
2.250120890E0,-9.560741484E-2,8.388951421E-3,1.331579592E-2
2.252608754E0,-9.880319983E-2,1.265000552E-2,1.331579592E-2
2.255096619E0,-1.009337306E-1,1.797632314E-2,1.331579592E-2
2.257584484E0,-1.030642539E-1,2.436790615E-2,1.331579592E-2
2.260072348E0,-1.051947847E-1,3.075948730E-2,1.331579592E-2
2.262560213E0,-1.083905771E-1,3.928159550E-2,1.331579592E-2
2.265048077E0,-1.115863696E-1,4.886896908E-2,1.225053146E-2
2.267535942E0,-1.137168929E-1,5.845634267E-2,1.118526794E-2
2.270023806E0,-1.169126853E-1,6.697845459E-2,9.054740891E-3
2.272511671E0,-1.190432087E-1,7.443529367E-2,4.793686327E-3
2.274999536E0,-1.211737394E-1,7.976161689E-2,5.326318205E-4
2.277487400E0,-1.222390011E-1,8.402267098E-2,-4.793686327E-3
2.279975265E0,-1.243695319E-1,8.615319431E-2,-1.118526794E-2
2.282463129E0,-1.254348010E-1,8.615319431E-2,-1.970737800E-2
2.284950994E0,-1.265000552E-1,8.295740932E-2,-2.822948620E-2
2.287438859E0,-1.275653243E-1,7.763108611E-2,-3.781685978E-2
2.289926723E0,-1.286305785E-1,6.804371625E-2,-4.846949503E-2
2.292414588E0,-1.307611167E-1,5.739107728E-2,-5.805686861E-2
2.294902452E0,-1.328916401E-1,4.247738793E-2,-6.764423847E-2
2.297390317E0,-1.339569092E-1,2.543316968E-2,-7.723161578E-2
2.299878181E0,-1.371526867E-1,8.388951421E-3,-8.575372398E-2
2.302366046E0,-1.403484792E-1,-1.078579482E-2,-9.321057051E-2
2.304853911E0,-1.424790174E-1,-2.783001214E-2,-9.853688627E-2
2.307341775E0,-1.456748098E-1,-4.274370521E-2,-1.027979404E-1
2.309829640E0,-1.478053331E-1,-5.446160212E-2,-1.059937328E-1
2.312317504E0,-1.520663798E-1,-6.191844866E-2,-1.091895252E-1
2.314805369E0,-1.541969180E-1,-6.617950648E-2,-1.113200486E-1
2.317293234E0,-1.563274413E-1,-6.724476814E-2,-1.123853177E-1
2.319781098E0,-1.573926955E-1,-6.404897571E-2,-1.155811027E-1
2.322268963E0,-1.573926955E-1,-5.978792161E-2,-1.166463718E-1
2.324756827E0,-1.573926955E-1,-5.233107507E-2,-1.177116334E-1
2.327244692E0,-1.573926955E-1,-4.380896688E-2,-1.187768951E-1
2.329732556E0,-1.573926955E-1,-3.315633163E-2,-1.187768951E-1
2.332220421E0,-1.552621722E-1,-2.356895804E-2,-1.177116334E-1
2.334708286E0,-1.531316489E-1,-1.185105834E-2,-1.177116334E-1
2.337196150E0,-1.499358565E-1,-1.331579551E-4,-1.166463718E-1
2.339684015E0,-1.467400640E-1,1.265000552E-2,-1.155811027E-1
2.342171879E0,-1.424790174E-1,2.543316968E-2,-1.145158410E-1
2.344659744E0,-1.392832249E-1,3.715106845E-2,-1.113200486E-1
2.347147609E0,-1.371526867E-1,4.993423447E-2,-1.102547869E-1
2.349635473E0,-1.350221634E-1,6.058686972E-2,-1.113200486E-1
2.352123338E0,-1.328916401E-1,6.804371625E-2,-1.134505793E-1
2.354611202E0,-1.307611167E-1,7.337003201E-2,-1.166463718E-1
2.357099067E0,-1.286305785E-1,7.763108611E-2,-1.219726875E-1
2.359586931E0,-1.254348010E-1,7.869634777E-2,-1.283642650E-1
2.362074796E0,-1.222390011E-1,7.869634777E-2,-1.336905807E-1
2.364562661E0,-1.201084778E-1,7.763108611E-2,-1.379516423E-1
2.367050525E0,-1.179779470E-1,7.656582445E-2,-1.422126889E-1
2.369538390E0,-1.158474237E-1,7.443529367E-2,-1.443432271E-1
2.372026254E0,-1.137168929E-1,7.017423958E-2,-1.464737505E-1
2.374514119E0,-1.105211005E-1,6.378266215E-2,-1.475390196E-1
2.377001984E0,-1.062600464E-1,5.419528857E-2,-1.475390196E-1
2.379489848E0,-1.009337306E-1,4.247738793E-2,-1.496695429E-1
2.381977713E0,-9.560741484E-2,2.756369673E-2,-1.496695429E-1
2.384465577E0,-8.815056831E-2,1.051947847E-2,-1.496695429E-1
2.386953442E0,-8.069372177E-2,-8.655266836E-3,-1.496695429E-1
2.389441306E0,-7.430213690E-2,-2.783001214E-2,-1.507348120E-1
2.391929171E0,-6.684529036E-2,-4.593949392E-2,-1.486042738E-1
2.394417036E0,-5.832318589E-2,-6.511423737E-2,-1.475390196E-1
2.396904900E0,-5.193160102E-2,-8.109319210E-2,-1.464737505E-1
2.399392765E0,-4.554001987E-2,-9.600688517E-2,-1.454084814E-1
2.401880629E0,-3.808317333E-2,-1.098553166E-1,-1.443432271E-1
2.404368494E0,-3.062633052E-2,-1.226384789E-1,-1.432779580E-1
2.406856359E0,-2.316948399E-2,-1.332911104E-1,-1.411474347E-1
2.409344223E0,-1.571263932E-2,-1.439437568E-1,-1.390169114E-1
2.411832088E0,-7.190529723E-3,-1.514005959E-1,-1.368863732E-1
2.414319952E0,2.396843163E-3,-1.567269117E-1,-1.347558498E-1
2.416807817E0,8.788425475E-3,-1.599227041E-1,-1.304948032E-1
2.419295681E0,1.624527015E-2,-1.577921808E-1,-1.251684725E-1
2.421783546E0,2.370211668E-2,-1.535311192E-1,-1.198421568E-1
2.424271411E0,3.115896136E-2,-1.450090110E-1,-1.123853177E-1
2.426759275E0,3.861580789E-2,-1.322258562E-1,-1.038632020E-1
2.429247140E0,4.394212365E-2,-1.162468940E-1,-9.427583218E-2
2.431735004E0,5.033370852E-2,-9.813741595E-2,-8.362319320E-2
2.434222869E0,5.566002429E-2,-7.789740711E-2,-7.190529257E-2
2.436710734E0,6.098634377E-2,-5.872265995E-2,-6.125266105E-2
2.439198598E0,6.631266326E-2,-4.061317816E-2,-5.060002208E-2
2.441686463E0,7.057371736E-2,-2.569948509E-2,-4.101264849E-2
2.444174327E0,7.483477145E-2,-1.504684892E-2,-3.355580568E-2
2.446662192E0,7.909582555E-2,-6.524739787E-3,-2.716422267E-2
2.449150056E0,8.229161799E-2,-1.198421582E-3,-2.183790505E-2
2.451637921E0,8.442214131E-2,3.062632866E-3,-1.757685095E-2
2.454125786E0,8.655267209E-2,5.193160381E-3,-1.331579592E-2
2.456613650E0,8.655267209E-2,5.193160381E-3,-1.118526794E-2
2.459101515E0,8.868319541E-2,5.193160381E-3,-7.989477366E-3
2.461589379E0,9.081372619E-2,1.997369342E-3,-6.924213842E-3
2.464077244E0,9.294424951E-2,-4.394212738E-3,-6.924213842E-3
2.466565109E0,9.507478029E-2,-1.078579482E-2,-7.989477366E-3
2.469052973E0,9.720530361E-2,-2.037316747E-2,-1.012000442E-2
2.471540838E0,9.720530361E-2,-2.996053919E-2,-1.331579592E-2
2.474028702E0,9.614004195E-2,-4.061317816E-2,-1.757685095E-2
2.476516567E0,9.507478029E-2,-5.233107507E-2,-2.396843210E-2
2.479004431E0,9.294424951E-2,-6.511423737E-2,-3.036001325E-2
2.481492296E0,8.868319541E-2,-7.896266878E-2,-3.781685978E-2
2.483980161E0,8.655267209E-2,-9.494162351E-2,-4.527370632E-2
2.486468025E0,8.335687965E-2,-1.098553166E-1,-5.273054913E-2
2.488955890E0,8.016108721E-2,-1.258342713E-1,-6.018739566E-2
2.491443754E0,7.696529478E-2,-1.418132186E-1,-6.764423847E-2
2.493931619E0,7.270424068E-2,-1.567269117E-1,-7.616634667E-2
2.496419484E0,6.844318658E-2,-1.727058738E-1,-8.468846232E-2
2.498907348E0,6.418213248E-2,-1.886848211E-1,-9.214530140E-2
2.501395213E0,5.992107838E-2,-2.014679909E-1,-1.006674170E-1
2.503883077E0,5.566002429E-2,-2.110553533E-1,-1.091895252E-1
2.506370942E0,5.246423557E-2,-2.174469382E-1,-1.166463718E-1
2.508858806E0,4.820318148E-2,-2.174469382E-1,-1.241032109E-1
2.511346671E0,4.287686199E-2,-2.131858915E-1,-1.283642650E-1
2.513834536E0,3.755054250E-2,-2.046637833E-1,-1.326253265E-1
2.516322400E0,3.222422674E-2,-1.929458827E-1,-1.358211190E-1
2.518810265E0,2.689790726E-2,-1.780321896E-1,-1.379516423E-1
2.521298129E0,2.050632425E-2,-1.641837656E-1,-1.400821656E-1
2.523785994E0,1.518000662E-2,-1.503353268E-1,-1.411474347E-1
2.526273859E0,9.853689000E-3,-1.364869028E-1,-1.411474347E-1
2.528761723E0,5.592633970E-3,-1.226384789E-1,-1.400821656E-1
2.531249588E0,2.663159103E-4,-1.098553166E-1,-1.368863732E-1
2.533737452E0,-2.929474926E-3,-9.707214683E-2,-1.326253265E-1
2.536225317E0,-7.190529723E-3,-8.215846121E-2,-1.272990108E-1
2.538713181E0,-1.145158429E-2,-6.831002980E-2,-1.230379492E-1
2.541201046E0,-1.571263932E-2,-5.446160212E-2,-1.198421568E-1
2.543688911E0,-1.997369342E-2,-3.954791278E-2,-1.166463718E-1
2.546176775E0,-2.210422046E-2,-2.569948509E-2,-1.155811027E-1
2.548664640E0,-2.530001104E-2,-1.398158539E-2,-1.134505793E-1
2.551152504E0,-2.636527456E-2,-4.394212738E-3,-1.123853177E-1
2.553640369E0,-2.849580161E-2,9.321057005E-4,-1.102547869E-1
2.556128234E0,-2.849580161E-2,3.062632866E-3,-1.091895252E-1
2.558616098E0,-3.062633052E-2,1.997369342E-3,-1.091895252E-1
2.561103963E0,-3.062633052E-2,-2.263685223E-3,-1.091895252E-1
2.563591827E0,-3.169159219E-2,-8.655266836E-3,-1.102547869E-1
2.566079692E0,-3.169159219E-2,-1.824264042E-2,-1.113200486E-1
2.568567556E0,-3.275685757E-2,-2.889527567E-2,-1.145158410E-1
2.571055421E0,-3.275685757E-2,-3.954791278E-2,-1.177116334E-1
2.573543286E0,-3.488738462E-2,-5.020054802E-2,-1.198421568E-1
2.576031150E0,-3.595264629E-2,-6.085318699E-2,-1.219726875E-1
2.578519015E0,-3.595264629E-2,-7.150582224E-2,-1.251684725E-1
2.581006879E0,-3.595264629E-2,-8.109319210E-2,-1.283642650E-1
2.583494744E0,-3.595264629E-2,-9.174583107E-2,-1.304948032E-1
2.585982609E0,-3.488738462E-2,-1.013332009E-1,-1.326253265E-1
2.588470473E0,-3.488738462E-2,-1.098553166E-1,-1.347558498E-1
2.590958338E0,-3.382211924E-2,-1.162468940E-1,-1.358211190E-1
2.593446202E0,-3.275685757E-2,-1.215732098E-1,-1.358211190E-1
2.595934067E0,-3.275685757E-2,-1.237037405E-1,-1.347558498E-1
2.598421931E0,-3.169159219E-2,-1.258342713E-1,-1.347558498E-1
2.600909796E0,-3.062633052E-2,-1.268995255E-1,-1.336905807E-1
2.603397661E0,-2.849580161E-2,-1.279647946E-1,-1.315600574E-1
2.605885525E0,-2.636527456E-2,-1.268995255E-1,-1.315600574E-1
2.608373390E0,-2.423474751E-2,-1.247690022E-1,-1.304948032E-1
2.610861254E0,-2.103895694E-2,-1.215732098E-1,-1.304948032E-1
2.613349119E0,-1.784316637E-2,-1.151816323E-1,-1.294295341E-1
2.615836984E0,-1.358211134E-2,-1.077247858E-1,-1.283642650E-1
2.618324848E0,-1.038632076E-2,-9.920267761E-2,-1.262337416E-1
2.620812713E0,-5.060002208E-3,-8.961530030E-2,-1.241032109E-1
2.623300577E0,2.663159103E-4,-8.109319210E-2,-1.209074259E-1
2.625788442E0,6.657897960E-3,-7.363634557E-2,-1.166463718E-1
2.628276306E0,1.304947957E-2,-6.937529147E-2,-1.123853177E-1
2.630764171E0,1.944106072E-2,-6.511423737E-2,-1.070589945E-1
2.633252036E0,2.583264373E-2,-6.298371404E-2,-1.006674170E-1
2.635739900E0,3.115896136E-2,-6.191844866E-2,-9.427583218E-2
2.638227765E0,3.542001545E-2,-5.978792161E-2,-8.681898564E-2
2.640715629E0,3.968106955E-2,-5.765739456E-2,-7.829687744E-2
2.643203494E0,4.394212365E-2,-5.446160212E-2,-6.977476925E-2
2.645691359E0,4.926844314E-2,-5.126581341E-2,-6.125266105E-2
2.648179223E0,5.352949724E-2,-4.807002097E-2,-5.060002208E-2
2.650667088E0,5.885581672E-2,-4.380896688E-2,-3.888212144E-2
2.653154952E0,6.524740160E-2,-4.061317816E-2,-2.609895915E-2
2.655642817E0,7.163897902E-2,-3.741738573E-2,-1.225053146E-2
2.658130681E0,7.803056389E-2,-3.635212034E-2,2.663159044E-3
2.660618546E0,8.442214131E-2,-3.635212034E-2,1.651158556E-2
2.663106411E0,9.187898785E-2,-3.954791278E-2,3.036001325E-2
2.665594275E0,9.933583438E-2,-4.380896688E-2,4.314317927E-2
2.668082140E0,1.057274193E-1,-4.913528636E-2,5.379581451E-2
2.670570004E0,1.110537350E-1,-5.552686751E-2,6.338318437E-2
2.673057869E0,1.163800508E-1,-6.191844866E-2,6.977476925E-2
2.675545734E0,1.206411049E-1,-6.831002980E-2,7.510108501E-2
2.678033598E0,1.259674281E-1,-7.257108390E-2,7.829687744E-2
2.680521463E0,1.302284747E-1,-7.789740711E-2,8.149266988E-2
2.683009327E0,1.366200596E-1,-8.215846121E-2,8.468846232E-2
2.685497192E0,1.419463754E-1,-8.641951531E-2,8.788424730E-2
2.687985056E0,1.483379602E-1,-9.174583107E-2,9.108003974E-2
2.690472921E0,1.547295451E-1,-9.494162351E-2,9.427583218E-2
2.692960786E0,1.600558609E-1,-1.002679393E-1,9.534109384E-2
2.695448650E0,1.643169224E-1,-1.045289934E-1,9.321057051E-2
2.697936515E0,1.685779691E-1,-1.087900475E-1,9.108003974E-2
2.700424379E0,1.728390306E-1,-1.119858399E-1,8.575372398E-2
2.702912244E0,1.760348231E-1,-1.151816323E-1,7.936213911E-2
2.705400109E0,1.802958697E-1,-1.162468940E-1,7.297056168E-2
2.707887973E0,1.824263930E-1,-1.130511016E-1,6.551371515E-2
2.710375838E0,1.856221855E-1,-1.066595241E-1,6.018739566E-2
2.712863702E0,1.866874546E-1,-9.920267761E-2,5.592634156E-2
2.715351567E0,1.866874546E-1,-8.855003864E-2,5.273054913E-2
2.717839431E0,1.856221855E-1,-7.683213800E-2,4.953476042E-2
2.720327296E0,1.845569313E-1,-6.404897571E-2,4.740423337E-2
2.722815161E0,1.834916621E-1,-5.233107507E-2,4.527370632E-2
2.725303025E0,1.813611388E-1,-4.167843983E-2,4.207791388E-2
2.727790890E0,1.813611388E-1,-3.209106624E-2,3.888212144E-2
2.730278754E0,1.792306006E-1,-2.356895804E-2,3.568633273E-2
2.732766619E0,1.781653464E-1,-1.504684892E-2,3.249054030E-2
2.735254484E0,1.771000773E-1,-7.590003312E-3,3.036001325E-2
2.737742348E0,1.760348231E-1,-1.198421582E-3,2.716422267E-2
2.740230213E0,1.760348231E-1,5.193160381E-3,2.609895915E-2
2.742718077E0,1.749695539E-1,8.388951421E-3,2.503369562E-2
2.745205942E0,1.749695539E-1,1.265000552E-2,2.396843210E-2
2.747693806E0,1.739042848E-1,1.478053257E-2,2.396843210E-2
2.750181671E0,1.728390306E-1,1.478053257E-2,2.290316857E-2
2.752669536E0,1.728390306E-1,1.371526904E-2,2.183790505E-2
2.755157400E0,1.728390306E-1,9.454214945E-3,2.077264152E-2
2.757645265E0,1.739042848E-1,5.193160381E-3,1.864211448E-2
2.760133129E0,1.739042848E-1,-1.198421582E-3,1.651158556E-2
2.762620994E0,1.749695539E-1,-8.655266836E-3,1.438105945E-2
2.765108859E0,1.760348231E-1,-1.717737690E-2,1.225053146E-2
2.767596723E0,1.760348231E-1,-2.569948509E-2,1.012000442E-2
2.770084588E0,1.760348231E-1,-3.528685868E-2,7.989477366E-3
2.772572452E0,1.760348231E-1,-4.487423226E-2,4.793686327E-3
2.775060317E0,1.760348231E-1,-5.446160212E-2,2.663159044E-3
2.777548181E0,1.760348231E-1,-6.298371404E-2,2.663159044E-3
2.780036046E0,1.749695539E-1,-7.257108390E-2,1.597895520E-3
2.782523911E0,1.749695539E-1,-8.109319210E-2,2.663159044E-3
2.785011775E0,1.749695539E-1,-8.961530030E-2,2.663159044E-3
2.787499640E0,1.749695539E-1,-9.600688517E-2,4.793686327E-3
2.789987504E0,1.760348231E-1,-1.013332009E-1,6.924213842E-3
2.792475369E0,1.760348231E-1,-1.034637317E-1,9.054740891E-3
2.794963234E0,1.760348231E-1,-1.055942550E-1,1.331579592E-2
2.797451098E0,1.771000773E-1,-1.034637317E-1,1.757685095E-2
2.799938963E0,1.781653464E-1,-1.013332009E-1,2.290316857E-2
2.802426827E0,1.802958697E-1,-9.813741595E-2,2.609895915E-2
2.804914692E0,1.834916621E-1,-9.387636185E-2,3.036001325E-2
2.807402556E0,1.856221855E-1,-8.855003864E-2,3.355580568E-2
2.809890421E0,1.877527237E-1,-8.322372288E-2,3.568633273E-2
2.812378286E0,1.920137703E-1,-7.576687634E-2,3.675159439E-2
2.814866150E0,1.941442937E-1,-6.937529147E-2,3.888212144E-2
2.817354015E0,1.973400861E-1,-6.191844866E-2,3.888212144E-2
2.819841879E0,1.994706094E-1,-5.552686751E-2,3.888212144E-2
2.822329744E0,2.005358785E-1,-5.020054802E-2,3.675159439E-2
2.824817609E0,2.016011477E-1,-4.700475931E-2,3.355580568E-2
2.827305473E0,2.016011477E-1,-4.380896688E-2,2.822948620E-2
2.829793338E0,2.016011477E-1,-4.274370521E-2,2.290316857E-2
2.832281202E0,2.026664019E-1,-4.274370521E-2,1.651158556E-2
2.834769067E0,2.026664019E-1,-4.167843983E-2,1.012000442E-2
2.837256931E0,2.026664019E-1,-4.061317816E-2,4.793686327E-3
2.839744796E0,2.016011477E-1,-3.741738573E-2,5.326318205E-4
2.842232661E0,2.016011477E-1,-3.422159329E-2,-1.597895520E-3
2.844720525E0,2.005358785E-1,-3.315633163E-2,-3.728422802E-3
2.847208390E0,2.005358785E-1,-3.315633163E-2,-5.858949851E-3
2.849696254E0,1.994706094E-1,-3.422159329E-2,-9.054740891E-3
2.852184119E0,1.973400861E-1,-3.635212034E-2,-1.438105945E-2
2.854671984E0,1.973400861E-1,-3.954791278E-2,-1.970737800E-2
2.857159848E0,1.962748319E-1,-4.167843983E-2,-2.716422267E-2
2.859647713E0,1.952095628E-1,-4.380896688E-2,-3.355580568E-2
2.862135577E0,1.930790395E-1,-4.487423226E-2,-3.781685978E-2
2.864623442E0,1.920137703E-1,-4.380896688E-2,-4.314317927E-2
2.867111306E0,1.888179779E-1,-4.274370521E-2,-4.633896798E-2
2.869599171E0,1.866874546E-1,-4.061317816E-2,-4.953476042E-2
2.872087036E0,1.845569313E-1,-4.061317816E-2,-5.166528746E-2
2.874574900E0,1.824263930E-1,-3.954791278E-2,-5.379581451E-2
2.877062765E0,1.792306006E-1,-4.167843983E-2,-5.486107618E-2
2.879550629E0,1.771000773E-1,-4.380896688E-2,-5.592634156E-2
2.882038494E0,1.760348231E-1,-4.700475931E-2,-5.699160323E-2
2.884526359E0,1.739042848E-1,-5.020054802E-2,-5.912213027E-2
2.887014223E0,1.717737615E-1,-5.446160212E-2,-6.125266105E-2
2.889502088E0,1.696432382E-1,-5.872265995E-2,-6.231792271E-2
2.891989952E0,1.675127149E-1,-6.191844866E-2,-6.444845349E-2
2.894477817E0,1.653821766E-1,-6.511423737E-2,-6.551371515E-2
2.896965681E0,1.621863842E-1,-6.937529147E-2,-6.657897681E-2
2.899453546E0,1.600558609E-1,-7.257108390E-2,-6.764423847E-2
2.901941411E0,1.579253376E-1,-7.896266878E-2,-6.870950758E-2
2.904429275E0,1.557948142E-1,-8.535424620E-2,-7.084003091E-2
2.906917140E0,1.536642760E-1,-9.281109273E-2,-7.190529257E-2
2.909405004E0,1.504684836E-1,-1.013332009E-1,-7.403582335E-2
2.911892869E0,1.483379602E-1,-1.109205782E-1,-7.723161578E-2
2.914380734E0,1.440769136E-1,-1.205079481E-1,-8.042740822E-2
2.916868598E0,1.408811212E-1,-1.300953180E-1,-8.468846232E-2
2.919356463E0,1.366200596E-1,-1.396826953E-1,-8.894951642E-2
2.921844327E0,1.312937438E-1,-1.492700726E-1,-9.427583218E-2
2.924332192E0,1.270326823E-1,-1.588574350E-1,-9.747162461E-2
2.926820056E0,1.217063740E-1,-1.663142890E-1,-1.017326787E-1
2.929307921E0,1.174453199E-1,-1.727058738E-1,-1.038632020E-1
2.931795786E0,1.142495275E-1,-1.780321896E-1,-1.059937328E-1
2.934283650E0,1.110537350E-1,-1.812279820E-1,-1.059937328E-1
2.936771515E0,1.099884734E-1,-1.822932363E-1,-1.070589945E-1
2.939259379E0,1.078579426E-1,-1.812279820E-1,-1.049284711E-1
2.941747244E0,1.078579426E-1,-1.780321896E-1,-1.049284711E-1
2.944235109E0,1.067926809E-1,-1.716406047E-1,-1.027979404E-1
2.946722973E0,1.046621501E-1,-1.641837656E-1,-1.006674170E-1
2.949210838E0,1.035968885E-1,-1.567269117E-1,-9.853688627E-2
2.951698702E0,1.025316268E-1,-1.503353268E-1,-9.534109384E-2
2.954186567E0,1.014663652E-1,-1.450090110E-1,-9.214530140E-2
2.956674431E0,1.014663652E-1,-1.407479644E-1,-8.788424730E-2
2.959162296E0,1.025316268E-1,-1.386174262E-1,-8.362319320E-2
2.961650161E0,1.035968885E-1,-1.375521719E-1,-7.829687744E-2
2.964138025E0,1.046621501E-1,-1.354216337E-1,-7.297056168E-2
2.966625890E0,1.046621501E-1,-1.332911104E-1,-6.657897681E-2
2.969113754E0,1.057274193E-1,-1.311605871E-1,-6.125266105E-2
2.971601619E0,1.046621501E-1,-1.268995255E-1,-5.592634156E-2
2.974089484E0,1.046621501E-1,-1.237037405E-1,-5.166528746E-2
2.976577348E0,1.046621501E-1,-1.205079481E-1,-4.846949503E-2
2.979065213E0,1.057274193E-1,-1.162468940E-1,-4.527370632E-2
2.981553077E0,1.078579426E-1,-1.119858399E-1,-4.420844093E-2
2.984040942E0,1.078579426E-1,-1.087900475E-1,-4.314317927E-2
2.986528806E0,1.089232042E-1,-1.066595241E-1,-4.420844093E-2
2.989016671E0,1.078579426E-1,-1.045289934E-1,-4.527370632E-2
2.991504536E0,1.067926809E-1,-1.055942550E-1,-4.633896798E-2
2.993992400E0,1.046621501E-1,-1.066595241E-1,-4.633896798E-2
2.996480265E0,1.014663652E-1,-1.109205782E-1,-4.846949503E-2
2.998968129E0,9.933583438E-2,-1.162468940E-1,-4.953476042E-2
3.001455994E0,9.720530361E-2,-1.215732098E-1,-5.166528746E-2
3.003943859E0,9.507478029E-2,-1.279647946E-1,-5.486107618E-2
3.006431723E0,9.187898785E-2,-1.343563795E-1,-6.018739566E-2
3.008919588E0,9.081372619E-2,-1.386174262E-1,-6.551371515E-2
3.011407452E0,8.868319541E-2,-1.407479644E-1,-7.084003091E-2
3.013895317E0,8.655267209E-2,-1.418132186E-1,-7.723161578E-2
3.016383181E0,8.335687965E-2,-1.428784877E-1,-8.255793154E-2
3.018871046E0,8.016108721E-2,-1.439437568E-1,-9.001477808E-2
3.021358911E0,7.803056389E-2,-1.460742801E-1,-9.640636295E-2
3.023846775E0,7.696529478E-2,-1.492700726E-1,-1.027979404E-1
3.026334640E0,7.590003312E-2,-1.556616426E-1,-1.102547869E-1
3.028822504E0,7.696529478E-2,-1.631184965E-1,-1.177116334E-1
3.031310317E0,7.803056389E-2,-1.727058738E-1,-1.241032109E-1
3.033798129E0,8.122635633E-2,-1.812279820E-1,-1.294295341E-1
3.036285942E0,8.548741043E-2,-1.897500902E-1,-1.336905807E-1
3.038773754E0,8.974846452E-2,-1.961416751E-1,-1.368863732E-1
3.041261567E0,9.507478029E-2,-1.982721984E-1,-1.368863732E-1
3.043749379E0,1.004010960E-1,-1.972069293E-1,-1.347558498E-1
3.046237192E0,1.067926809E-1,-1.918806136E-1,-1.315600574E-1
3.048725004E0,1.142495275E-1,-1.844237745E-1,-1.262337416E-1
3.051212817E0,1.227716357E-1,-1.759016514E-1,-1.198421568E-1
3.053700629E0,1.323590130E-1,-1.673795432E-1,-1.123853177E-1
3.056188442E0,1.419463754E-1,-1.588574350E-1,-1.038632020E-1
3.058676254E0,1.525990218E-1,-1.503353268E-1,-9.534109384E-2
3.061164067E0,1.632516533E-1,-1.418132186E-1,-8.468846232E-2
3.063651879E0,1.728390306E-1,-1.332911104E-1,-7.510108501E-2
3.066139692E0,1.834916621E-1,-1.237037405E-1,-6.444845349E-2
3.068627504E0,1.930790395E-1,-1.130511016E-1,-5.379581451E-2
3.071115317E0,2.026664019E-1,-1.013332009E-1,-4.420844093E-2
3.073603129E0,2.111885101E-1,-8.855003864E-2,-3.462106735E-2
3.076090942E0,2.197106332E-1,-7.576687634E-2,-2.503369562E-2
3.078578754E0,2.271674722E-1,-6.511423737E-2,-1.544632297E-2
3.081066567E0,2.335590571E-1,-5.446160212E-2,-5.858949851E-3
3.083554379E0,2.399506420E-1,-4.487423226E-2,2.663159044E-3
3.086042192E0,2.463422120E-1,-3.741738573E-2,1.225053146E-2
3.088530004E0,2.516685426E-1,-3.102580272E-2,1.864211448E-2
3.091017817E0,2.559295893E-1,-2.676474862E-2,2.609895915E-2
3.093505629E0,2.601906359E-1,-2.356895804E-2,3.142527863E-2
3.095993442E0,2.623211741E-1,-2.143843099E-2,3.568633273E-2
3.098481306E0,2.665822208E-1,-2.037316747E-2,3.781685978E-2
3.100969171E0,2.676474750E-1,-2.037316747E-2,3.994738683E-2
3.103457036E0,2.687127590E-1,-2.037316747E-2,4.101264849E-2
3.105944900E0,2.687127590E-1,-2.143843099E-2,4.314317927E-2
3.108432765E0,2.676474750E-1,-2.356895804E-2,4.420844093E-2
3.110920629E0,2.665822208E-1,-2.676474862E-2,4.420844093E-2
3.113408494E0,2.644517124E-1,-3.102580272E-2,4.527370632E-2
3.115896359E0,2.612559199E-1,-3.528685868E-2,4.527370632E-2
3.118384223E0,2.569948435E-1,-4.274370521E-2,4.314317927E-2
3.120872088E0,2.527337968E-1,-5.020054802E-2,4.207791388E-2
3.123359952E0,2.484727502E-1,-5.978792161E-2,3.994738683E-2
3.125847817E0,2.431464195E-1,-7.044056058E-2,3.568633273E-2
3.128335681E0,2.388853729E-1,-8.109319210E-2,3.249054030E-2
3.130823546E0,2.346243113E-1,-9.281109273E-2,2.929474972E-2
3.133311411E0,2.292979956E-1,-1.034637317E-1,2.396843210E-2
3.135799275E0,2.250369489E-1,-1.130511016E-1,2.077264152E-2
3.138287140E0,2.207758874E-1,-1.215732098E-1,1.651158556E-2
3.140775004E0,2.165148407E-1,-1.300953180E-1,1.225053146E-2
3.143262869E0,2.143843025E-1,-1.386174262E-1,9.054740891E-3
3.145750734E0,2.122537792E-1,-1.450090110E-1,5.858949851E-3
3.148238598E0,2.101232558E-1,-1.503353268E-1,4.793686327E-3
3.150726463E0,2.101232558E-1,-1.535311192E-1,3.728422802E-3
3.153214327E0,2.101232558E-1,-1.577921808E-1,2.663159044E-3
3.155702192E0,2.101232558E-1,-1.599227041E-1,2.663159044E-3
3.158190056E0,2.111885101E-1,-1.609879732E-1,2.663159044E-3
3.160677921E0,2.143843025E-1,-1.599227041E-1,3.728422802E-3
3.163165786E0,2.165148407E-1,-1.577921808E-1,5.858949851E-3
3.165653650E0,2.197106332E-1,-1.535311192E-1,9.054740891E-3
3.168141515E0,2.229064107E-1,-1.471395344E-1,1.225053146E-2
3.170629379E0,2.282327414E-1,-1.375521719E-1,1.438105945E-2
3.173117244E0,2.314285189E-1,-1.279647946E-1,1.757685095E-2
3.175605109E0,2.356895804E-1,-1.151816323E-1,2.077264152E-2
3.178092973E0,2.388853729E-1,-1.013332009E-1,2.396843210E-2
3.180580838E0,2.442116886E-1,-8.641951531E-2,2.822948620E-2
3.183068702E0,2.474074811E-1,-7.044056058E-2,3.142527863E-2
3.185556567E0,2.516685426E-1,-5.446160212E-2,3.568633273E-2
3.188044431E0,2.537990510E-1,-3.848264739E-2,3.994738683E-2
3.190532296E0,2.559295893E-1,-2.356895804E-2,4.527370632E-2
3.193020161E0,2.580601275E-1,-9.720530361E-3,4.953476042E-2
3.195508025E0,2.591253817E-1,3.062632866E-3,5.379581451E-2
3.197995890E0,2.601906359E-1,1.371526904E-2,5.805686861E-2
3.200483754E0,2.601906359E-1,2.330264263E-2,6.125266105E-2
3.202971619E0,2.601906359E-1,3.182475269E-2,6.444845349E-2
3.205459484E0,2.591253817E-1,3.821633384E-2,6.657897681E-2
3.207947348E0,2.591253817E-1,4.460791498E-2,6.764423847E-2
3.210435213E0,2.580601275E-1,4.886896908E-2,6.977476925E-2
3.212923077E0,2.580601275E-1,5.206476152E-2,7.084003091E-2
3.215410942E0,2.569948435E-1,5.206476152E-2,7.084003091E-2
3.217898806E0,2.559295893E-1,5.099949613E-2,6.977476925E-2
3.220386671E0,2.559295893E-1,4.780370742E-2,6.870950758E-2
3.222874536E0,2.559295893E-1,4.354264960E-2,6.551371515E-2
3.225362400E0,2.548643351E-1,3.608580679E-2,6.338318437E-2
3.227850265E0,2.548643351E-1,2.969422378E-2,6.018739566E-2
3.230338129E0,2.548643351E-1,2.223737910E-2,5.699160323E-2
3.232825994E0,2.548643351E-1,1.371526904E-2,5.166528746E-2
3.235313859E0,2.559295893E-1,4.127896391E-3,4.740423337E-2
3.237801723E0,2.569948435E-1,-4.394212738E-3,4.314317927E-2
3.240289588E0,2.580601275E-1,-1.291632187E-2,3.781685978E-2
3.242777452E0,2.601906359E-1,-2.037316747E-2,3.355580568E-2
3.245265317E0,2.612559199E-1,-2.783001214E-2,3.036001325E-2
3.247753181E0,2.644517124E-1,-3.422159329E-2,2.822948620E-2
3.250241046E0,2.665822208E-1,-4.061317816E-2,2.822948620E-2
3.252728911E0,2.697780132E-1,-4.593949392E-2,2.929474972E-2
3.255216775E0,2.729738057E-1,-5.020054802E-2,3.036001325E-2
3.257704640E0,2.772348523E-1,-5.233107507E-2,3.249054030E-2
3.260192504E0,2.804306448E-1,-5.339634046E-2,3.568633273E-2
3.262680369E0,2.836264372E-1,-5.126581341E-2,3.888212144E-2
3.265168234E0,2.868222296E-1,-4.807002097E-2,4.314317927E-2
3.267656098E0,2.889527678E-1,-4.274370521E-2,4.846949503E-2
3.270143963E0,2.932138145E-1,-3.528685868E-2,5.379581451E-2
3.272631827E0,2.974748611E-1,-2.463422157E-2,6.018739566E-2
3.275119692E0,3.006706536E-1,-1.291632187E-2,6.657897681E-2
3.277607556E0,3.038664460E-1,9.321057005E-4,7.297056168E-2
3.280095421E0,3.070622385E-1,1.478053257E-2,7.829687744E-2
3.282583286E0,3.102580309E-1,2.969422378E-2,8.362319320E-2
3.285071150E0,3.134538233E-1,4.354264960E-2,8.788424730E-2
3.287559015E0,3.177148700E-1,5.739107728E-2,9.214530140E-2
3.290046879E0,3.209106624E-1,7.017423958E-2,9.640636295E-2
3.292534744E0,3.251717389E-1,8.295740932E-2,1.006674170E-1
3.295022609E0,3.283675313E-1,9.467530251E-2,1.049284711E-1
3.297510473E0,3.315632939E-1,1.053279415E-1,1.081242561E-1
3.299998338E0,3.347590864E-1,1.149153188E-1,1.123853177E-1
3.302486202E0,3.379548788E-1,1.234374270E-1,1.166463718E-1
3.304974067E0,3.400854170E-1,1.308942735E-1,1.209074259E-1
3.307461931E0,3.432812095E-1,1.372858584E-1,1.251684725E-1
3.309949796E0,3.464770019E-1,1.426121742E-1,1.272990108E-1
3.312437661E0,3.486075401E-1,1.458079666E-1,1.304948032E-1
3.314925525E0,3.518033028E-1,1.479384899E-1,1.326253265E-1
3.317413390E0,3.539338410E-1,1.479384899E-1,1.347558498E-1
3.319901254E0,3.560643792E-1,1.458079666E-1,1.358211190E-1
3.322389119E0,3.592601717E-1,1.436774284E-1,1.368863732E-1
3.324876984E0,3.624559641E-1,1.404816359E-1,1.379516423E-1
3.327364848E0,3.656517565E-1,1.372858584E-1,1.379516423E-1
3.329852713E0,3.677822649E-1,1.319595277E-1,1.390169114E-1
3.332340577E0,3.709780574E-1,1.266332120E-1,1.400821656E-1
3.334828442E0,3.731085956E-1,1.223721579E-1,1.411474347E-1
3.337316306E0,3.741738498E-1,1.181111038E-1,1.411474347E-1
3.339804171E0,3.752391040E-1,1.138500497E-1,1.422126889E-1
3.342292036E0,3.752391040E-1,1.106542572E-1,1.411474347E-1
3.344779900E0,3.731085956E-1,1.074584723E-1,1.411474347E-1
3.347267765E0,3.709780574E-1,1.042626798E-1,1.400821656E-1
3.349755629E0,3.677822649E-1,1.021321490E-1,1.368863732E-1
3.352243494E0,3.656517565E-1,9.893636405E-2,1.347558498E-1
3.354731359E0,3.635212183E-1,9.574057162E-2,1.304948032E-1
3.357219223E0,3.613906801E-1,9.147951752E-2,1.262337416E-1
3.359707088E0,3.603254259E-1,8.508793265E-2,1.219726875E-1
3.362194952E0,3.592601717E-1,7.976161689E-2,1.166463718E-1
3.364682817E0,3.592601717E-1,7.230477035E-2,1.123853177E-1
3.367170681E0,3.592601717E-1,6.591318548E-2,1.081242561E-1
3.369658546E0,3.603254259E-1,5.952160433E-2,1.038632020E-1
3.372146411E0,3.603254259E-1,5.313002318E-2,1.006674170E-1
3.374634275E0,3.613906801E-1,4.886896908E-2,9.747162461E-2
3.377122140E0,3.635212183E-1,4.460791498E-2,9.534109384E-2
3.379610004E0,3.645864725E-1,4.247738793E-2,9.321057051E-2
3.382097869E0,3.667170107E-1,4.034686089E-2,9.001477808E-2
3.384585734E0,3.677822649E-1,4.034686089E-2,8.788424730E-2
3.387073598E0,3.709780574E-1,4.141212255E-2,8.468846232E-2
3.389561463E0,3.731085956E-1,4.460791498E-2,8.149266988E-2
3.392049327E0,3.752391040E-1,4.886896908E-2,7.936213911E-2
3.394537192E0,3.784348965E-1,5.313002318E-2,7.616634667E-2
3.397025056E0,3.816306889E-1,5.952160433E-2,7.297056168E-2
3.399512921E0,3.837612271E-1,6.484792382E-2,6.870950758E-2
3.402000786E0,3.869570196E-1,7.123950869E-2,6.551371515E-2
3.404488650E0,3.901528120E-1,7.550056279E-2,6.231792271E-2
3.406976515E0,3.922833502E-1,8.082687855E-2,5.912213027E-2
3.409464379E0,3.954791129E-1,8.508793265E-2,5.486107618E-2
3.411952244E0,3.976096511E-1,8.934898674E-2,5.166528746E-2
3.414440109E0,3.997401893E-1,9.254477918E-2,4.953476042E-2
3.416927973E0,4.008054435E-1,9.680583328E-2,4.740423337E-2
3.419415838E0,3.997401893E-1,1.010668874E-1,4.527370632E-2
3.421903702E0,3.997401893E-1,1.031974182E-1,4.314317927E-2
3.424391567E0,3.976096511E-1,1.053279415E-1,4.101264849E-2
3.426879431E0,3.965443969E-1,1.053279415E-1,3.781685978E-2
3.429367296E0,3.944138587E-1,1.042626798E-1,3.568633273E-2
3.431855161E0,3.933486044E-1,1.010668874E-1,3.142527863E-2
3.434343025E0,3.922833502E-1,9.680583328E-2,2.822948620E-2
3.436830890E0,3.901528120E-1,9.041424841E-2,2.503369562E-2
3.439318754E0,3.890875578E-1,8.295740932E-2,2.183790505E-2
3.441806619E0,3.880222738E-1,7.337003201E-2,1.864211448E-2
3.444294484E0,3.869570196E-1,6.378266215E-2,1.651158556E-2
3.446782348E0,3.858917654E-1,5.419528857E-2,1.438105945E-2
3.449270213E0,3.837612271E-1,4.354264960E-2,1.118526794E-2
3.451758077E0,3.805654347E-1,3.502054140E-2,9.054740891E-3
3.454245942E0,3.784348965E-1,2.649843320E-2,5.858949851E-3
3.456733806E0,3.752391040E-1,2.010685205E-2,1.597895520E-3
3.459221671E0,3.720433414E-1,1.478053257E-2,-2.663159044E-3
3.461709536E0,3.688475490E-1,8.388951421E-3,-7.989477366E-3
3.464197400E0,3.656517565E-1,5.193160381E-3,-1.225053146E-2
3.466685265E0,3.635212183E-1,1.997369342E-3,-1.757685095E-2
3.469173129E0,3.603254259E-1,9.321057005E-4,-2.290316857E-2
3.471660994E0,3.581948876E-1,1.997369342E-3,-2.503369562E-2
3.474148859E0,3.560643792E-1,3.062632866E-3,-2.929474972E-2
3.476636723E0,3.539338410E-1,6.258423906E-3,-3.036001325E-2
3.479124588E0,3.507380486E-1,1.158474199E-2,-3.142527863E-2
3.481612452E0,3.475422561E-1,1.797632314E-2,-3.036001325E-2
3.484100317E0,3.443464637E-1,2.436790615E-2,-3.142527863E-2
3.486588181E0,3.411506712E-1,3.182475269E-2,-3.142527863E-2
3.489076046E0,3.368896246E-1,4.034686089E-2,-3.142527863E-2
3.491563911E0,3.336938322E-1,4.993423447E-2,-3.142527863E-2
3.494051775E0,3.294327855E-1,5.739107728E-2,-3.249054030E-2
3.496539640E0,3.262369931E-1,6.484792382E-2,-3.355580568E-2
3.499027504E0,3.230412006E-1,7.123950869E-2,-3.462106735E-2
3.501515369E0,3.187801540E-1,7.763108611E-2,-3.675159439E-2
3.504003234E0,3.166496158E-1,8.189214021E-2,-3.888212144E-2
3.506491098E0,3.145190775E-1,8.508793265E-2,-3.994738683E-2
3.508978963E0,3.102580309E-1,8.615319431E-2,-3.888212144E-2
3.511466827E0,3.081275225E-1,8.721846342E-2,-3.888212144E-2
3.513954692E0,3.038664460E-1,8.721846342E-2,-3.675159439E-2
3.516442556E0,2.996053994E-1,8.615319431E-2,-3.462106735E-2
3.518930421E0,2.964096069E-1,8.508793265E-2,-3.142527863E-2
3.521418286E0,2.932138145E-1,8.508793265E-2,-2.929474972E-2
3.523906150E0,2.900180221E-1,8.508793265E-2,-2.609895915E-2
3.526394015E0,2.878875136E-1,8.508793265E-2,-2.290316857E-2
3.528881879E0,2.846917212E-1,8.615319431E-2,-1.970737800E-2
3.531369744E0,2.804306448E-1,8.828372508E-2,-1.864211448E-2
3.533857609E0,2.783001363E-1,9.041424841E-2,-1.651158556E-2
3.536345473E0,2.751043439E-1,9.361004084E-2,-1.438105945E-2
3.538833338E0,2.729738057E-1,9.680583328E-2,-1.225053146E-2
3.541321202E0,2.708432674E-1,1.021321490E-1,-1.012000442E-2
3.543809067E0,2.665822208E-1,1.095889956E-1,-6.924213842E-3
3.546296931E0,2.633864284E-1,1.181111038E-1,-3.728422802E-3
3.548784796E0,2.580601275E-1,1.266332120E-1,-5.326318205E-4
3.551272661E0,2.516685426E-1,1.362205893E-1,2.663159044E-3
3.553760525E0,2.452769578E-1,1.458079666E-1,4.793686327E-3
3.556248390E0,2.388853729E-1,1.553953290E-1,6.924213842E-3
3.558736254E0,2.314285189E-1,1.617869139E-1,7.989477366E-3
3.561224119E0,2.239716798E-1,1.671132296E-1,5.858949851E-3
3.563711984E0,2.175800949E-1,1.692437679E-1,4.793686327E-3
3.566199848E0,2.122537792E-1,1.692437679E-1,2.663159044E-3
3.568687713E0,2.047969401E-1,1.681784987E-1,1.597895520E-3
3.571175577E0,1.984053552E-1,1.639174372E-1,5.326318205E-4
3.573663442E0,1.920137703E-1,1.585911214E-1,5.326318205E-4
3.576151306E0,1.834916621E-1,1.500690132E-1,1.597895520E-3
3.578639171E0,1.760348231E-1,1.415469050E-1,2.663159044E-3
3.581127036E0,1.685779691E-1,1.330247968E-1,4.793686327E-3
3.583614900E0,1.600558609E-1,1.245026886E-1,6.924213842E-3
3.586102765E0,1.525990218E-1,1.170458421E-1,9.054740891E-3
3.588590629E0,1.462074369E-1,1.095889956E-1,1.225053146E-2
3.591078494E0,1.376853287E-1,1.031974182E-1,1.331579592E-2
3.593566306E0,1.302284747E-1,9.893636405E-2,1.544632297E-2
3.596054119E0,1.206411049E-1,9.467530251E-2,1.651158556E-2
3.598541931E0,1.121189967E-1,9.254477918E-2,1.757685095E-2
3.601029744E0,1.014663652E-1,9.041424841E-2,1.970737800E-2
3.603517556E0,9.081372619E-2,8.934898674E-2,2.290316857E-2
3.606005369E0,7.909582555E-2,8.934898674E-2,2.609895915E-2
3.608493181E0,6.631266326E-2,8.934898674E-2,2.929474972E-2
3.610980994E0,5.352949724E-2,9.041424841E-2,3.355580568E-2
3.613468806E0,3.968106955E-2,9.254477918E-2,3.888212144E-2
3.615956619E0,2.476738021E-2,9.254477918E-2,4.314317927E-2
3.618444431E0,9.853689000E-3,9.254477918E-2,4.740423337E-2
3.620932244E0,-5.060002208E-3,9.361004084E-2,5.166528746E-2
3.623420056E0,-2.103895694E-2,9.361004084E-2,5.486107618E-2
3.625907869E0,-3.701791167E-2,9.361004084E-2,5.805686861E-2
3.628395681E0,-5.299686641E-2,9.254477918E-2,6.125266105E-2
3.630883494E0,-6.791055948E-2,9.041424841E-2,6.444845349E-2
3.633371306E0,-8.388951421E-2,8.615319431E-2,6.444845349E-2
3.635859119E0,-9.773793817E-2,8.082687855E-2,6.551371515E-2
3.638346931E0,-1.115863696E-1,7.443529367E-2,6.444845349E-2
3.640834744E0,-1.243695319E-1,6.697845459E-2,6.231792271E-2
3.643322556E0,-1.360874325E-1,5.739107728E-2,6.018739566E-2
3.645810369E0,-1.456748098E-1,4.886896908E-2,5.805686861E-2
3.648298181E0,-1.563274413E-1,3.821633384E-2,5.592634156E-2
3.650785994E0,-1.659148186E-1,2.862896025E-2,5.379581451E-2
3.653273806E0,-1.755021811E-1,1.797632314E-2,5.273054913E-2
3.655761619E0,-1.850895584E-1,8.388951421E-3,5.060002208E-2
3.658249431E0,-1.936116666E-1,-1.331579551E-4,4.846949503E-2
3.660737244E0,-2.010685056E-1,-8.655266836E-3,4.633896798E-2
3.663225056E0,-2.063948363E-1,-1.504684892E-2,4.314317927E-2
3.665712921E0,-2.117211521E-1,-2.037316747E-2,3.888212144E-2
3.668200786E0,-2.159821987E-1,-2.463422157E-2,3.462106735E-2
3.670688650E0,-2.191779912E-1,-2.676474862E-2,3.036001325E-2
3.673176515E0,-2.223737836E-1,-2.676474862E-2,2.503369562E-2
3.675664379E0,-2.245043069E-1,-2.463422157E-2,2.077264152E-2
3.678152244E0,-2.277000993E-1,-2.037316747E-2,1.651158556E-2
3.680640109E0,-2.298306376E-1,-1.504684892E-2,1.331579592E-2
3.683127973E0,-2.319611609E-1,-9.720530361E-3,1.012000442E-2
3.685615838E0,-2.330264151E-1,-3.328948980E-3,6.924213842E-3
3.688103702E0,-2.330264151E-1,1.997369342E-3,3.728422802E-3
3.690591567E0,-2.330264151E-1,7.323687430E-3,-5.326318205E-4
3.693079431E0,-2.319611609E-1,1.051947847E-2,-5.858949851E-3
3.695567296E0,-2.298306376E-1,9.454214945E-3,-1.118526794E-2
3.698055161E0,-2.266348451E-1,7.323687430E-3,-1.757685095E-2
3.700543025E0,-2.213085145E-1,3.062632866E-3,-2.503369562E-2
3.703030890E0,-2.170474678E-1,-4.394212738E-3,-3.142527863E-2
3.705518754E0,-2.106558830E-1,-1.291632187E-2,-3.781685978E-2
3.708006619E0,-2.053295672E-1,-2.250369452E-2,-4.314317927E-2
3.710494484E0,-2.010685056E-1,-3.209106624E-2,-4.633896798E-2
3.712982348E0,-1.968074590E-1,-4.274370521E-2,-4.846949503E-2
3.715470213E0,-1.914811432E-1,-5.126581341E-2,-4.953476042E-2
3.717958077E0,-1.861548275E-1,-6.085318699E-2,-4.846949503E-2
3.720445942E0,-1.808284968E-1,-6.831002980E-2,-4.527370632E-2
3.722933806E0,-1.755021811E-1,-7.576687634E-2,-4.101264849E-2
3.725421671E0,-1.712411344E-1,-8.215846121E-2,-3.675159439E-2
3.727909536E0,-1.669800729E-1,-8.748477697E-2,-3.142527863E-2
3.730397400E0,-1.616537571E-1,-9.174583107E-2,-2.503369562E-2
3.732885265E0,-1.573926955E-1,-9.600688517E-2,-1.864211448E-2
3.735373129E0,-1.531316489E-1,-1.002679393E-1,-1.118526794E-2
3.737860994E0,-1.488705873E-1,-1.023984700E-1,-2.663159044E-3
3.740348859E0,-1.446095407E-1,-1.055942550E-1,6.924213842E-3
3.742836723E0,-1.403484792E-1,-1.066595241E-1,1.864211448E-2
3.745324588E0,-1.371526867E-1,-1.055942550E-1,3.142527863E-2
3.747812452E0,-1.350221634E-1,-1.045289934E-1,4.527370632E-2
3.750300317E0,-1.339569092E-1,-1.002679393E-1,6.018739566E-2
3.752788181E0,-1.328916401E-1,-9.600688517E-2,7.510108501E-2
3.755276046E0,-1.318263710E-1,-8.855003864E-2,9.214530140E-2
3.757763911E0,-1.318263710E-1,-8.002793044E-2,1.081242561E-1
3.760251775E0,-1.318263710E-1,-7.150582224E-2,1.230379492E-1
3.762739640E0,-1.296958476E-1,-6.191844866E-2,1.368863732E-1
3.765227504E0,-1.275653243E-1,-5.233107507E-2,1.518000662E-1
3.767715369E0,-1.243695319E-1,-4.380896688E-2,1.645832360E-1
3.770203234E0,-1.211737394E-1,-3.528685868E-2,1.773663908E-1
3.772691098E0,-1.158474237E-1,-2.889527567E-2,1.890842915E-1
3.775178963E0,-1.105211005E-1,-2.250369452E-2,2.008021921E-1
3.777666827E0,-1.051947847E-1,-1.930790395E-2,2.114548385E-1
3.780154692E0,-9.986846894E-2,-1.504684892E-2,2.210422009E-1
3.782642556E0,-9.454214573E-2,-1.185105834E-2,2.295643091E-1
3.785130421E0,-8.921582997E-2,-8.655266836E-3,2.380864173E-1
3.787618286E0,-8.388951421E-2,-3.328948980E-3,2.455432713E-1
3.790106150E0,-7.962846011E-2,1.997369342E-3,2.519348562E-1
3.792594015E0,-7.536740601E-2,6.258423906E-3,2.572611570E-1
3.795081879E0,-7.110634446E-2,1.265000552E-2,2.615222335E-1
3.797569744E0,-6.791055948E-2,1.797632314E-2,2.657832801E-1
3.800057609E0,-6.258423626E-2,2.330264263E-2,2.668485343E-1
3.802545473E0,-5.725792050E-2,2.756369673E-2,2.679138184E-1
3.805033338E0,-4.980107397E-2,3.395527974E-2,2.679138184E-1
3.807521202E0,-4.340949282E-2,3.928159550E-2,2.679138184E-1
3.810009067E0,-3.595264629E-2,4.567318037E-2,2.668485343E-1
3.812496931E0,-2.956106514E-2,5.099949613E-2,2.657832801E-1
3.814984796E0,-2.103895694E-2,5.739107728E-2,2.647180259E-1
3.817472661E0,-1.358211134E-2,6.271740049E-2,2.636527419E-1
3.819960525E0,-7.190529723E-3,6.804371625E-2,2.615222335E-1
3.822448390E0,-7.989477599E-4,7.123950869E-2,2.593916953E-1
3.824936254E0,5.592633970E-3,7.337003201E-2,2.583264410E-1
3.827424119E0,1.091895252E-2,7.550056279E-2,2.572611570E-1
3.829911984E0,1.731053367E-2,7.656582445E-2,2.551306486E-1
3.832399848E0,2.263685316E-2,7.656582445E-2,2.530001104E-1
3.834887713E0,2.902843431E-2,7.550056279E-2,2.519348562E-1
3.837375577E0,3.542001545E-2,7.337003201E-2,2.508696020E-1
3.839863442E0,4.074633494E-2,7.230477035E-2,2.487390637E-1
3.842351306E0,4.713791609E-2,7.123950869E-2,2.476737946E-1
3.844839171E0,5.246423557E-2,7.230477035E-2,2.444780022E-1
3.847327036E0,5.672528967E-2,7.230477035E-2,2.423474789E-1
3.849814900E0,5.992107838E-2,7.443529367E-2,2.391516864E-1
3.852302765E0,6.311687082E-2,7.656582445E-2,2.359558940E-1
3.854790629E0,6.524740160E-2,7.763108611E-2,2.306295782E-1
3.857278494E0,6.737792492E-2,7.869634777E-2,2.263685167E-1
3.859766359E0,7.057371736E-2,7.763108611E-2,2.199769467E-1
3.862254223E0,7.376950979E-2,7.550056279E-2,2.125200927E-1
3.864742088E0,7.909582555E-2,7.123950869E-2,2.061285079E-1
3.867229952E0,8.229161799E-2,6.591318548E-2,1.986716688E-1
3.869717817E0,8.655267209E-2,5.952160433E-2,1.912148297E-1
3.872205681E0,9.081372619E-2,5.419528857E-2,1.837579757E-1
3.874693546E0,9.507478029E-2,4.886896908E-2,1.773663908E-1
3.877181411E0,9.827057272E-2,4.460791498E-2,1.699095517E-1
3.879669275E0,1.004010960E-1,4.247738793E-2,1.635179669E-1
3.882157140E0,1.014663652E-1,4.247738793E-2,1.571263820E-1
3.884645004E0,1.014663652E-1,4.354264960E-2,1.507348120E-1
3.887132869E0,1.014663652E-1,4.673844203E-2,1.454084814E-1
3.889620734E0,1.004010960E-1,4.993423447E-2,1.390169114E-1
3.892108598E0,9.933583438E-2,5.313002318E-2,1.326253265E-1
3.894596463E0,9.933583438E-2,5.632581562E-2,1.272990108E-1
3.897084327E0,9.720530361E-2,5.845634267E-2,1.209074259E-1
3.899572192E0,9.507478029E-2,5.952160433E-2,1.155811027E-1
3.902060056E0,9.294424951E-2,5.952160433E-2,1.102547869E-1
3.904547921E0,8.974846452E-2,5.739107728E-2,1.070589945E-1
3.907035786E0,8.655267209E-2,5.526055023E-2,1.027979404E-1
3.909523650E0,8.122635633E-2,5.099949613E-2,9.960214794E-2
3.912011515E0,7.696529478E-2,4.886896908E-2,9.747162461E-2
3.914499379E0,7.163897902E-2,4.460791498E-2,9.640636295E-2
3.916987244E0,6.631266326E-2,4.247738793E-2,9.427583218E-2
3.919475109E0,5.992107838E-2,4.141212255E-2,9.214530140E-2
3.921962973E0,5.459476262E-2,4.141212255E-2,9.108003974E-2
3.924450838E0,4.820318148E-2,4.354264960E-2,8.894951642E-2
3.926938702E0,4.287686199E-2,4.780370742E-2,8.894951642E-2
3.929426567E0,3.648528084E-2,5.313002318E-2,9.001477808E-2
3.931914431E0,3.009369783E-2,6.165213138E-2,9.214530140E-2
3.934402296E0,2.476738021E-2,7.230477035E-2,9.534109384E-2
3.936890161E0,2.050632425E-2,8.402267098E-2,9.747162461E-2
3.939378025E0,1.518000662E-2,9.787109494E-2,1.006674170E-1
3.941865890E0,9.853689000E-3,1.138500497E-1,1.038632020E-1
3.944353754E0,4.527370445E-3,1.276984811E-1,1.070589945E-1
3.946841619E0,-7.989477599E-4,1.426121742E-1,1.102547869E-1
3.949329484E0,-6.125265732E-3,1.575258672E-1,1.123853177E-1
3.951817348E0,-1.251684781E-2,1.692437679E-1,1.145158410E-1
3.954305213E0,-1.677790284E-2,1.798963994E-1,1.155811027E-1
3.956793077E0,-2.210422046E-2,1.894837767E-1,1.155811027E-1
3.959280942E0,-2.530001104E-2,1.969406158E-1,1.166463718E-1
3.961768806E0,-2.849580161E-2,2.022669315E-1,1.166463718E-1
3.964256671E0,-3.062633052E-2,2.075932473E-1,1.166463718E-1
3.966744536E0,-3.275685757E-2,2.097237855E-1,1.166463718E-1
3.969232400E0,-3.382211924E-2,2.129195631E-1,1.155811027E-1
3.971720265E0,-3.595264629E-2,2.150501013E-1,1.134505793E-1
3.974208129E0,-3.808317333E-2,2.161153555E-1,1.102547869E-1
3.976695994E0,-4.021370411E-2,2.171806246E-1,1.059937328E-1
3.979183859E0,-4.234423116E-2,2.161153555E-1,1.017326787E-1
3.981671723E0,-4.447475821E-2,2.139848322E-1,9.747162461E-2
3.984159588E0,-4.554001987E-2,2.107890397E-1,9.214530140E-2
3.986647452E0,-4.554001987E-2,2.043974549E-1,8.468846232E-2
3.989135317E0,-4.447475821E-2,1.969406158E-1,7.723161578E-2
3.991623181E0,-4.340949282E-2,1.862879843E-1,6.977476925E-2
3.994111046E0,-4.127896577E-2,1.745700836E-1,6.231792271E-2
3.996598911E0,-3.808317333E-2,1.596563905E-1,5.379581451E-2
3.999086775E0,-3.382211924E-2,1.436774284E-1,4.527370632E-2
4.001574640E0,-3.062633052E-2,1.255679578E-1,3.568633273E-2
4.004062504E0,-2.636527456E-2,1.074584723E-1,2.822948620E-2
4.006550369E0,-2.103895694E-2,9.041424841E-2,1.970737800E-2
4.009038234E0,-1.571263932E-2,7.337003201E-2,1.225053146E-2
4.011526098E0,-9.321057238E-3,5.632581562E-2,4.793686327E-3
4.014013963E0,-3.994738683E-3,4.247738793E-2,-2.663159044E-3
4.016501827E0,2.396843163E-3,3.075948730E-2,-7.989477366E-3
4.018989692E0,8.788425475E-3,2.223737910E-2,-1.438105945E-2
4.021477556E0,1.624527015E-2,1.691105962E-2,-1.757685095E-2
4.023965421E0,2.263685316E-2,1.371526904E-2,-2.290316857E-2
4.026453286E0,2.902843431E-2,1.265000552E-2,-2.503369562E-2
4.028941150E0,3.542001545E-2,1.478053257E-2,-2.609895915E-2
4.031428963E0,4.287686199E-2,2.010685205E-2,-2.929474972E-2
4.033916775E0,4.926844314E-2,2.543316968E-2,-2.929474972E-2
4.036404588E0,5.779055133E-2,3.289001435E-2,-3.036001325E-2
4.038892400E0,6.524740160E-2,4.141212255E-2,-3.142527863E-2
4.041380213E0,7.163897902E-2,4.993423447E-2,-3.249054030E-2
4.043868025E0,7.909582555E-2,5.845634267E-2,-3.355580568E-2
4.046355838E0,8.655267209E-2,6.697845459E-2,-3.568633273E-2
4.048843650E0,9.187898785E-2,7.656582445E-2,-3.568633273E-2
4.051331463E0,9.720530361E-2,8.402267098E-2,-3.781685978E-2
4.053819275E0,1.035968885E-1,9.254477918E-2,-3.888212144E-2
4.056307088E0,1.099884734E-1,1.000016257E-1,-4.101264849E-2
4.058794900E0,1.163800508E-1,1.063932031E-1,-4.314317927E-2
4.061282713E0,1.217063740E-1,1.117195264E-1,-4.527370632E-2
4.063770525E0,1.270326823E-1,1.138500497E-1,-4.740423337E-2
4.066258338E0,1.312937438E-1,1.159805804E-1,-4.953476042E-2
4.068746150E0,1.344895363E-1,1.149153188E-1,-5.166528746E-2
4.071233963E0,1.366200596E-1,1.127847880E-1,-5.273054913E-2
4.073721775E0,1.387505829E-1,1.085237339E-1,-5.486107618E-2
4.076209588E0,1.408811212E-1,1.031974182E-1,-5.699160323E-2
4.078697400E0,1.419463754E-1,9.680583328E-2,-6.018739566E-2
4.081185213E0,1.419463754E-1,8.934898674E-2,-6.231792271E-2
4.083673025E0,1.419463754E-1,8.082687855E-2,-6.444845349E-2
4.086160838E0,1.408811212E-1,7.337003201E-2,-6.657897681E-2
4.088648650E0,1.376853287E-1,6.484792382E-2,-6.870950758E-2
4.091136463E0,1.355548054E-1,5.845634267E-2,-7.084003091E-2
4.093624275E0,1.323590130E-1,5.206476152E-2,-7.297056168E-2
4.096112088E0,1.280979514E-1,4.673844203E-2,-7.190529257E-2
4.098599900E0,1.238368973E-1,4.247738793E-2,-7.297056168E-2
4.101087713E0,1.185105816E-1,3.821633384E-2,-7.190529257E-2
4.103575525E0,1.131842583E-1,3.395527974E-2,-7.190529257E-2
4.106063390E0,1.078579426E-1,3.182475269E-2,-7.190529257E-2
4.108551254E0,1.025316268E-1,3.075948730E-2,-7.190529257E-2
4.111039119E0,9.720530361E-2,3.075948730E-2,-7.190529257E-2
4.113526984E0,9.187898785E-2,3.182475269E-2,-7.190529257E-2
4.116014848E0,8.655267209E-2,3.395527974E-2,-7.084003091E-2
4.118502713E0,8.122635633E-2,3.608580679E-2,-7.084003091E-2
4.120990577E0,7.696529478E-2,3.928159550E-2,-7.084003091E-2
4.123478442E0,7.163897902E-2,4.247738793E-2,-7.084003091E-2
4.125966306E0,6.737792492E-2,4.567318037E-2,-7.190529257E-2
4.128454171E0,6.205160543E-2,4.993423447E-2,-7.297056168E-2
4.130942036E0,5.779055133E-2,5.206476152E-2,-7.403582335E-2
4.133429900E0,5.246423557E-2,5.526055023E-2,-7.510108501E-2
4.135917765E0,4.820318148E-2,5.845634267E-2,-7.723161578E-2
4.138405629E0,4.394212365E-2,6.058686972E-2,-8.042740822E-2
4.140893494E0,4.074633494E-2,6.378266215E-2,-8.255793154E-2
4.143381359E0,3.755054250E-2,6.591318548E-2,-8.362319320E-2
4.145869223E0,3.435475379E-2,6.697845459E-2,-8.575372398E-2
4.148357088E0,3.222422674E-2,6.804371625E-2,-8.788424730E-2
4.150844952E0,2.902843431E-2,6.804371625E-2,-9.001477808E-2
4.153332817E0,2.583264373E-2,6.697845459E-2,-9.214530140E-2
4.155820681E0,2.263685316E-2,6.484792382E-2,-9.427583218E-2
4.158308546E0,1.837579720E-2,6.271740049E-2,-9.640636295E-2
4.160796411E0,1.624527015E-2,6.058686972E-2,-9.960214794E-2
4.163284275E0,1.411474310E-2,5.739107728E-2,-1.006674170E-1
4.165772140E0,1.304947957E-2,5.206476152E-2,-1.038632020E-1
4.168260004E0,1.198421605E-2,4.780370742E-2,-1.049284711E-1
4.170747869E0,1.091895252E-2,4.247738793E-2,-1.070589945E-1
4.173235734E0,9.853689000E-3,3.608580679E-2,-1.081242561E-1
4.175723598E0,8.788425475E-3,3.075948730E-2,-1.102547869E-1
4.178211463E0,7.723161485E-3,2.436790615E-2,-1.113200486E-1
4.180699327E0,6.657897960E-3,1.797632314E-2,-1.123853177E-1
4.183187192E0,5.592633970E-3,1.158474199E-2,-1.134505793E-1
4.185675056E0,5.592633970E-3,5.193160381E-3,-1.145158410E-1
4.188162921E0,4.527370445E-3,-1.331579551E-4,-1.155811027E-1
4.190650786E0,4.527370445E-3,-5.459476262E-3,-1.166463718E-1
4.193138650E0,3.462106921E-3,-9.720530361E-3,-1.177116334E-1
4.195626515E0,2.396843163E-3,-1.398158539E-2,-1.187768951E-1
4.198114379E0,1.331579522E-3,-1.611211337E-2,-1.198421568E-1
4.200602244E0,1.331579522E-3,-1.824264042E-2,-1.209074259E-1
4.203090109E0,2.663159103E-4,-1.824264042E-2,-1.219726875E-1
4.205577973E0,2.663159103E-4,-1.824264042E-2,-1.219726875E-1
4.208065838E0,2.663159103E-4,-1.824264042E-2,-1.230379492E-1
4.210553702E0,2.663159103E-4,-1.717737690E-2,-1.241032109E-1
4.213041567E0,2.663159103E-4,-1.611211337E-2,-1.251684725E-1
4.215529431E0,2.663159103E-4,-1.504684892E-2,-1.251684725E-1
4.218017296E0,2.663159103E-4,-1.504684892E-2,-1.272990108E-1
4.220505161E0,2.663159103E-4,-1.504684892E-2,-1.283642650E-1
4.222993025E0,2.663159103E-4,-1.611211337E-2,-1.304948032E-1
4.225480890E0,1.331579522E-3,-1.717737690E-2,-1.336905807E-1
4.227968754E0,2.396843163E-3,-1.930790395E-2,-1.368863732E-1
4.230456619E0,1.331579522E-3,-2.356895804E-2,-1.422126889E-1
4.232944484E0,2.396843163E-3,-2.676474862E-2,-1.464737505E-1
4.235432348E0,1.331579522E-3,-3.102580272E-2,-1.507348120E-1
4.237920213E0,1.331579522E-3,-3.528685868E-2,-1.539305896E-1
4.240408077E0,1.331579522E-3,-3.848264739E-2,-1.571263820E-1
4.242895942E0,2.396843163E-3,-4.167843983E-2,-1.592569202E-1
4.245383806E0,2.396843163E-3,-4.274370521E-2,-1.603221744E-1
4.247871671E0,2.396843163E-3,-4.274370521E-2,-1.603221744E-1
4.250359536E0,2.396843163E-3,-4.167843983E-2,-1.603221744E-1
4.252847400E0,1.331579522E-3,-3.848264739E-2,-1.581916511E-1
4.255335265E0,-7.989477599E-4,-3.422159329E-2,-1.549958587E-1
4.257823129E0,-1.864211401E-3,-3.102580272E-2,-1.518000662E-1
4.260310994E0,-3.994738683E-3,-2.676474862E-2,-1.486042738E-1
4.262798859E0,-5.060002208E-3,-2.356895804E-2,-1.443432271E-1
4.265286723E0,-5.060002208E-3,-2.037316747E-2,-1.411474347E-1
4.267774588E0,-5.060002208E-3,-1.717737690E-2,-1.358211190E-1
4.270262452E0,-5.060002208E-3,-1.398158539E-2,-1.315600574E-1
4.272750317E0,-3.994738683E-3,-1.078579482E-2,-1.262337416E-1
4.275238181E0,-3.994738683E-3,-6.524739787E-3,-1.198421568E-1
4.277726046E0,-2.929474926E-3,-2.263685223E-3,-1.134505793E-1
4.280213911E0,-7.989477599E-4,1.997369342E-3,-1.070589945E-1
4.282701775E0,2.663159103E-4,7.323687430E-3,-1.006674170E-1
4.285189640E0,2.396843163E-3,1.051947847E-2,-9.534109384E-2
4.287677504E0,4.527370445E-3,1.371526904E-2,-8.894951642E-2
4.290165369E0,6.657897960E-3,1.478053257E-2,-8.468846232E-2
4.292653234E0,7.723161485E-3,1.478053257E-2,-8.149266988E-2
4.295141098E0,9.853689000E-3,1.371526904E-2,-7.829687744E-2
4.297628963E0,1.198421605E-2,1.265000552E-2,-7.616634667E-2
4.300116827E0,1.411474310E-2,9.454214945E-3,-7.403582335E-2
4.302604692E0,1.518000662E-2,6.258423906E-3,-7.190529257E-2
4.305092556E0,1.624527015E-2,3.062632866E-3,-6.977476925E-2
4.307580421E0,1.944106072E-2,-1.331579551E-4,-6.764423847E-2
4.310068286E0,2.157158963E-2,-3.328948980E-3,-6.551371515E-2
4.312556150E0,2.370211668E-2,-5.459476262E-3,-6.444845349E-2
4.315044015E0,2.583264373E-2,-7.590003312E-3,-6.231792271E-2
4.317531879E0,2.796317078E-2,-9.720530361E-3,-6.018739566E-2
4.320019744E0,2.902843431E-2,-1.078579482E-2,-5.699160323E-2
4.322507609E0,3.009369783E-2,-1.185105834E-2,-5.379581451E-2
4.324995473E0,3.115896136E-2,-1.185105834E-2,-5.060002208E-2
4.327483338E0,3.009369783E-2,-1.078579482E-2,-4.740423337E-2
4.329971202E0,3.009369783E-2,-7.590003312E-3,-4.314317927E-2
4.332459067E0,2.902843431E-2,-3.328948980E-3,-4.101264849E-2
4.334946931E0,2.796317078E-2,3.062632866E-3,-3.781685978E-2
4.337434796E0,2.689790726E-2,1.051947847E-2,-3.568633273E-2
4.339922661E0,2.476738021E-2,1.904158667E-2,-3.355580568E-2
4.342410525E0,2.370211668E-2,2.862896025E-2,-3.142527863E-2
4.344898390E0,2.050632425E-2,3.821633384E-2,-3.036001325E-2
4.347386254E0,1.731053367E-2,4.886896908E-2,-2.822948620E-2
4.349874119E0,1.411474310E-2,5.845634267E-2,-2.716422267E-2
4.352361984E0,1.091895252E-2,6.804371625E-2,-2.503369562E-2
4.354849848E0,7.723161485E-3,7.763108611E-2,-2.290316857E-2
4.357337713E0,4.527370445E-3,8.508793265E-2,-2.077264152E-2
4.359825577E0,1.331579522E-3,9.041424841E-2,-1.864211448E-2
4.362313442E0,-2.929474926E-3,9.574057162E-2,-1.651158556E-2
4.364801306E0,-6.125265732E-3,9.893636405E-2,-1.331579592E-2
4.367289171E0,-9.321057238E-3,1.000016257E-1,-1.225053146E-2
4.369777036E0,-1.358211134E-2,9.893636405E-2,-1.118526794E-2
4.372264900E0,-1.784316637E-2,9.574057162E-2,-9.054740891E-3
4.374752765E0,-2.103895694E-2,9.147951752E-2,-9.054740891E-3
4.377240629E0,-2.316948399E-2,8.615319431E-2,-9.054740891E-3
4.379728494E0,-2.530001104E-2,7.869634777E-2,-1.012000442E-2
4.382216359E0,-2.743053809E-2,7.123950869E-2,-1.118526794E-2
4.384704223E0,-2.956106514E-2,6.165213138E-2,-1.331579592E-2
4.387192088E0,-3.062633052E-2,5.099949613E-2,-1.544632297E-2
4.389679952E0,-3.275685757E-2,4.141212255E-2,-1.864211448E-2
4.392167817E0,-3.382211924E-2,3.075948730E-2,-2.077264152E-2
4.394655681E0,-3.488738462E-2,2.117211558E-2,-2.290316857E-2
4.397143546E0,-3.488738462E-2,1.051947847E-2,-2.609895915E-2
4.399631411E0,-3.595264629E-2,1.997369342E-3,-2.929474972E-2
4.402119275E0,-3.701791167E-2,-6.524739787E-3,-3.142527863E-2
4.404607140E0,-3.701791167E-2,-1.291632187E-2,-3.249054030E-2
4.407095004E0,-3.914843872E-2,-1.717737690E-2,-3.249054030E-2
4.409582869E0,-4.021370411E-2,-1.930790395E-2,-3.249054030E-2
4.412070734E0,-4.234423116E-2,-1.930790395E-2,-3.355580568E-2
4.414558598E0,-4.340949282E-2,-1.824264042E-2,-3.355580568E-2
4.417046463E0,-4.554001987E-2,-1.717737690E-2,-3.355580568E-2
4.419534327E0,-4.767054692E-2,-1.504684892E-2,-3.355580568E-2
4.422022192E0,-4.873581231E-2,-1.185105834E-2,-3.249054030E-2
4.424510004E0,-4.980107397E-2,-8.655266836E-3,-3.142527863E-2
4.426997817E0,-5.086633936E-2,-4.394212738E-3,-3.036001325E-2
4.429485629E0,-5.086633936E-2,9.321057005E-4,-2.929474972E-2
4.431973442E0,-5.193160102E-2,6.258423906E-3,-2.716422267E-2
4.434461254E0,-5.299686641E-2,1.371526904E-2,-2.609895915E-2
4.436949067E0,-5.406212807E-2,2.223737910E-2,-2.503369562E-2
4.439436879E0,-5.512739345E-2,3.289001435E-2,-2.183790505E-2
4.441924692E0,-5.725792050E-2,4.354264960E-2,-1.970737800E-2
4.444412504E0,-6.045371294E-2,5.632581562E-2,-1.757685095E-2
4.446900317E0,-6.471476704E-2,6.697845459E-2,-1.651158556E-2
4.449388129E0,-6.791055948E-2,7.656582445E-2,-1.651158556E-2
4.451875942E0,-7.110634446E-2,8.615319431E-2,-1.864211448E-2
4.454363754E0,-7.323687524E-2,9.254477918E-2,-2.077264152E-2
4.456851567E0,-7.536740601E-2,9.680583328E-2,-2.396843210E-2
4.459339379E0,-7.643266767E-2,9.787109494E-2,-2.716422267E-2
4.461827192E0,-7.962846011E-2,9.680583328E-2,-3.036001325E-2
4.464315004E0,-8.175898343E-2,9.467530251E-2,-3.568633273E-2
4.466802817E0,-8.388951421E-2,9.041424841E-2,-3.994738683E-2
4.469290629E0,-8.602003753E-2,8.615319431E-2,-4.420844093E-2
4.471778442E0,-8.921582997E-2,7.976161689E-2,-4.740423337E-2
4.474266254E0,-9.241162241E-2,7.443529367E-2,-5.166528746E-2
4.476754067E0,-9.560741484E-2,6.804371625E-2,-5.699160323E-2
4.479241879E0,-9.773793817E-2,6.271740049E-2,-6.338318437E-2
4.481729692E0,-1.019989923E-1,5.632581562E-2,-6.870950758E-2
4.484217504E0,-1.051947847E-1,4.993423447E-2,-7.616634667E-2
4.486705317E0,-1.083905771E-1,4.247738793E-2,-8.149266988E-2
4.489193129E0,-1.115863696E-1,3.395527974E-2,-8.894951642E-2
4.491680942E0,-1.147821546E-1,2.649843320E-2,-9.427583218E-2
4.494168754E0,-1.169126853E-1,1.904158667E-2,-9.960214794E-2
4.496656567E0,-1.190432087E-1,1.051947847E-2,-1.027979404E-1
4.499144379E0,-1.201084778E-1,3.062632866E-3,-1.070589945E-1
4.501632244E0,-1.222390011E-1,-5.459476262E-3,-1.091895252E-1
4.504120109E0,-1.243695319E-1,-1.185105834E-2,-1.123853177E-1
4.506607973E0,-1.265000552E-1,-1.717737690E-2,-1.134505793E-1
4.509095838E0,-1.286305785E-1,-2.143843099E-2,-1.155811027E-1
4.511583702E0,-1.307611167E-1,-2.356895804E-2,-1.166463718E-1
4.514071567E0,-1.318263710E-1,-2.356895804E-2,-1.187768951E-1
4.516559431E0,-1.328916401E-1,-2.250369452E-2,-1.209074259E-1
4.519047296E0,-1.339569092E-1,-1.824264042E-2,-1.219726875E-1
4.521535161E0,-1.339569092E-1,-1.185105834E-2,-1.219726875E-1
4.524023025E0,-1.339569092E-1,-4.394212738E-3,-1.219726875E-1
4.526510890E0,-1.328916401E-1,4.127896391E-3,-1.219726875E-1
4.528998754E0,-1.307611167E-1,1.371526904E-2,-1.209074259E-1
4.531486619E0,-1.296958476E-1,2.436790615E-2,-1.198421568E-1
4.533974484E0,-1.275653243E-1,3.502054140E-2,-1.198421568E-1
4.536462348E0,-1.265000552E-1,4.567318037E-2,-1.198421568E-1
4.538950213E0,-1.233042628E-1,5.526055023E-2,-1.209074259E-1
4.541438077E0,-1.211737394E-1,6.484792382E-2,-1.209074259E-1
4.543925942E0,-1.179779470E-1,7.337003201E-2,-1.241032109E-1
4.546413806E0,-1.137168929E-1,7.976161689E-2,-1.283642650E-1
4.548901671E0,-1.115863696E-1,8.508793265E-2,-1.326253265E-1
4.551389536E0,-1.083905771E-1,8.828372508E-2,-1.379516423E-1
4.553877400E0,-1.051947847E-1,9.041424841E-2,-1.432779580E-1
4.556365265E0,-1.019989923E-1,8.828372508E-2,-1.496695429E-1
4.558853129E0,-9.880319983E-2,8.508793265E-2,-1.549958587E-1
4.561340994E0,-9.560741484E-2,7.976161689E-2,-1.603221744E-1
4.563828859E0,-9.134636074E-2,7.230477035E-2,-1.645832360E-1
4.566316723E0,-8.815056831E-2,6.378266215E-2,-1.699095517E-1
4.568804588E0,-8.388951421E-2,5.419528857E-2,-1.731053442E-1
4.571292452E0,-8.069372177E-2,4.354264960E-2,-1.773663908E-1
4.573780317E0,-7.856319100E-2,3.182475269E-2,-1.805621833E-1
4.576268181E0,-7.430213690E-2,2.117211558E-2,-1.837579757E-1
4.578756046E0,-7.110634446E-2,9.454214945E-3,-1.880190372E-1
4.581243911E0,-6.684529036E-2,-1.198421582E-3,-1.912148297E-1
4.583731775E0,-6.258423626E-2,-1.078579482E-2,-1.933453530E-1
4.586219640E0,-5.725792050E-2,-2.143843099E-2,-1.954758763E-1
4.588707504E0,-5.299686641E-2,-2.889527567E-2,-1.965411454E-1
4.591195369E0,-4.767054692E-2,-3.528685868E-2,-1.976063997E-1
4.593683234E0,-4.340949282E-2,-4.061317816E-2,-1.965411454E-1
4.596171098E0,-4.021370411E-2,-4.487423226E-2,-1.944106072E-1
4.598658963E0,-3.701791167E-2,-4.593949392E-2,-1.922800839E-1
4.601146827E0,-3.382211924E-2,-4.700475931E-2,-1.890842915E-1
4.603634692E0,-3.169159219E-2,-4.700475931E-2,-1.848232448E-1
4.606122556E0,-2.956106514E-2,-4.487423226E-2,-1.816274524E-1
4.608610421E0,-2.743053809E-2,-4.274370521E-2,-1.773663908E-1
4.611098286E0,-2.530001104E-2,-4.061317816E-2,-1.731053442E-1
4.613586150E0,-2.316948399E-2,-3.741738573E-2,-1.677790284E-1
4.616074015E0,-2.103895694E-2,-3.528685868E-2,-1.635179669E-1
4.618561879E0,-1.890842989E-2,-3.315633163E-2,-1.592569202E-1
4.621049744E0,-1.784316637E-2,-3.102580272E-2,-1.549958587E-1
4.623537609E0,-1.571263932E-2,-3.102580272E-2,-1.496695429E-1
4.626025473E0,-1.358211134E-2,-3.102580272E-2,-1.454084814E-1
4.628513338E0,-1.145158429E-2,-3.102580272E-2,-1.390169114E-1
4.631001202E0,-9.321057238E-3,-3.209106624E-2,-1.336905807E-1
4.633489067E0,-7.190529723E-3,-3.422159329E-2,-1.272990108E-1
4.635976931E0,-5.060002208E-3,-3.741738573E-2,-1.209074259E-1
4.638464796E0,-2.929474926E-3,-4.167843983E-2,-1.145158410E-1
4.640952661E0,-7.989477599E-4,-4.593949392E-2,-1.070589945E-1
4.643440525E0,1.331579522E-3,-5.126581341E-2,-1.017326787E-1
4.645928390E0,3.462106921E-3,-5.659212917E-2,-9.534109384E-2
4.648416254E0,6.657897960E-3,-6.298371404E-2,-8.894951642E-2
4.650904119E0,8.788425475E-3,-6.831002980E-2,-8.255793154E-2
4.653391984E0,1.198421605E-2,-7.363634557E-2,-7.616634667E-2
4.655879848E0,1.518000662E-2,-7.683213800E-2,-6.870950758E-2
4.658367713E0,1.837579720E-2,-8.002793044E-2,-5.912213027E-2
4.660855577E0,2.050632425E-2,-8.109319210E-2,-4.846949503E-2
4.663343442E0,2.370211668E-2,-8.109319210E-2,-3.568633273E-2
4.665831306E0,2.583264373E-2,-8.109319210E-2,-2.183790505E-2
4.668319171E0,2.796317078E-2,-8.109319210E-2,-6.924213842E-3
4.670807036E0,2.902843431E-2,-8.215846121E-2,1.012000442E-2
4.673294900E0,3.009369783E-2,-8.322372288E-2,2.822948620E-2
4.675782765E0,3.115896136E-2,-8.428898454E-2,4.633896798E-2
4.678270629E0,3.328948840E-2,-8.535424620E-2,6.551371515E-2
4.680758494E0,3.542001545E-2,-8.535424620E-2,8.575372398E-2
4.683246359E0,3.648528084E-2,-8.322372288E-2,1.049284711E-1
4.685734223E0,3.648528084E-2,-8.002793044E-2,1.241032109E-1
4.688222088E0,3.648528084E-2,-7.470161468E-2,1.411474347E-1
4.690709952E0,3.435475379E-2,-6.511423737E-2,1.571263820E-1
4.693197817E0,3.009369783E-2,-5.339634046E-2,1.709748209E-1
4.695685681E0,2.476738021E-2,-3.848264739E-2,1.837579757E-1
4.698173546E0,1.837579720E-2,-2.143843099E-2,1.954758763E-1
4.700661411E0,1.198421605E-2,-2.263685223E-3,2.050632536E-1
4.703149275E0,5.592633970E-3,1.691105962E-2,2.135853618E-1
4.705637140E0,-1.864211401E-3,3.821633384E-2,2.210422009E-1
4.708125004E0,-1.038632076E-2,5.952160433E-2,2.263685167E-1
4.710612869E0,-1.784316637E-2,8.082687855E-2,2.306295782E-1
4.713100734E0,-2.530001104E-2,1.010668874E-1,2.327601016E-1
4.715588598E0,-3.382211924E-2,1.191763729E-1,2.327601016E-1
4.718076463E0,-4.340949282E-2,1.372858584E-1,2.306295782E-1
4.720564327E0,-5.406212807E-2,1.511342824E-1,2.263685167E-1
4.723052192E0,-6.471476704E-2,1.617869139E-1,2.210422009E-1
4.725540056E0,-7.749792933E-2,1.703090221E-1,2.125200927E-1
4.728027921E0,-8.815056831E-2,1.745700836E-1,2.029327303E-1
4.730515786E0,-9.986846894E-2,1.756353378E-1,1.912148297E-1
4.733003650E0,-1.115863696E-1,1.735048145E-1,1.794969290E-1
4.735491515E0,-1.222390011E-1,1.681784987E-1,1.656484902E-1
4.737979379E0,-1.339569092E-1,1.617869139E-1,1.518000662E-1
4.740467244E0,-1.456748098E-1,1.521995366E-1,1.368863732E-1
4.742955109E0,-1.563274413E-1,1.415469050E-1,1.219726875E-1
4.745442973E0,-1.659148186E-1,1.287637353E-1,1.049284711E-1
4.747930838E0,-1.755021811E-1,1.138500497E-1,8.681898564E-2
4.750418702E0,-1.850895584E-1,9.787109494E-2,6.764423847E-2
4.752906567E0,-1.936116666E-1,8.082687855E-2,4.953476042E-2
4.755394431E0,-2.021337748E-1,6.378266215E-2,3.036001325E-2
4.757882296E0,-2.106558830E-1,4.780370742E-2,1.118526794E-2
4.760370161E0,-2.191779912E-1,3.182475269E-2,-9.054740891E-3
4.762858025E0,-2.277000993E-1,1.691105962E-2,-2.822948620E-2
4.765345890E0,-2.362222075E-1,1.997369342E-3,-4.740423337E-2
4.767833754E0,-2.447443157E-1,-1.185105834E-2,-6.657897681E-2
4.770321619E0,-2.532664239E-1,-2.676474862E-2,-8.575372398E-2
4.772809484E0,-2.617885470E-1,-4.061317816E-2,-1.038632020E-1
4.775297348E0,-2.692453861E-1,-5.339634046E-2,-1.219726875E-1
4.777785213E0,-2.777675092E-1,-6.617950648E-2,-1.400821656E-1
4.780273077E0,-2.862896025E-1,-7.789740711E-2,-1.560611278E-1
4.782760890E0,-2.969422340E-1,-8.855003864E-2,-1.720400751E-1
4.785248702E0,-3.065296113E-1,-9.707214683E-2,-1.848232448E-1
4.787736515E0,-3.182475269E-1,-1.034637317E-1,-1.976063997E-1
4.790224327E0,-3.310306668E-1,-1.066595241E-1,-2.082590461E-1
4.792712140E0,-3.438138366E-1,-1.077247858E-1,-2.178464085E-1
4.795199952E0,-3.576622605E-1,-1.077247858E-1,-2.253032625E-1
4.797687765E0,-3.715106845E-1,-1.055942550E-1,-2.306295782E-1
4.800175577E0,-3.864243925E-1,-1.034637317E-1,-2.359558940E-1
4.802663390E0,-4.002728164E-1,-1.013332009E-1,-2.370211631E-1
4.805151202E0,-4.119907022E-1,-9.920267761E-2,-2.370211631E-1
4.807639015E0,-4.247738719E-1,-9.813741595E-2,-2.359558940E-1
4.810126827E0,-4.354265034E-1,-9.600688517E-2,-2.338253707E-1
4.812614640E0,-4.460791349E-1,-9.281109273E-2,-2.306295782E-1
4.815102452E0,-4.567317963E-1,-8.855003864E-2,-2.253032625E-1
4.817590265E0,-4.652538896E-1,-8.322372288E-2,-2.210422009E-1
4.820078077E0,-4.737760127E-1,-7.683213800E-2,-2.146506310E-1
4.822565890E0,-4.812328517E-1,-6.937529147E-2,-2.103895694E-1
4.825053702E0,-4.876244366E-1,-6.085318699E-2,-2.061285079E-1
4.827541515E0,-4.929507375E-1,-5.446160212E-2,-2.029327303E-1
4.830029327E0,-4.982770681E-1,-4.913528636E-2,-1.997369379E-1
4.832517140E0,-5.025381446E-1,-4.487423226E-2,-1.986716688E-1
4.835004952E0,-5.057339072E-1,-4.167843983E-2,-1.976063997E-1
4.837492765E0,-5.089297295E-1,-4.061317816E-2,-1.976063997E-1
4.839980577E0,-5.110602379E-1,-4.061317816E-2,-1.976063997E-1
4.842468390E0,-5.131907463E-1,-4.061317816E-2,-1.976063997E-1
4.844956202E0,-5.131907463E-1,-4.061317816E-2,-1.986716688E-1
4.847444015E0,-5.131907463E-1,-4.061317816E-2,-1.986716688E-1
4.849931827E0,-5.131907463E-1,-4.167843983E-2,-1.997369379E-1
4.852419640E0,-5.142560005E-1,-4.167843983E-2,-2.008021921E-1
4.854907452E0,-5.142560005E-1,-4.167843983E-2,-2.029327303E-1
4.857395265E0,-5.142560005E-1,-4.167843983E-2,-2.050632536E-1
4.859883077E0,-5.142560005E-1,-3.954791278E-2,-2.082590461E-1
4.862370942E0,-5.142560005E-1,-3.848264739E-2,-2.103895694E-1
4.864858806E0,-5.142560005E-1,-3.422159329E-2,-2.135853618E-1
4.867346671E0,-5.142560005E-1,-2.996053919E-2,-2.146506310E-1
4.869834536E0,-5.131907463E-1,-2.356895804E-2,-2.157158852E-1
4.872322400E0,-5.110602379E-1,-1.611211337E-2,-2.167811543E-1
4.874810265E0,-5.089297295E-1,-7.590003312E-3,-2.157158852E-1
4.877298129E0,-5.057339072E-1,9.321057005E-4,-2.146506310E-1
4.879785994E0,-5.025381446E-1,8.388951421E-3,-2.103895694E-1
4.882273859E0,-4.993423223E-1,1.691105962E-2,-2.071937770E-1
4.884761723E0,-4.961465299E-1,2.223737910E-2,-2.018674612E-1
4.887249588E0,-4.918854833E-1,2.649843320E-2,-1.954758763E-1
4.889737452E0,-4.886896908E-1,2.969422378E-2,-1.890842915E-1
4.892225317E0,-4.844286442E-1,3.075948730E-2,-1.816274524E-1
4.894713181E0,-4.791023135E-1,3.182475269E-2,-1.741705984E-1
4.897201046E0,-4.727107286E-1,3.182475269E-2,-1.667137593E-1
4.899688911E0,-4.673844278E-1,3.289001435E-2,-1.592569202E-1
4.902176775E0,-4.609928429E-1,3.502054140E-2,-1.496695429E-1
4.904664640E0,-4.546012580E-1,3.821633384E-2,-1.400821656E-1
4.907152504E0,-4.482096732E-1,4.247738793E-2,-1.304948032E-1
4.909640369E0,-4.428833723E-1,4.780370742E-2,-1.177116334E-1
4.912128234E0,-4.364917874E-1,5.419528857E-2,-1.049284711E-1
4.914616098E0,-4.311654568E-1,6.058686972E-2,-9.108003974E-2
4.917103963E0,-4.247738719E-1,6.697845459E-2,-7.723161578E-2
4.919591827E0,-4.183822870E-1,7.230477035E-2,-6.338318437E-2
4.922079692E0,-4.109254479E-1,7.550056279E-2,-4.953476042E-2
4.924567556E0,-4.045338631E-1,7.869634777E-2,-3.675159439E-2
4.927055421E0,-3.960117698E-1,8.082687855E-2,-2.503369562E-2
4.929543286E0,-3.874896467E-1,8.082687855E-2,-1.438105945E-2
4.932031150E0,-3.768370152E-1,8.082687855E-2,-5.858949851E-3
4.934519015E0,-3.672496378E-1,7.976161689E-2,3.728422802E-3
4.937006879E0,-3.555317521E-1,7.976161689E-2,1.118526794E-2
4.939494744E0,-3.448790908E-1,8.082687855E-2,1.970737800E-2
4.941982609E0,-3.331612051E-1,8.295740932E-2,2.822948620E-2
4.944470473E0,-3.214432895E-1,8.508793265E-2,3.675159439E-2
4.946958338E0,-3.097254038E-1,8.934898674E-2,4.420844093E-2
4.949446202E0,-2.980075181E-1,9.361004084E-2,4.953476042E-2
4.951934067E0,-2.852243483E-1,9.893636405E-2,5.592634156E-2
4.954421931E0,-2.735064328E-1,1.053279415E-1,6.125266105E-2
4.956909796E0,-2.607232630E-1,1.117195264E-1,6.764423847E-2
4.959397661E0,-2.479401082E-1,1.181111038E-1,7.190529257E-2
4.961885525E0,-2.362222075E-1,1.234374270E-1,7.616634667E-2
4.964373390E0,-2.223737836E-1,1.287637353E-1,7.723161578E-2
4.966861254E0,-2.095906287E-1,1.340900660E-1,7.829687744E-2
4.969349119E0,-1.968074590E-1,1.383511126E-1,7.723161578E-2
4.971836984E0,-1.840242893E-1,1.436774284E-1,7.616634667E-2
4.974324848E0,-1.712411344E-1,1.479384899E-1,7.403582335E-2
4.976812713E0,-1.584579647E-1,1.521995366E-1,7.084003091E-2
4.979300577E0,-1.456748098E-1,1.564605981E-1,6.870950758E-2
4.981788442E0,-1.339569092E-1,1.607216448E-1,6.657897681E-2
