"Time (s)","Acceleration x (m/s^2)","Acceleration y (m/s^2)","Acceleration z (m/s^2)"
7.143916700E-2,-2.412158251E0,9.444527626E0,-1.649006367E0
7.392692700E-2,-2.426523447E0,9.468469620E0,-1.649006367E0
7.641463500E-2,-2.455253839E0,9.487623215E0,-1.663371682E0
7.890234400E-2,-2.464830637E0,9.501988411E0,-1.663371682E0
8.139005200E-2,-2.469619036E0,9.525930405E0,-1.677736878E0
8.387776000E-2,-2.455253839E0,9.549872398E0,-1.677736878E0
8.636546900E-2,-2.431311846E0,9.592967987E0,-1.682525277E0
8.885317700E-2,-2.416946650E0,9.616909981E0,-1.706467271E0
9.134088500E-2,-2.393004656E0,9.650428772E0,-1.716044068E0
9.382859400E-2,-2.383427858E0,9.664793968E0,-1.735197663E0
9.631630200E-2,-2.383427858E0,9.674370766E0,-1.763928056E0
9.880401000E-2,-2.407369852E0,9.674370766E0,-1.792658567E0
1.012917190E-1,-2.416946650E0,9.683947563E0,-1.816600561E0
1.037794270E-1,-2.436100245E0,9.674370766E0,-1.816600561E0
1.062671350E-1,-2.445677042E0,9.669582367E0,-1.821388960E0
1.087548440E-1,-2.440888643E0,9.645640373E0,-1.807023764E0
1.112425520E-1,-2.445677042E0,9.631275177E0,-1.816600561E0
1.137302600E-1,-2.460042238E0,9.626486778E0,-1.840542555E0
1.162179690E-1,-2.455253839E0,9.636063576E0,-1.840542555E0
1.187056770E-1,-2.455253839E0,9.655217171E0,-1.854907751E0
1.211933850E-1,-2.464830637E0,9.688735962E0,-1.840542555E0
1.236810940E-1,-2.479195833E0,9.722254753E0,-1.835754156E0
1.261688020E-1,-2.507926226E0,9.760561943E0,-1.807023764E0
1.286565100E-1,-2.474407434E0,9.808445930E0,-1.778293371E0
1.311442190E-1,-2.455253839E0,9.846753120E0,-1.759139657E0
1.336319270E-1,-2.455253839E0,9.861118317E0,-1.754351258E0
1.361196350E-1,-2.436100245E0,9.851541519E0,-1.735197663E0
1.386073440E-1,-2.397793055E0,9.841964722E0,-1.706467271E0
1.410950520E-1,-2.369062662E0,9.808445930E0,-1.677736878E0
1.435827600E-1,-2.340332270E0,9.789292336E0,-1.663371682E0
1.460704690E-1,-2.330755472E0,9.741408348E0,-1.692102075E0
1.485581770E-1,-2.311601639E0,9.693524361E0,-1.725620866E0
1.510458850E-1,-2.335543871E0,9.655217171E0,-1.739986062E0
1.535335940E-1,-2.345120668E0,9.631275177E0,-1.749562860E0
1.560213020E-1,-2.349909067E0,9.612121582E0,-1.759139657E0
1.585090100E-1,-2.378639460E0,9.607333183E0,-1.759139657E0
1.609967710E-1,-2.383427858E0,9.612121582E0,-1.749562860E0
1.634845310E-1,-2.397793055E0,9.621698380E0,-1.739986062E0
1.659722920E-1,-2.402581453E0,9.650428772E0,-1.720832467E0
1.684600520E-1,-2.397793055E0,9.655217171E0,-1.720832467E0
1.709478120E-1,-2.364274263E0,9.679159164E0,-1.720832467E0
1.734355730E-1,-2.373851061E0,9.693524361E0,-1.720832467E0
1.759233330E-1,-2.369062662E0,9.679159164E0,-1.696890473E0
1.784110940E-1,-2.369062662E0,9.674370766E0,-1.682525277E0
1.808988540E-1,-2.383427858E0,9.650428772E0,-1.658583283E0
1.833866140E-1,-2.416946650E0,9.597756386E0,-1.620275974E0
1.858743750E-1,-2.436100245E0,9.525930405E0,-1.605910778E0
1.883621350E-1,-2.460042238E0,9.468469620E0,-1.591545582E0
1.908498960E-1,-2.469619036E0,9.415796280E0,-1.620275974E0
1.933376560E-1,-2.488772631E0,9.358335495E0,-1.620275974E0
1.958254170E-1,-2.512714624E0,9.320028305E0,-1.605910778E0
1.983131770E-1,-2.507926226E0,9.310451508E0,-1.572391987E0
2.008009370E-1,-2.493561029E0,9.291297913E0,-1.548449993E0
2.032886980E-1,-2.474407434E0,9.291297913E0,-1.505354285E0
2.057764580E-1,-2.440888643E0,9.291297913E0,-1.471835494E0
2.082642190E-1,-2.407369852E0,9.305663109E0,-1.433528304E0
2.107519790E-1,-2.373851061E0,9.310451508E0,-1.414374709E0
2.132397390E-1,-2.364274263E0,9.286509514E0,-1.419163108E0
2.157275000E-1,-2.359485865E0,9.276932716E0,-1.419163108E0
2.182152600E-1,-2.330755472E0,9.257779121E0,-1.438316703E0
2.207030210E-1,-2.335543871E0,9.219471931E0,-1.476623893E0
2.231907810E-1,-2.335543871E0,9.171587944E0,-1.500565886E0
2.256785420E-1,-2.354697466E0,9.133280754E0,-1.529296279E0
2.281663020E-1,-2.373851061E0,9.118915558E0,-1.567603588E0
2.306540620E-1,-2.397793055E0,9.099761963E0,-1.605910778E0
2.331418230E-1,-2.412158251E0,9.118915558E0,-1.639429569E0
2.356295830E-1,-2.402581453E0,9.133280754E0,-1.649006367E0
2.381173440E-1,-2.402581453E0,9.176376343E0,-1.668160081E0
2.406051040E-1,-2.364274263E0,9.229048729E0,-1.668160081E0
2.430928640E-1,-2.354697466E0,9.272144318E0,-1.649006367E0
2.455806250E-1,-2.340332270E0,9.324816704E0,-1.653794765E0
2.480683850E-1,-2.340332270E0,9.387065887E0,-1.644217968E0
2.505561460E-1,-2.340332270E0,9.444527626E0,-1.649006367E0
2.530439060E-1,-2.373851061E0,9.492411613E0,-1.653794765E0
2.555316670E-1,-2.369062662E0,9.535507202E0,-1.692102075E0
2.580194270E-1,-2.369062662E0,9.559449196E0,-1.687313676E0
2.605071870E-1,-2.369062662E0,9.559449196E0,-1.701678872E0
2.629949480E-1,-2.345120668E0,9.573814392E0,-1.696890473E0
2.654827080E-1,-2.369062662E0,9.597756386E0,-1.692102075E0
2.679704690E-1,-2.412158251E0,9.616909981E0,-1.672948480E0
2.704582290E-1,-2.440888643E0,9.636063576E0,-1.663371682E0
2.729459890E-1,-2.479195833E0,9.674370766E0,-1.658583283E0
2.754337500E-1,-2.503137827E0,9.717466354E0,-1.644217968E0
2.779215100E-1,-2.517503023E0,9.736619949E0,-1.625064373E0
2.804092710E-1,-2.522291422E0,9.765350342E0,-1.581968784E0
2.828970310E-1,-2.507926226E0,9.794080734E0,-1.548449993E0
2.853847920E-1,-2.536656618E0,9.789292336E0,-1.548449993E0
2.878725520E-1,-2.536656618E0,9.779715538E0,-1.543661594E0
2.903603120E-1,-2.555810213E0,9.798869133E0,-1.553238392E0
2.928480730E-1,-2.584540844E0,9.774927139E0,-1.562815189E0
2.953358330E-1,-2.598906040E0,9.755773544E0,-1.586757183E0
2.978235940E-1,-2.632424831E0,9.750985146E0,-1.615487576E0
3.003113540E-1,-2.637213230E0,9.746196747E0,-1.610699177E0
3.027991140E-1,-2.632424831E0,9.731831551E0,-1.620275974E0
3.052868750E-1,-2.594117641E0,9.707889557E0,-1.615487576E0
3.077746350E-1,-2.579752445E0,9.683947563E0,-1.625064373E0
3.102623960E-1,-2.541445017E0,9.683947563E0,-1.634641171E0
3.127501560E-1,-2.522291422E0,9.664793968E0,-1.639429569E0
3.152379170E-1,-2.512714624E0,9.669582367E0,-1.649006367E0
3.177256770E-1,-2.493561029E0,9.660005569E0,-1.692102075E0
3.202134370E-1,-2.503137827E0,9.669582367E0,-1.711255670E0
3.227011980E-1,-2.474407434E0,9.679159164E0,-1.739986062E0
3.251889580E-1,-2.445677042E0,9.664793968E0,-1.792658567E0
3.276767190E-1,-2.445677042E0,9.645640373E0,-1.797446966E0
3.301644790E-1,-2.450465441E0,9.650428772E0,-1.787870169E0
3.326522390E-1,-2.436100245E0,9.636063576E0,-1.802235365E0
3.351400000E-1,-2.455253839E0,9.602544785E0,-1.821388960E0
3.376277600E-1,-2.436100245E0,9.583391190E0,-1.826177359E0
3.401155210E-1,-2.421735048E0,9.573814392E0,-1.821388960E0
3.426032810E-1,-2.402581453E0,9.549872398E0,-1.816600561E0
3.450910420E-1,-2.383427858E0,9.535507202E0,-1.802235365E0
3.475788020E-1,-2.393004656E0,9.511565208E0,-1.802235365E0
3.500665620E-1,-2.383427858E0,9.487623215E0,-1.792658567E0
3.525543230E-1,-2.378639460E0,9.492411613E0,-1.759139657E0
3.550420830E-1,-2.402581453E0,9.478046417E0,-1.725620866E0
3.575297920E-1,-2.416946650E0,9.468469620E0,-1.696890473E0
3.600175000E-1,-2.426523447E0,9.468469620E0,-1.682525277E0
3.625052080E-1,-2.445677042E0,9.463681221E0,-1.672948480E0
3.649929170E-1,-2.450465441E0,9.444527626E0,-1.663371682E0
3.674806250E-1,-2.450465441E0,9.444527626E0,-1.672948480E0
3.699683330E-1,-2.440888643E0,9.411007881E0,-1.677736878E0
3.724560420E-1,-2.440888643E0,9.382277489E0,-1.653794765E0
3.749437500E-1,-2.440888643E0,9.348758698E0,-1.653794765E0
3.774314580E-1,-2.455253839E0,9.320028305E0,-1.668160081E0
3.799191670E-1,-2.479195833E0,9.305663109E0,-1.672948480E0
3.824068750E-1,-2.498349428E0,9.305663109E0,-1.682525277E0
3.848945830E-1,-2.507926226E0,9.286509514E0,-1.706467271E0
3.873822920E-1,-2.541445017E0,9.276932716E0,-1.735197663E0
3.898700000E-1,-2.546233416E0,9.281721115E0,-1.749562860E0
3.923577080E-1,-2.565387011E0,9.286509514E0,-1.754351258E0
3.948454170E-1,-2.551021814E0,9.291297913E0,-1.773504853E0
3.973331250E-1,-2.536656618E0,9.310451508E0,-1.787870169E0
3.998208330E-1,-2.498349428E0,9.310451508E0,-1.763928056E0
4.023085420E-1,-2.469619036E0,9.339181900E0,-1.773504853E0
4.047962500E-1,-2.436100245E0,9.334393501E0,-1.763928056E0
4.072839580E-1,-2.402581453E0,9.339181900E0,-1.759139657E0
4.097716670E-1,-2.412158251E0,9.353547096E0,-1.763928056E0
4.122593750E-1,-2.407369852E0,9.363123894E0,-1.792658567E0
4.147470830E-1,-2.416946650E0,9.377489090E0,-1.802235365E0
4.172347920E-1,-2.436100245E0,9.396642685E0,-1.792658567E0
4.197225000E-1,-2.436100245E0,9.411007881E0,-1.778293371E0
4.222102080E-1,-2.426523447E0,9.430161476E0,-1.792658567E0
4.246979170E-1,-2.421735048E0,9.439739227E0,-1.773504853E0
4.271856250E-1,-2.426523447E0,9.444527626E0,-1.768716455E0
4.296733330E-1,-2.426523447E0,9.444527626E0,-1.797446966E0
4.321610420E-1,-2.426523447E0,9.473258018E0,-1.802235365E0
4.346487500E-1,-2.431311846E0,9.482834816E0,-1.811812162E0
4.371364580E-1,-2.460042238E0,9.511565208E0,-1.840542555E0
4.396241670E-1,-2.464830637E0,9.506776810E0,-1.840542555E0
4.421118750E-1,-2.450465441E0,9.511565208E0,-1.840542555E0
4.445995830E-1,-2.450465441E0,9.506776810E0,-1.830965757E0
4.470873440E-1,-2.455253839E0,9.473258018E0,-1.816600561E0
4.495751040E-1,-2.440888643E0,9.458892822E0,-1.797446966E0
4.520628640E-1,-2.464830637E0,9.444527626E0,-1.778293371E0
4.545506250E-1,-2.498349428E0,9.449316025E0,-1.744774461E0
4.570383850E-1,-2.512714624E0,9.454104424E0,-1.711255670E0
4.595261460E-1,-2.522291422E0,9.458892822E0,-1.692102075E0
4.620139060E-1,-2.536656618E0,9.449316025E0,-1.701678872E0
4.645016670E-1,-2.546233416E0,9.449316025E0,-1.692102075E0
4.669894270E-1,-2.527079821E0,9.468469620E0,-1.653794765E0
4.694771870E-1,-2.527079821E0,9.478046417E0,-1.629852772E0
4.719649480E-1,-2.531868219E0,9.487623215E0,-1.610699177E0
4.744527080E-1,-2.527079821E0,9.473258018E0,-1.596333981E0
4.769404690E-1,-2.536656618E0,9.463681221E0,-1.601122379E0
4.794282290E-1,-2.560598612E0,9.473258018E0,-1.639429569E0
4.819159890E-1,-2.579752445E0,9.482834816E0,-1.658583283E0
4.844037500E-1,-2.579752445E0,9.468469620E0,-1.682525277E0
4.868915100E-1,-2.589329243E0,9.449316025E0,-1.687313676E0
4.893792710E-1,-2.584540844E0,9.458892822E0,-1.696890473E0
4.918670310E-1,-2.584540844E0,9.449316025E0,-1.677736878E0
4.943547920E-1,-2.570175409E0,9.434949875E0,-1.687313676E0
4.968425520E-1,-2.551021814E0,9.420584679E0,-1.682525277E0
4.993303120E-1,-2.565387011E0,9.420584679E0,-1.692102075E0
5.018180730E-1,-2.574964046E0,9.430161476E0,-1.677736878E0
5.043058330E-1,-2.574964046E0,9.425373077E0,-1.663371682E0
5.067935940E-1,-2.594117641E0,9.439739227E0,-1.687313676E0
5.092813540E-1,-2.603694439E0,9.449316025E0,-1.701678872E0
5.117691140E-1,-2.598906040E0,9.458892822E0,-1.677736878E0
5.142568750E-1,-2.594117641E0,9.482834816E0,-1.653794765E0
5.167446350E-1,-2.584540844E0,9.487623215E0,-1.658583283E0
5.192323960E-1,-2.574964046E0,9.501988411E0,-1.663371682E0
5.217201560E-1,-2.541445017E0,9.521142006E0,-1.668160081E0
5.242079170E-1,-2.527079821E0,9.525930405E0,-1.653794765E0
5.266956770E-1,-2.512714624E0,9.540295601E0,-1.653794765E0
5.291834370E-1,-2.512714624E0,9.564237595E0,-1.653794765E0
5.316711980E-1,-2.503137827E0,9.573814392E0,-1.653794765E0
5.341589580E-1,-2.517503023E0,9.564237595E0,-1.653794765E0
5.366467190E-1,-2.522291422E0,9.573814392E0,-1.653794765E0
5.391344790E-1,-2.536656618E0,9.569025993E0,-1.658583283E0
5.416222390E-1,-2.551021814E0,9.573814392E0,-1.663371682E0
5.441100000E-1,-2.541445017E0,9.569025993E0,-1.672948480E0
5.465977600E-1,-2.531868219E0,9.564237595E0,-1.706467271E0
5.490855210E-1,-2.541445017E0,9.569025993E0,-1.725620866E0
5.515732810E-1,-2.512714624E0,9.597756386E0,-1.725620866E0
5.540610420E-1,-2.507926226E0,9.616909981E0,-1.739986062E0
5.565488020E-1,-2.493561029E0,9.640851974E0,-1.754351258E0
5.590365620E-1,-2.474407434E0,9.655217171E0,-1.739986062E0
5.615243230E-1,-2.445677042E0,9.679159164E0,-1.739986062E0
5.640120830E-1,-2.440888643E0,9.712677956E0,-1.754351258E0
5.664998440E-1,-2.455253839E0,9.755773544E0,-1.773504853E0
5.689876040E-1,-2.450465441E0,9.818022728E0,-1.754351258E0
5.714753640E-1,-2.455253839E0,9.865906715E0,-1.763928056E0
5.739631250E-1,-2.479195833E0,9.928155899E0,-1.783081770E0
5.764508850E-1,-2.474407434E0,9.995193481E0,-1.807023764E0
5.789386460E-1,-2.474407434E0,1.006223106E1,-1.840542555E0
5.814264060E-1,-2.450465441E0,1.011011505E1,-1.874061346E0
5.839141670E-1,-2.412158251E0,1.016278744E1,-1.854907751E0
5.864019270E-1,-2.369062662E0,1.022024822E1,-1.888426542E0
5.888896870E-1,-2.306813240E0,1.029207420E1,-1.869272947E0
5.913775000E-1,-2.244564056E0,1.034474659E1,-1.845330954E0
5.938653120E-1,-2.249352455E0,1.041657257E1,-1.840542555E0
5.963531250E-1,-2.258929253E0,1.049797630E1,-1.835754156E0
5.988409370E-1,-2.282871246E0,1.057459068E1,-1.864484549E0
6.013286980E-1,-2.325966835E0,1.067514706E1,-1.907580256E0
6.038164580E-1,-2.373851061E0,1.074697304E1,-1.941099048E0
6.063041670E-1,-2.416946650E0,1.082358742E1,-1.969829440E0
6.087918750E-1,-2.450465441E0,1.090020180E1,-2.017713547E0
6.112795830E-1,-2.464830637E0,1.098160458E1,-2.046443939E0
6.137672920E-1,-2.464830637E0,1.107258415E1,-2.046443939E0
6.162550000E-1,-2.488772631E0,1.116356373E1,-2.036867142E0
6.187427080E-1,-2.479195833E0,1.125933170E1,-1.988983035E0
6.212304170E-1,-2.488772631E0,1.135988808E1,-1.950675845E0
6.237181250E-1,-2.522291422E0,1.147959900E1,-1.941099048E0
6.262058330E-1,-2.603694439E0,1.157536697E1,-1.969829440E0
6.286935420E-1,-2.704250813E0,1.170465374E1,-2.003348351E0
6.311812500E-1,-2.809595585E0,1.181478691E1,-2.056020737E0
6.336689580E-1,-2.905363798E0,1.187224770E1,-2.123058319E0
6.361566670E-1,-2.967612982E0,1.195365047E1,-2.180519104E0
6.386443750E-1,-2.977189779E0,1.200632286E1,-2.233191729E0
6.411320830E-1,-2.972401381E0,1.206378365E1,-2.290652514E0
6.436197920E-1,-2.934094191E0,1.210209084E1,-2.343324900E0
6.461075000E-1,-2.871845007E0,1.214997482E1,-2.367266893E0
6.485952080E-1,-2.833537817E0,1.217870522E1,-2.362478495E0
6.510829170E-1,-2.790441990E0,1.223137760E1,-2.314594507E0
6.535706250E-1,-2.790441990E0,1.228404999E1,-2.324171305E0
6.560583330E-1,-2.800018787E0,1.236545277E1,-2.324171305E0
6.585460420E-1,-2.804807186E0,1.244685650E1,-2.328959703E0
6.610337500E-1,-2.790441990E0,1.253783607E1,-2.319382906E0
6.635214580E-1,-2.776076794E0,1.261445045E1,-2.285864115E0
6.660091670E-1,-2.747346401E0,1.270543003E1,-2.242768526E0
6.684968750E-1,-2.723404408E0,1.279162121E1,-2.185307503E0
6.709845830E-1,-2.747346401E0,1.286344719E1,-2.166153908E0
6.734722920E-1,-2.780865192E0,1.294484997E1,-2.190095901E0
6.759600000E-1,-2.857479811E0,1.301667595E1,-2.247556925E0
6.784477080E-1,-2.943670988E0,1.309807873E1,-2.290652514E0
6.809354170E-1,-3.029862165E0,1.317469311E1,-2.328959703E0
6.834231250E-1,-3.096899986E0,1.323215389E1,-2.348113298E0
6.859108330E-1,-3.149572372E0,1.328003788E1,-2.372055292E0
6.883985420E-1,-3.163937569E0,1.331834507E1,-2.405574083E0
6.908862500E-1,-3.216609955E0,1.336144066E1,-2.405574083E0
6.933739580E-1,-3.259705544E0,1.339496040E1,-2.391208887E0
6.958617190E-1,-3.321954966E0,1.343805599E1,-2.352901697E0
6.983494790E-1,-3.398569345E0,1.346678638E1,-2.295440912E0
7.008372390E-1,-3.465606928E0,1.348593998E1,-2.228403330E0
7.033250000E-1,-3.566163540E0,1.350988197E1,-2.185307503E0
7.058127600E-1,-3.676296711E0,1.355776596E1,-2.147000313E0
7.083005210E-1,-3.800795317E0,1.358649635E1,-2.113481522E0
7.107882810E-1,-3.920505285E0,1.362959194E1,-2.103904724E0
7.132760420E-1,-3.997119665E0,1.366789913E1,-2.103904724E0
7.157638020E-1,-4.030638695E0,1.370620632E1,-2.103904724E0
7.182515620E-1,-4.045003891E0,1.371578312E1,-2.075174332E0
7.207393230E-1,-4.016273499E0,1.371099472E1,-2.027290344E0
7.232270830E-1,-3.982754469E0,1.369662952E1,-1.969829440E0
7.257148440E-1,-3.987542868E0,1.368705273E1,-1.936310649E0
7.282026040E-1,-4.011485100E0,1.367268753E1,-1.926733851E0
7.306903640E-1,-4.054580688E0,1.368226433E1,-1.921945453E0
7.331781250E-1,-4.107253075E0,1.371578312E1,-1.945887446E0
7.356658850E-1,-4.126406670E0,1.375409031E1,-2.032078743E0
7.381536460E-1,-4.097676277E0,1.381633949E1,-2.103904724E0
7.406414060E-1,-4.045003891E0,1.385943508E1,-2.132635117E0
7.431291670E-1,-3.920505285E0,1.389295387E1,-2.108693123E0
7.456169270E-1,-3.772064686E0,1.394083786E1,-2.075174332E0
7.481046870E-1,-3.614047527E0,1.397914505E1,-2.041655540E0
7.505924480E-1,-3.499125719E0,1.402224064E1,-2.027290344E0
7.530802080E-1,-3.417722940E0,1.405575943E1,-2.022501945E0
7.555679690E-1,-3.350685358E0,1.407491302E1,-2.012925148E0
7.580557290E-1,-3.307589531E0,1.412758541E1,-2.003348351E0
7.605434890E-1,-3.302801132E0,1.418504620E1,-1.998559833E0
7.630312500E-1,-3.254917145E0,1.421856499E1,-1.974617839E0
7.655190100E-1,-3.187879562E0,1.423293018E1,-1.979406238E0
7.680067710E-1,-3.087323189E0,1.425208378E1,-1.979406238E0
7.704945310E-1,-2.972401381E0,1.425687218E1,-1.917157054E0
7.729822920E-1,-2.823961020E0,1.422335339E1,-1.850119352E0
7.754700520E-1,-2.728192806E0,1.419941139E1,-1.816600561E0
7.779578120E-1,-2.632424831E0,1.413237381E1,-1.792658567E0
7.804455730E-1,-2.613271236E0,1.406533623E1,-1.792658567E0
7.829333330E-1,-2.603694439E0,1.400787544E1,-1.792658567E0
7.854210940E-1,-2.637213230E0,1.392647266E1,-1.821388960E0
7.879088540E-1,-2.651578426E0,1.382112789E1,-1.830965757E0
7.903966140E-1,-2.646790028E0,1.372057152E1,-1.802235365E0
7.928843750E-1,-2.608482838E0,1.361043835E1,-1.749562860E0
7.953721350E-1,-2.560598612E0,1.350030518E1,-1.696890473E0
7.978598960E-1,-2.512714624E0,1.337101841E1,-1.639429569E0
8.003476560E-1,-2.479195833E0,1.324651909E1,-1.581968784E0
8.028354170E-1,-2.483984232E0,1.311244392E1,-1.534084797E0
8.053231770E-1,-2.488772631E0,1.298315716E1,-1.467047095E0
8.078109370E-1,-2.469619036E0,1.284908199E1,-1.390432596E0
8.102986980E-1,-2.479195833E0,1.273416042E1,-1.328183413E0
8.127864580E-1,-2.474407434E0,1.260487366E1,-1.294664621E0
8.152742190E-1,-2.455253839E0,1.248516369E1,-1.304241419E0
8.177619790E-1,-2.431311846E0,1.237502956E1,-1.328183413E0
8.202497390E-1,-2.397793055E0,1.230320358E1,-1.299453020E0
8.227375000E-1,-2.340332270E0,1.225053120E1,-1.265934110E0
8.252257290E-1,-2.287659645E0,1.220743561E1,-1.256357312E0
8.277133330E-1,-2.244564056E0,1.216912842E1,-1.285087705E0
8.302009370E-1,-2.220622063E0,1.214518642E1,-1.309029818E0
8.326885420E-1,-2.191891670E0,1.210209084E1,-1.328183413E0
8.351761460E-1,-2.153584480E0,1.204463005E1,-1.332971811E0
8.376637500E-1,-2.072181463E0,1.196322727E1,-1.285087705E0
8.401513540E-1,-1.938106298E0,1.188182449E1,-1.285087705E0
8.426389580E-1,-1.837549806E0,1.178605652E1,-1.275510907E0
8.451265620E-1,-1.741781712E0,1.170944214E1,-1.270722508E0
8.476141670E-1,-1.655590534E0,1.163761616E1,-1.246780515E0
8.501017710E-1,-1.612494826E0,1.158015537E1,-1.246780515E0
8.525894270E-1,-1.617283225E0,1.151790619E1,-1.289876223E0
8.550771350E-1,-1.626860023E0,1.144608021E1,-1.366490602E0
8.575648960E-1,-1.655590534E0,1.135509968E1,-1.467047095E0
8.600527080E-1,-1.679532528E0,1.124975491E1,-1.538873196E0
8.625405210E-1,-1.693897724E0,1.113962173E1,-1.605910778E0
8.650286460E-1,-1.703474522E0,1.101512337E1,-1.620275974E0
8.675167710E-1,-1.669955730E0,1.087625980E1,-1.596333981E0
8.700048960E-1,-1.626860023E0,1.072781944E1,-1.581968784E0
8.724927080E-1,-1.622071624E0,1.058416748E1,-1.581968784E0
8.749804690E-1,-1.669955730E0,1.045488071E1,-1.591545582E0
8.774681770E-1,-1.775300503E0,1.037347698E1,-1.620275974E0
8.799558850E-1,-1.880645394E0,1.031601620E1,-1.677736878E0
8.824435940E-1,-2.000355482E0,1.026334381E1,-1.639429569E0
8.849313020E-1,-2.105700493E0,1.022024822E1,-1.586757183E0
8.874190100E-1,-2.134430885E0,1.014842224E1,-1.457470298E0
8.899067190E-1,-2.129642487E0,1.003350067E1,-1.256357312E0
8.923944270E-1,-2.072181463E0,9.904213905E0,-1.098340034E0
8.948821350E-1,-2.014720678E0,9.770138741E0,-9.929951429E-1
8.973698440E-1,-1.966836691E0,9.621698380E0,-9.211691022E-1
8.998575520E-1,-1.976413488E0,9.492411613E0,-8.876502514E-1
9.023452600E-1,-2.024297476E0,9.391854286E0,-8.732850552E-1
9.048329690E-1,-2.100912094E0,9.276932716E0,-8.972271085E-1
9.073206770E-1,-2.211045265E0,9.200318336E0,-9.690531492E-1
9.098083850E-1,-2.278082848E0,9.138069153E0,-1.007360339E0
9.122960940E-1,-2.292448044E0,9.071031570E0,-1.026513934E0
9.147838020E-1,-2.201468468E0,8.999205589E0,-1.050456047E0
9.172715100E-1,-2.048239470E0,8.917802811E0,-1.002571940E0
9.197592190E-1,-1.909375906E0,8.798092842E0,-9.546879530E-1
9.222469270E-1,-1.818396211E0,8.687959671E0,-8.972271085E-1
9.247346350E-1,-1.804031014E0,8.558672905E0,-9.068039060E-1
9.272223440E-1,-1.837549806E0,8.429385185E0,-9.786299467E-1
9.297100520E-1,-1.890222192E0,8.328828812E0,-1.117493629E0
9.321977600E-1,-1.976413488E0,8.242637634E0,-1.246780515E0
9.346854690E-1,-2.086546898E0,8.185176849E0,-1.400009394E0
9.371731770E-1,-2.144007683E0,8.146869659E0,-1.505354285E0
9.396608850E-1,-2.191891670E0,8.103774071E0,-1.519719481E0
9.421485940E-1,-2.201468468E0,8.055890083E0,-1.505354285E0
9.446363020E-1,-2.177526474E0,8.008006096E0,-1.476623893E0
9.471240100E-1,-2.158372879E0,7.950545311E0,-1.395220995E0
9.496117190E-1,-2.144007683E0,7.864354134E0,-1.275510907E0
9.520994270E-1,-2.148796082E0,7.792528152E0,-1.170166135E0
9.545871350E-1,-2.139219284E0,7.691971302E0,-1.098340034E0
9.570748440E-1,-2.158372879E0,7.600991726E0,-1.117493629E0
9.595625520E-1,-2.215833664E0,7.529165745E0,-1.103128433E0
9.620502600E-1,-2.340332270E0,7.486070156E0,-1.088763237E0
9.645379690E-1,-2.479195833E0,7.495646954E0,-1.093551636E0
9.670256770E-1,-2.642001629E0,7.548319340E0,-1.103128433E0
9.695133850E-1,-2.776076794E0,7.600991726E0,-1.103128433E0
9.720011460E-1,-2.857479811E0,7.663240910E0,-1.079186440E0
9.744889060E-1,-2.871845007E0,7.701548100E0,-1.016937137E0
9.769766670E-1,-2.867056608E0,7.720701694E0,-9.642647505E-1
9.794644270E-1,-2.867056608E0,7.706336498E0,-8.397662640E-1
9.819521870E-1,-2.819172382E0,7.624933720E0,-6.482301354E-1
9.844399480E-1,-2.780865192E0,7.524377346E0,-6.769605279E-1
9.869277080E-1,-2.823961020E0,7.452551365E0,-8.445546627E-1
9.894154690E-1,-2.929305792E0,7.423820972E0,-1.007360339E0
9.919032290E-1,-3.063380957E0,7.409455776E0,-1.107916832E0
9.943909890E-1,-3.178302765E0,7.423820972E0,-1.136647224E0
9.968787500E-1,-3.230975151E0,7.466916561E0,-1.127070427E0
9.993665100E-1,-3.221398354E0,7.495646954E0,-1.074398041E0
1.001854271E0,-3.149572372E0,7.490858555E0,-9.738415480E-1
1.004342031E0,-3.106476784E0,7.471704960E0,-9.163807034E-1
1.006829792E0,-3.111265182E0,7.447762966E0,-8.780734539E-1
1.009317552E0,-3.159149170E0,7.423820972E0,-8.254010081E-1
1.011805312E0,-3.207033157E0,7.380725384E0,-7.248445749E-1
1.014293073E0,-3.240551949E0,7.323264599E0,-6.578069329E-1
1.016780833E0,-3.274070740E0,7.289745808E0,-5.764040351E-1
1.019268594E0,-3.293224335E0,7.270592213E0,-4.950011969E-1
1.021756354E0,-3.302801132E0,7.265803814E0,-4.183867574E-1
1.024244114E0,-3.264493942E0,7.289745808E0,-3.800795078E-1
1.026731875E0,-3.211821556E0,7.332841396E0,-3.705027103E-1
1.029219635E0,-3.159149170E0,7.390302181E0,-3.800795078E-1
1.031707396E0,-3.130418777E0,7.476493359E0,-4.710591733E-1
1.034195156E0,-3.087323189E0,7.557896137E0,-6.051344872E-1
1.036682917E0,-3.049015760E0,7.600991726E0,-7.296329737E-1
1.039170677E0,-2.986766577E0,7.634510517E0,-9.211691022E-1
1.041658437E0,-2.929305792E0,7.682394505E0,-1.088763237E0
1.044146198E0,-2.867056608E0,7.720701694E0,-1.136647224E0
1.046633958E0,-2.761711597E0,7.754220963E0,-1.146224022E0
1.049121719E0,-2.689885616E0,7.816470146E0,-1.184531331E0
1.051609479E0,-2.598906040E0,7.888296127E0,-1.208473325E0
1.054097239E0,-2.560598612E0,7.988852501E0,-1.218050122E0
1.056585000E0,-2.574964046E0,8.089408875E0,-1.222838521E0
1.059072760E0,-2.618059635E0,8.209118843E0,-1.194108129E0
1.061560521E0,-2.637213230E0,8.300098419E0,-1.136647224E0
1.064048281E0,-2.574964046E0,8.367136002E0,-1.002571940E0
1.066536042E0,-2.474407434E0,8.371924400E0,-8.637082577E-1
1.069023802E0,-2.325966835E0,8.324040413E0,-7.200561762E-1
1.071511562E0,-2.187103271E0,8.261791229E0,-5.764040351E-1
1.073999323E0,-2.110488892E0,8.189965248E0,-4.997895956E-1
1.076487083E0,-2.096123695E0,8.108562469E0,-4.135983288E-1
1.078974844E0,-2.100912094E0,8.060678482E0,-2.603694201E-1
1.081462604E0,-2.096123695E0,8.003217697E0,-1.550245583E-1
1.083950364E0,-2.053027868E0,8.027159691E0,-2.220622003E-1
1.086438125E0,-2.038662672E0,7.955333710E0,-7.362170517E-2
1.088925885E0,-2.081758261E0,8.046313286E0,-2.507926226E-1
1.091413646E0,-2.038662672E0,7.969698906E0,-7.362170517E-2
1.093901406E0,-2.057816267E0,7.878719330E0,5.566519126E-2
1.096389167E0,-2.129642487E0,7.806893349E0,-8.319851011E-2
1.098876927E0,-2.206256866E0,7.720701694E0,-2.555810213E-1
1.101364687E0,-2.292448044E0,7.586626530E0,-3.321954906E-1
1.103852448E0,-2.330755472E0,7.438186169E0,-3.034650683E-1
1.106340208E0,-2.340332270E0,7.284957409E0,-2.699462473E-1
1.108827969E0,-2.292448044E0,7.117362976E0,-1.837549806E-1
1.111315729E0,-2.234987259E0,6.968922615E0,-1.119289324E-1
1.113803489E0,-2.263717651E0,6.849212646E0,-5.446808785E-2
1.116291250E0,-2.349909067E0,6.777386665E0,-9.277531505E-2
1.118779010E0,-2.517503023E0,6.772598267E0,-1.789665818E-1
1.121266771E0,-2.699462414E0,6.753444672E0,-2.268506140E-1
1.123754531E0,-2.838326216E0,6.739078999E0,-1.837549806E-1
1.126242292E0,-2.924517393E0,6.734290600E0,-1.981201917E-1
1.128730052E0,-2.900575399E0,6.710348606E0,-2.412158251E-1
1.131217812E0,-2.871845007E0,6.715137005E0,-2.747346461E-1
1.133705573E0,-2.881421804E0,6.734290600E0,-3.561375141E-1
1.136193333E0,-2.900575399E0,6.796540260E0,-4.902127981E-1
1.138681094E0,-2.977189779E0,6.892308235E0,-6.434416771E-1
1.141168854E0,-3.025073767E0,7.016806602E0,-7.439981699E-1
1.143656614E0,-3.029862165E0,7.131728172E0,-8.493430614E-1
1.146144375E0,-2.900575399E0,7.146093369E0,-8.541314602E-1
1.148632083E0,-2.627636433E0,6.997653008E0,-6.242880821E-1
1.151119792E0,-2.388216257E0,6.796540260E0,-4.519055784E-1
1.153607500E0,-2.268506050E0,6.676829815E0,-4.135983288E-1
1.156095208E0,-2.144007683E0,6.470928669E0,-2.172738016E-1
1.158582917E0,-2.263717651E0,6.748656273E0,-6.003460884E-1
1.161070625E0,-2.383427858E0,6.968922615E0,-4.519055784E-1
1.163558333E0,-2.393004656E0,7.107786179E0,-2.316390127E-1
1.166046042E0,-2.187103271E0,7.102997780E0,6.045359373E-2
1.168533750E0,-1.923741102E0,7.021595001E0,1.418564469E-1
1.171021458E0,-1.736993313E0,7.035960197E0,8.918401599E-2
1.173509167E0,-1.607706428E0,6.906673431E0,4.483142793E-1
1.175996875E0,-1.559822440E0,6.777386665E0,5.297171474E-1
1.178484583E0,-1.564610839E0,6.695983410E0,4.100070298E-1
1.180972292E0,-1.641225219E0,6.628945827E0,2.902969420E-1
1.183460000E0,-1.760935307E0,6.600215435E0,1.370680481E-1
1.185947708E0,-1.880645394E0,6.619369030E0,-2.094926499E-2
1.188435417E0,-1.971625090E0,6.672041416E0,-1.981201917E-1
1.190923125E0,-2.067393064E0,6.724713802E0,-3.513490856E-1
1.193410833E0,-2.139219284E0,6.753444672E0,-3.944447339E-1
1.195898542E0,-2.278082848E0,6.528389454E0,-1.789665818E-1
1.198386250E0,-2.182314873E0,6.676829815E0,-9.738415480E-1
1.200873958E0,-2.110488892E0,6.935403824E0,-9.594763517E-1
1.203361667E0,-1.962048292E0,6.849212646E0,-4.010287672E-2
1.205849375E0,-1.933317900E0,6.992864609E0,-2.220622003E-1
1.208337083E0,-1.895010591E0,7.074267387E0,-3.896563351E-1
1.210824792E0,-1.942894697E0,7.208342552E0,-4.327519536E-1
1.213312500E0,-1.842338204E0,7.083844185E0,1.849520802E-1
1.215800208E0,-2.167949677E0,7.577049732E0,-8.206126094E-1
1.218287917E0,-2.278082848E0,7.711124897E0,-7.535749674E-1
1.220775625E0,-2.081758261E0,7.610568523E0,-4.997895956E-1
1.223263333E0,-1.861491799E0,7.500435352E0,-7.009025216E-1
1.225751042E0,-1.741781712E0,7.356783390E0,-7.583633661E-1
1.228238750E0,-1.732204914E0,7.222707748E0,-7.823054194E-1
1.230726458E0,-1.804031014E0,7.213130951E0,-9.546879530E-1
1.233214167E0,-1.899798989E0,7.332841396E0,-1.122282028E0
1.235701875E0,-1.938106298E0,7.533954144E0,-1.146224022E0
1.238189583E0,-1.698686123E0,7.481281757E0,-4.040215313E-1
1.240677292E0,-1.473631144E0,7.687182903E0,-2.412158251E-1
1.243165052E0,-1.693897724E0,8.108562469E0,-7.439981699E-1
1.245652812E0,-1.770512104E0,7.969698906E0,-8.798690885E-2
1.248140573E0,-1.698686123E0,7.744644165E0,1.610100716E-1
1.250628333E0,-1.655590534E0,7.476493359E0,2.041056901E-1
1.253116094E0,-1.693897724E0,7.222707748E0,3.381809890E-1
1.255603854E0,-1.895010591E0,7.117362976E0,2.759317458E-1
1.258091614E0,-2.196680069E0,7.155670166E0,1.466448605E-1
1.260579375E0,-2.517503023E0,7.256227016E0,2.992752008E-3
1.263067135E0,-2.766499996E0,7.380725384E0,-1.646013707E-1
1.265554896E0,-2.886210203E0,7.433397770E0,-2.172738016E-1
1.268042656E0,-2.862268209E0,7.395090580E0,-1.550245583E-1
1.270530417E0,-2.761711597E0,7.289745808E0,-1.215057373E-1
1.273018177E0,-2.680308819E0,7.150881767E0,-1.550245583E-1
1.275505937E0,-2.723404408E0,7.069478989E0,-3.369838893E-1
1.277993698E0,-2.833537817E0,7.098209381E0,-8.206126094E-1
1.280481458E0,-2.895787001E0,7.165246964E0,-1.174954534E0
1.282969219E0,-2.948459387E0,7.299322605E0,-9.451110959E-1
1.285456979E0,-3.082534790E0,7.658452511E0,-6.865373254E-1
1.287944739E0,-3.116053581E0,8.012794495E0,-6.147112846E-1
1.290432500E0,-2.895787001E0,8.041524887E0,-4.135983288E-1
1.292920260E0,-2.479195833E0,7.902661324E0,-1.693897694E-1
1.295408021E0,-2.100912094E0,7.763797760E0,-1.406593472E-1
1.297895781E0,-2.038662672E0,7.782951355E0,9.876082093E-2
1.300383542E0,-2.124854088E0,8.108562469E0,-4.902127981E-1
1.302871302E0,-1.981201887E0,8.027159691E0,-5.716156363E-1
1.305359062E0,-1.540668845E0,7.806893349E0,7.960720360E-2
1.307846823E0,-1.382651448E0,8.098985672E0,-1.741781682E-1
1.310334583E0,-2.009932280E0,8.889072418E0,-2.400785685E0
1.312822344E0,-2.120065689E0,8.692748070E0,-1.979406238E0
1.315310104E0,-1.746570110E0,8.285733223E0,-1.888426542E0
1.317797864E0,-1.291671872E0,7.878719330E0,-1.936310649E0
1.320285625E0,-1.100135684E0,7.648875713E0,-1.687313676E0
1.322773385E0,-1.267729759E0,7.763797760E0,-1.500565886E0
1.325261354E0,-1.650802016E0,8.065466881E0,-1.356913805E0
1.327749323E0,-2.076969862E0,8.381501198E0,-1.189319730E0
1.330237292E0,-2.321178436E0,8.644864082E0,-1.021725535E0
1.332725052E0,-2.402581453E0,8.759785652E0,-8.541314602E-1
1.335212760E0,-2.421735048E0,8.745420456E0,-7.200561762E-1
1.337700469E0,-2.440888643E0,8.630498886E0,-6.673837304E-1
1.340188177E0,-2.517503023E0,8.486846924E0,-7.056909800E-1
1.342675885E0,-2.661155224E0,8.367136002E0,-7.870938182E-1
1.345163594E0,-2.876633406E0,8.319252014E0,-8.732850552E-1
1.347651302E0,-3.106476784E0,8.362347603E0,-9.259575009E-1
1.350139010E0,-3.331531763E0,8.520365715E0,-9.020155072E-1
1.352626719E0,-3.527856112E0,8.754997253E0,-8.445546627E-1
1.355114427E0,-3.604470730E0,8.984840393E0,-6.530185342E-1
1.357602135E0,-3.513490915E0,9.118915558E0,-4.040215313E-1
1.360089844E0,-3.283647537E0,9.190741539E0,-1.646013707E-1
1.362577552E0,-2.986766577E0,9.176376343E0,5.566519126E-2
1.365065260E0,-2.732981205E0,9.152434349E0,1.993172914E-1
1.367552969E0,-2.579752445E0,9.157222748E0,2.136825025E-1
1.370040677E0,-2.551021814E0,9.195529938E0,9.397241473E-2
1.372528385E0,-2.565387011E0,9.252990723E0,-1.358709484E-1
1.375016094E0,-2.579752445E0,9.291297913E0,-4.519055784E-1
1.377503802E0,-2.498349428E0,9.300874710E0,-6.578069329E-1
1.379991510E0,-2.330755472E0,9.296086311E0,-7.583633661E-1
1.382479219E0,-2.091335297E0,9.281721115E0,-7.918822169E-1
1.384966927E0,-1.813607812E0,9.272144318E0,-7.631517649E-1
1.387454635E0,-1.569399238E0,9.291297913E0,-7.248445749E-1
1.389942344E0,-1.397016644E0,9.387065887E0,-6.769605279E-1
1.392430052E0,-1.301248670E0,9.501988411E0,-6.338648796E-1
1.394917760E0,-1.258152962E0,9.602544785E0,-6.434416771E-1
1.397405469E0,-1.277306557E0,9.679159164E0,-7.009025216E-1
1.399893177E0,-1.329979062E0,9.679159164E0,-7.918822169E-1
1.402380885E0,-1.416170359E0,9.621698380E0,-9.403226972E-1
1.404868594E0,-1.516726732E0,9.554660797E0,-1.107916832E0
1.407356302E0,-1.626860023E0,9.511565208E0,-1.280299306E0
1.409844010E0,-1.708262920E0,9.463681221E0,-1.390432596E0
1.412331719E0,-1.770512104E0,9.449316025E0,-1.414374709E0
1.414819427E0,-1.780089021E0,9.449316025E0,-1.332971811E0
1.417307135E0,-1.751358509E0,9.468469620E0,-1.189319730E0
1.419794844E0,-1.689109325E0,9.487623215E0,-1.021725535E0
1.422282552E0,-1.665167332E0,9.478046417E0,-8.493430614E-1
1.424770260E0,-1.703474522E0,9.525930405E0,-7.104793787E-1
1.427257969E0,-1.794454217E0,9.592967987E0,-6.290764809E-1
1.429745729E0,-1.914164305E0,9.688735962E0,-5.811924338E-1
1.432233489E0,-2.038662672E0,9.822811127E0,-5.476736426E-1
1.434721250E0,-2.091335297E0,9.899425507E0,-5.620388389E-1
1.437209010E0,-2.096123695E0,9.928155899E0,-5.716156363E-1
1.439696771E0,-2.072181463E0,9.956886292E0,-6.194996834E-1
1.442184531E0,-2.057816267E0,9.971251488E0,-6.817489266E-1
1.444672292E0,-2.033874273E0,9.966463089E0,-7.392097712E-1
1.447160052E0,-2.033874273E0,9.932944298E0,-7.679402232E-1
1.449647812E0,-2.014720678E0,9.875483513E0,-7.439981699E-1
1.452135573E0,-2.000355482E0,9.851541519E0,-7.009025216E-1
1.454623333E0,-2.024297476E0,9.813234329E0,-6.673837304E-1
1.457111094E0,-2.014720678E0,9.837176323E0,-6.194996834E-1
1.459598854E0,-2.019509077E0,9.870695114E0,-6.051344872E-1
1.462086614E0,-2.024297476E0,9.909002304E0,-5.955576897E-1
1.464574375E0,-2.000355482E0,9.923367500E0,-6.242880821E-1
1.467062135E0,-1.928529501E0,9.918579102E0,-6.290764809E-1
1.469549896E0,-1.827973008E0,9.865906715E0,-6.147112846E-1
1.472037656E0,-1.732204914E0,9.784503937E0,-6.434416771E-1
1.474525417E0,-1.669955730E0,9.712677956E0,-6.625953317E-1
1.477013177E0,-1.631648421E0,9.679159164E0,-6.961141229E-1
1.479500937E0,-1.684320927E0,9.679159164E0,-7.392097712E-1
1.481988698E0,-1.765723705E0,9.707889557E0,-7.439981699E-1
1.484476458E0,-1.837549806E0,9.774927139E0,-7.296329737E-1
1.486964219E0,-1.827973008E0,9.798869133E0,-6.865373254E-1
1.489451979E0,-1.784877419E0,9.803657532E0,-6.242880821E-1
1.491939739E0,-1.717839718E0,9.789292336E0,-5.716156363E-1
1.494427500E0,-1.646013618E0,9.760561943E0,-5.476736426E-1
1.496915260E0,-1.588552833E0,9.755773544E0,-5.285200477E-1
1.499403021E0,-1.555034041E0,9.746196747E0,-5.428852439E-1
1.501890781E0,-1.564610839E0,9.736619949E0,-5.859808922E-1
1.504378542E0,-1.588552833E0,9.703101158E0,-6.242880821E-1
1.506866302E0,-1.617283225E0,9.693524361E0,-7.009025216E-1
1.509354062E0,-1.612494826E0,9.674370766E0,-7.487865686E-1
1.511841823E0,-1.574187636E0,9.679159164E0,-7.439981699E-1
1.514329583E0,-1.492784739E0,9.679159164E0,-7.104793787E-1
1.516817344E0,-1.401805043E0,9.683947563E0,-6.290764809E-1
1.519305104E0,-1.325190663E0,9.683947563E0,-5.811924338E-1
1.521792864E0,-1.315613866E0,9.707889557E0,-5.572504401E-1
1.524280625E0,-1.368286252E0,9.727043152E0,-5.620388389E-1
1.526768385E0,-1.497573137E0,9.770138741E0,-6.003460884E-1
1.529256146E0,-1.626860023E0,9.803657532E0,-6.386532784E-1
1.531743906E0,-1.751358509E0,9.794080734E0,-7.104793787E-1
1.534231667E0,-1.856703401E0,9.760561943E0,-7.487865686E-1
1.536719427E0,-1.914164305E0,9.679159164E0,-7.727286220E-1
1.539207187E0,-1.938106298E0,9.588179588E0,-7.727286220E-1
1.541694948E0,-1.952471495E0,9.521142006E0,-7.583633661E-1
1.544182708E0,-1.971625090E0,9.482834816E0,-7.392097712E-1
1.546670469E0,-2.009932280E0,9.463681221E0,-6.865373254E-1
1.549158229E0,-2.038662672E0,9.463681221E0,-6.147112846E-1
1.551645989E0,-2.057816267E0,9.478046417E0,-5.428852439E-1
1.554133750E0,-2.081758261E0,9.473258018E0,-4.950011969E-1
1.556621510E0,-2.110488892E0,9.487623215E0,-4.519055784E-1
1.559109271E0,-2.144007683E0,9.516353607E0,-4.758476019E-1
1.561597031E0,-2.196680069E0,9.540295601E0,-5.189431906E-1
1.564084792E0,-2.249352455E0,9.545084000E0,-5.859808922E-1
1.566572552E0,-2.282871246E0,9.535507202E0,-6.290764809E-1
1.569060312E0,-2.239775658E0,9.516353607E0,-6.673837304E-1
1.571548073E0,-2.163161278E0,9.463681221E0,-7.248445749E-1
1.574035833E0,-2.076969862E0,9.415796280E0,-7.535749674E-1
1.576523594E0,-2.048239470E0,9.406219482E0,-7.487865686E-1
1.579011354E0,-2.038662672E0,9.401431084E0,-7.056909800E-1
1.581499114E0,-2.067393064E0,9.415796280E0,-6.913257241E-1
1.583986875E0,-2.091335297E0,9.439739227E0,-6.530185342E-1
1.586474635E0,-2.086546898E0,9.449316025E0,-6.290764809E-1
1.588962396E0,-2.067393064E0,9.463681221E0,-6.386532784E-1
1.591451146E0,-2.057816267E0,9.482834816E0,-6.482301354E-1
1.593937917E0,-2.072181463E0,9.482834816E0,-6.530185342E-1
1.596424687E0,-2.086546898E0,9.482834816E0,-7.009025216E-1
1.598911510E0,-2.091335297E0,9.478046417E0,-7.583633661E-1
1.601398437E0,-2.067393064E0,9.439739227E0,-7.918822169E-1
1.603885469E0,-2.014720678E0,9.387065887E0,-8.062474132E-1
1.606372656E0,-1.990778685E0,9.343970299E0,-8.349778652E-1
1.608860000E0,-1.966836691E0,9.300874710E0,-8.254010081E-1
1.611347500E0,-1.947683096E0,9.262567520E0,-8.206126094E-1
1.613835156E0,-1.957259893E0,9.214683533E0,-8.158242106E-1
1.616322969E0,-1.971625090E0,9.190741539E0,-7.918822169E-1
1.618810937E0,-1.995567083E0,9.147645950E0,-8.254010081E-1
1.621299062E0,-2.038662672E0,9.128492355E0,-8.684966564E-1
1.623787292E0,-2.053027868E0,9.104550362E0,-8.924387097E-1
1.626275625E0,-2.062604666E0,9.066243172E0,-8.972271085E-1
1.628764010E0,-2.057816267E0,9.042301178E0,-9.163807034E-1
1.631252448E0,-2.076969862E0,8.999205589E0,-9.355342984E-1
1.633740885E0,-2.053027868E0,8.946533203E0,-9.355342984E-1
1.636229323E0,-2.048239470E0,8.865130424E0,-9.259575009E-1
1.638717292E0,-2.067393064E0,8.788516045E0,-9.211691022E-1
1.641205000E0,-2.124854088E0,8.716690063E0,-8.924387097E-1
1.643692708E0,-2.182314873E0,8.644864082E0,-8.541314602E-1
1.646180417E0,-2.220622063E0,8.549096107E0,-8.301894665E-1
1.648668125E0,-2.244564056E0,8.472481728E0,-8.062474132E-1
1.651155833E0,-2.268506050E0,8.415019989E0,-8.254010081E-1
1.653643542E0,-2.239775658E0,8.371924400E0,-8.972271085E-1
1.656131250E0,-2.263717651E0,8.352770805E0,-9.642647505E-1
1.658618958E0,-2.292448044E0,8.319252014E0,-1.021725535E0
1.661106667E0,-2.345120668E0,8.304886818E0,-1.060032845E0
1.663594375E0,-2.373851061E0,8.257002831E0,-1.074398041E0
1.666082083E0,-2.364274263E0,8.199542046E0,-1.079186440E0
1.668569792E0,-2.325966835E0,8.118139267E0,-1.064821243E0
1.671057500E0,-2.302024841E0,8.036736488E0,-1.021725535E0
1.673545208E0,-2.278082848E0,7.969698906E0,-1.007360339E0
1.676032917E0,-2.302024841E0,7.912238121E0,-9.882067442E-1
1.678520625E0,-2.311601639E0,7.883507729E0,-1.002571940E0
1.681008333E0,-2.311601639E0,7.840412140E0,-1.064821243E0
1.683496042E0,-2.321178436E0,7.806893349E0,-1.131858826E0
1.685983750E0,-2.311601639E0,7.739855766E0,-1.213261724E0
1.688471458E0,-2.335543871E0,7.672817707E0,-1.294664621E0
1.690959167E0,-2.393004656E0,7.610568523E0,-1.347337008E0
1.693446875E0,-2.460042238E0,7.538742542E0,-1.404797792E0
1.695934583E0,-2.527079821E0,7.471704960E0,-1.414374709E0
1.698422292E0,-2.555810213E0,7.404667377E0,-1.356913805E0
1.700910000E0,-2.579752445E0,7.337629795E0,-1.270722508E0
1.703397708E0,-2.570175409E0,7.270592213E0,-1.160589218E0
1.705885417E0,-2.555810213E0,7.227496147E0,-1.036090732E0
1.708373125E0,-2.570175409E0,7.198765755E0,-9.690531492E-1
1.710860833E0,-2.598906040E0,7.179612160E0,-9.594763517E-1
1.713348542E0,-2.670732021E0,7.193977356E0,-1.007360339E0
1.715836250E0,-2.747346401E0,7.232284546E0,-1.088763237E0
1.718323958E0,-2.809595585E0,7.275380611E0,-1.141435623E0
1.720811667E0,-2.828749418E0,7.289745808E0,-1.174954534E0
1.723299375E0,-2.790441990E0,7.246650219E0,-1.194108129E0
1.725787083E0,-2.713827610E0,7.160458565E0,-1.165377736E0
1.728274792E0,-2.608482838E0,7.016806602E0,-1.112705231E0
1.730762500E0,-2.493561029E0,6.877943039E0,-1.112705231E0
1.733250208E0,-2.426523447E0,6.719925404E0,-1.227626920E0
1.735737917E0,-2.431311846E0,6.624157429E0,-1.467047095E0
1.738225677E0,-2.512714624E0,6.590638638E0,-1.744774461E0
1.740713437E0,-2.656366825E0,6.624157429E0,-1.955464244E0
1.743201198E0,-2.776076794E0,6.705560207E0,-2.060809135E0
1.745688958E0,-2.843114614E0,6.777386665E0,-2.012925148E0
1.748176719E0,-2.785653591E0,6.877943039E0,-1.893214941E0
1.750664479E0,-2.603694439E0,6.935403824E0,-1.749562860E0
1.753152239E0,-2.383427858E0,6.940192223E0,-1.543661594E0
1.755640000E0,-2.167949677E0,6.911461830E0,-1.352125406E0
1.758127760E0,-2.009932280E0,6.849212646E0,-1.232415318E0
1.760615521E0,-1.928529501E0,6.801328659E0,-1.213261724E0
1.763103281E0,-1.957259893E0,6.758233070E0,-1.289876223E0
1.765591042E0,-2.067393064E0,6.729502201E0,-1.395220995E0
1.768078802E0,-2.220622063E0,6.710348606E0,-1.457470298E0
1.770566562E0,-2.364274263E0,6.695983410E0,-1.524507880E0
1.773054323E0,-2.445677042E0,6.681618214E0,-1.586757183E0
1.775542083E0,-2.416946650E0,6.681618214E0,-1.639429569E0
1.778029844E0,-2.306813240E0,6.614580631E0,-1.682525277E0
1.780517604E0,-2.177526474E0,6.514024258E0,-1.605910778E0
1.783005364E0,-2.062604666E0,6.379949093E0,-1.423951507E0
1.785493125E0,-2.014720678E0,6.221931458E0,-1.218050122E0
1.787980885E0,-1.985990286E0,6.054337502E0,-9.451110959E-1
1.790468646E0,-2.009932280E0,5.862801552E0,-7.487865686E-1
1.792956406E0,-2.062604666E0,5.709572315E0,-6.625953317E-1
1.795444167E0,-2.167949677E0,5.628169537E0,-6.769605279E-1
1.797931927E0,-2.292448044E0,5.637746334E0,-7.487865686E-1
1.800419687E0,-2.373851061E0,5.666476727E0,-8.541314602E-1
1.802907448E0,-2.378639460E0,5.723937511E0,-8.780734539E-1
1.805395208E0,-2.359485865E0,5.771821976E0,-9.020155072E-1
1.807882969E0,-2.335543871E0,5.733514309E0,-8.828618526E-1
1.810370729E0,-2.302024841E0,5.685630322E0,-8.014590144E-1
1.812858489E0,-2.306813240E0,5.556343555E0,-7.296329737E-1
1.815346250E0,-2.345120668E0,5.398326397E0,-7.344213724E-1
1.817834010E0,-2.450465441E0,5.221155167E0,-8.637082577E-1
1.820321771E0,-2.574964046E0,5.087080002E0,-1.194108129E0
1.822809531E0,-2.718616009E0,5.034407616E0,-1.672948480E0
1.825297292E0,-2.881421804E0,5.058349609E0,-2.108693123E0
1.827785052E0,-2.967612982E0,5.163694382E0,-2.448669672E0
1.830272812E0,-2.967612982E0,5.326500416E0,-2.577956676E0
1.832760573E0,-2.838326216E0,5.513247967E0,-2.520495892E0
1.835248333E0,-2.603694439E0,5.709572315E0,-2.276287317E0
1.837736094E0,-2.249352455E0,5.910685539E0,-1.926733851E0
1.840223854E0,-1.861491799E0,6.111798286E0,-1.490989089E0
1.842711614E0,-1.473631144E0,6.255450726E0,-9.546879530E-1
1.845199427E0,-1.171961784E0,6.370372295E0,-3.561375141E-1
1.847687239E0,-9.373299479E-1,6.446986675E0,2.759317458E-1
1.850175052E0,-7.841010690E-1,6.480505466E0,9.032126069E-1
1.852662864E0,-7.266402245E-1,6.490082264E0,1.415571809E0
1.855150677E0,-7.793126702E-1,6.499659061E0,1.736394763E0
1.857638489E0,-8.798691034E-1,6.504447460E0,1.779490471E0
1.860126198E0,-1.004367590E0,6.466140270E0,1.712452769E0
1.862613906E0,-1.143231273E0,6.408679485E0,1.535281897E0
1.865101614E0,-1.267729759E0,6.332065105E0,1.281496406E0
1.867589323E0,-1.353921056E0,6.197989464E0,9.798270464E-1
1.870077031E0,-1.349132657E0,6.054337502E0,7.068880796E-1
1.872564739E0,-1.272518158E0,5.881955147E0,4.531026781E-1
1.875052448E0,-1.148019671E0,5.676053524E0,1.849520802E-1
1.877540156E0,-1.009155989E0,5.455787182E0,-1.358709484E-1
1.880027864E0,-8.798691034E-1,5.230731964E0,-4.950011969E-1
1.882515573E0,-8.080430627E-1,5.053561211E0,-9.546879530E-1
1.885003437E0,-8.271966577E-1,4.938639641E0,-1.644217968E0
1.887491302E0,-9.756371975E-1,4.948216438E0,-2.453458309E0
1.889979114E0,-1.262941360E0,5.077503204E0,-3.310582399E0
1.892466823E0,-1.631648421E0,5.259462357E0,-4.052784920E0
1.894954531E0,-1.966836691E0,5.484517574E0,-4.656123638E0
1.897442239E0,-2.206256866E0,5.752667904E0,-5.015254021E0
1.899929948E0,-2.321178436E0,6.011241913E0,-5.187636375E0
1.902417656E0,-2.268506050E0,6.231508255E0,-5.087080002E0
1.904905364E0,-2.086546898E0,6.365583897E0,-4.684854031E0
1.907393073E0,-1.813607812E0,6.461351871E0,-4.024054527E0
1.909880781E0,-1.478419542E0,6.504447460E0,-3.181295395E0
1.912368489E0,-1.167173386E0,6.537966251E0,-2.290652514E0
1.914856198E0,-8.750807047E-1,6.590638638E0,-1.395220995E0
1.917343906E0,-6.787561774E-1,6.691195011E0,-5.859808922E-1
1.919831614E0,-5.781996846E-1,6.844424248E0,1.227028370E-1
1.922319323E0,-5.781996846E-1,7.083844185E0,6.063315868E-1
1.924807031E0,-6.404489279E-1,7.409455776E0,9.223662019E-1
1.927294739E0,-7.745242715E-1,7.768586159E0,1.128267527E0
1.929782448E0,-9.660604000E-1,8.194753647E0,1.243189216E0
1.932270156E0,-1.162384868E0,8.625710487E0,1.228824019E0
1.934757864E0,-1.325190663E0,9.023147583E0,1.123479128E0
1.937245573E0,-1.478419542E0,9.377489090E0,9.032126069E-1
1.939733281E0,-1.598129630E0,9.683947563E0,6.494272351E-1
1.942220989E0,-1.679532528E0,9.856329918E0,3.860650361E-1
1.944708698E0,-1.703474522E0,9.889848709E0,1.274912357E-1
1.947196406E0,-1.674744129E0,9.851541519E0,-1.646013707E-1
1.949684114E0,-1.612494826E0,9.703101158E0,-4.614823759E-1
1.952171823E0,-1.516726732E0,9.487623215E0,-8.062474132E-1
1.954659531E0,-1.411381960E0,9.238625526E0,-1.198896527E0
1.957147239E0,-1.329979062E0,9.027935982E0,-1.634641171E0
1.959634948E0,-1.296460271E0,8.841188431E0,-2.089539528E0
1.962122656E0,-1.291671872E0,8.711901665E0,-2.443881273E0
1.964610364E0,-1.325190663E0,8.587403297E0,-2.659359455E0
1.967098073E0,-1.339555860E0,8.453327179E0,-2.673724651E0
1.969585781E0,-1.291671872E0,8.280944824E0,-2.635417461E0
1.972073489E0,-1.176750183E0,8.075043678E0,-2.673724651E0
1.974561198E0,-9.900023937E-1,7.883507729E0,-2.798223257E0
1.977048906E0,-7.266402245E-1,7.735067368E0,-2.946663857E0
1.979536614E0,-4.872200489E-1,7.658452511E0,-3.080739021E0
1.982024323E0,-3.914519846E-1,7.658452511E0,-3.114257812E0
1.984512031E0,-4.537012279E-1,7.739855766E0,-3.042431831E0
1.986999739E0,-7.314286232E-1,7.893084526E0,-3.061585426E0
1.989487500E0,-1.167173386E0,8.065466881E0,-3.214814425E0
1.991975260E0,-1.646013618E0,8.285733223E0,-3.420715570E0
1.994463021E0,-2.096123695E0,8.486846924E0,-3.564367771E0
1.996950781E0,-2.498349428E0,8.692748070E0,-3.679289579E0
1.999438542E0,-2.776076794E0,8.874707222E0,-3.684077978E0
2.001926302E0,-2.938882589E0,9.051877975E0,-3.511695385E0
2.004414062E0,-2.943670988E0,9.209895134E0,-3.166930199E0
2.006901823E0,-2.795230389E0,9.387065887E0,-2.759916067E0
2.009389583E0,-2.598906040E0,9.569025993E0,-2.295440912E0
2.011877344E0,-2.397793055E0,9.774927139E0,-1.787870169E0
2.014365104E0,-2.234987259E0,9.995193481E0,-1.189319730E0
2.016852864E0,-2.110488892E0,1.022024822E1,-5.811924338E-1
2.019340625E0,-2.062604666E0,1.044530392E1,-4.967968538E-2
2.021828385E0,-2.110488892E0,1.065599346E1,3.860650361E-1
2.024316146E0,-2.225410461E0,1.082358742E1,7.068880796E-1
2.026803906E0,-2.383427858E0,1.095287418E1,8.888474107E-1
2.029291667E0,-2.570175409E0,1.103906536E1,8.696937561E-1
2.031779427E0,-2.795230389E0,1.105821896E1,6.733692288E-1
2.034267187E0,-3.025073767E0,1.101033497E1,3.333925903E-1
2.036754948E0,-3.230975151E0,1.090977859E1,-1.023521200E-1
2.039242708E0,-3.369838953E0,1.079006863E1,-5.380968451E-1
2.041730469E0,-3.427299738E0,1.061289787E1,-8.732850552E-1
2.044218229E0,-3.365050554E0,1.037826538E1,-1.160589218E0
2.046705989E0,-3.154360771E0,1.009096146E1,-1.457470298E0
2.049193750E0,-2.814383984E0,9.774927139E0,-1.898003340E0
2.051681510E0,-2.393004656E0,9.492411613E0,-2.506130695E0
2.054169271E0,-1.966836691E0,9.252990723E0,-3.138199806E0
2.056657031E0,-1.588552833E0,9.114127159E0,-3.593098164E0
2.059144792E0,-1.301248670E0,9.051877975E0,-3.822941542E0
2.061632552E0,-1.133654475E0,9.037512779E0,-3.899555922E0
2.064120312E0,-1.128866076E0,9.056666374E0,-3.913921118E0
2.066608073E0,-1.286883354E0,9.099761963E0,-3.866037130E0
2.069095833E0,-1.564610839E0,9.104550362E0,-3.794211149E0
2.071583594E0,-1.904587507E0,9.128492355E0,-3.751115561E0
2.074071354E0,-2.254140854E0,9.147645950E0,-3.679289579E0
2.076559114E0,-2.503137827E0,9.224260330E0,-3.578732967E0
2.079046875E0,-2.642001629E0,9.358335495E0,-3.396773577E0
2.081534635E0,-2.694674015E0,9.592967987E0,-3.114257812E0
2.084022396E0,-2.689885616E0,9.928155899E0,-2.707243681E0
2.086510156E0,-2.665943623E0,1.033995819E1,-2.218826532E0
2.088997917E0,-2.637213230E0,1.078528023E1,-1.692102075E0
2.091486667E0,-2.608482838E0,1.121623611E1,-1.246780515E0
2.093973854E0,-2.627636433E0,1.160888577E1,-9.020155072E-1
2.096461042E0,-2.665943623E0,1.197759247E1,-7.487865686E-1
2.098948229E0,-2.747346401E0,1.228404999E1,-7.392097712E-1
2.101435469E0,-2.847903013E0,1.252825928E1,-8.684966564E-1
2.103922760E0,-2.948459387E0,1.270543003E1,-1.122282028E0
2.106410104E0,-3.010708570E0,1.282035160E1,-1.428739905E0
2.108897552E0,-3.010708570E0,1.283471680E1,-1.739986062E0
2.111385104E0,-2.977189779E0,1.278683281E1,-1.974617839E0
2.113872760E0,-2.862268209E0,1.264796925E1,-2.185307503E0
2.116360521E0,-2.689885616E0,1.244206810E1,-2.357690096E0
2.118848385E0,-2.512714624E0,1.215476322E1,-2.477400303E0
2.121336354E0,-2.311601639E0,1.183872890E1,-2.573168278E0
2.123824375E0,-2.120065689E0,1.152269459E1,-2.750339270E0
2.126312448E0,-1.909375906E0,1.124975491E1,-3.047220230E0
2.128800573E0,-1.641225219E0,1.101991177E1,-3.406350374E0
2.131288698E0,-1.325190663E0,1.089541340E1,-3.798999548E0
2.133776823E0,-1.057040095E0,1.086189461E1,-4.206013680E0
2.136264948E0,-9.708487988E-1,1.092893219E1,-4.526836872E0
2.138753073E0,-1.157596469E0,1.104864216E1,-4.761468410E0
2.141240937E0,-1.607706428E0,1.119708252E1,-4.890755653E0
2.143728646E0,-2.225410461E0,1.132158089E1,-4.948216438E0
2.146216354E0,-2.852691412E0,1.142692661E1,-4.962581635E0
2.148704062E0,-3.312378168E0,1.147481060E1,-4.823718071E0
2.151191771E0,-3.542221308E0,1.151311779E1,-4.579509258E0
2.153679479E0,-3.508702517E0,1.157057858E1,-4.258686066E0
2.156167187E0,-3.293224335E0,1.166634655E1,-3.894767523E0
2.158654896E0,-3.001131773E0,1.183394051E1,-3.497330189E0
2.161142604E0,-2.718616009E0,1.206857204E1,-3.123834610E0
2.163630312E0,-2.541445017E0,1.234151077E1,-2.788646460E0
2.166118021E0,-2.498349428E0,1.265754604E1,-2.544437885E0
2.168605729E0,-2.570175409E0,1.303104115E1,-2.443881273E0
2.171093437E0,-2.776076794E0,1.337580681E1,-2.482188702E0
2.173581146E0,-3.039438963E0,1.369662952E1,-2.597110271E0
2.176068854E0,-3.312378168E0,1.395041466E1,-2.803011656E0
2.178556562E0,-3.566163540E0,1.411800861E1,-3.018489838E0
2.181044271E0,-3.748122692E0,1.420898819E1,-3.267486811E0
2.183531979E0,-3.872621298E0,1.423293018E1,-3.526060581E0
2.186019687E0,-3.910928488E0,1.416589260E1,-3.717596769E0
2.188507396E0,-3.848679304E0,1.406054783E1,-3.904344320E0
2.190995104E0,-3.705027103E0,1.393126106E1,-3.980958939E0
2.193482812E0,-3.508702517E0,1.376845551E1,-3.976170540E0
2.195970521E0,-3.326743364E0,1.361522675E1,-3.899555922E0
2.198458229E0,-3.159149170E0,1.351467037E1,-3.856460333E0
2.200945937E0,-3.029862165E0,1.343326759E1,-3.832518339E0
2.203433646E0,-2.938882589E0,1.336144066E1,-3.765480757E0
2.205921354E0,-2.867056608E0,1.333749866E1,-3.688866377E0
2.208409062E0,-2.843114614E0,1.332792187E1,-3.617040157E0
2.210896771E0,-2.843114614E0,1.335186386E1,-3.612251759E0
2.213384479E0,-2.838326216E0,1.340932560E1,-3.731961966E0
2.215872187E0,-2.776076794E0,1.350030518E1,-3.933074951E0
2.218359896E0,-2.642001629E0,1.363916874E1,-4.186860085E0
2.220847604E0,-2.426523447E0,1.379718590E1,-4.435857296E0
2.223335312E0,-2.206256866E0,1.395520306E1,-4.636970043E0
2.225823021E0,-2.062604666E0,1.413237381E1,-4.838083267E0
2.228310729E0,-1.995567083E0,1.431433296E1,-5.039196014E0
2.230798437E0,-2.014720678E0,1.444840908E1,-5.225943565E0
2.233286146E0,-2.211045265E0,1.460163784E1,-5.450998783E0
2.235773854E0,-2.474407434E0,1.476923180E1,-5.743091106E0
2.238261614E0,-2.723404408E0,1.490809536E1,-5.814917564E0
2.240749375E0,-2.867056608E0,1.503259373E1,-5.699995518E0
2.243237135E0,-2.981978178E0,1.518582249E1,-5.671265125E0
2.245724896E0,-3.025073767E0,1.535820580E1,-5.661688328E0
2.248212656E0,-3.039438963E0,1.554016495E1,-5.522824764E0
2.250700417E0,-3.039438963E0,1.573648930E1,-5.321712017E0
2.253188177E0,-3.001131773E0,1.594239044E1,-5.134963989E0
2.255675937E0,-2.958036184E0,1.612913895E1,-4.895544052E0
2.258163698E0,-2.962824583E0,1.632067490E1,-4.694430828E0
2.260651458E0,-3.053804159E0,1.649784470E1,-4.469376087E0
2.263139219E0,-3.183091164E0,1.664628601E1,-4.311358929E0
2.265626979E0,-3.360262156E0,1.675163078E1,-4.177283287E0
2.268114739E0,-3.585317135E0,1.683782196E1,-4.062361717E0
2.270602500E0,-3.858256102E0,1.689049530E1,-3.952228546E0
2.273090260E0,-4.169502258E0,1.689528275E1,-3.875613928E0
2.275578021E0,-4.495113850E0,1.687134171E1,-3.755903959E0
2.278065781E0,-4.820724964E0,1.683303452E1,-3.660135746E0
2.280553542E0,-5.131971359E0,1.674684143E1,-3.502118587E0
2.283041302E0,-5.428852558E0,1.661276627E1,-3.267486811E0
2.285529062E0,-5.639542103E0,1.645953751E1,-2.984971046E0
2.288016823E0,-5.807136059E0,1.628236771E1,-2.731185675E0
2.290504583E0,-5.936423302E0,1.605731201E1,-2.434304476E0
2.292992344E0,-6.046556473E0,1.579395008E1,-2.075174332E0
2.295480104E0,-6.190208435E0,1.550185776E1,-1.682525277E0
2.297967864E0,-6.329071999E0,1.519539928E1,-1.304241419E0
2.300455625E0,-6.515820026E0,1.485542297E1,-9.882067442E-1
2.302943385E0,-6.736086369E0,1.450108147E1,-7.392097712E-1
2.305431146E0,-6.927622795E0,1.409885502E1,-5.093663931E-1
2.307918906E0,-7.071274757E0,1.371099472E1,-3.369838893E-1
2.310406667E0,-7.095216751E0,1.329440308E1,-1.598129570E-1
2.312894427E0,-7.013813972E0,1.286823559E1,3.172317147E-2
2.315382187E0,-6.865373611E0,1.244685650E1,2.232593149E-1
2.317869948E0,-6.659471989E0,1.201111126E1,3.333925903E-1
2.320357708E0,-6.391321659E0,1.161846256E1,3.046621680E-1
2.322845469E0,-6.118382454E0,1.126890850E1,1.418564469E-1
2.325333229E0,-5.816712856E0,1.092414379E1,-1.071405262E-1
2.327820989E0,-5.543774128E0,1.061289787E1,-3.657143116E-1
2.330308750E0,-5.280411720E0,1.033516979E1,-6.338648796E-1
2.332796510E0,-4.988319397E0,1.005265427E1,-9.546879530E-1
2.335284271E0,-4.657919407E0,9.784503937E0,-1.270722508E0
2.337772031E0,-4.341884613E0,9.554660797E0,-1.538873196E0
2.340259792E0,-4.040215492E0,9.334393501E0,-1.711255670E0
2.342747552E0,-3.791218281E0,9.090185165E0,-1.864484549E0
2.345235312E0,-3.652354717E0,8.903437614E0,-2.017713547E0
2.347723073E0,-3.590105534E0,8.745420456E0,-2.194884300E0
2.350210833E0,-3.551798105E0,8.582614899E0,-2.381632090E0
2.352698594E0,-3.566163540E0,8.405443192E0,-2.515707493E0
2.355186354E0,-3.590105534E0,8.228272438E0,-2.592321873E0
2.357674114E0,-3.594893932E0,8.075043678E0,-2.640205860E0
2.360161875E0,-3.575740337E0,7.912238121E0,-2.644994259E0
2.362649635E0,-3.547009706E0,7.782951355E0,-2.644994259E0
2.365137396E0,-3.484760523E0,7.634510517E0,-2.649782658E0
2.367625156E0,-3.412934542E0,7.500435352E0,-2.606687069E0
2.370112917E0,-3.321954966E0,7.385513783E0,-2.582745075E0
2.372600677E0,-3.254917145E0,7.265803814E0,-2.573168278E0
2.375088437E0,-3.207033157E0,7.165246964E0,-2.510919094E0
2.377576198E0,-3.173514366E0,7.064690590E0,-2.463035107E0
2.380063958E0,-3.116053581E0,6.964134216E0,-2.405574083E0
2.382551719E0,-3.077746391E0,6.906673431E0,-2.362478495E0
2.385039479E0,-3.015496969E0,6.834847450E0,-2.348113298E0
2.387527239E0,-2.938882589E0,6.782175064E0,-2.324171305E0
2.390015000E0,-2.828749418E0,6.743867874E0,-2.314594507E0
2.392502760E0,-2.747346401E0,6.705560207E0,-2.319382906E0
2.394990521E0,-2.637213230E0,6.681618214E0,-2.386420488E0
2.397478281E0,-2.555810213E0,6.667253017E0,-2.458246708E0
2.399966042E0,-2.460042238E0,6.662464619E0,-2.549226284E0
2.402453802E0,-2.383427858E0,6.691195011E0,-2.644994259E0
2.404941875E0,-2.297236443E0,6.705560207E0,-2.702455282E0
2.407429323E0,-2.230198860E0,6.743867874E0,-2.740762472E0
2.409916771E0,-2.153584480E0,6.801328659E0,-2.764704466E0
2.412404219E0,-2.062604666E0,6.858789444E0,-2.750339270E0
2.414891667E0,-1.981201887E0,6.925827026E0,-2.740762472E0
2.417379114E0,-1.914164305E0,7.026383400E0,-2.759916067E0
2.419866614E0,-1.856703401E0,7.155670166E0,-2.793434858E0
2.422354167E0,-1.804031014E0,7.280169010E0,-2.860472441E0
2.424841771E0,-1.756146908E0,7.428609371E0,-2.965817451E0
2.427329427E0,-1.698686123E0,7.557896137E0,-3.085527420E0
2.429817135E0,-1.655590534E0,7.687182903E0,-3.152565002E0
2.432304896E0,-1.602918029E0,7.830835342E0,-3.210026026E0
2.434792708E0,-1.569399238E0,7.969698906E0,-3.305794001E0
2.437280573E0,-1.487996340E0,8.127716064E0,-3.406350374E0
2.439768489E0,-1.401805043E0,8.295310020E0,-3.497330189E0
2.442256458E0,-1.320402265E0,8.467693329E0,-3.593098164E0
2.444744427E0,-1.215057373E0,8.611345291E0,-3.631405354E0
2.447232396E0,-1.138442874E0,8.783727646E0,-3.612251759E0
2.449720364E0,-1.085770488E0,8.941744804E0,-3.597886562E0
2.452208333E0,-1.052251697E0,9.090185165E0,-3.597886562E0
2.454696302E0,-1.028309584E0,9.248202324E0,-3.597886562E0
2.457184167E0,-1.047463298E0,9.401431084E0,-3.607463360E0
2.459671927E0,-1.066616893E0,9.549872398E0,-3.612251759E0
2.462159635E0,-1.109712481E0,9.698312759E0,-3.588309765E0
2.464647344E0,-1.148019671E0,9.846753120E0,-3.511695385E0
2.467135052E0,-1.186326981E0,9.985616684E0,-3.391985178E0
2.469622760E0,-1.219845772E0,1.011490345E1,-3.243544817E0
2.472110469E0,-1.267729759E0,1.023940182E1,-3.104681015E0
2.474598177E0,-1.329979062E0,1.034474659E1,-2.965817451E0
2.477085885E0,-1.440112352E0,1.046445751E1,-2.822165251E0
2.479573594E0,-1.569399238E0,1.058416748E1,-2.707243681E0
2.482061302E0,-1.732204914E0,1.069430065E1,-2.597110271E0
2.484549010E0,-1.923741102E0,1.081879902E1,-2.486977100E0
2.487036719E0,-2.100912094E0,1.093850899E1,-2.381632090E0
2.489524427E0,-2.282871246E0,1.105821896E1,-2.271498919E0
2.492012135E0,-2.479195833E0,1.117314053E1,-2.147000313E0
2.494499844E0,-2.622848034E0,1.127848530E1,-2.036867142E0
2.496987552E0,-2.776076794E0,1.138861847E1,-1.874061346E0
2.499475260E0,-2.919728994E0,1.147481060E1,-1.701678872E0
2.501962969E0,-3.025073767E0,1.155621338E1,-1.476623893E0
2.504450677E0,-3.116053581E0,1.162325096E1,-1.251568913E0
2.506938385E0,-3.216609955E0,1.166634655E1,-1.021725535E0
2.509426094E0,-3.317166567E0,1.170465374E1,-7.918822169E-1
2.511913802E0,-3.388992548E0,1.172859573E1,-6.242880821E-1
2.514401510E0,-3.460818529E0,1.176690292E1,-5.093663931E-1
2.516889219E0,-3.537432909E0,1.176211452E1,-4.088099301E-1
2.519376927E0,-3.585317135E0,1.177647972E1,-3.130418658E-1
2.521864635E0,-3.647566319E0,1.177169132E1,-2.603694201E-1
2.524352344E0,-3.705027103E0,1.175732613E1,-2.507926226E-1
2.526840052E0,-3.772064686E0,1.173817253E1,-2.986766696E-1
2.529327760E0,-3.824737310E0,1.169507694E1,-3.321954906E-1
2.531815469E0,-3.925293684E0,1.166634655E1,-3.657143116E-1
2.534303177E0,-3.997119665E0,1.163761616E1,-3.944447339E-1
2.536790885E0,-4.049792290E0,1.158015537E1,-4.423287511E-1
2.539278594E0,-4.064157486E0,1.150832939E1,-5.524620414E-1
2.541766302E0,-4.078522682E0,1.145086861E1,-7.009025216E-1
2.544254010E0,-4.083311081E0,1.139819527E1,-8.397662640E-1
2.546741719E0,-4.078522682E0,1.132636929E1,-9.786299467E-1
2.549229427E0,-4.068945885E0,1.126412010E1,-1.165377736E0
2.551717135E0,-4.045003891E0,1.120187092E1,-1.356913805E0
2.554204896E0,-4.006696701E0,1.118271732E1,-1.572391987E0
2.556692656E0,-3.977966070E0,1.116835213E1,-1.749562860E0
2.559180417E0,-3.954024076E0,1.117314053E1,-1.859696150E0
2.561668177E0,-3.987542868E0,1.117792892E1,-1.902791858E0
2.564155937E0,-4.045003891E0,1.120187092E1,-1.912368655E0
2.566643698E0,-4.121618271E0,1.121623611E1,-1.921945453E0
2.569131458E0,-4.207809448E0,1.123538971E1,-1.979406238E0
2.571619219E0,-4.274847031E0,1.126890850E1,-2.036867142E0
2.574106979E0,-4.361038208E0,1.127369690E1,-2.032078743E0
2.576594739E0,-4.413711071E0,1.131679249E1,-2.065597534E0
2.579082500E0,-4.466383457E0,1.139340687E1,-2.170942307E0
2.581570260E0,-4.514267445E0,1.145565701E1,-2.343324900E0
2.584058021E0,-4.533421040E0,1.150354099E1,-2.510919094E0
2.586545781E0,-4.523844242E0,1.156100178E1,-2.635417461E0
2.589033542E0,-4.495113850E0,1.160409737E1,-2.731185675E0
2.591522135E0,-4.447229862E0,1.165676975E1,-2.846107244E0
2.594010052E0,-4.394556999E0,1.169507694E1,-2.898779631E0
2.596497760E0,-4.365826607E0,1.172380733E1,-2.946663857E0
2.598985469E0,-4.380191803E0,1.178605652E1,-3.013701439E0
2.601473177E0,-4.413711071E0,1.184830570E1,-3.099892616E0
2.603960885E0,-4.456806660E0,1.191055489E1,-3.224391222E0
2.606448594E0,-4.509479046E0,1.197759247E1,-3.339312792E0
2.608936302E0,-4.538209438E0,1.210687923E1,-3.449446201E0
2.611424010E0,-4.547786236E0,1.220743561E1,-3.521272182E0
2.613911719E0,-4.514267445E0,1.233672237E1,-3.554790974E0
2.616399427E0,-4.447229862E0,1.247079849E1,-3.597886562E0
2.618887135E0,-4.375403404E0,1.261445045E1,-3.655347347E0
2.621374844E0,-4.289212227E0,1.275331402E1,-3.712808371E0
2.623862552E0,-4.217386246E0,1.291133118E1,-3.731961966E0
2.626350260E0,-4.188655853E0,1.307413673E1,-3.736750364E0
2.628837969E0,-4.179079056E0,1.323215389E1,-3.755903959E0
2.631325677E0,-4.164713860E0,1.340932560E1,-3.760692358E0
2.633813385E0,-4.140771866E0,1.357213116E1,-3.770269156E0
2.636301094E0,-4.116829872E0,1.371578312E1,-3.736750364E0
2.638788802E0,-4.131195068E0,1.384985828E1,-3.650558949E0
2.641276510E0,-4.107253075E0,1.396477985E1,-3.511695385E0
2.643764219E0,-4.097676277E0,1.405575943E1,-3.344101191E0
2.646251927E0,-4.107253075E0,1.410843182E1,-3.152565002E0
2.648739635E0,-4.116829872E0,1.414673901E1,-3.023278236E0
2.651227344E0,-4.126406670E0,1.418025780E1,-2.951452255E0
2.653715052E0,-4.131195068E0,1.419941139E1,-2.908356428E0
2.656202760E0,-4.097676277E0,1.420898819E1,-2.889202833E0
2.658690469E0,-4.088099480E0,1.419462299E1,-2.846107244E0
2.661178177E0,-4.054580688E0,1.418504620E1,-2.788646460E0
2.663665885E0,-4.001908302E0,1.416110420E1,-2.716820478E0
2.666153594E0,-3.968389273E0,1.415631580E1,-2.649782658E0
2.668641302E0,-3.920505285E0,1.412279701E1,-2.549226284E0
2.671129010E0,-3.872621298E0,1.407970142E1,-2.463035107E0
2.673616719E0,-3.824737310E0,1.404618263E1,-2.448669672E0
2.676104427E0,-3.791218281E0,1.401745224E1,-2.424727678E0
2.678592135E0,-3.728969097E0,1.399351025E1,-2.405574083E0
2.681079844E0,-3.681085110E0,1.395520306E1,-2.381632090E0
2.683567552E0,-3.623624325E0,1.394562626E1,-2.314594507E0
2.686055260E0,-3.575740337E0,1.391689587E1,-2.237980127E0
2.688543021E0,-3.489548922E0,1.389774227E1,-2.151788712E0
2.691030781E0,-3.427299738E0,1.389295387E1,-2.079962730E0
2.693518542E0,-3.326743364E0,1.387858868E1,-2.032078743E0
2.696006302E0,-3.202244759E0,1.387858868E1,-1.988983035E0
2.698494062E0,-3.092111588E0,1.386901188E1,-1.965041041E0
2.700981823E0,-3.029862165E0,1.387858868E1,-1.969829440E0
2.703469583E0,-2.996343374E0,1.390731907E1,-1.984194636E0
2.705957344E0,-2.972401381E0,1.395520306E1,-1.974617839E0
2.708445104E0,-2.986766577E0,1.399351025E1,-1.960252643E0
2.710932864E0,-3.020285368E0,1.404618263E1,-1.931522250E0
2.713420625E0,-3.034650564E0,1.408448982E1,-1.878849745E0
2.715908385E0,-3.029862165E0,1.412279701E1,-1.816600561E0
2.718396146E0,-2.991554976E0,1.414195061E1,-1.716044068E0
2.720883906E0,-2.943670988E0,1.412758541E1,-1.534084797E0
2.723371667E0,-2.857479811E0,1.408927822E1,-1.328183413E0
2.725859427E0,-2.776076794E0,1.404139423E1,-1.184531331E0
2.728347187E0,-2.699462414E0,1.397435665E1,-1.155800819E0
2.730834948E0,-2.661155224E0,1.391210747E1,-1.218050122E0
2.733322708E0,-2.646790028E0,1.388337708E1,-1.366490602E0
2.735810469E0,-2.665943623E0,1.383549309E1,-1.567603588E0
2.738298229E0,-2.632424831E0,1.380676270E1,-1.768716455E0
2.740785989E0,-2.598906040E0,1.376845551E1,-1.907580256E0
2.743273750E0,-2.507926226E0,1.372535992E1,-1.941099048E0
2.745761510E0,-2.354697466E0,1.367747593E1,-1.888426542E0
2.748249271E0,-2.177526474E0,1.361043835E1,-1.773504853E0
2.750737031E0,-2.043451071E0,1.351467037E1,-1.668160081E0
2.753224792E0,-1.947683096E0,1.342369080E1,-1.601122379E0
2.755712552E0,-1.899798989E0,1.334228706E1,-1.538873196E0
2.758200312E0,-1.904587507E0,1.323694229E1,-1.490989089E0
2.760688073E0,-1.952471495E0,1.312680912E1,-1.476623893E0
2.763175833E0,-2.005143881E0,1.303104115E1,-1.510142684E0
2.765663594E0,-2.057816267E0,1.294484997E1,-1.572391987E0
2.768151354E0,-2.091335297E0,1.283950520E1,-1.644217968E0
2.770639114E0,-2.100912094E0,1.277246761E1,-1.701678872E0
2.773126875E0,-2.081758261E0,1.268627644E1,-1.739986062E0
2.775614635E0,-2.024297476E0,1.258572006E1,-1.783081770E0
2.778102396E0,-1.938106298E0,1.248037529E1,-1.821388960E0
2.780590156E0,-1.851915002E0,1.235587597E1,-1.840542555E0
2.783077917E0,-1.756146908E0,1.221222401E1,-1.783081770E0
2.785565677E0,-1.732204914E0,1.204941845E1,-1.749562860E0
2.788053437E0,-1.741781712E0,1.189618969E1,-1.720832467E0
2.790541198E0,-1.789665818E0,1.174296093E1,-1.754351258E0
2.793028958E0,-1.875856996E0,1.161367416E1,-1.802235365E0
2.795516719E0,-1.923741102E0,1.150832939E1,-1.826177359E0
2.798004479E0,-1.971625090E0,1.139819527E1,-1.835754156E0
2.800492239E0,-1.962048292E0,1.129763889E1,-1.792658567E0
2.802980000E0,-1.933317900E0,1.117792892E1,-1.778293371E0
2.805467760E0,-1.861491799E0,1.104864216E1,-1.821388960E0
2.807955521E0,-1.804031014E0,1.092414379E1,-1.888426542E0
2.810443281E0,-1.765723705E0,1.077091503E1,-1.965041041E0
2.812931042E0,-1.717839718E0,1.063205147E1,-2.065597534E0
2.815418802E0,-1.684320927E0,1.052191830E1,-2.132635117E0
2.817906562E0,-1.631648421E0,1.039263058E1,-2.075174332E0
2.820394323E0,-1.588552833E0,1.026813221E1,-1.888426542E0
2.822882083E0,-1.545457244E0,1.013405704E1,-1.677736878E0
2.825369844E0,-1.526303530E0,9.999981880E0,-1.524507880E0
2.827857604E0,-1.540668845E0,9.822811127E0,-1.471835494E0
2.830345364E0,-1.598129630E0,9.679159164E0,-1.586757183E0
2.832833125E0,-1.708262920E0,9.559449196E0,-1.783081770E0
2.835320885E0,-1.818396211E0,9.444527626E0,-2.003348351E0
2.837808646E0,-1.895010591E0,9.377489090E0,-2.161365509E0
2.840296406E0,-1.952471495E0,9.286509514E0,-2.261922121E0
2.842784167E0,-1.923741102E0,9.176376343E0,-2.266710520E0
2.845271927E0,-1.880645394E0,9.071031570E0,-2.247556925E0
2.847759687E0,-1.823184609E0,8.941744804E0,-2.204461098E0
2.850247448E0,-1.736993313E0,8.817246437E0,-2.094327927E0
2.852735208E0,-1.636436820E0,8.721478462E0,-2.089539528E0
2.855222969E0,-1.564610839E0,8.630498886E0,-2.118269920E0
2.857710729E0,-1.516726732E0,8.573038101E0,-2.094327927E0
2.860198489E0,-1.507149935E0,8.525154114E0,-2.046443939E0
2.862686250E0,-1.555034041E0,8.491635323E0,-1.974617839E0
2.865174010E0,-1.612494826E0,8.482058525E0,-1.936310649E0
2.867661771E0,-1.684320927E0,8.467693329E0,-1.941099048E0
2.870149479E0,-1.775300503E0,8.458115578E0,-1.979406238E0
2.872637187E0,-1.866280198E0,8.424596786E0,-2.041655540E0
2.875124896E0,-1.966836691E0,8.410231590E0,-2.046443939E0
2.877612604E0,-2.105700493E0,8.386289597E0,-2.036867142E0
2.880100312E0,-2.206256866E0,8.328828812E0,-1.993771434E0
2.882588021E0,-2.244564056E0,8.233060837E0,-1.898003340E0
2.885075729E0,-2.239775658E0,8.098985672E0,-1.725620866E0
2.887563437E0,-2.172738075E0,7.926603317E0,-1.519719481E0
2.890051146E0,-2.057816267E0,7.763797760E0,-1.323395014E0
2.892538854E0,-1.947683096E0,7.586626530E0,-1.213261724E0
2.895026562E0,-1.847126603E0,7.428609371E0,-1.246780515E0
2.897514271E0,-1.775300503E0,7.318476200E0,-1.361702204E0
2.900001979E0,-1.751358509E0,7.232284546E0,-1.558026791E0
2.902489687E0,-1.756146908E0,7.213130951E0,-1.749562860E0
2.904977396E0,-1.780089021E0,7.193977356E0,-1.936310649E0
2.907465104E0,-1.789665818E0,7.179612160E0,-2.103904724E0
2.909952812E0,-1.799242616E0,7.165246964E0,-2.175730705E0
2.912440521E0,-1.760935307E0,7.150881767E0,-2.190095901E0
2.914928229E0,-1.650802016E0,7.107786179E0,-2.175730705E0
2.917415937E0,-1.545457244E0,7.064690590E0,-2.123058319E0
2.919903646E0,-1.411381960E0,7.007229805E0,-2.060809135E0
2.922391354E0,-1.296460271E0,6.973711014E0,-2.017713547E0
2.924879062E0,-1.181538582E0,6.940192223E0,-2.022501945E0
2.927366771E0,-1.138442874E0,6.921038628E0,-2.065597534E0
2.929854479E0,-1.143231273E0,6.916250229E0,-2.127846718E0
2.932342187E0,-1.186326981E0,6.940192223E0,-2.147000313E0
2.934829896E0,-1.291671872E0,6.968922615E0,-2.190095901E0
2.937317604E0,-1.401805043E0,7.012018204E0,-2.257133722E0
2.939805312E0,-1.526303530E0,7.045536995E0,-2.266710520E0
2.942293021E0,-1.622071624E0,7.069478989E0,-2.271498919E0
2.944780729E0,-1.713051319E0,7.098209381E0,-2.314594507E0
2.947268437E0,-1.736993313E0,7.083844185E0,-2.242768526E0
2.949756146E0,-1.713051319E0,7.069478989E0,-2.127846718E0
2.952243854E0,-1.641225219E0,7.012018204E0,-2.027290344E0
2.954731562E0,-1.569399238E0,6.949769020E0,-1.955464244E0
2.957219271E0,-1.521515131E0,6.882731438E0,-1.840542555E0
2.959706979E0,-1.516726732E0,6.820482254E0,-1.730409265E0
2.962194739E0,-1.550245643E0,6.786963463E0,-1.677736878E0
2.964682500E0,-1.655590534E0,6.815693855E0,-1.644217968E0
2.967170260E0,-1.780089021E0,6.839635849E0,-1.567603588E0
2.969658021E0,-1.823184609E0,6.906673431E0,-1.438316703E0
2.972145781E0,-1.818396211E0,6.964134216E0,-1.332971811E0
2.974633542E0,-1.799242616E0,7.016806602E0,-1.285087705E0
2.977121302E0,-1.717839718E0,7.079055786E0,-1.289876223E0
2.979609062E0,-1.684320927E0,7.146093369E0,-1.390432596E0
2.982096823E0,-1.674744129E0,7.222707748E0,-1.500565886E0
2.984584583E0,-1.698686123E0,7.270592213E0,-1.572391987E0
2.987072344E0,-1.784877419E0,7.294534206E0,-1.692102075E0
2.989560104E0,-1.866280198E0,7.323264599E0,-1.787870169E0
2.992047864E0,-1.895010591E0,7.308899403E0,-1.778293371E0
2.994535625E0,-1.885433793E0,7.284957409E0,-1.749562860E0
2.997023385E0,-1.847126603E0,7.222707748E0,-1.644217968E0
2.999511146E0,-1.741781712E0,7.141304970E0,-1.534084797E0
3.001998906E0,-1.593341231E0,7.059902191E0,-1.428739905E0
3.004486667E0,-1.497573137E0,7.002441406E0,-1.366490602E0
3.006974427E0,-1.411381960E0,7.035960197E0,-1.514931083E0
3.009462187E0,-1.315613866E0,7.021595001E0,-1.548449993E0
3.011949948E0,-1.286883354E0,7.002441406E0,-1.423951507E0
3.014437708E0,-1.339555860E0,6.921038628E0,-1.098340034E0
3.016925469E0,-1.521515131E0,6.887519836E0,-1.060032845E0
3.019413229E0,-1.756146908E0,6.925827026E0,-1.227626920E0
3.021900989E0,-2.009932280E0,6.940192223E0,-1.376067400E0
3.024388750E0,-2.148796082E0,6.940192223E0,-1.514931083E0
3.026876510E0,-2.110488892E0,6.906673431E0,-1.524507880E0
3.029364271E0,-1.875856996E0,6.820482254E0,-1.452681899E0
3.031852031E0,-1.574187636E0,6.695983410E0,-1.313818216E0
3.034339792E0,-1.334767461E0,6.585850239E0,-1.251568913E0
3.036827552E0,-1.267729759E0,6.523601055E0,-1.227626920E0
3.039315312E0,-1.406593442E0,6.514024258E0,-1.261145711E0
3.041803073E0,-1.665167332E0,6.557119846E0,-1.218050122E0
3.044290833E0,-1.962048292E0,6.633734226E0,-1.141435623E0
3.046778594E0,-2.220622063E0,6.691195011E0,-1.045667648E0
3.049266354E0,-2.302024841E0,6.715137005E0,-9.020155072E-1
3.051754114E0,-2.225410461E0,6.705560207E0,-5.716156363E-1
3.054241875E0,-1.962048292E0,6.619369030E0,-1.215057373E-1
3.056729635E0,-1.578976035E0,6.509235859E0,1.705868691E-1
3.059217396E0,-1.286883354E0,6.446986675E0,3.908534348E-1
3.061705156E0,-1.100135684E0,6.399102688E0,5.105634928E-1
3.064192917E0,-1.071405292E0,6.360795498E0,4.770447016E-1
3.066680677E0,-1.181538582E0,6.379949093E0,3.142389655E-1
3.069168437E0,-1.401805043E0,6.427833080E0,1.274912357E-1
3.071656198E0,-1.607706428E0,6.480505466E0,-2.573766746E-2
3.074143958E0,-1.732204914E0,6.542754650E0,-1.789665818E-1
3.076631719E0,-1.756146908E0,6.566696644E0,-3.274070919E-1
3.079119479E0,-1.660378933E0,6.581061840E0,-4.423287511E-1
3.081607239E0,-1.507149935E0,6.600215435E0,-5.189431906E-1
3.084095000E0,-1.329979062E0,6.523601055E0,-5.237316489E-1
3.086582760E0,-1.215057373E0,6.475717068E0,-5.380968451E-1
3.089070521E0,-1.238999367E0,6.475717068E0,-5.811924338E-1
3.091558958E0,-1.401805043E0,6.480505466E0,-6.673837304E-1
3.094046406E0,-1.598129630E0,6.466140270E0,-7.200561762E-1
3.096533854E0,-1.736993313E0,6.446986675E0,-7.248445749E-1
3.099021302E0,-1.765723705E0,6.346430302E0,-6.530185342E-1
3.101508750E0,-1.708262920E0,6.178835869E0,-5.380968451E-1
3.103996198E0,-1.578976035E0,6.011241913E0,-4.566939771E-1
3.106483698E0,-1.397016644E0,5.853224754E0,-4.040215313E-1
3.108971250E0,-1.253364563E0,5.762245178E0,-3.465606868E-1
3.111458854E0,-1.152808070E0,5.723937511E0,-3.130418658E-1
3.113946510E0,-1.124077678E0,5.747879505E0,-4.040215313E-1
3.116434219E0,-1.119289279E0,5.829282761E0,-5.476736426E-1
3.118921979E0,-1.152808070E0,5.939415932E0,-7.296329737E-1
3.121409792E0,-1.171961784E0,6.001665115E0,-8.684966564E-1
3.123897656E0,-1.181538582E0,6.001665115E0,-1.002571940E0
3.126385573E0,-1.162384868E0,5.977723122E0,-1.098340034E0
3.128873542E0,-1.181538582E0,5.901108742E0,-1.179742932E0
3.131361510E0,-1.258152962E0,5.853224754E0,-1.342548609E0
3.133849479E0,-1.459265947E0,5.886743546E0,-1.548449993E0
3.136337448E0,-1.818396211E0,6.044760704E0,-1.658583283E0
3.138825417E0,-2.234987259E0,6.284181118E0,-1.644217968E0
3.141313385E0,-2.555810213E0,6.523601055E0,-1.500565886E0
3.143801250E0,-2.665943623E0,6.633734226E0,-1.289876223E0
3.146289010E0,-2.503137827E0,6.609792233E0,-1.026513934E0
3.148776719E0,-2.182314873E0,6.475717068E0,-7.104793787E-1
3.151264427E0,-1.818396211E0,6.298546314E0,-3.752911091E-1
3.153752135E0,-1.626860023E0,6.164470673E0,-1.646013707E-1
3.156239844E0,-1.808819413E0,6.059125900E0,5.967547894E-1
3.158727552E0,-2.096123695E0,6.370372295E0,5.009866953E-1
3.161215260E0,-2.364274263E0,6.729502201E0,-1.160589218E0
3.163702969E0,-2.469619036E0,6.514024258E0,-6.913257241E-1
3.166190677E0,-2.378639460E0,6.408679485E0,-3.561375141E-1
3.168678385E0,-2.148796082E0,6.485293865E0,-6.290764809E-1
3.171166094E0,-1.942894697E0,6.499659061E0,-6.913257241E-1
3.173653802E0,-1.818396211E0,6.470928669E0,-6.290764809E-1
3.176141510E0,-1.722628117E0,6.456563473E0,-7.152677774E-1
3.178629219E0,-1.727416515E0,6.490082264E0,-7.823054194E-1
3.181116927E0,-1.823184609E0,6.561908245E0,-7.870938182E-1
3.183604635E0,-2.005143881E0,6.691195011E0,-8.493430614E-1
3.186092344E0,-2.244564056E0,6.825270653E0,-9.451110959E-1
3.188580052E0,-2.479195833E0,6.949769020E0,-1.036090732E0
3.191067760E0,-2.598906040E0,7.035960197E0,-1.098340034E0
3.193555469E0,-2.589329243E0,7.088632584E0,-1.146224022E0
3.196043177E0,-2.464830637E0,7.136516571E0,-1.280299306E0
3.198530885E0,-2.335543871E0,7.246650219E0,-1.438316703E0
3.201018594E0,-2.268506050E0,7.371148586E0,-1.519719481E0
3.203506302E0,-2.297236443E0,7.495646954E0,-1.572391987E0
3.205994010E0,-2.359485865E0,7.586626530E0,-1.558026791E0
3.208481719E0,-2.397793055E0,7.624933720E0,-1.457470298E0
3.210969427E0,-2.412158251E0,7.600991726E0,-1.280299306E0
3.213457135E0,-2.349909067E0,7.634510517E0,-1.289876223E0
3.215944844E0,-2.230198860E0,7.687182903E0,-1.208473325E0
3.218432552E0,-2.086546898E0,7.768586159E0,-1.083974838E0
3.220920260E0,-1.971625090E0,7.912238121E0,-1.064821243E0
3.223407969E0,-1.942894697E0,8.146869659E0,-1.103128433E0
3.225895677E0,-1.995567083E0,8.381501198E0,-1.155800819E0
3.228383385E0,-2.062604666E0,8.606556892E0,-1.198896527E0
3.230871094E0,-2.105700493E0,8.764574051E0,-1.208473325E0
3.233358802E0,-2.096123695E0,8.884284019E0,-1.141435623E0
3.235846510E0,-2.038662672E0,8.946533203E0,-1.012148738E0
3.238334219E0,-1.966836691E0,9.003993988E0,-8.780734539E-1
3.240821979E0,-1.947683096E0,9.071031570E0,-7.439981699E-1
3.243309739E0,-2.005143881E0,9.171587944E0,-6.865373254E-1
3.245797500E0,-2.129642487E0,9.272144318E0,-6.434416771E-1
3.248285260E0,-2.297236443E0,9.377489090E0,-6.625953317E-1
3.250773021E0,-2.488772631E0,9.482834816E0,-6.338648796E-1
3.253260781E0,-2.627636433E0,9.540295601E0,-6.051344872E-1
3.255748542E0,-2.752134800E0,9.569025993E0,-6.194996834E-1
3.258236302E0,-2.828749418E0,9.607333183E0,-6.386532784E-1
3.260724062E0,-2.890998602E0,9.640851974E0,-6.434416771E-1
3.263211823E0,-2.996343374E0,9.679159164E0,-6.434416771E-1
3.265699583E0,-3.111265182E0,9.707889557E0,-6.290764809E-1
3.268187344E0,-3.183091164E0,9.741408348E0,-6.099228859E-1
3.270675104E0,-3.211821556E0,9.765350342E0,-6.051344872E-1
3.273162864E0,-3.130418777E0,9.818022728E0,-6.578069329E-1
3.275650625E0,-3.025073767E0,9.856329918E0,-6.913257241E-1
3.278138385E0,-2.905363798E0,9.918579102E0,-6.961141229E-1
3.280626146E0,-2.814383984E0,1.001913548E1,-6.242880821E-1
3.283113906E0,-2.761711597E0,1.012448025E1,-5.764040351E-1
3.285601667E0,-2.723404408E0,1.024897861E1,-4.854243994E-1
3.288089427E0,-2.665943623E0,1.033995819E1,-4.375403523E-1
3.290577187E0,-2.584540844E0,1.043093872E1,-3.417722881E-1
3.293064948E0,-2.440888643E0,1.050276470E1,-2.747346461E-1
3.295552708E0,-2.254140854E0,1.054107189E1,-2.316390127E-1
3.298040469E0,-2.057816267E0,1.056022549E1,-1.885433793E-1
3.300528229E0,-1.914164305E0,1.057937908E1,-1.693897694E-1
3.303015989E0,-1.813607812E0,1.056980228E1,-1.885433793E-1
3.305503750E0,-1.832761407E0,1.057937908E1,-2.555810213E-1
3.307991510E0,-1.904587507E0,1.056501389E1,-3.369838893E-1
3.310479271E0,-2.014720678E0,1.054107189E1,-3.896563351E-1
3.312967031E0,-2.120065689E0,1.049797630E1,-4.088099301E-1
3.315454792E0,-2.177526474E0,1.045488071E1,-4.040215313E-1
3.317942552E0,-2.153584480E0,1.039741898E1,-3.609259129E-1
3.320430312E0,-2.105700493E0,1.034953499E1,-3.178302646E-1
3.322918073E0,-2.043451071E0,1.032080460E1,-2.651578486E-1
3.325405833E0,-2.033874273E0,1.032080460E1,-2.364274114E-1
3.327893594E0,-2.067393064E0,1.030643940E1,-1.741781682E-1
3.330381354E0,-2.144007683E0,1.027292061E1,-1.358709484E-1
3.332869114E0,-2.234987259E0,1.024897861E1,-1.215057373E-1
3.335356875E0,-2.378639460E0,1.021545982E1,-1.167173311E-1
3.337844635E0,-2.503137827E0,1.017715263E1,-9.756372124E-2
3.340332396E0,-2.603694439E0,1.011969185E1,-5.446808785E-2
3.342820156E0,-2.651578426E0,1.005744267E1,-3.052607179E-2
3.345307917E0,-2.622848034E0,9.999981880E0,7.781155407E-3
3.347795677E0,-2.531868219E0,9.966463089E0,5.566519126E-2
3.350283437E0,-2.383427858E0,9.899425507E0,1.322796494E-1
3.352771198E0,-2.239775658E0,9.865906715E0,2.184709013E-1
3.355258958E0,-2.144007683E0,9.827599525E0,3.142389655E-1
3.357746719E0,-2.081758261E0,9.765350342E0,4.195838571E-1
3.360234479E0,-2.062604666E0,9.712677956E0,4.722562730E-1
3.362722239E0,-2.062604666E0,9.645640373E0,4.531026781E-1
3.365210000E0,-2.076969862E0,9.621698380E0,4.004302323E-1
3.367697760E0,-2.115277290E0,9.592967987E0,3.333925903E-1
3.370185521E0,-2.153584480E0,9.573814392E0,2.328361124E-1
3.372673281E0,-2.167949677E0,9.549872398E0,1.993172914E-1
3.375161042E0,-2.153584480E0,9.492411613E0,1.849520802E-1
3.377648802E0,-2.072181463E0,9.411007881E0,2.424129248E-1
3.380136562E0,-1.933317900E0,9.296086311E0,3.190273643E-1
3.382624323E0,-1.837549806E0,9.195529938E0,3.860650361E-1
3.385112083E0,-1.784877419E0,9.109338760E0,4.483142793E-1
3.387599844E0,-1.784877419E0,9.042301178E0,5.201402903E-1
3.390087604E0,-1.842338204E0,9.013570786E0,5.680243373E-1
3.392575364E0,-1.928529501E0,8.960898399E0,5.823895931E-1
3.395063125E0,-1.990778685E0,8.884284019E0,6.063315868E-1
3.397550885E0,-2.014720678E0,8.798092842E0,6.206967831E-1
3.400038646E0,-2.019509077E0,8.683171272E0,6.063315868E-1
3.402526406E0,-1.985990286E0,8.558672905E0,5.680243373E-1
3.405014167E0,-1.947683096E0,8.438961983E0,4.961982965E-1
3.407501927E0,-1.923741102E0,8.343194008E0,4.052186310E-1
3.409989687E0,-1.933317900E0,8.271368027E0,3.142389655E-1
3.412477448E0,-1.923741102E0,8.199542046E0,2.615665495E-1
3.414965208E0,-1.928529501E0,8.137292862E0,2.184709013E-1
3.417452969E0,-1.933317900E0,8.055890083E0,2.232593149E-1
3.419940729E0,-1.947683096E0,7.974487305E0,2.567781210E-1
3.422428437E0,-1.976413488E0,7.902661324E0,2.711433470E-1
3.424916146E0,-2.033874273E0,7.811681747E0,2.472013235E-1
3.427403854E0,-2.134430885E0,7.725490570E0,1.610100716E-1
3.429891562E0,-2.225410461E0,7.658452511E0,6.524199992E-2
3.432379271E0,-2.263717651E0,7.596203327E0,7.781155407E-3
3.434866979E0,-2.254140854E0,7.510012150E0,2.214636654E-2
3.437354687E0,-2.196680069E0,7.423820972E0,6.045359373E-2
3.439842396E0,-2.115277290E0,7.308899403E0,1.131260321E-1
3.442330104E0,-2.076969862E0,7.237073421E0,1.849520802E-1
3.444817812E0,-2.086546898E0,7.208342552E0,2.567781210E-1
3.447305521E0,-2.196680069E0,7.213130951E0,2.807201445E-1
3.449793229E0,-2.330755472E0,7.261015415E0,2.902969420E-1
3.452280937E0,-2.464830637E0,7.294534206E0,3.238157928E-1
3.454768646E0,-2.574964046E0,7.308899403E0,3.669114113E-1
3.457256354E0,-2.661155224E0,7.294534206E0,4.147954583E-1
3.459744062E0,-2.718616009E0,7.261015415E0,4.578910768E-1
3.462231771E0,-2.732981205E0,7.208342552E0,4.435258508E-1
3.464719479E0,-2.718616009E0,7.170035362E0,4.100070298E-1
3.467207187E0,-2.680308819E0,7.131728172E0,4.100070298E-1
3.469694896E0,-2.570175409E0,7.107786179E0,4.339490533E-1
3.472182604E0,-2.440888643E0,7.079055786E0,4.435258508E-1
3.474670312E0,-2.340332270E0,7.088632584E0,5.057750940E-1
3.477158021E0,-2.254140854E0,7.093420982E0,5.201402903E-1
3.479645729E0,-2.172738075E0,7.083844185E0,5.249287486E-1
3.482133437E0,-2.115277290E0,7.059902191E0,5.297171474E-1
3.484621146E0,-2.053027868E0,6.997653008E0,5.345055461E-1
3.487108854E0,-2.009932280E0,6.911461830E0,5.680243373E-1
3.489596562E0,-1.981201887E0,6.877943039E0,5.153518915E-1
3.492084271E0,-1.928529501E0,6.758233070E0,5.392939448E-1
3.494571979E0,-1.890222192E0,6.633734226E0,5.488707423E-1
3.497059687E0,-1.895010591E0,6.494870663E0,5.153518915E-1
3.499547396E0,-1.947683096E0,6.351218700E0,4.435258508E-1
3.502035104E0,-2.000355482E0,6.188412666E0,3.286041915E-1
3.504522812E0,-2.043451071E0,6.001665115E0,2.472013235E-1
3.507010521E0,-2.086546898E0,5.824494362E0,1.705868691E-1
3.509498229E0,-2.148796082E0,5.671265125E0,6.045359373E-2
3.511985937E0,-2.254140854E0,5.522824764E0,-1.023521200E-1
3.514473646E0,-2.349909067E0,5.388749599E0,-2.843114436E-1
3.516961406E0,-2.460042238E0,5.278616428E0,-4.806360006E-1
3.519449167E0,-2.560598612E0,5.211578369E0,-6.434416771E-1
3.521936927E0,-2.651578426E0,5.187636375E0,-8.254010081E-1
3.524424687E0,-2.713827610E0,5.192424774E0,-1.040879130E0
3.526912448E0,-2.747346401E0,5.245097160E0,-1.313818216E0
3.529400208E0,-2.713827610E0,5.321712017E0,-1.529296279E0
3.531887969E0,-2.598906040E0,5.441421986E0,-1.615487576E0
3.534375729E0,-2.474407434E0,5.594650745E0,-1.524507880E0
3.536863489E0,-2.297236443E0,5.757456303E0,-1.328183413E0
3.539351250E0,-2.129642487E0,5.905897141E0,-1.045667648E0
3.541839010E0,-1.952471495E0,6.025607109E0,-7.056909800E-1
3.544326771E0,-1.808819413E0,6.111798286E0,-3.321954906E-1
3.546814531E0,-1.717839718E0,6.145317078E0,-4.010287672E-2
3.549302292E0,-1.732204914E0,6.164470673E0,1.131260321E-1
3.551790052E0,-1.818396211E0,6.202777863E0,9.397241473E-2
3.554277812E0,-1.990778685E0,6.308123112E0,-9.277531505E-2
3.556765573E0,-2.177526474E0,6.490082264E0,-3.178302646E-1
3.559253333E0,-2.330755472E0,6.719925404E0,-4.854243994E-1
3.561741094E0,-2.354697466E0,6.930615425E0,-5.620388389E-1
3.564228854E0,-2.292448044E0,7.122151375E0,-6.386532784E-1
3.566716614E0,-2.144007683E0,7.284957409E0,-7.296329737E-1
3.569204375E0,-1.947683096E0,7.404667377E0,-7.631517649E-1
3.571692135E0,-1.799242616E0,7.442974567E0,-6.434416771E-1
3.574179896E0,-1.717839718E0,7.433397770E0,-4.566939771E-1
3.576667656E0,-1.722628117E0,7.361571789E0,-2.316390127E-1
3.579155417E0,-1.799242616E0,7.222707748E0,2.992752008E-3
3.581643177E0,-1.923741102E0,7.035960197E0,2.328361124E-1
3.584130937E0,-2.086546898E0,6.858789444E0,4.531026781E-1
3.586618698E0,-2.254140854E0,6.681618214E0,5.823895931E-1
3.589106458E0,-2.431311846E0,6.542754650E0,6.590040326E-1
3.591594739E0,-2.627636433E0,6.432621479E0,7.020996213E-1
3.594082656E0,-2.819172382E0,6.370372295E0,6.685808301E-1
3.596570417E0,-2.943670988E0,6.312911510E0,6.446388364E-1
3.599058125E0,-3.025073767E0,6.217143059E0,6.254851818E-1
3.601545833E0,-3.072957993E0,6.068702698E0,5.919663906E-1
3.604033542E0,-3.020285368E0,5.872378349E0,5.201402903E-1
3.606521250E0,-2.958036184E0,5.690418720E0,2.711433470E-1
3.609008958E0,-2.929305792E0,5.565920353E0,-2.029085904E-1
3.611496667E0,-2.958036184E0,5.513247967E0,-8.493430614E-1
3.613984375E0,-3.072957993E0,5.570708752E0,-1.505354285E0
3.616472083E0,-3.221398354E0,5.699995518E0,-2.094327927E0
3.618959792E0,-3.336320162E0,5.891531944E0,-2.568379879E0
3.621447500E0,-3.393780947E0,6.135740280E0,-2.860472441E0
3.623935208E0,-3.302801132E0,6.336853504E0,-2.961029053E0
3.626422917E0,-3.077746391E0,6.523601055E0,-2.879626036E0
3.628910625E0,-2.766499996E0,6.710348606E0,-2.630629063E0
3.631398333E0,-2.397793055E0,6.868366241E0,-2.214038134E0
3.633886042E0,-2.033874273E0,7.007229805E0,-1.572391987E0
3.636373750E0,-1.741781712E0,7.155670166E0,-8.301894665E-1
3.638861458E0,-1.487996340E0,7.332841396E0,-1.119289324E-1
3.641349167E0,-1.329979062E0,7.524377346E0,4.578910768E-1
3.643836875E0,-1.286883354E0,7.749432564E0,7.835025191E-1
3.646324583E0,-1.368286252E0,8.055890083E0,8.936358094E-1
3.648812292E0,-1.578976035E0,8.438961983E0,8.840589523E-1
3.651300000E0,-1.827973008E0,8.869918823E0,8.026561141E-1
3.653787708E0,-2.091335297E0,9.320028305E0,6.206967831E-1
3.656275417E0,-2.321178436E0,9.746196747E0,3.286041915E-1
3.658763125E0,-2.431311846E0,1.009096146E1,-6.584054790E-3
3.661250833E0,-2.426523447E0,1.023461342E1,-2.938882709E-1
3.663738542E0,-2.349909067E0,1.025855541E1,-5.668272376E-1
3.666226250E0,-2.249352455E0,1.014842224E1,-8.397662640E-1
3.668713958E0,-2.172738075E0,9.894637108E0,-1.021725535E0
3.671201667E0,-2.086546898E0,9.549872398E0,-1.170166135E0
3.673689375E0,-1.981201887E0,9.142857552E0,-1.289876223E0
3.676177083E0,-1.851915002E0,8.740632057E0,-1.366490602E0
3.678664792E0,-1.703474522E0,8.391077995E0,-1.404797792E0
3.681152500E0,-1.574187636E0,8.060678482E0,-1.380855799E0
3.683640208E0,-1.511938334E0,7.830835342E0,-1.299453020E0
3.686127917E0,-1.535880446E0,7.663240910E0,-1.270722508E0
3.688615625E0,-1.665167332E0,7.553107738E0,-1.380855799E0
3.691103333E0,-1.875856996E0,7.538742542E0,-1.677736878E0
3.693591094E0,-2.148796082E0,7.567472935E0,-2.089539528E0
3.696078854E0,-2.483984232E0,7.663240910E0,-2.573168278E0
3.698566614E0,-2.771288395E0,7.816470146E0,-2.999336243E0
3.701054375E0,-2.981978178E0,7.998429298E0,-3.329735994E0
3.703542135E0,-3.092111588E0,8.166023254E0,-3.463811398E0
3.706029896E0,-3.063380957E0,8.319252014E0,-3.473388195E0
3.708517656E0,-2.958036184E0,8.482058525E0,-3.382408381E0
3.711005417E0,-2.823961020E0,8.625710487E0,-3.142988205E0
3.713493177E0,-2.670732021E0,8.754997253E0,-2.716820478E0
3.715980937E0,-2.546233416E0,8.889072418E0,-2.166153908E0
3.718468698E0,-2.450465441E0,9.013570786E0,-1.625064373E0
3.720956458E0,-2.393004656E0,9.157222748E0,-1.155800819E0
3.723444219E0,-2.359485865E0,9.329605103E0,-8.589198589E-1
3.725931979E0,-2.335543871E0,9.535507202E0,-7.344213724E-1
3.728419739E0,-2.349909067E0,9.760561943E0,-7.296329737E-1
3.730907500E0,-2.354697466E0,1.001913548E1,-8.014590144E-1
3.733395260E0,-2.325966835E0,1.028249741E1,-9.307458997E-1
3.735883021E0,-2.302024841E0,1.051234150E1,-1.060032845E0
3.738370781E0,-2.263717651E0,1.067514706E1,-1.112705231E0
3.740858542E0,-2.191891670E0,1.076612663E1,-1.155800819E0
3.743346302E0,-2.120065689E0,1.076612663E1,-1.213261724E0
3.745834062E0,-2.062604666E0,1.069908905E1,-1.294664621E0
3.748321823E0,-2.024297476E0,1.054586029E1,-1.433528304E0
3.750809583E0,-1.981201887E0,1.033995819E1,-1.572391987E0
3.753297344E0,-1.957259893E0,1.011011505E1,-1.696890473E0
3.755785104E0,-1.933317900E0,9.894637108E0,-1.830965757E0
3.758272864E0,-1.899798989E0,9.631275177E0,-1.979406238E0
3.760760625E0,-1.914164305E0,9.449316025E0,-2.161365509E0
3.763248385E0,-1.957259893E0,9.252990723E0,-2.386420488E0
3.765736146E0,-2.048239470E0,9.075819969E0,-2.678513050E0
3.768223906E0,-2.153584480E0,8.903437614E0,-2.970605850E0
3.770711667E0,-2.153584480E0,8.735843658E0,-3.214814425E0
3.773199427E0,-2.134430885E0,8.606556892E0,-3.339312792E0
3.775687187E0,-2.100912094E0,8.501212120E0,-3.401561975E0
3.778174948E0,-2.096123695E0,8.415019989E0,-3.444657803E0
3.780662708E0,-2.139219284E0,8.376712799E0,-3.482964993E0
3.783150469E0,-2.254140854E0,8.400654793E0,-3.487753391E0
3.785638229E0,-2.426523447E0,8.448538780E0,-3.425503969E0
3.788125989E0,-2.613271236E0,8.515577316E0,-3.257910013E0
3.790613750E0,-2.732981205E0,8.606556892E0,-3.032855034E0
3.793101510E0,-2.747346401E0,8.721478462E0,-2.764704466E0
3.795589271E0,-2.651578426E0,8.841188431E0,-2.448669672E0
3.798077031E0,-2.507926226E0,8.970475197E0,-2.123058319E0
3.800564792E0,-2.340332270E0,9.157222748E0,-1.797446966E0
3.803052552E0,-2.172738075E0,9.353547096E0,-1.510142684E0
3.805540312E0,-2.072181463E0,9.559449196E0,-1.294664621E0
3.808028073E0,-2.014720678E0,9.746196747E0,-1.131858826E0
3.810515833E0,-2.014720678E0,9.885060310E0,-1.036090732E0
3.813003594E0,-2.033874273E0,9.985616684E0,-9.929951429E-1
3.815491354E0,-2.038662672E0,1.003350067E1,-9.977835417E-1
3.817979114E0,-2.072181463E0,1.005265427E1,-1.064821243E0
3.820466875E0,-2.072181463E0,1.002871227E1,-1.165377736E0
3.822954635E0,-2.062604666E0,9.961674690E0,-1.285087705E0
3.825442396E0,-2.000355482E0,9.870695114E0,-1.404797792E0
3.827930156E0,-1.914164305E0,9.774927139E0,-1.534084797E0
3.830417917E0,-1.760935307E0,9.640851974E0,-1.682525277E0
3.832905677E0,-1.626860023E0,9.482834816E0,-1.802235365E0
3.835393437E0,-1.473631144E0,9.315239906E0,-1.955464244E0
3.837881198E0,-1.334767461E0,9.128492355E0,-2.132635117E0
3.840368958E0,-1.243787766E0,8.956110001E0,-2.381632090E0
3.842856719E0,-1.191115379E0,8.807669640E0,-2.750339270E0
3.845344479E0,-1.157596469E0,8.711901665E0,-3.243544817E0
3.847832239E0,-1.143231273E0,8.649652481E0,-3.722385168E0
3.850320000E0,-1.119289279E0,8.606556892E0,-4.167706490E0
3.852807760E0,-1.119289279E0,8.582614899E0,-4.502894878E0
3.855295521E0,-1.234210968E0,8.577826500E0,-4.689642429E0
3.857783229E0,-1.406593442E0,8.558672905E0,-4.756680012E0
3.860270937E0,-1.631648421E0,8.529942513E0,-4.790199280E0
3.862758646E0,-1.851915002E0,8.525154114E0,-4.771045208E0
3.865246927E0,-1.995567083E0,8.529942513E0,-4.684854031E0
3.867734219E0,-2.019509077E0,8.558672905E0,-4.550778866E0
3.870221510E0,-1.971625090E0,8.630498886E0,-4.354454517E0
3.872708802E0,-1.823184609E0,8.798092842E0,-4.067150116E0
3.875196146E0,-1.660378933E0,9.023147583E0,-3.679289579E0
3.877683542E0,-1.511938334E0,9.272144318E0,-3.324947596E0
3.880170989E0,-1.468842745E0,9.573814392E0,-3.013701439E0
3.882658489E0,-1.492784739E0,9.861118317E0,-2.807800055E0
3.885146042E0,-1.578976035E0,1.012926865E1,-2.673724651E0
3.887633646E0,-1.756146908E0,1.035911179E1,-2.649782658E0
3.890121354E0,-1.938106298E0,1.054107189E1,-2.731185675E0
3.892609114E0,-2.105700493E0,1.069430065E1,-2.826953650E0
3.895096927E0,-2.234987259E0,1.080443382E1,-2.893991232E0
3.897584792E0,-2.292448044E0,1.086189461E1,-2.927510023E0
3.900072708E0,-2.325966835E0,1.089541340E1,-2.941875219E0
3.902560677E0,-2.321178436E0,1.086668301E1,-2.965817451E0
3.905048698E0,-2.292448044E0,1.079485703E1,-2.946663857E0
3.907536771E0,-2.268506050E0,1.069908905E1,-2.889202833E0
3.910024844E0,-2.254140854E0,1.056022549E1,-2.874837637E0
3.912512917E0,-2.211045265E0,1.039263058E1,-2.893991232E0
3.915000989E0,-2.182314873E0,1.022503662E1,-2.937086821E0
3.917489010E0,-2.148796082E0,1.004786587E1,-2.980182648E0
3.919976771E0,-2.144007683E0,9.861118317E0,-3.056797028E0
3.922464531E0,-2.158372879E0,9.703101158E0,-3.291428804E0
3.924952239E0,-2.191891670E0,9.588179588E0,-3.789422750E0
3.927439948E0,-2.191891670E0,9.549872398E0,-4.455010891E0
3.929927656E0,-2.129642487E0,9.583391190E0,-5.120598793E0
3.932415364E0,-2.029085875E0,9.636063576E0,-5.656899929E0
3.934903073E0,-1.923741102E0,9.746196747E0,-6.030395508E0
3.937390781E0,-1.851915002E0,9.851541519E0,-6.154893875E0
3.939878489E0,-1.904587507E0,9.956886292E0,-6.092644691E0
3.942366198E0,-2.144007683E0,1.004786587E1,-6.025607109E0
3.944853906E0,-2.546233416E0,1.011969185E1,-5.948992729E0
3.947341614E0,-2.972401381E0,1.016278744E1,-5.604227543E0
3.949829323E0,-3.283647537E0,1.019630623E1,-5.144540787E0
3.952317031E0,-3.484760523E0,1.028249741E1,-4.909909248E0
3.954804739E0,-3.609259129E0,1.043572712E1,-4.756680012E0
3.957292448E0,-3.676296711E0,1.064641666E1,-4.445434093E0
3.959780156E0,-3.681085110E0,1.091456699E1,-3.957016945E0
3.962267864E0,-3.681085110E0,1.124975491E1,-3.454234600E0
3.964755573E0,-3.738545895E0,1.163761616E1,-3.023278236E0
3.967243281E0,-3.863044500E0,1.201589966E1,-2.668936253E0
3.969730989E0,-4.049792290E0,1.239897251E1,-2.405574083E0
3.972218698E0,-4.265270233E0,1.272458363E1,-2.266710520E0
3.974706406E0,-4.509479046E0,1.299273396E1,-2.228403330E0
3.977194114E0,-4.729745388E0,1.320342350E1,-2.314594507E0
3.979681823E0,-4.911705017E0,1.336144066E1,-2.510919094E0
3.982169531E0,-5.036203384E0,1.345242119E1,-2.712032080E0
3.984657239E0,-5.079298973E0,1.348593998E1,-2.846107244E0
3.987144948E0,-5.040991783E0,1.347157478E1,-2.908356428E0
3.989632656E0,-4.978742599E0,1.339496040E1,-2.956240654E0
3.992120364E0,-4.906916618E0,1.327524948E1,-2.961029053E0
3.994608073E0,-4.825513363E0,1.310765553E1,-2.903568029E0
3.997095781E0,-4.748898983E0,1.291611958E1,-2.836530447E0
3.999583489E0,-4.657919407E0,1.267669964E1,-2.807800055E0
4.002071198E0,-4.547786236E0,1.244206810E1,-2.822165251E0
4.004558906E0,-4.408922195E0,1.220264721E1,-2.846107244E0
4.007046614E0,-4.274847031E0,1.199674606E1,-2.841318846E0
4.009534323E0,-4.112041473E0,1.183872890E1,-2.874837637E0
4.012022031E0,-3.997119665E0,1.170465374E1,-3.052008629E0
4.014509739E0,-3.891774893E0,1.165198135E1,-3.463811398E0
4.016997448E0,-3.757699490E0,1.163761616E1,-4.043208122E0
4.019485156E0,-3.494337320E0,1.167592335E1,-4.617816448E0
4.021972917E0,-3.168725967E0,1.171901894E1,-5.058349609E0
4.024460677E0,-2.847903013E0,1.174774933E1,-5.269039154E0
4.026948437E0,-2.675520420E0,1.176211452E1,-5.254673958E0
4.029436198E0,-2.704250813E0,1.173817253E1,-5.187636375E0
4.031923958E0,-3.001131773E0,1.167592335E1,-5.225943565E0
4.034411719E0,-3.470395327E0,1.167113495E1,-5.450998783E0
4.036899479E0,-3.982754469E0,1.168071175E1,-5.656899929E0
4.039387239E0,-4.480748653E0,1.172859573E1,-5.747879505E0
4.041875000E0,-4.964377403E0,1.186267090E1,-5.872378349E0
4.044362760E0,-5.313930511E0,1.200153446E1,-5.786187172E0
4.046850521E0,-5.462371349E0,1.213560963E1,-5.345654011E0
4.049338281E0,-5.462371349E0,1.226489639E1,-4.704007626E0
4.051826042E0,-5.376179695E0,1.242770290E1,-4.186860085E0
4.054313802E0,-5.304353714E0,1.262881565E1,-3.818153143E0
4.056801562E0,-5.294776917E0,1.281556320E1,-3.535637379E0
4.059289323E0,-5.361814499E0,1.298794556E1,-3.353677988E0
4.061777083E0,-5.500678539E0,1.317948151E1,-3.277063608E0
4.064264844E0,-5.629965305E0,1.333749866E1,-3.272275209E0
4.066752604E0,-5.759252071E0,1.347636318E1,-3.301005602E0
4.069240364E0,-5.855020046E0,1.356734276E1,-3.301005602E0
4.071728125E0,-5.878962040E0,1.360564995E1,-3.262698412E0
4.074215885E0,-5.850231647E0,1.358649635E1,-3.243544817E0
4.076703646E0,-5.783194065E0,1.353382397E1,-3.243544817E0
4.079191406E0,-5.668272495E0,1.345720959E1,-3.305794001E0
4.081679167E0,-5.534197330E0,1.334707546E1,-3.363254786E0
4.084166927E0,-5.376179695E0,1.321300030E1,-3.444657803E0
4.086654687E0,-5.179855347E0,1.307413673E1,-3.554790974E0
4.089142448E0,-4.954800606E0,1.292090797E1,-3.617040157E0
4.091630625E0,-4.710591793E0,1.274373722E1,-3.545214176E0
4.094118594E0,-4.437653065E0,1.253783607E1,-3.377619982E0
4.096606354E0,-4.193444252E0,1.233193398E1,-3.233968019E0
4.099094114E0,-3.992331266E0,1.211645603E1,-3.157353401E0
4.101581823E0,-3.834314108E0,1.195365047E1,-3.195660830E0
4.104069531E0,-3.752911091E0,1.182915211E1,-3.320159197E0
4.106557239E0,-3.700238705E0,1.173338413E1,-3.526060581E0
4.109044948E0,-3.614047527E0,1.166634655E1,-3.722385168E0
4.111532656E0,-3.537432909E0,1.164240456E1,-3.957016945E0
4.114020364E0,-3.460818529E0,1.165198135E1,-4.196436882E0
4.116508073E0,-3.412934542E0,1.165198135E1,-4.364031315E0
4.118995781E0,-3.403357744E0,1.164240456E1,-4.435857296E0
4.121483489E0,-3.384204149E0,1.164240456E1,-4.445434093E0
4.123971198E0,-3.398569345E0,1.163282776E1,-4.397550106E0
4.126458906E0,-3.441664934E0,1.167113495E1,-4.344877720E0
4.128946614E0,-3.460818529E0,1.171423054E1,-4.320935726E0
4.131434323E0,-3.456030130E0,1.177647972E1,-4.263474464E0
4.133922031E0,-3.427299738E0,1.185788250E1,-4.148552895E0
4.136409739E0,-3.369838953E0,1.191534328E1,-4.004900932E0
4.138897448E0,-3.336320162E0,1.196801567E1,-3.904344320E0
4.141385156E0,-3.341108561E0,1.199195766E1,-3.803787947E0
4.143872864E0,-3.422511339E0,1.198716927E1,-3.755903959E0
4.146360573E0,-3.542221308E0,1.195365047E1,-3.722385168E0
4.148848281E0,-3.709815502E0,1.188661289E1,-3.731961966E0
4.151335989E0,-3.891774893E0,1.181478691E1,-3.746327162E0
4.153823698E0,-4.102464676E0,1.172380733E1,-3.765480757E0
4.156311406E0,-4.270058632E0,1.163761616E1,-3.770269156E0
4.158799114E0,-4.399345398E0,1.150832939E1,-3.784634352E0
4.161286823E0,-4.475960255E0,1.135988808E1,-3.746327162E0
4.163774531E0,-4.490325451E0,1.118750572E1,-3.664924145E0
4.166262239E0,-4.461595058E0,1.100075817E1,-3.569156170E0
4.168749948E0,-4.418499470E0,1.080922222E1,-3.487753391E0
4.171237656E0,-4.389768600E0,1.062726307E1,-3.459022999E0
4.173725364E0,-4.317942619E0,1.046445751E1,-3.487753391E0
4.176213073E0,-4.188655853E0,1.027770901E1,-3.444657803E0
4.178700781E0,-4.025850296E0,1.007659626E1,-3.329735994E0
4.181188489E0,-3.863044500E0,9.865906715E0,-3.219602823E0
4.183676198E0,-3.676296711E0,9.707889557E0,-3.186083794E0
4.186163906E0,-3.523067713E0,9.559449196E0,-3.253121614E0
4.188651614E0,-3.412934542E0,9.444527626E0,-3.372831583E0
4.191139323E0,-3.331531763E0,9.315239906E0,-3.473388195E0
4.193627031E0,-3.235763550E0,9.195529938E0,-3.588309765E0
4.196114739E0,-3.144783974E0,9.085396767E0,-3.693654776E0
4.198602448E0,-3.087323189E0,8.984840393E0,-3.779845953E0
4.201090208E0,-3.025073767E0,8.879495621E0,-3.818153143E0
4.203577969E0,-2.986766577E0,8.774150848E0,-3.846883535E0
4.206065729E0,-3.001131773E0,8.726266861E0,-3.856460333E0
4.208553489E0,-3.015496969E0,8.659229279E0,-3.875613928E0
4.211041250E0,-3.058592558E0,8.582614899E0,-3.861248732E0
4.213529010E0,-3.106476784E0,8.549096107E0,-3.842095137E0
4.216016771E0,-3.149572372E0,8.520365715E0,-3.837306738E0
4.218504531E0,-3.187879562E0,8.486846924E0,-3.808576345E0
4.220992292E0,-3.202244759E0,8.472481728E0,-3.741538763E0
4.223480052E0,-3.192667961E0,8.448538780E0,-3.669712543E0
4.225967812E0,-3.187879562E0,8.410231590E0,-3.626616955E0
4.228455573E0,-3.207033157E0,8.391077995E0,-3.569156170E0
4.230943333E0,-3.226186752E0,8.405443192E0,-3.545214176E0
4.233431094E0,-3.226186752E0,8.395866394E0,-3.545214176E0
4.235918854E0,-3.192667961E0,8.400654793E0,-3.516483784E0
4.238406614E0,-3.116053581E0,8.400654793E0,-3.482964993E0
4.240894375E0,-3.015496969E0,8.395866394E0,-3.435081005E0
4.243382135E0,-2.919728994E0,8.386289597E0,-3.368043184E0
4.245869896E0,-2.795230389E0,8.391077995E0,-3.301005602E0
4.248357656E0,-2.675520420E0,8.395866394E0,-3.248333216E0
4.250845417E0,-2.570175409E0,8.395866394E0,-3.262698412E0
4.253333177E0,-2.493561029E0,8.410231590E0,-3.257910013E0
4.255820937E0,-2.402581453E0,8.405443192E0,-3.205237627E0
4.258308698E0,-2.321178436E0,8.415019989E0,-3.075950623E0
4.260796458E0,-2.239775658E0,8.395866394E0,-2.932298422E0
4.263284219E0,-2.172738075E0,8.405443192E0,-2.803011656E0
4.265771979E0,-2.134430885E0,8.424596786E0,-2.774281263E0
4.268259739E0,-2.091335297E0,8.458115578E0,-2.807800055E0
4.270747500E0,-2.081758261E0,8.506000519E0,-2.870049238E0
4.273235260E0,-2.057816267E0,8.582614899E0,-2.932298422E0
4.275723021E0,-2.019509077E0,8.659229279E0,-2.937086821E0
4.278210781E0,-1.952471495E0,8.735843658E0,-2.975394249E0
4.280698542E0,-1.895010591E0,8.812458038E0,-2.932298422E0
4.283186302E0,-1.871068597E0,8.879495621E0,-2.850895643E0
4.285674062E0,-1.823184609E0,8.936956406E0,-2.793434858E0
4.288161823E0,-1.823184609E0,9.008782387E0,-2.740762472E0
4.290649583E0,-1.799242616E0,9.061454773E0,-2.668936253E0
4.293137344E0,-1.784877419E0,9.114127159E0,-2.601898670E0
4.295625104E0,-1.770512104E0,9.176376343E0,-2.563591480E0
4.298112864E0,-1.789665818E0,9.257779121E0,-2.506130695E0
4.300600625E0,-1.794454217E0,9.320028305E0,-2.429516077E0
4.303088385E0,-1.808819413E0,9.382277489E0,-2.391208887E0
4.305576146E0,-1.832761407E0,9.415796280E0,-2.367266893E0
4.308063906E0,-1.875856996E0,9.492411613E0,-2.367266893E0
4.310551667E0,-1.938106298E0,9.525930405E0,-2.357690096E0
4.313039427E0,-2.019509077E0,9.573814392E0,-2.367266893E0
4.315527187E0,-2.096123695E0,9.616909981E0,-2.328959703E0
4.318014948E0,-2.158372879E0,9.664793968E0,-2.290652514E0
4.320502708E0,-2.182314873E0,9.698312759E0,-2.242768526E0
4.322990469E0,-2.177526474E0,9.727043152E0,-2.156577110E0
4.325478229E0,-2.148796082E0,9.736619949E0,-2.012925148E0
4.327965989E0,-2.134430885E0,9.765350342E0,-1.850119352E0
4.330453750E0,-2.134430885E0,9.770138741E0,-1.711255670E0
4.332941510E0,-2.158372879E0,9.794080734E0,-1.634641171E0
4.335429271E0,-2.201468468E0,9.803657532E0,-1.620275974E0
4.337917031E0,-2.273294449E0,9.813234329E0,-1.605910778E0
4.340404792E0,-2.335543871E0,9.832387924E0,-1.596333981E0
4.342892552E0,-2.378639460E0,9.818022728E0,-1.577180386E0
4.345380312E0,-2.412158251E0,9.808445930E0,-1.581968784E0
4.347868073E0,-2.407369852E0,9.803657532E0,-1.581968784E0
4.350355833E0,-2.421735048E0,9.789292336E0,-1.591545582E0
4.352843542E0,-2.436100245E0,9.765350342E0,-1.620275974E0
4.355331250E0,-2.445677042E0,9.727043152E0,-1.639429569E0
4.357818958E0,-2.464830637E0,9.679159164E0,-1.629852772E0
4.360306667E0,-2.488772631E0,9.631275177E0,-1.629852772E0
4.362794375E0,-2.507926226E0,9.588179588E0,-1.653794765E0
4.365282083E0,-2.531868219E0,9.554660797E0,-1.663371682E0
4.367769792E0,-2.527079821E0,9.525930405E0,-1.663371682E0
4.370257500E0,-2.546233416E0,9.501988411E0,-1.692102075E0
4.372745208E0,-2.541445017E0,9.473258018E0,-1.716044068E0
4.375232917E0,-2.560598612E0,9.482834816E0,-1.759139657E0
4.377720625E0,-2.546233416E0,9.482834816E0,-1.830965757E0
4.380208333E0,-2.536656618E0,9.473258018E0,-1.869272947E0
4.382696042E0,-2.555810213E0,9.463681221E0,-1.912368655E0
4.385184375E0,-2.570175409E0,9.473258018E0,-1.950675845E0
4.387671927E0,-2.594117641E0,9.463681221E0,-1.979406238E0
4.390159479E0,-2.646790028E0,9.444527626E0,-2.032078743E0
4.392647031E0,-2.699462414E0,9.439739227E0,-2.132635117E0
4.395134583E0,-2.761711597E0,9.454104424E0,-2.233191729E0
4.397622135E0,-2.809595585E0,9.458892822E0,-2.324171305E0
4.400109687E0,-2.819172382E0,9.473258018E0,-2.381632090E0
4.402597239E0,-2.819172382E0,9.478046417E0,-2.439092875E0
4.405084844E0,-2.804807186E0,9.492411613E0,-2.477400303E0
4.407572500E0,-2.800018787E0,9.506776810E0,-2.486977100E0
4.410060208E0,-2.780865192E0,9.506776810E0,-2.496553898E0
4.412547969E0,-2.790441990E0,9.535507202E0,-2.554014683E0
4.415035781E0,-2.785653591E0,9.569025993E0,-2.640205860E0
4.417523594E0,-2.756923199E0,9.602544785E0,-2.759916067E0
4.420011406E0,-2.761711597E0,9.655217171E0,-2.893991232E0
4.422499219E0,-2.800018787E0,9.712677956E0,-3.047220230E0
4.424987031E0,-2.862268209E0,9.794080734E0,-3.181295395E0
4.427474844E0,-2.943670988E0,9.865906715E0,-3.291428804E0
4.429962656E0,-3.020285368E0,9.952097893E0,-3.368043184E0
4.432450469E0,-3.072957993E0,1.002871227E1,-3.439869404E0
4.434938281E0,-3.125630379E0,1.012448025E1,-3.482964993E0
4.437426094E0,-3.192667961E0,1.021545982E1,-3.516483784E0
4.439913906E0,-3.226186752E0,1.033038139E1,-3.569156170E0
4.442401719E0,-3.250128746E0,1.045488071E1,-3.636193752E0
4.444889531E0,-3.298012733E0,1.058895588E1,-3.679289579E0
4.447377344E0,-3.350685358E0,1.074218464E1,-3.693654776E0
4.449865156E0,-3.412934542E0,1.091456699E1,-3.688866377E0
4.452352969E0,-3.508702517E0,1.109652615E1,-3.679289579E0
4.454840781E0,-3.647566319E0,1.128327370E1,-3.655347347E0
4.457328594E0,-3.772064686E0,1.150832939E1,-3.617040157E0
4.459816354E0,-3.915716887E0,1.171423054E1,-3.540425777E0
4.462304062E0,-4.045003891E0,1.192492008E1,-3.482964993E0
4.464791771E0,-4.150348663E0,1.213560963E1,-3.406350374E0
4.467279479E0,-4.236539841E0,1.230799198E1,-3.305794001E0
4.469767187E0,-4.298789024E0,1.249952888E1,-3.205237627E0
4.472254896E0,-4.351461411E0,1.269585323E1,-3.166930199E0
4.474742604E0,-4.408922195E0,1.288260078E1,-3.128623009E0
4.477230312E0,-4.466383457E0,1.306455994E1,-3.133411407E0
4.479718021E0,-4.514267445E0,1.322257710E1,-3.152565002E0
4.482205729E0,-4.552574635E0,1.336623001E1,-3.186083794E0
4.484693437E0,-4.576516628E0,1.349551678E1,-3.205237627E0
4.487181146E0,-4.614823818E0,1.362001514E1,-3.205237627E0
4.489668854E0,-4.624400616E0,1.370141792E1,-3.195660830E0
4.492156562E0,-4.638765812E0,1.374451351E1,-3.190872431E0
4.494644271E0,-4.648342609E0,1.381155109E1,-3.210026026E0
4.497131979E0,-4.657919407E0,1.386422348E1,-3.262698412E0
4.499619687E0,-4.643554211E0,1.389295387E1,-3.334524393E0
4.502107396E0,-4.624400616E0,1.392647266E1,-3.396773577E0
4.504595104E0,-4.610035419E0,1.398872185E1,-3.459022999E0
4.507082812E0,-4.586093426E0,1.403660583E1,-3.473388195E0
4.509570521E0,-4.566939831E0,1.408448982E1,-3.439869404E0
4.512058229E0,-4.538209438E0,1.413237381E1,-3.358466387E0
4.514545937E0,-4.514267445E0,1.419462299E1,-3.229179621E0
4.517033646E0,-4.514267445E0,1.423293018E1,-3.090315819E0
4.519521354E0,-4.528632641E0,1.429996777E1,-2.951452255E0
4.522009062E0,-4.552574635E0,1.437658310E1,-2.812588453E0
4.524496771E0,-4.610035419E0,1.445319748E1,-2.697666883E0
4.526984479E0,-4.705803394E0,1.455375385E1,-2.606687069E0
4.529472187E0,-4.811148167E0,1.465909863E1,-2.506130695E0
4.531959896E0,-4.897339344E0,1.476923180E1,-2.391208887E0
4.534447604E0,-4.950012207E0,1.488415337E1,-2.261922121E0
4.536935312E0,-4.935647011E0,1.500386333E1,-2.099116325E0
4.539423021E0,-4.863820553E0,1.510920811E1,-1.945887446E0
4.541910729E0,-4.763264179E0,1.520018768E1,-1.878849745E0
4.544398437E0,-4.696226597E0,1.529116726E1,-1.716044068E0
4.546886146E0,-4.600458622E0,1.534862900E1,-1.452681899E0
4.549373854E0,-4.495113850E0,1.538693619E1,-1.289876223E0
4.551861562E0,-4.413711071E0,1.539651299E1,-1.285087705E0
4.554349271E0,-4.370615005E0,1.535820580E1,-1.323395014E0
4.556836979E0,-4.317942619E0,1.531989765E1,-1.419163108E0
4.559324687E0,-4.298789024E0,1.525286007E1,-1.495777488E0
4.561812396E0,-4.255693436E0,1.515230370E1,-1.658583283E0
4.564300104E0,-4.203021049E0,1.503738213E1,-1.854907751E0
4.566787864E0,-4.116829872E0,1.492246056E1,-1.984194636E0
4.569275625E0,-4.059369087E0,1.476444340E1,-2.089539528E0
4.571763385E0,-3.992331266E0,1.461121464E1,-2.204461098E0
4.574251146E0,-3.920505285E0,1.446277428E1,-2.305017710E0
4.576738906E0,-3.834314108E0,1.430954456E1,-2.439092875E0
4.579226667E0,-3.752911091E0,1.416589260E1,-2.453458309E0
4.581714427E0,-3.685873508E0,1.406054783E1,-2.477400303E0
4.584202187E0,-3.661931515E0,1.394562626E1,-2.506130695E0
4.586689948E0,-3.666719913E0,1.388816547E1,-2.482188702E0
4.589177708E0,-3.676296711E0,1.384506989E1,-2.477400303E0
4.591665469E0,-3.661931515E0,1.383549309E1,-2.506130695E0
4.594153229E0,-3.628412724E0,1.385464668E1,-2.530072689E0
4.596640989E0,-3.570951939E0,1.388337708E1,-2.510919094E0
4.599128750E0,-3.518279314E0,1.391210747E1,-2.439092875E0
4.601616510E0,-3.441664934E0,1.395041466E1,-2.372055292E0
4.604104271E0,-3.355473757E0,1.395999146E1,-2.319382906E0
4.606592031E0,-3.269282341E0,1.395041466E1,-2.237980127E0
4.609079792E0,-3.221398354E0,1.392168427E1,-2.194884300E0
4.611567552E0,-3.197456360E0,1.385943508E1,-2.175730705E0
4.614055312E0,-3.168725967E0,1.377803230E1,-2.170942307E0
4.616543073E0,-3.120841980E0,1.364874554E1,-2.103904724E0
4.619030833E0,-3.068169594E0,1.352424717E1,-2.075174332E0
4.621518594E0,-3.010708570E0,1.338538361E1,-2.084751129E0
4.624006354E0,-2.977189779E0,1.320821190E1,-2.099116325E0
4.626494114E0,-2.953247786E0,1.304061794E1,-2.137423515E0
4.628981875E0,-2.943670988E0,1.283950520E1,-2.199672699E0
4.631469635E0,-2.953247786E0,1.265275764E1,-2.305017710E0
4.633957396E0,-2.958036184E0,1.249474049E1,-2.458246708E0
4.636445156E0,-2.948459387E0,1.233193398E1,-2.616263866E0
4.638932917E0,-2.929305792E0,1.217391682E1,-2.731185675E0
4.641420677E0,-2.852691412E0,1.204463005E1,-2.807800055E0
4.643908437E0,-2.737769604E0,1.190097809E1,-2.846107244E0
4.646396198E0,-2.618059635E0,1.177647972E1,-2.807800055E0
4.648883958E0,-2.507926226E0,1.168071175E1,-2.750339270E0
4.651371719E0,-2.436100245E0,1.159930897E1,-2.716820478E0
4.653859479E0,-2.407369852E0,1.153705978E1,-2.659359455E0
4.656347239E0,-2.407369852E0,1.146523380E1,-2.644994259E0
4.658835000E0,-2.431311846E0,1.142692661E1,-2.702455282E0
4.661322760E0,-2.493561029E0,1.137904167E1,-2.764704466E0
4.663810521E0,-2.579752445E0,1.133115768E1,-2.807800055E0
4.666298281E0,-2.656366825E0,1.134073448E1,-2.903568029E0
4.668786042E0,-2.675520420E0,1.135988808E1,-2.965817451E0
4.671273802E0,-2.622848034E0,1.136946487E1,-2.970605850E0
4.673761562E0,-2.479195833E0,1.136467648E1,-2.898779631E0
4.676249323E0,-2.287659645E0,1.135988808E1,-2.726397276E0
4.678737083E0,-2.086546898E0,1.130721569E1,-2.525284290E0
4.681224844E0,-1.952471495E0,1.123060131E1,-2.328959703E0
4.683712604E0,-1.866280198E0,1.112046814E1,-2.247556925E0
4.686200364E0,-1.823184609E0,1.098639297E1,-2.233191729E0
4.688688125E0,-1.818396211E0,1.081879902E1,-2.209249735E0
4.691175885E0,-1.813607812E0,1.064641666E1,-2.084751129E0
4.693663646E0,-1.818396211E0,1.043572712E1,-1.888426542E0
4.696151406E0,-1.827973008E0,1.017715263E1,-1.706467271E0
4.698639167E0,-1.832761407E0,9.904213905E0,-1.644217968E0
4.701126927E0,-1.837549806E0,9.650428772E0,-1.749562860E0
4.703614687E0,-1.861491799E0,9.439739227E0,-2.022501945E0
4.706102448E0,-1.895010591E0,9.267355919E0,-2.352901697E0
4.708590208E0,-1.909375906E0,9.147645950E0,-2.664147854E0
4.711077917E0,-1.871068597E0,9.032724380E0,-2.860472441E0
4.713565625E0,-1.770512104E0,8.946533203E0,-2.961029053E0
4.716053333E0,-1.602918029E0,8.874707222E0,-2.970605850E0
4.718541042E0,-1.411381960E0,8.802881241E0,-2.831742048E0
4.721028750E0,-1.224634171E0,8.750208855E0,-2.573168278E0
4.723516458E0,-1.066616893E0,8.721478462E0,-2.285864115E0
4.726004167E0,-1.013944387E0,8.692748070E0,-2.036867142E0
4.728491875E0,-1.004367590E0,8.678382874E0,-1.917157054E0
4.730979583E0,-1.071405292E0,8.683171272E0,-1.902791858E0
4.733467292E0,-1.224634171E0,8.664017677E0,-1.988983035E0
4.735955000E0,-1.416170359E0,8.644864082E0,-2.084751129E0
4.738442708E0,-1.660378933E0,8.611345291E0,-2.147000313E0
4.740930417E0,-1.899798989E0,8.587403297E0,-2.166153908E0
4.743418125E0,-2.076969862E0,8.549096107E0,-2.118269920E0
4.745905833E0,-2.196680069E0,8.496423721E0,-2.008136749E0
4.748393542E0,-2.234987259E0,8.400654793E0,-1.864484549E0
4.750881250E0,-2.187103271E0,8.261791229E0,-1.663371682E0
4.753368958E0,-2.096123695E0,8.075043678E0,-1.414374709E0
4.755856667E0,-2.019509077E0,7.883507729E0,-1.227626920E0
4.758344375E0,-1.976413488E0,7.701548100E0,-1.151012421E0
4.760832083E0,-1.971625090E0,7.533954144E0,-1.174954534E0
4.763319792E0,-1.995567083E0,7.380725384E0,-1.232415318E0
4.765807500E0,-2.024297476E0,7.280169010E0,-1.304241419E0
4.768295208E0,-2.019509077E0,7.155670166E0,-1.371279001E0
4.770782917E0,-2.024297476E0,7.050325394E0,-1.447893500E0
4.773270625E0,-2.029085875E0,6.935403824E0,-1.567603588E0
4.775758333E0,-1.971625090E0,6.825270653E0,-1.615487576E0
4.778246042E0,-1.842338204E0,6.667253017E0,-1.653794765E0
4.780733750E0,-1.713051319E0,6.523601055E0,-1.739986062E0
4.783221458E0,-1.602918029E0,6.351218700E0,-1.835754156E0
4.785709167E0,-1.578976035E0,6.178835869E0,-2.008136749E0
4.788196875E0,-1.598129630E0,6.068702698E0,-2.261922121E0
4.790684583E0,-1.669955730E0,5.968146324E0,-2.582745075E0
4.793172292E0,-1.780089021E0,5.925050735E0,-2.917933226E0
4.795660000E0,-1.866280198E0,5.905897141E0,-3.224391222E0
4.798147708E0,-1.933317900E0,5.920262337E0,-3.511695385E0
4.800635417E0,-1.933317900E0,5.953781128E0,-3.746327162E0
4.803123125E0,-1.856703401E0,5.992088318E0,-3.842095137E0
4.805610833E0,-1.674744129E0,6.020818710E0,-3.818153143E0
4.808098542E0,-1.468842745E0,6.063914299E0,-3.607463360E0
4.810586250E0,-1.253364563E0,6.107009888E0,-3.267486811E0
4.813073958E0,-1.104924083E0,6.116586685E0,-2.917933226E0
4.815561667E0,-1.071405292E0,6.140528679E0,-2.673724651E0
4.818049375E0,-1.119289279E0,6.193201065E0,-2.601898670E0
4.820537135E0,-1.262941360E0,6.274604321E0,-2.697666883E0
4.823024896E0,-1.473631144E0,6.389525890E0,-2.874837637E0
4.825512656E0,-1.713051319E0,6.514024258E0,-3.071162224E0
4.828000417E0,-1.928529501E0,6.657676220E0,-3.224391222E0
4.830488177E0,-2.053027868E0,6.801328659E0,-3.286640406E0
4.832975937E0,-2.086546898E0,6.897096634E0,-3.243544817E0
4.835463698E0,-2.057816267E0,6.983287811E0,-3.157353401E0
4.837951458E0,-1.990778685E0,7.045536995E0,-2.951452255E0
4.840439219E0,-1.899798989E0,7.126939774E0,-2.721608877E0
4.842926979E0,-1.832761407E0,7.189188957E0,-2.520495892E0
4.845414739E0,-1.775300503E0,7.198765755E0,-2.319382906E0
4.847902500E0,-1.756146908E0,7.203554153E0,-2.147000313E0
4.850390260E0,-1.746570110E0,7.170035362E0,-2.065597534E0
4.852878021E0,-1.765723705E0,7.107786179E0,-2.046443939E0
4.855365781E0,-1.775300503E0,7.016806602E0,-1.974617839E0
4.857853542E0,-1.784877419E0,6.921038628E0,-1.974617839E0
4.860341302E0,-1.880645394E0,6.815693855E0,-1.965041041E0
4.862829062E0,-2.033874273E0,6.719925404E0,-1.955464244E0
4.865316823E0,-2.254140854E0,6.667253017E0,-1.955464244E0
4.867804583E0,-2.512714624E0,6.614580631E0,-1.965041041E0
4.870292344E0,-2.756923199E0,6.537966251E0,-1.902791858E0
4.872780104E0,-3.025073767E0,6.734290600E0,-2.855684042E0
4.875267864E0,-2.910152197E0,6.600215435E0,-2.510919094E0
4.877755625E0,-2.867056608E0,6.432621479E0,-1.888426542E0
4.880243385E0,-2.732981205E0,6.384737492E0,-1.984194636E0
4.882731146E0,-2.589329243E0,6.418256283E0,-2.300229311E0
4.885218906E0,-2.522291422E0,6.466140270E0,-2.563591480E0
4.887706667E0,-2.551021814E0,6.581061840E0,-2.937086821E0
4.890194427E0,-2.656366825E0,6.763021469E0,-3.214814425E0
4.892682187E0,-2.718616009E0,6.983287811E0,-3.339312792E0
4.895169948E0,-2.661155224E0,7.213130951E0,-3.315370798E0
4.897657708E0,-2.412158251E0,7.419032574E0,-3.123834610E0
4.900145469E0,-2.086546898E0,7.548319340E0,-2.798223257E0
4.902633229E0,-1.765723705E0,7.600991726E0,-2.338536501E0
4.905120989E0,-1.535880446E0,7.586626530E0,-1.902791858E0
4.907608750E0,-1.444900751E0,7.538742542E0,-1.524507880E0
4.910096510E0,-1.454477549E0,7.452551365E0,-1.160589218E0
4.912584271E0,-1.487996340E0,7.351994991E0,-8.014590144E-1
4.915072031E0,-1.468842745E0,7.237073421E0,-4.519055784E-1
4.917559792E0,-1.320402265E0,7.088632584E0,-1.310825497E-1
4.920047552E0,-1.080982089E0,6.954557419E0,1.562216580E-1
4.922535312E0,-8.750807047E-1,6.863577843E0,3.908534348E-1
4.925023073E0,-6.500257850E-1,6.724713802E0,5.440823436E-1
4.927510833E0,-4.537012279E-1,6.504447460E0,7.116764784E-1
4.929998594E0,-3.722983599E-1,6.351218700E0,6.159083843E-1
4.932486354E0,-3.722983599E-1,6.063914299E0,5.584475398E-1
4.934974114E0,-4.776432514E-1,5.757456303E0,4.435258508E-1
4.937461875E0,-6.356605291E-1,5.446210384E0,5.566519126E-2
4.939949635E0,-9.516952038E-1,5.197213173E0,-3.274070919E-1
4.942437396E0,-1.435323954E0,5.048772812E0,-7.248445749E-1
4.944925156E0,-1.746570110E0,4.761468410E0,-7.535749674E-1
4.947412917E0,-1.741781712E0,4.306570530E0,-3.082534671E-1
4.949900677E0,-2.115277290E0,4.517260075E0,-1.107916832E0
4.952388437E0,-2.694674015E0,4.512471676E0,-1.342548609E0
4.954876198E0,-2.890998602E0,4.148552895E0,-9.929951429E-1
4.957363958E0,-2.790441990E0,3.933074951E0,-1.069609642E0
4.959851719E0,-2.613271236E0,3.559579372E0,-6.769605279E-1
4.962339479E0,-2.574964046E0,3.439869404E0,-3.465606868E-1
4.964827187E0,-2.728192806E0,3.731961966E0,-4.375403523E-1
4.967314896E0,-2.890998602E0,4.215590477E0,-5.428852439E-1
4.969802604E0,-2.977189779E0,4.617816448E0,-4.758476019E-1
4.972290312E0,-2.847903013E0,4.771045208E0,-1.837549806E-1
4.974778021E0,-2.579752445E0,4.885967255E0,-2.364274114E-1
4.977265729E0,-2.273294449E0,4.885967255E0,-1.741781682E-1
4.979753437E0,-1.933317900E0,4.881178856E0,-8.319851011E-2
4.982241146E0,-1.511938334E0,4.689642429E0,3.669114113E-1
4.984728854E0,-1.095347285E0,4.665700436E0,7.499836683E-1
4.987216562E0,-1.320402265E0,5.101445198E0,2.693476900E-2
4.989704271E0,-2.048239470E0,5.518036366E0,-8.014590144E-1
4.992191979E0,-2.560598612E0,5.369596004E0,1.514332592E-1
4.994679687E0,-2.555810213E0,5.383961201E0,-7.296329737E-1
4.997167396E0,-2.263717651E0,5.178059578E0,-1.567603588E0
4.999655104E0,-1.847126603E0,4.761468410E0,-1.122282028E0
5.002142812E0,-1.373074651E0,4.541202068E0,-7.870938182E-1
5.004630521E0,-1.037886381E0,4.579509258E0,-6.625953317E-1
5.007118229E0,-9.038111567E-1,4.737526417E0,-5.476736426E-1
5.009605937E0,-9.516952038E-1,4.871602058E0,-3.752911091E-1
5.012093646E0,-1.085770488E0,4.933851242E0,-2.364274114E-1
5.014581354E0,-1.306037068E0,4.938639641E0,-1.454477459E-1
5.017069062E0,-1.612494826E0,4.938639641E0,-1.358709484E-1
5.019556771E0,-1.847126603E0,4.838083267E0,-4.489128292E-2
5.022044479E0,-1.823184609E0,4.794987679E0,9.876082093E-2
5.024532187E0,-2.067393064E0,5.106233597E0,-3.944447339E-1
5.027019896E0,-2.498349428E0,5.570708752E0,-4.758476019E-1
5.029507604E0,-2.598906040E0,5.944204330E0,-4.135983288E-1
5.031995312E0,-2.369062662E0,6.121375084E0,-4.279635549E-1
5.034483021E0,-2.038662672E0,6.140528679E0,-3.513490856E-1
5.036970729E0,-1.837549806E0,6.236296654E0,-2.986766696E-1
5.039458437E0,-1.880645394E0,6.470928669E0,-3.130418658E-1
5.041946146E0,-2.067393064E0,6.806117058E0,-3.657143116E-1
5.044433854E0,-2.206256866E0,7.093420982E0,-3.657143116E-1
5.046921562E0,-2.172738075E0,7.280169010E0,-3.513490856E-1
5.049409271E0,-2.009932280E0,7.361571789E0,-2.651578486E-1
5.051896979E0,-1.789665818E0,7.356783390E0,-1.981201917E-1
5.054384687E0,-1.569399238E0,7.342418194E0,-1.119289324E-1
5.056872396E0,-1.416170359E0,7.399878979E0,-1.550245583E-1
5.059360104E0,-1.339555860E0,7.490858555E0,-2.460042238E-1
5.061847812E0,-1.339555860E0,7.672817707E0,-3.130418658E-1
5.064335521E0,-1.358709455E0,7.921814919E0,-3.657143116E-1
5.066823229E0,-1.382651448E0,8.170811653E0,-3.896563351E-1
5.069310937E0,-1.373074651E0,8.352770805E0,-4.231751561E-1
5.071798698E0,-1.320402265E0,8.496423721E0,-4.231751561E-1
5.074286458E0,-1.306037068E0,8.616133690E0,-3.896563351E-1
5.076774219E0,-1.401805043E0,8.778939247E0,-3.561375141E-1
5.079261979E0,-1.540668845E0,8.941744804E0,-2.986766696E-1
5.081749739E0,-1.713051319E0,9.066243172E0,-2.124854028E-1
5.084237500E0,-1.904587507E0,9.195529938E0,-1.646013707E-1
5.086725260E0,-2.144007683E0,9.358335495E0,-1.119289324E-1
5.089213021E0,-2.412158251E0,9.578602791E0,-5.446808785E-2
5.091701042E0,-2.637213230E0,9.736619949E0,1.735796221E-2
5.094189062E0,-2.742558002E0,9.846753120E0,1.083376259E-1
5.096677083E0,-2.713827610E0,9.861118317E0,1.897404790E-1
5.099165052E0,-2.637213230E0,9.856329918E0,2.519897223E-1
5.101652760E0,-2.603694439E0,9.885060310E0,2.759317458E-1
5.104140469E0,-2.661155224E0,9.966463089E0,2.088941038E-1
5.106628177E0,-2.833537817E0,1.012448025E1,1.131260321E-1
5.109115885E0,-3.025073767E0,1.031601620E1,-6.584054790E-3
5.111603594E0,-3.183091164E0,1.047882271E1,-6.404489279E-2
5.114091302E0,-3.259705544E0,1.056501389E1,-6.883329898E-2
5.116579010E0,-3.207033157E0,1.061289787E1,-5.925649032E-2
5.119066719E0,-3.106476784E0,1.068472385E1,-7.362170517E-2
5.121554427E0,-3.034650564E0,1.076133823E1,-1.119289324E-1
5.124042135E0,-3.020285368E0,1.092414379E1,-1.646013707E-1
5.126529844E0,-3.015496969E0,1.106300735E1,-2.220622003E-1
5.129017552E0,-3.020285368E0,1.118750572E1,-2.555810213E-1
5.131505260E0,-3.025073767E0,1.123060131E1,-2.507926226E-1
5.133992969E0,-2.996343374E0,1.123060131E1,-2.507926226E-1
5.136480677E0,-3.005920172E0,1.122102451E1,-2.507926226E-1
5.138968385E0,-3.020285368E0,1.120665932E1,-2.938882709E-1
5.141456094E0,-3.082534790E0,1.121144772E1,-3.130418658E-1
5.143943802E0,-3.144783974E0,1.122581291E1,-2.843114436E-1
5.146431510E0,-3.178302765E0,1.122581291E1,-2.603694201E-1
5.148919219E0,-3.211821556E0,1.124017811E1,-2.124854028E-1
5.151406927E0,-3.221398354E0,1.123060131E1,-1.646013707E-1
5.153894635E0,-3.240551949E0,1.125454330E1,-9.277531505E-2
5.156382344E0,-3.259705544E0,1.125454330E1,1.735796221E-2
5.158870052E0,-3.250128746E0,1.124496651E1,1.322796494E-1
5.161357760E0,-3.240551949E0,1.120187092E1,2.663549483E-1
5.163845469E0,-3.216609955E0,1.113962173E1,4.004302323E-1
5.166333177E0,-3.163937569E0,1.107737255E1,4.961982965E-1
5.168820885E0,-3.106476784E0,1.099596977E1,5.680243373E-1
5.171308594E0,-3.092111588E0,1.090977859E1,6.302735806E-1
5.173796302E0,-3.039438963E0,1.081401062E1,6.590040326E-1
