"Time (s)","Acceleration x (m/s^2)","Acceleration y (m/s^2)","Acceleration z (m/s^2)"
9.274479100E-2,-8.894459605E-1,-9.469666481E0,2.306214809E0
9.529479100E-2,-8.942343593E-1,-9.460089684E0,2.301426411E0
9.784479100E-2,-8.702923059E-1,-9.464878082E0,2.282272816E0
1.003947910E-1,-8.559271097E-1,-9.469666481E0,2.267907619E0
1.029447910E-1,-8.607155085E-1,-9.474454880E0,2.291849613E0
1.054947910E-1,-8.463503122E-1,-9.469666481E0,2.296638012E0
1.080447910E-1,-8.271966577E-1,-9.460089684E0,2.306214809E0
1.105947910E-1,-8.128314614E-1,-9.440936089E0,2.320580006E0
1.131447910E-1,-8.128314614E-1,-9.436147690E0,2.320580006E0
1.156947910E-1,-8.224082589E-1,-9.407417297E0,2.334945202E0
1.182447910E-1,-8.415619135E-1,-9.393052101E0,2.354098797E0
1.207947910E-1,-8.559271097E-1,-9.373898506E0,2.344521999E0
1.233447910E-1,-8.702923059E-1,-9.354744911E0,2.325368404E0
1.258947910E-1,-8.942343593E-1,-9.359533310E0,2.315791607E0
1.284447910E-1,-9.373299479E-1,-9.364321709E0,2.296638012E0
1.309947910E-1,-9.660604000E-1,-9.369110107E0,2.277484417E0
1.335447910E-1,-9.660604000E-1,-9.383475304E0,2.263119221E0
1.360947910E-1,-9.852139950E-1,-9.397840500E0,2.258330822E0
1.386447910E-1,-1.018732786E0,-9.393052101E0,2.253542423E0
1.411947910E-1,-1.028309584E0,-9.402628899E0,2.263119221E0
1.437447910E-1,-1.023521185E0,-9.421782494E0,2.253542423E0
1.462947910E-1,-1.018732786E0,-9.407417297E0,2.258330822E0
1.488447910E-1,-9.995791912E-1,-9.431359291E0,2.253542423E0
1.513947910E-1,-9.947907925E-1,-9.431359291E0,2.263119221E0
1.539447910E-1,-9.852139950E-1,-9.421782494E0,2.272696018E0
1.564947910E-1,-9.852139950E-1,-9.436147690E0,2.301426411E0
1.590447910E-1,-9.564836025E-1,-9.416994095E0,2.287061214E0
1.615947910E-1,-9.564836025E-1,-9.407417297E0,2.306214809E0
1.641447910E-1,-9.277531505E-1,-9.402628899E0,2.311003208E0
1.666947910E-1,-9.229647517E-1,-9.378686905E0,2.320580006E0
1.692447910E-1,-9.085995555E-1,-9.364321709E0,2.306214809E0
1.717947910E-1,-8.846575022E-1,-9.373898506E0,2.291849613E0
1.743447910E-1,-8.559271097E-1,-9.373898506E0,2.301426411E0
1.768947910E-1,-8.319851160E-1,-9.354744911E0,2.291849613E0
1.794447910E-1,-7.984662652E-1,-9.359533310E0,2.282272816E0
1.819947910E-1,-7.936778665E-1,-9.349956512E0,2.277484417E0
1.845447910E-1,-7.745242715E-1,-9.345168114E0,2.272696018E0
1.870947910E-1,-7.601590157E-1,-9.345168114E0,2.272696018E0
1.896447910E-1,-7.362170219E-1,-9.316437721E0,2.282272816E0
1.921947910E-1,-7.362170219E-1,-9.326014519E0,2.301426411E0
1.947447910E-1,-7.505822182E-1,-9.316437721E0,2.301426411E0
1.972947910E-1,-7.601590157E-1,-9.292495728E0,2.296638012E0
1.998188540E-1,-7.601590157E-1,-9.302072525E0,2.301426411E0
2.023066140E-1,-7.841010690E-1,-9.306860924E0,2.267907619E0
2.047943230E-1,-7.984662652E-1,-9.316437721E0,2.253542423E0
2.072820310E-1,-8.224082589E-1,-9.316437721E0,2.253542423E0
2.097697390E-1,-8.559271097E-1,-9.306860924E0,2.267907619E0
2.122574480E-1,-8.798691034E-1,-9.302072525E0,2.253542423E0
2.147451560E-1,-9.038111567E-1,-9.306860924E0,2.272696018E0
2.172335930E-1,-9.277531505E-1,-9.306860924E0,2.282272816E0
2.197210410E-1,-9.612720013E-1,-9.306860924E0,2.287061214E0
2.222084890E-1,-9.660604000E-1,-9.335591316E0,2.311003208E0
2.246959370E-1,-9.947907925E-1,-9.326014519E0,2.315791607E0
2.271833850E-1,-9.995791912E-1,-9.326014519E0,2.306214809E0
2.296708330E-1,-1.009155989E0,-9.326014519E0,2.301426411E0
2.321582810E-1,-1.004367590E0,-9.335591316E0,2.320580006E0
2.346457810E-1,-9.995791912E-1,-9.340379715E0,2.315791607E0
2.371333330E-1,-1.004367590E0,-9.316437721E0,2.306214809E0
2.396209370E-1,-9.852139950E-1,-9.321226120E0,2.306214809E0
2.421085930E-1,-9.852139950E-1,-9.311649323E0,2.306214809E0
2.445963020E-1,-9.660604000E-1,-9.311649323E0,2.296638012E0
2.470840620E-1,-9.612720013E-1,-9.311649323E0,2.301426411E0
2.495718750E-1,-9.612720013E-1,-9.306860924E0,2.311003208E0
2.520597390E-1,-9.325415492E-1,-9.306860924E0,2.330156803E0
2.545476560E-1,-8.942343593E-1,-9.306860924E0,2.339733601E0
2.570355730E-1,-8.607155085E-1,-9.326014519E0,2.373252392E0
2.595234890E-1,-8.463503122E-1,-9.311649323E0,2.406771183E0
2.620114060E-1,-8.271966577E-1,-9.311649323E0,2.440289974E0
2.644993230E-1,-8.128314614E-1,-9.335591316E0,2.445078373E0
2.669872390E-1,-7.984662652E-1,-9.335591316E0,2.445078373E0
2.694751560E-1,-7.984662652E-1,-9.349956512E0,2.459443808E0
2.719630730E-1,-7.793126702E-1,-9.345168114E0,2.473809004E0
2.744508850E-1,-7.888894677E-1,-9.359533310E0,2.459443808E0
2.769385930E-1,-7.841010690E-1,-9.359533310E0,2.435501575E0
2.794263020E-1,-7.745242715E-1,-9.354744911E0,2.421136379E0
2.819140100E-1,-7.553706169E-1,-9.340379715E0,2.425924778E0
2.844017180E-1,-7.505822182E-1,-9.316437721E0,2.445078373E0
2.868894270E-1,-7.314286232E-1,-9.306860924E0,2.459443808E0
2.893771350E-1,-7.170634270E-1,-9.306860924E0,2.464232206E0
2.918648430E-1,-7.410054207E-1,-9.287707329E0,2.488174200E0
2.943525520E-1,-7.505822182E-1,-9.268553734E0,2.464232206E0
2.968402600E-1,-7.745242715E-1,-9.254188538E0,2.449866772E0
2.993279680E-1,-7.697358727E-1,-9.249400139E0,2.459443808E0
3.018156770E-1,-7.841010690E-1,-9.235034943E0,2.411559582E0
3.043033850E-1,-7.984662652E-1,-9.225458145E0,2.397194386E0
3.067910930E-1,-7.697358727E-1,-9.220669746E0,2.368463993E0
3.092788020E-1,-7.745242715E-1,-9.211092949E0,2.349310398E0
3.117665100E-1,-7.697358727E-1,-9.215881348E0,2.334945202E0
3.142542180E-1,-7.745242715E-1,-9.235034943E0,2.325368404E0
3.167419270E-1,-7.601590157E-1,-9.220669746E0,2.330156803E0
3.192296350E-1,-7.697358727E-1,-9.225458145E0,2.339733601E0
3.217173430E-1,-7.984662652E-1,-9.206304550E0,2.339733601E0
3.242050520E-1,-8.080430627E-1,-9.201516151E0,2.320580006E0
3.266927600E-1,-8.224082589E-1,-9.187150002E0,2.311003208E0
3.291804680E-1,-8.224082589E-1,-9.182361603E0,2.291849613E0
3.316681770E-1,-8.271966577E-1,-9.177573204E0,2.267907619E0
3.341558850E-1,-8.271966577E-1,-9.148842812E0,2.253542423E0
3.366435930E-1,-8.271966577E-1,-9.120112419E0,2.234388828E0
3.391313020E-1,-8.224082589E-1,-9.105747223E0,2.258330822E0
3.416190100E-1,-8.032546639E-1,-9.086593628E0,2.272696018E0
3.441067180E-1,-7.793126702E-1,-9.077016830E0,2.296638012E0
3.465944270E-1,-7.601590157E-1,-9.086593628E0,2.301426411E0
3.490821350E-1,-7.505822182E-1,-9.091382027E0,2.349310398E0
3.515698430E-1,-7.410054207E-1,-9.091382027E0,2.354098797E0
3.540575520E-1,-7.074866295E-1,-9.091382027E0,2.358887196E0
3.565452600E-1,-6.931213737E-1,-9.105747223E0,2.392405987E0
3.590329680E-1,-6.739677787E-1,-9.115324020E0,2.387617588E0
3.615206770E-1,-6.356605291E-1,-9.129689217E0,2.387617588E0
3.640083850E-1,-6.021417379E-1,-9.115324020E0,2.401982784E0
3.664960930E-1,-5.877765417E-1,-9.100958824E0,2.401982784E0
3.689838020E-1,-5.398924947E-1,-9.091382027E0,2.421136379E0
3.714715100E-1,-5.111620426E-1,-9.072228432E0,2.397194386E0
3.739592180E-1,-4.824316502E-1,-9.067440033E0,2.392405987E0
3.764469270E-1,-4.680664241E-1,-9.048286438E0,2.397194386E0
3.789346350E-1,-4.584896266E-1,-9.029132843E0,2.387617588E0
3.814223430E-1,-4.489128292E-1,-9.000402451E0,2.373252392E0
3.839100520E-1,-4.345476031E-1,-8.957306862E0,2.368463993E0
3.863977600E-1,-4.393360019E-1,-8.928576469E0,2.382829189E0
3.888854680E-1,-4.776432514E-1,-8.918999672E0,2.416347980E0
3.913731770E-1,-4.920084476E-1,-8.895057678E0,2.454655409E0
3.938608850E-1,-5.207388401E-1,-8.875904083E0,2.454655409E0
3.963486460E-1,-5.351040959E-1,-8.856750488E0,2.449866772E0
3.988364060E-1,-5.446808934E-1,-8.847173691E0,2.416347980E0
4.013241660E-1,-5.446808934E-1,-8.823231697E0,2.382829189E0
4.038119270E-1,-5.446808934E-1,-8.818443298E0,2.373252392E0
4.062996870E-1,-5.159504414E-1,-8.799289703E0,2.363675594E0
4.087874480E-1,-4.872200489E-1,-8.799289703E0,2.382829189E0
4.112752080E-1,-4.967968464E-1,-8.775347710E0,2.373252392E0
4.137629680E-1,-4.920084476E-1,-8.756194115E0,2.373252392E0
4.162507290E-1,-4.824316502E-1,-8.741828918E0,2.368463993E0
4.187384890E-1,-5.063736439E-1,-8.727463722E0,2.315791607E0
4.212262500E-1,-5.159504414E-1,-8.703521729E0,2.243965626E0
4.237140100E-1,-5.207388401E-1,-8.674791336E0,2.176927805E0
4.262017710E-1,-5.494692922E-1,-8.650849342E0,2.105101824E0
4.286895310E-1,-5.781996846E-1,-8.626907349E0,2.028487444E0
4.311772910E-1,-5.734112859E-1,-8.602965355E0,1.990180135E0
4.336650520E-1,-5.925649405E-1,-8.564658165E0,1.980603337E0
4.361528120E-1,-5.925649405E-1,-8.535927773E0,1.961449742E0
4.386405730E-1,-5.877765417E-1,-8.488043785E0,1.932719350E0
4.411283330E-1,-5.781996846E-1,-8.464101791E0,1.918354154E0
4.436160930E-1,-5.781996846E-1,-8.435371399E0,1.923142552E0
4.461038540E-1,-5.542576909E-1,-8.401852608E0,1.937507749E0
4.485916140E-1,-5.446808934E-1,-8.397064209E0,1.971026540E0
4.510793750E-1,-5.446808934E-1,-8.353968620E0,1.951872945E0
4.535671350E-1,-5.398924947E-1,-8.320449829E0,1.913565755E0
4.560548960E-1,-5.542576909E-1,-8.286931038E0,1.899200439E0
4.585426560E-1,-5.542576909E-1,-8.239047050E0,1.923142552E0
4.610304160E-1,-5.351040959E-1,-8.219893456E0,1.894412041E0
4.635181770E-1,-5.015852451E-1,-8.191162109E0,1.870470047E0
4.660059370E-1,-4.776432514E-1,-8.162431717E0,1.846528053E0
4.684936980E-1,-4.393360019E-1,-8.124124527E0,1.865681648E0
4.709814580E-1,-3.914519846E-1,-8.100182533E0,1.865681648E0
4.734692180E-1,-3.627215624E-1,-8.081028938E0,1.889623642E0
4.759569790E-1,-3.100491166E-1,-8.047510147E0,1.918354154E0
4.784447390E-1,-2.717418969E-1,-8.028356552E0,1.942296147E0
4.809325000E-1,-2.334346622E-1,-7.994838238E0,1.947084546E0
4.834202600E-1,-1.999158412E-1,-8.009202957E0,1.927930951E0
4.859080210E-1,-1.903390288E-1,-7.994838238E0,1.971026540E0
4.883957810E-1,-1.711854190E-1,-8.004414558E0,2.028487444E0
4.908835410E-1,-1.568202078E-1,-7.970896244E0,2.105101824E0
4.933713020E-1,-1.568202078E-1,-7.961318970E0,2.152985811E0
4.958590620E-1,-1.472434103E-1,-7.961318970E0,2.186504602E0
4.983468230E-1,-1.424549967E-1,-7.946953773E0,2.200869799E0
5.008345830E-1,-1.520318091E-1,-7.932588577E0,2.229600430E0
5.033223430E-1,-1.424549967E-1,-7.899069786E0,2.239177227E0
5.058101040E-1,-1.568202078E-1,-7.884704590E0,2.253542423E0
5.082978640E-1,-1.520318091E-1,-7.875127792E0,2.253542423E0
5.107856250E-1,-1.759738177E-1,-7.827243805E0,2.224812031E0
5.132733850E-1,-2.190694511E-1,-7.788936615E0,2.196081400E0
5.157611460E-1,-2.477998734E-1,-7.755417824E0,2.167351007E0
5.182489060E-1,-2.861070931E-1,-7.707533836E0,2.138620615E0
5.207366660E-1,-3.387795389E-1,-7.693168640E0,2.090736628E0
5.232243750E-1,-4.010287821E-1,-7.674015045E0,2.023699045E0
5.257120830E-1,-4.489128292E-1,-7.635707855E0,1.966238141E0
5.281997910E-1,-4.680664241E-1,-7.621342659E0,1.875258446E0
5.306875000E-1,-5.063736439E-1,-7.602189064E0,1.793855667E0
5.331752080E-1,-5.303156972E-1,-7.597400665E0,1.722029567E0
5.356629160E-1,-5.494692922E-1,-7.592612267E0,1.664568782E0
5.381506250E-1,-5.686228871E-1,-7.573458672E0,1.597531080E0
5.406383330E-1,-5.829881430E-1,-7.559093475E0,1.535281897E0
5.431260410E-1,-6.212953329E-1,-7.544728279E0,1.458667397E0
5.456137500E-1,-6.404489279E-1,-7.511209488E0,1.415571809E0
5.481014580E-1,-6.739677787E-1,-7.472901821E0,1.372476101E0
5.505891660E-1,-7.314286232E-1,-7.425017834E0,1.324592113E0
5.530768750E-1,-7.649474144E-1,-7.381922245E0,1.281496406E0
5.555645830E-1,-8.176198602E-1,-7.324461460E0,1.243189216E0
5.580522910E-1,-8.559271097E-1,-7.262212276E0,1.233612418E0
5.605400000E-1,-8.607155085E-1,-7.204751492E0,1.233612418E0
5.630277080E-1,-8.607155085E-1,-7.142502308E0,1.233612418E0
5.655154160E-1,-8.367735147E-1,-7.080253124E0,1.271919608E0
5.680031250E-1,-8.224082589E-1,-7.018003941E0,1.300650120E0
5.704908330E-1,-8.032546639E-1,-6.936600685E0,1.358110905E0
5.729785410E-1,-7.841010690E-1,-6.879139900E0,1.372476101E0
5.754662500E-1,-7.649474144E-1,-6.831255913E0,1.401206493E0
5.779539580E-1,-7.362170219E-1,-6.773795128E0,1.391629696E0
5.804416660E-1,-7.026981711E-1,-6.711545944E0,1.391629696E0
5.829293750E-1,-6.883329749E-1,-6.649296761E0,1.367687702E0
5.854170830E-1,-6.691793799E-1,-6.582259178E0,1.358110905E0
5.879047910E-1,-6.452373862E-1,-6.524798393E0,1.358110905E0
5.903925000E-1,-6.165069342E-1,-6.476913929E0,1.343745708E0
5.928802080E-1,-5.781996846E-1,-6.424241543E0,1.348534107E0
5.953679160E-1,-5.590460896E-1,-6.400299549E0,1.338957310E0
5.978556250E-1,-5.255272985E-1,-6.338050365E0,1.295861721E0
6.003433330E-1,-4.920084476E-1,-6.309319973E0,1.233612418E0
6.028310410E-1,-4.632780254E-1,-6.294954777E0,1.190516829E0
6.053187500E-1,-4.249708056E-1,-6.275801182E0,1.176151633E0
6.078064580E-1,-3.818751574E-1,-6.261435986E0,1.171363235E0
6.102941660E-1,-3.435679376E-1,-6.280589581E0,1.123479128E0
6.127818750E-1,-3.387795389E-1,-6.275801182E0,1.066018343E0
6.152695830E-1,-3.339911401E-1,-6.266224384E0,1.013345838E0
6.177572910E-1,-3.387795389E-1,-6.261435986E0,9.319429994E-1
6.202450000E-1,-3.579331636E-1,-6.275801182E0,8.840589523E-1
6.227327080E-1,-3.866635859E-1,-6.271012783E0,8.265981078E-1
6.252204160E-1,-3.866635859E-1,-6.285377979E0,7.595604658E-1
6.277081250E-1,-4.106055796E-1,-6.299743176E0,7.260416746E-1
6.301958330E-1,-4.106055796E-1,-6.314108372E0,6.829460263E-1
6.326835410E-1,-4.393360019E-1,-6.314108372E0,6.542156339E-1
6.351712500E-1,-4.441244006E-1,-6.323685169E0,6.111199856E-1
6.376590100E-1,-4.728548229E-1,-6.342838764E0,5.536591411E-1
6.401467710E-1,-4.872200489E-1,-6.323685169E0,5.440823436E-1
6.426345310E-1,-5.207388401E-1,-6.323685169E0,5.728127360E-1
6.451222910E-1,-5.351040959E-1,-6.333261967E0,5.728127360E-1
6.476100520E-1,-5.686228871E-1,-6.342838764E0,5.728127360E-1
6.500978120E-1,-5.973533392E-1,-6.361992359E0,5.440823436E-1
6.525855730E-1,-6.021417379E-1,-6.390722752E0,5.345055461E-1
6.550733330E-1,-6.069301367E-1,-6.424241543E0,5.297171474E-1
6.575610930E-1,-5.925649405E-1,-6.462548733E0,5.584475398E-1
6.600488540E-1,-5.638344884E-1,-6.476913929E0,5.776011348E-1
6.625366140E-1,-5.542576909E-1,-6.515221596E0,6.111199856E-1
6.650243750E-1,-5.303156972E-1,-6.582259178E0,6.206967831E-1
6.675121350E-1,-4.920084476E-1,-6.639719963E0,6.829460263E-1
6.699998960E-1,-4.872200489E-1,-6.673238754E0,7.212532759E-1
6.724876560E-1,-4.584896266E-1,-6.730699539E0,7.212532759E-1
6.749754160E-1,-4.058171809E-1,-6.788160324E0,7.068880796E-1
6.774631770E-1,-3.627215624E-1,-6.859986305E0,6.829460263E-1
6.799509370E-1,-3.244143426E-1,-6.912658691E0,6.063315868E-1
6.824386980E-1,-2.956839204E-1,-6.984484673E0,5.297171474E-1
6.849264580E-1,-2.765302956E-1,-7.046734333E0,4.722562730E-1
6.874142180E-1,-2.573766708E-1,-7.104195118E0,4.626794755E-1
6.899019790E-1,-2.477998734E-1,-7.171232700E0,4.435258508E-1
6.923897390E-1,-2.286462635E-1,-7.238270283E0,3.669114113E-1
6.948775000E-1,-2.334346622E-1,-7.286154270E0,2.711433470E-1
6.973652600E-1,-2.430114746E-1,-7.314884663E0,2.136825025E-1
6.998530210E-1,-2.525882721E-1,-7.353191853E0,1.418564469E-1
7.023407810E-1,-2.765302956E-1,-7.396287441E0,1.083376259E-1
7.048285410E-1,-3.004723191E-1,-7.420229435E0,7.481880486E-2
7.073163020E-1,-3.052607179E-1,-7.453748226E0,7.960720360E-2
7.098040620E-1,-3.004723191E-1,-7.496844292E0,1.083376259E-1
7.122918230E-1,-3.004723191E-1,-7.549516678E0,1.227028370E-1
7.147795830E-1,-2.717418969E-1,-7.606977463E0,1.705868691E-1
7.172673430E-1,-2.573766708E-1,-7.664438248E0,2.136825025E-1
7.197551040E-1,-2.238578647E-1,-7.717110634E0,2.519897223E-1
7.222428640E-1,-2.047042400E-1,-7.779359818E0,2.567781210E-1
7.247306250E-1,-1.999158412E-1,-7.851185799E0,2.567781210E-1
7.272183850E-1,-1.951274425E-1,-7.937376976E0,2.519897223E-1
7.297061460E-1,-1.903390288E-1,-7.999626637E0,2.519897223E-1
7.321939060E-1,-2.334346622E-1,-8.090605736E0,2.328361124E-1
7.346816660E-1,-2.717418969E-1,-8.181585312E0,1.801636815E-1
7.371694270E-1,-3.292027414E-1,-8.253412247E0,1.131260321E-1
7.396571870E-1,-3.914519846E-1,-8.325238228E0,4.129998013E-2
7.421449480E-1,-4.584896266E-1,-8.373122215E0,2.992752008E-3
7.446327080E-1,-5.255272985E-1,-8.435371399E0,-3.052607179E-2
7.471204680E-1,-6.260837317E-1,-8.502408981E0,-4.967968538E-2
7.496082290E-1,-7.266402245E-1,-8.535927773E0,-5.925649032E-2
7.520959890E-1,-8.224082589E-1,-8.574234962E0,-9.756372124E-2
7.545837500E-1,-9.516952038E-1,-8.612542152E0,-1.262941360E-1
7.570715100E-1,-1.090558887E0,-8.641272545E0,-1.215057373E-1
7.595592710E-1,-1.215057373E0,-8.679579735E0,-1.310825497E-1
7.620470310E-1,-1.310825467E0,-8.722675323E0,-1.454477459E-1
7.645347910E-1,-1.392228246E0,-8.756194115E0,-1.502361596E-1
7.670225520E-1,-1.420958757E0,-8.804078102E0,-1.310825497E-1
7.695103120E-1,-1.416170359E0,-8.861538887E0,-9.756372124E-2
7.719980210E-1,-1.392228246E0,-8.923788071E0,-4.967968538E-2
7.744857290E-1,-1.339555860E0,-8.966883659E0,2.693476900E-2
7.769734370E-1,-1.296460271E0,-9.005190849E0,3.651157767E-2
7.794611460E-1,-1.243787766E0,-9.077016830E0,8.439560980E-2
7.819488540E-1,-1.176750183E0,-9.120112419E0,1.370680481E-1
7.844365620E-1,-1.109712481E0,-9.139266014E0,1.993172914E-1
7.869242710E-1,-1.057040095E0,-9.177573204E0,2.519897223E-1
7.894119790E-1,-9.900023937E-1,-9.230246544E0,3.142389655E-1
7.918996870E-1,-9.469067454E-1,-9.230246544E0,3.764882088E-1
7.943873960E-1,-9.038111567E-1,-9.225458145E0,4.195838571E-1
7.968751040E-1,-8.463503122E-1,-9.244611740E0,4.483142793E-1
7.993628120E-1,-7.888894677E-1,-9.244611740E0,4.626794755E-1
8.018505210E-1,-7.457938194E-1,-9.235034943E0,4.626794755E-1
8.043382290E-1,-6.979097724E-1,-9.244611740E0,4.339490533E-1
8.068259370E-1,-6.452373862E-1,-9.235034943E0,3.908534348E-1
8.093136460E-1,-6.165069342E-1,-9.230246544E0,3.477577865E-1
8.118013540E-1,-5.781996846E-1,-9.201516151E0,3.046621680E-1
8.142890620E-1,-5.446808934E-1,-9.187150002E0,2.711433470E-1
8.167767710E-1,-5.015852451E-1,-9.187150002E0,2.472013235E-1
8.192644790E-1,-4.632780254E-1,-9.191938400E0,2.136825025E-1
8.217521870E-1,-4.297592044E-1,-9.177573204E0,1.993172914E-1
8.242398960E-1,-4.297592044E-1,-9.167996407E0,1.657984704E-1
8.267276040E-1,-4.153940082E-1,-9.172784805E0,1.227028370E-1
8.292153120E-1,-4.249708056E-1,-9.191938400E0,7.960720360E-2
8.317030210E-1,-4.441244006E-1,-9.211092949E0,4.608838260E-2
8.341907290E-1,-4.489128292E-1,-9.239823341E0,2.214636654E-2
8.366784370E-1,-4.680664241E-1,-9.249400139E0,-1.137245819E-2
8.391661460E-1,-5.063736439E-1,-9.273342133E0,-4.489128292E-2
8.416538540E-1,-5.303156972E-1,-9.311649323E0,-7.362170517E-2
8.441415620E-1,-5.973533392E-1,-9.345168114E0,-1.119289324E-1
8.466292710E-1,-6.691793799E-1,-9.378686905E0,-1.071405262E-1
8.491169790E-1,-7.457938194E-1,-9.397840500E0,-1.262941360E-1
8.516046870E-1,-8.271966577E-1,-9.436147690E0,-1.262941360E-1
8.540923960E-1,-8.798691034E-1,-9.469666481E0,-1.215057373E-1
8.565801040E-1,-9.038111567E-1,-9.512762070E0,-1.550245583E-1
8.590678120E-1,-9.133879542E-1,-9.536704063E0,-1.502361596E-1
8.615555210E-1,-9.229647517E-1,-9.565434456E0,-1.646013707E-1
8.640432290E-1,-9.421183467E-1,-9.598953247E0,-1.789665818E-1
8.665309370E-1,-9.516952038E-1,-9.608530045E0,-1.741781682E-1
8.690186460E-1,-9.660604000E-1,-9.622895241E0,-1.981201917E-1
8.715063540E-1,-9.564836025E-1,-9.637260437E0,-2.172738016E-1
8.739940620E-1,-9.708487988E-1,-9.656414032E0,-2.316390127E-1
8.764817710E-1,-9.756371975E-1,-9.675567627E0,-2.460042238E-1
8.789694790E-1,-9.708487988E-1,-9.713874817E0,-2.316390127E-1
8.814572390E-1,-9.564836025E-1,-9.752182007E0,-2.364274114E-1
8.839450000E-1,-9.421183467E-1,-9.809642792E0,-2.555810213E-1
8.864327600E-1,-8.942343593E-1,-9.871891975E0,-2.699462473E-1
8.889205210E-1,-8.511387110E-1,-9.943717957E0,-2.986766696E-1
8.914082810E-1,-8.176198602E-1,-1.002033234E1,-3.178302646E-1
8.938960410E-1,-7.936778665E-1,-1.010652351E1,-3.561375141E-1
8.963838020E-1,-7.362170219E-1,-1.019750404E1,-3.848679364E-1
8.988715620E-1,-7.074866295E-1,-1.027890682E1,-4.135983288E-1
9.013593230E-1,-6.739677787E-1,-1.033636761E1,-4.231751561E-1
9.038470830E-1,-6.165069342E-1,-1.039382839E1,-4.423287511E-1
9.063348430E-1,-5.973533392E-1,-1.044171238E1,-4.423287511E-1
9.088226040E-1,-5.590460896E-1,-1.049438477E1,-4.423287511E-1
9.113103640E-1,-5.351040959E-1,-1.050874996E1,-4.566939771E-1
9.137981250E-1,-4.920084476E-1,-1.054226875E1,-4.710591733E-1
9.162858850E-1,-4.680664241E-1,-1.054705715E1,-4.614823759E-1
9.187736460E-1,-4.249708056E-1,-1.057099915E1,-4.375403523E-1
9.212614060E-1,-3.962403834E-1,-1.058536434E1,-4.566939771E-1
9.237491660E-1,-3.722983599E-1,-1.059494114E1,-4.662707746E-1
9.262369270E-1,-3.866635859E-1,-1.059972954E1,-4.710591733E-1
9.287246870E-1,-3.962403834E-1,-1.059494114E1,-4.710591733E-1
9.312124480E-1,-4.249708056E-1,-1.060451794E1,-4.806360006E-1
9.337002080E-1,-4.584896266E-1,-1.060930634E1,-4.997895956E-1
9.361879680E-1,-5.063736439E-1,-1.059494114E1,-5.476736426E-1
9.386757290E-1,-5.446808934E-1,-1.057099915E1,-6.194996834E-1
9.411634890E-1,-6.212953329E-1,-1.054705715E1,-6.865373254E-1
9.436512500E-1,-6.691793799E-1,-1.050396156E1,-7.535749674E-1
9.461390100E-1,-7.026981711E-1,-1.044650078E1,-8.158242106E-1
9.486267710E-1,-7.314286232E-1,-1.039382839E1,-8.206126094E-1
9.511145310E-1,-7.410054207E-1,-1.033636761E1,-8.014590144E-1
9.536022910E-1,-7.505822182E-1,-1.027890682E1,-7.631517649E-1
9.560900520E-1,-7.793126702E-1,-1.023581123E1,-7.200561762E-1
9.585778120E-1,-8.224082589E-1,-1.018792725E1,-6.817489266E-1
9.610655730E-1,-8.798691034E-1,-1.015919590E1,-6.434416771E-1
9.635533330E-1,-9.181763530E-1,-1.016398430E1,-6.290764809E-1
9.660410930E-1,-9.708487988E-1,-1.017356110E1,-6.194996834E-1
9.685288540E-1,-1.042674899E0,-1.019750404E1,-6.051344872E-1
9.710166140E-1,-1.114500880E0,-1.023102283E1,-5.716156363E-1
9.735043750E-1,-1.167173386E0,-1.026454163E1,-5.428852439E-1
9.759921350E-1,-1.248576164E0,-1.032200241E1,-5.093663931E-1
9.784798960E-1,-1.277306557E0,-1.039382839E1,-4.806360006E-1
9.809676560E-1,-1.320402265E0,-1.046086597E1,-4.375403523E-1
9.834554160E-1,-1.291671872E0,-1.050874996E1,-4.088099301E-1
9.859431770E-1,-1.253364563E0,-1.059972954E1,-3.752911091E-1
9.884309370E-1,-1.200692177E0,-1.069070911E1,-3.130418658E-1
9.909186980E-1,-1.133654475E0,-1.076253510E1,-2.412158251E-1
9.934064580E-1,-1.076193690E0,-1.082957268E1,-1.933317930E-1
9.958942180E-1,-1.023521185E0,-1.090618706E1,-1.550245583E-1
9.983819790E-1,-9.900023937E-1,-1.095407104E1,-9.277531505E-2
1.000869739E0,-9.277531505E-1,-1.097322464E1,-3.052607179E-2
1.003357500E0,-8.655039072E-1,-1.098758984E1,-2.094926499E-2
1.005845260E0,-7.793126702E-1,-1.099237823E1,-4.967968538E-2
1.008333021E0,-6.931213737E-1,-1.098280144E1,-6.404489279E-2
1.010820781E0,-6.165069342E-1,-1.097801304E1,-4.967968538E-2
1.013308541E0,-5.351040959E-1,-1.096843624E1,-2.094926499E-2
1.015796302E0,-4.728548229E-1,-1.096364784E1,-1.616086066E-2
1.018284062E0,-4.058171809E-1,-1.095885944E1,-2.094926499E-2
1.020771823E0,-3.866635859E-1,-1.093012905E1,-2.094926499E-2
1.023259583E0,-3.722983599E-1,-1.091576385E1,-2.573766746E-2
1.025747291E0,-3.675099611E-1,-1.090139866E1,-5.925649032E-2
1.028235000E0,-3.579331636E-1,-1.086787987E1,-1.119289324E-1
1.030722708E0,-3.770867586E-1,-1.085830307E1,-2.029085904E-1
1.033210416E0,-3.770867586E-1,-1.082957268E1,-2.747346461E-1
1.035698125E0,-3.962403834E-1,-1.081520748E1,-3.226186931E-1
1.038185833E0,-4.201824069E-1,-1.078647709E1,-3.561375141E-1
1.040673541E0,-4.249708056E-1,-1.077211189E1,-4.135983288E-1
1.043161250E0,-4.297592044E-1,-1.076732349E1,-4.614823759E-1
1.045648958E0,-4.632780254E-1,-1.074816990E1,-4.997895956E-1
1.048136666E0,-4.728548229E-1,-1.074816990E1,-5.764040351E-1
1.050624375E0,-5.159504414E-1,-1.074816990E1,-6.242880821E-1
1.053112083E0,-5.781996846E-1,-1.074338150E1,-6.817489266E-1
1.055599791E0,-6.452373862E-1,-1.075295830E1,-7.104793787E-1
1.058087500E0,-7.457938194E-1,-1.075295830E1,-7.056909800E-1
1.060575208E0,-8.559271097E-1,-1.074338150E1,-6.769605279E-1
1.063062916E0,-9.947907925E-1,-1.074338150E1,-6.769605279E-1
1.065550625E0,-1.100135684E0,-1.074816990E1,-6.625953317E-1
1.068038333E0,-1.191115379E0,-1.076253510E1,-6.386532784E-1
1.070526041E0,-1.291671872E0,-1.076732349E1,-6.338648796E-1
1.073013750E0,-1.363497853E0,-1.077211189E1,-6.051344872E-1
1.075501458E0,-1.401805043E0,-1.079126549E1,-5.333084464E-1
1.077989166E0,-1.430535555E0,-1.080563068E1,-4.088099301E-1
1.080476875E0,-1.435323954E0,-1.084872627E1,-2.890998423E-1
1.082964583E0,-1.420958757E0,-1.086309147E1,-1.693897694E-1
1.085452291E0,-1.368286252E0,-1.085351467E1,-3.052607179E-2
1.087940000E0,-1.306037068E0,-1.084393787E1,7.960720360E-2
1.090427708E0,-1.219845772E0,-1.082957268E1,1.801636815E-1
1.092915416E0,-1.114500880E0,-1.080084229E1,2.615665495E-1
1.095403125E0,-1.004367590E0,-1.079605389E1,3.477577865E-1
1.097890833E0,-8.846575022E-1,-1.078647709E1,4.100070298E-1
1.100378541E0,-7.697358727E-1,-1.077690029E1,4.483142793E-1
1.102866250E0,-6.596025825E-1,-1.076732349E1,4.866214991E-1
1.105353958E0,-5.638344884E-1,-1.076253510E1,4.674678743E-1
1.107841666E0,-4.872200489E-1,-1.076732349E1,4.339490533E-1
1.110329375E0,-4.010287821E-1,-1.077690029E1,3.333925903E-1
1.112817083E0,-3.100491166E-1,-1.082478428E1,2.136825025E-1
1.115304791E0,-2.190694511E-1,-1.082957268E1,8.439560980E-2
1.117792500E0,-1.568202078E-1,-1.083914948E1,-4.010287672E-2
1.120280208E0,-8.020575345E-2,-1.085351467E1,-1.933317930E-1
1.122767916E0,-2.274491638E-2,-1.085351467E1,-3.417722881E-1
1.125255625E0,4.429273307E-2,-1.084872627E1,-5.045779943E-1
1.127743385E0,1.113303825E-1,-1.084872627E1,-6.242880821E-1
1.130231146E0,1.735796183E-1,-1.084393787E1,-7.870938182E-1
1.132718906E0,2.166752517E-1,-1.081999588E1,-9.355342984E-1
1.135206666E0,2.262520641E-1,-1.080084229E1,-1.026513934E0
1.137694427E0,2.070984542E-1,-1.079605389E1,-1.117493629E0
1.140182187E0,1.783680320E-1,-1.081520748E1,-1.218050122E0
1.142669948E0,1.209071875E-1,-1.082478428E1,-1.275510907E0
1.145157708E0,4.429273307E-2,-1.086309147E1,-1.352125406E0
1.147645468E0,-6.584054977E-2,-1.090139866E1,-1.447893500E0
1.150133229E0,-2.190694511E-1,-1.093970585E1,-1.510142684E0
1.152620989E0,-3.531447649E-1,-1.099716663E1,-1.510142684E0
1.155108750E0,-4.728548229E-1,-1.103547382E1,-1.486200690E0
1.157596510E0,-5.925649405E-1,-1.106420422E1,-1.423951507E0
1.160084271E0,-6.835445762E-1,-1.110729980E1,-1.337760210E0
1.162572031E0,-7.745242715E-1,-1.111687660E1,-1.241992116E0
1.165059791E0,-8.511387110E-1,-1.115039539E1,-1.136647224E0
1.167547552E0,-9.229647517E-1,-1.118391514E1,-1.007360339E0
1.170035312E0,-9.947907925E-1,-1.121264553E1,-8.828618526E-1
1.172523073E0,-1.023521185E0,-1.123179913E1,-7.296329737E-1
1.175010833E0,-1.042674899E0,-1.124137592E1,-6.338648796E-1
1.177498593E0,-1.052251697E0,-1.125574112E1,-5.285200477E-1
1.179986354E0,-1.066616893E0,-1.125095272E1,-4.279635549E-1
1.182474114E0,-1.047463298E0,-1.125095272E1,-3.321954906E-1
1.184961875E0,-1.013944387E0,-1.124137592E1,-2.555810213E-1
1.187449635E0,-9.708487988E-1,-1.124616432E1,-1.981201917E-1
1.189937396E0,-9.277531505E-1,-1.124137592E1,-1.550245583E-1
1.192425156E0,-8.702923059E-1,-1.121264553E1,-1.023521200E-1
1.194912916E0,-8.224082589E-1,-1.121264553E1,-5.446808785E-2
1.197400677E0,-7.601590157E-1,-1.120306873E1,-2.094926499E-2
1.199888437E0,-6.931213737E-1,-1.119828033E1,-1.137245819E-2
1.202376198E0,-6.165069342E-1,-1.116954994E1,2.992752008E-3
1.204863958E0,-5.063736439E-1,-1.115039539E1,-4.489128292E-2
1.207351718E0,-4.058171809E-1,-1.112166500E1,-9.277531505E-2
1.209839479E0,-2.861070931E-1,-1.111208820E1,-1.502361596E-1
1.212327239E0,-1.807622313E-1,-1.108814621E1,-2.460042238E-1
1.214815000E0,-7.541735470E-2,-1.106420422E1,-3.178302646E-1
1.217302760E0,1.556231081E-2,-1.104505062E1,-3.848679364E-1
1.219790521E0,5.865794048E-2,-1.102110863E1,-5.093663931E-1
1.222278281E0,9.696517140E-2,-1.100195503E1,-6.194996834E-1
1.224766041E0,7.781155407E-2,-1.097322464E1,-7.296329737E-1
1.227253802E0,3.950432688E-2,-1.093970585E1,-8.206126094E-1
1.229741562E0,-3.232172132E-2,-1.093012905E1,-8.876502514E-1
1.232229323E0,-1.089361757E-1,-1.091576385E1,-9.355342984E-1
1.234717083E0,-1.855506301E-1,-1.089182186E1,-9.403226972E-1
1.237204843E0,-2.525882721E-1,-1.091097546E1,-9.307458997E-1
1.239692604E0,-3.052607179E-1,-1.093491745E1,-9.259575009E-1
1.242180364E0,-3.531447649E-1,-1.097801304E1,-9.355342984E-1
1.244668125E0,-3.722983599E-1,-1.102589703E1,-8.972271085E-1
1.247155885E0,-3.722983599E-1,-1.107856941E1,-7.966706157E-1
1.249643646E0,-4.249708056E-1,-1.113124180E1,-6.817489266E-1
1.252131406E0,-4.872200489E-1,-1.117912674E1,-5.907692909E-1
1.254619166E0,-5.590460896E-1,-1.119828033E1,-4.806360006E-1
1.257106927E0,-6.356605291E-1,-1.119828033E1,-3.752911091E-1
1.259594687E0,-7.218518257E-1,-1.119349194E1,-2.938882709E-1
1.262082448E0,-7.984662652E-1,-1.117912674E1,-2.220622003E-1
1.264570208E0,-8.655039072E-1,-1.113124180E1,-1.406593472E-1
1.267057968E0,-9.325415492E-1,-1.109772301E1,-7.362170517E-2
1.269545729E0,-9.947907925E-1,-1.104983902E1,-2.573766746E-2
1.272033489E0,-1.047463298E0,-1.099716663E1,7.781155407E-3
1.274521250E0,-1.119289279E0,-1.092534065E1,3.651157767E-2
1.277009010E0,-1.171961784E0,-1.089182186E1,3.651157767E-2
1.279496718E0,-1.238999367E0,-1.086309147E1,2.214636654E-2
1.281984427E0,-1.272518158E0,-1.081041908E1,3.172317147E-2
1.284472135E0,-1.282094955E0,-1.077211189E1,1.735796221E-2
1.286959843E0,-1.296460271E0,-1.073859310E1,-1.795651275E-3
1.289447552E0,-1.286883354E0,-1.070986271E1,-1.137245819E-2
1.291935260E0,-1.243787766E0,-1.068113232E1,-6.584054790E-3
1.294422968E0,-1.167173386E0,-1.067634392E1,-1.137245819E-2
1.296910677E0,-1.066616893E0,-1.065719032E1,-2.094926499E-2
1.299398385E0,-9.564836025E-1,-1.062367153E1,-4.010287672E-2
1.301886093E0,-8.367735147E-1,-1.061888313E1,-3.531447425E-2
1.304373802E0,-7.170634270E-1,-1.060930634E1,-3.052607179E-2
1.306861510E0,-6.021417379E-1,-1.059015274E1,-4.010287672E-2
1.309349218E0,-4.967968464E-1,-1.056142235E1,-6.883329898E-2
1.311836927E0,-4.010287821E-1,-1.054705715E1,-8.319851011E-2
1.314324635E0,-3.196259141E-1,-1.052311516E1,-9.277531505E-2
1.316812343E0,-2.382230759E-1,-1.050396156E1,-1.215057373E-1
1.319300052E0,-1.616086215E-1,-1.047523117E1,-1.502361596E-1
1.321787760E0,-8.978256583E-2,-1.045128918E1,-2.029085904E-1
1.324275468E0,-3.232172132E-2,-1.042734718E1,-2.268506140E-1
1.326763177E0,2.513911761E-2,-1.039861679E1,-2.555810213E-1
1.329250885E0,7.302315533E-2,-1.037946320E1,-2.938882709E-1
1.331738593E0,1.017535701E-1,-1.037467480E1,-3.130418658E-1
1.334226302E0,9.696517140E-2,-1.036988640E1,-3.561375141E-1
1.336714010E0,8.259996027E-2,-1.035552120E1,-4.183867574E-1
1.339201718E0,2.513911761E-2,-1.036030960E1,-4.758476019E-1
1.341689427E0,-4.668693244E-2,-1.036509800E1,-5.333084464E-1
1.344177135E0,-1.185129806E-1,-1.036509800E1,-5.572504401E-1
1.346664843E0,-1.999158412E-1,-1.037467480E1,-5.428852439E-1
1.349152552E0,-2.621650994E-1,-1.040340519E1,-5.333084464E-1
1.351640260E0,-3.148375154E-1,-1.042255878E1,-4.662707746E-1
1.354127968E0,-3.627215624E-1,-1.043692398E1,-4.279635549E-1
1.356615677E0,-4.345476031E-1,-1.042734718E1,-3.800795078E-1
1.359103385E0,-4.920084476E-1,-1.041777039E1,-3.609259129E-1
1.361591093E0,-5.638344884E-1,-1.041298199E1,-3.321954906E-1
1.364078802E0,-6.404489279E-1,-1.038903999E1,-3.130418658E-1
1.366566510E0,-7.074866295E-1,-1.034115601E1,-3.082534671E-1
1.369054218E0,-7.745242715E-1,-1.031721401E1,-3.274070919E-1
1.371541927E0,-8.128314614E-1,-1.027890682E1,-3.321954906E-1
1.374029635E0,-8.224082589E-1,-1.025017643E1,-3.417722881E-1
1.376517343E0,-8.080430627E-1,-1.025975323E1,-3.369838893E-1
1.379005104E0,-7.745242715E-1,-1.025975323E1,-3.082534671E-1
1.381492864E0,-7.314286232E-1,-1.025975323E1,-2.699462473E-1
1.383980625E0,-6.883329749E-1,-1.026454163E1,-2.364274114E-1
1.386468385E0,-6.356605291E-1,-1.028369522E1,-2.124854028E-1
1.388956146E0,-5.925649405E-1,-1.029806042E1,-1.981201917E-1
1.391443906E0,-5.159504414E-1,-1.031242561E1,-1.933317930E-1
1.393931666E0,-4.201824069E-1,-1.031242561E1,-2.268506140E-1
1.396419427E0,-3.100491166E-1,-1.030763721E1,-2.364274114E-1
1.398907187E0,-2.334346622E-1,-1.029806042E1,-2.651578486E-1
1.401394948E0,-1.520318091E-1,-1.025496483E1,-2.843114436E-1
1.403882708E0,-5.147533491E-2,-1.024538803E1,-3.321954906E-1
1.406370468E0,1.556231081E-2,-1.018792725E1,-3.848679364E-1
1.408858229E0,5.865794048E-2,-1.014483070E1,-4.423287511E-1
1.411345989E0,8.259996027E-2,-1.011610031E1,-4.902127981E-1
1.413833750E0,1.065419763E-1,-1.009694672E1,-5.428852439E-1
1.416321510E0,1.017535701E-1,-1.008736992E1,-5.811924338E-1
1.418809271E0,7.302315533E-2,-1.005863953E1,-6.673837304E-1
1.421297031E0,1.077390742E-2,-1.005385113E1,-7.248445749E-1
1.423784791E0,-5.626374111E-2,-1.007779312E1,-7.870938182E-1
1.426272552E0,-1.376665980E-1,-1.010173512E1,-8.110358119E-1
1.428760312E0,-2.190694511E-1,-1.015919590E1,-8.445546627E-1
1.431248073E0,-3.052607179E-1,-1.019271564E1,-8.637082577E-1
1.433735833E0,-3.866635859E-1,-1.023581123E1,-8.828618526E-1
1.436223593E0,-4.776432514E-1,-1.028848362E1,-8.589198589E-1
1.438711354E0,-5.494692922E-1,-1.035552120E1,-7.775170207E-1
1.441199114E0,-6.308721304E-1,-1.037946320E1,-6.913257241E-1
1.443686875E0,-6.931213737E-1,-1.043213558E1,-6.194996834E-1
1.446174635E0,-7.218518257E-1,-1.048001957E1,-5.333084464E-1
1.448662396E0,-7.362170219E-1,-1.049917316E1,-4.566939771E-1
1.451150156E0,-7.410054207E-1,-1.054226875E1,-3.896563351E-1
1.453637916E0,-7.170634270E-1,-1.057578754E1,-2.938882709E-1
1.456125677E0,-6.883329749E-1,-1.061409473E1,-2.268506140E-1
1.458613437E0,-6.643909812E-1,-1.062367153E1,-1.741781682E-1
1.461101198E0,-6.404489279E-1,-1.064282513E1,-8.798690885E-2
1.463588958E0,-6.548141837E-1,-1.064282513E1,-3.531447425E-2
1.466076718E0,-6.596025825E-1,-1.064761353E1,-6.584054790E-3
1.468564479E0,-6.643909812E-1,-1.062845993E1,-1.795651275E-3
1.471052239E0,-6.739677787E-1,-1.060930634E1,4.608838260E-2
1.473540000E0,-6.500257850E-1,-1.057578754E1,7.960720360E-2
1.476027760E0,-5.973533392E-1,-1.054226875E1,1.035492271E-1
1.478515521E0,-5.398924947E-1,-1.051832676E1,9.397241473E-2
1.481003281E0,-4.584896266E-1,-1.047523117E1,1.083376259E-1
1.483491041E0,-3.914519846E-1,-1.044171238E1,9.397241473E-2
1.485978802E0,-3.052607179E-1,-1.041298199E1,7.481880486E-2
1.488466562E0,-2.142810524E-1,-1.037946320E1,7.003039867E-2
1.490954323E0,-1.089361757E-1,-1.035552120E1,4.129998013E-2
1.493442083E0,-3.232172132E-2,-1.030284882E1,2.992752008E-3
1.495929843E0,5.985504016E-3,-1.028848362E1,-6.584054790E-3
1.498417604E0,1.197100850E-3,-1.024059963E1,-5.925649032E-2
1.500905364E0,-3.711012751E-2,-1.021186924E1,-1.406593472E-1
1.503393125E0,-8.499415964E-2,-1.019750404E1,-2.316390127E-1
1.505880885E0,-1.520318091E-1,-1.016398430E1,-3.082534671E-1
1.508368646E0,-2.525882721E-1,-1.012567711E1,-3.465606868E-1
1.510856406E0,-3.579331636E-1,-1.011131191E1,-4.088099301E-1
1.513344166E0,-4.680664241E-1,-1.010173512E1,-4.327519536E-1
1.515831927E0,-5.446808934E-1,-1.013046551E1,-4.471171796E-1
1.518319687E0,-6.021417379E-1,-1.014483070E1,-4.423287511E-1
1.520807448E0,-6.308721304E-1,-1.017356110E1,-4.135983288E-1
1.523295208E0,-6.643909812E-1,-1.022144604E1,-3.465606868E-1
1.525782968E0,-6.883329749E-1,-1.025496483E1,-2.555810213E-1
1.528270729E0,-7.074866295E-1,-1.029806042E1,-1.885433793E-1
1.530758489E0,-6.979097724E-1,-1.033157921E1,-9.277531505E-2
1.533246250E0,-7.074866295E-1,-1.036509800E1,-3.531447425E-2
1.535734010E0,-7.266402245E-1,-1.039382839E1,1.256955881E-2
1.538221771E0,-7.505822182E-1,-1.041777039E1,2.693476900E-2
1.540709531E0,-7.745242715E-1,-1.042734718E1,7.781155407E-3
1.543197239E0,-7.697358727E-1,-1.041777039E1,-1.137245819E-2
1.545684948E0,-7.793126702E-1,-1.040819359E1,-3.531447425E-2
1.548172656E0,-7.841010690E-1,-1.039382839E1,-4.967968538E-2
1.550660364E0,-7.697358727E-1,-1.038903999E1,-8.319851011E-2
1.553148073E0,-7.649474144E-1,-1.037467480E1,-1.167173311E-1
1.555635781E0,-7.457938194E-1,-1.036509800E1,-1.693897694E-1
1.558123489E0,-7.362170219E-1,-1.030763721E1,-2.124854028E-1
1.560611198E0,-7.026981711E-1,-1.027411842E1,-2.460042238E-1
1.563098906E0,-6.596025825E-1,-1.025496483E1,-2.651578486E-1
1.565586614E0,-6.117185354E-1,-1.024059963E1,-2.747346461E-1
1.568074323E0,-5.446808934E-1,-1.019271564E1,-2.890998423E-1
1.570562031E0,-4.824316502E-1,-1.017835045E1,-2.843114436E-1
1.573049739E0,-4.058171809E-1,-1.016877270E1,-2.651578486E-1
1.575537448E0,-3.196259141E-1,-1.015919590E1,-2.699462473E-1
1.578025156E0,-2.477998734E-1,-1.015919590E1,-2.603694201E-1
1.580512864E0,-1.759738177E-1,-1.016877270E1,-2.316390127E-1
1.583000573E0,-1.137245819E-1,-1.016398430E1,-2.364274114E-1
1.585488281E0,-7.541735470E-2,-1.015919590E1,-2.316390127E-1
1.587975989E0,-6.584054977E-2,-1.017835045E1,-2.172738016E-1
1.590463698E0,-8.020575345E-2,-1.018313885E1,-2.124854028E-1
1.592951406E0,-7.541735470E-2,-1.015919590E1,-2.124854028E-1
1.595439114E0,-8.978256583E-2,-1.016398430E1,-2.124854028E-1
1.597926823E0,-1.089361757E-1,-1.015919590E1,-2.507926226E-1
1.600414531E0,-1.185129806E-1,-1.013046551E1,-2.795230448E-1
1.602902239E0,-1.328781992E-1,-1.013525391E1,-2.843114436E-1
1.605389948E0,-1.616086215E-1,-1.011610031E1,-3.034650683E-1
1.607877656E0,-2.094926536E-1,-1.012567711E1,-3.417722881E-1
1.610365364E0,-2.621650994E-1,-1.013525391E1,-3.752911091E-1
1.612853073E0,-3.387795389E-1,-1.012567711E1,-3.896563351E-1
1.615340781E0,-4.106055796E-1,-1.011131191E1,-4.088099301E-1
1.617828489E0,-4.728548229E-1,-1.011610031E1,-4.279635549E-1
1.620316198E0,-5.398924947E-1,-1.011131191E1,-4.614823759E-1
1.622803906E0,-5.973533392E-1,-1.013046551E1,-4.758476019E-1
1.625291614E0,-5.973533392E-1,-1.014483070E1,-4.806360006E-1
1.627779323E0,-5.829881430E-1,-1.014961910E1,-4.854243994E-1
1.630267031E0,-5.781996846E-1,-1.016877270E1,-4.758476019E-1
1.632754739E0,-5.877765417E-1,-1.017356110E1,-4.279635549E-1
1.635242448E0,-5.638344884E-1,-1.017835045E1,-4.183867574E-1
1.637730208E0,-5.590460896E-1,-1.019271564E1,-4.279635549E-1
1.640217968E0,-5.398924947E-1,-1.021186924E1,-4.231751561E-1
1.642705729E0,-5.351040959E-1,-1.020708084E1,-3.992331326E-1
1.645193489E0,-5.351040959E-1,-1.022623444E1,-3.800795078E-1
1.647681250E0,-5.351040959E-1,-1.022144604E1,-3.800795078E-1
1.650169010E0,-5.351040959E-1,-1.019750404E1,-3.513490856E-1
1.652656771E0,-5.255272985E-1,-1.018792725E1,-3.321954906E-1
1.655144531E0,-5.159504414E-1,-1.017835045E1,-3.226186931E-1
1.657632291E0,-5.111620426E-1,-1.015440750E1,-3.034650683E-1
1.660120052E0,-5.015852451E-1,-1.010652351E1,-2.986766696E-1
1.662607812E0,-4.872200489E-1,-1.007300472E1,-2.938882709E-1
1.665095573E0,-4.584896266E-1,-1.004427433E1,-2.890998423E-1
1.667583333E0,-4.345476031E-1,-1.001554394E1,-2.843114436E-1
1.670071093E0,-4.106055796E-1,-9.996390343E0,-2.460042238E-1
1.672558854E0,-3.914519846E-1,-9.943717957E0,-2.124854028E-1
1.675046614E0,-3.962403834E-1,-9.934141159E0,-1.789665818E-1
1.677534375E0,-3.675099611E-1,-9.919775963E0,-1.358709484E-1
1.680022135E0,-3.339911401E-1,-9.910199165E0,-1.119289324E-1
1.682509896E0,-3.483563364E-1,-9.910199165E0,-8.319851011E-2
1.684997656E0,-3.531447649E-1,-9.910199165E0,-5.925649032E-2
1.687485416E0,-3.531447649E-1,-9.905410767E0,-7.362170517E-2
1.689973177E0,-3.483563364E-1,-9.900622368E0,-9.756372124E-2
1.692460937E0,-3.531447649E-1,-9.919775963E0,-1.262941360E-1
1.694948698E0,-3.339911401E-1,-9.919775963E0,-1.502361596E-1
1.697436458E0,-3.531447649E-1,-9.924564362E0,-1.598129570E-1
1.699924218E0,-3.722983599E-1,-9.914987564E0,-1.646013707E-1
1.702411979E0,-3.962403834E-1,-9.914987564E0,-1.741781682E-1
1.704899739E0,-4.249708056E-1,-9.910199165E0,-1.741781682E-1
1.707387500E0,-4.632780254E-1,-9.924564362E0,-1.981201917E-1
1.709875260E0,-4.967968464E-1,-9.934141159E0,-2.220622003E-1
1.712363021E0,-5.207388401E-1,-9.929352760E0,-2.795230448E-1
1.714850781E0,-5.494692922E-1,-9.938929558E0,-3.178302646E-1
1.717338541E0,-5.973533392E-1,-9.943717957E0,-3.705027103E-1
1.719826302E0,-6.165069342E-1,-9.924564362E0,-3.992331326E-1
1.722314062E0,-6.117185354E-1,-9.919775963E0,-4.231751561E-1
1.724801823E0,-6.212953329E-1,-9.905410767E0,-3.992331326E-1
1.727289583E0,-5.829881430E-1,-9.919775963E0,-3.705027103E-1
1.729777343E0,-5.686228871E-1,-9.943717957E0,-3.609259129E-1
1.732265104E0,-5.351040959E-1,-9.914987564E0,-3.417722881E-1
1.734752864E0,-5.207388401E-1,-9.919775963E0,-3.130418658E-1
1.737240625E0,-5.159504414E-1,-9.900622368E0,-2.699462473E-1
1.739728385E0,-5.015852451E-1,-9.900622368E0,-2.460042238E-1
1.742216146E0,-4.920084476E-1,-9.895833969E0,-2.172738016E-1
1.744703906E0,-4.776432514E-1,-9.871891975E0,-1.885433793E-1
1.747191666E0,-4.632780254E-1,-9.871891975E0,-1.550245583E-1
1.749679427E0,-4.153940082E-1,-9.886257172E0,-1.358709484E-1
1.752167187E0,-3.770867586E-1,-9.881468773E0,-1.167173311E-1
1.754654948E0,-3.387795389E-1,-9.876680374E0,-1.023521200E-1
1.757142708E0,-3.100491166E-1,-9.895833969E0,-1.215057373E-1
1.759630468E0,-2.908954918E-1,-9.910199165E0,-1.502361596E-1
1.762118229E0,-3.196259141E-1,-9.895833969E0,-1.789665818E-1
1.764605989E0,-3.339911401E-1,-9.876680374E0,-2.076970041E-1
1.767093750E0,-3.579331636E-1,-9.871891975E0,-2.460042238E-1
1.769581510E0,-3.818751574E-1,-9.843161583E0,-2.603694201E-1
1.772069271E0,-4.058171809E-1,-9.824007988E0,-2.938882709E-1
1.774557031E0,-4.201824069E-1,-9.819219589E0,-3.130418658E-1
1.777044791E0,-4.249708056E-1,-9.833584785E0,-3.082534671E-1
1.779532552E0,-4.153940082E-1,-9.833584785E0,-2.843114436E-1
1.782020312E0,-3.722983599E-1,-9.828796387E0,-2.699462473E-1
1.784508073E0,-3.244143426E-1,-9.852738380E0,-2.268506140E-1
1.786995833E0,-3.100491166E-1,-9.871891975E0,-1.885433793E-1
1.789483593E0,-2.765302956E-1,-9.886257172E0,-1.837549806E-1
1.791971354E0,-2.573766708E-1,-9.900622368E0,-1.837549806E-1
1.794459114E0,-2.525882721E-1,-9.905410767E0,-1.837549806E-1
1.796946875E0,-3.004723191E-1,-9.895833969E0,-1.981201917E-1
1.799434635E0,-3.339911401E-1,-9.895833969E0,-2.507926226E-1
1.801922396E0,-3.531447649E-1,-9.881468773E0,-3.034650683E-1
1.804410156E0,-3.770867586E-1,-9.891045570E0,-3.417722881E-1
1.806897916E0,-3.866635859E-1,-9.881468773E0,-3.561375141E-1
1.809385625E0,-3.962403834E-1,-9.886257172E0,-3.896563351E-1
1.811873333E0,-4.201824069E-1,-9.891045570E0,-3.896563351E-1
1.814361041E0,-4.393360019E-1,-9.876680374E0,-3.944447339E-1
1.816848750E0,-4.632780254E-1,-9.871891975E0,-4.135983288E-1
1.819336458E0,-4.824316502E-1,-9.881468773E0,-4.135983288E-1
1.821824166E0,-4.920084476E-1,-9.900622368E0,-3.992331326E-1
1.824311875E0,-5.207388401E-1,-9.905410767E0,-3.944447339E-1
1.826799583E0,-5.207388401E-1,-9.924564362E0,-3.705027103E-1
1.829287291E0,-5.159504414E-1,-9.919775963E0,-3.561375141E-1
1.831775000E0,-5.015852451E-1,-9.910199165E0,-3.226186931E-1
1.834262708E0,-4.728548229E-1,-9.919775963E0,-2.795230448E-1
1.836750416E0,-4.537012279E-1,-9.924564362E0,-2.651578486E-1
1.839238125E0,-4.441244006E-1,-9.914987564E0,-2.364274114E-1
1.841725833E0,-4.393360019E-1,-9.914987564E0,-2.124854028E-1
1.844213541E0,-4.345476031E-1,-9.876680374E0,-1.981201917E-1
1.846701250E0,-4.489128292E-1,-9.871891975E0,-1.837549806E-1
1.849188958E0,-4.441244006E-1,-9.876680374E0,-1.789665818E-1
1.851676666E0,-4.489128292E-1,-9.857526779E0,-1.789665818E-1
1.854164375E0,-4.441244006E-1,-9.857526779E0,-1.693897694E-1
1.856652083E0,-4.441244006E-1,-9.847949982E0,-1.406593472E-1
1.859139791E0,-4.393360019E-1,-9.833584785E0,-1.358709484E-1
1.861627500E0,-4.441244006E-1,-9.824007988E0,-1.310825497E-1
1.864115208E0,-4.441244006E-1,-9.809642792E0,-1.167173311E-1
1.866602916E0,-4.537012279E-1,-9.795277596E0,-1.071405262E-1
1.869090625E0,-4.680664241E-1,-9.804854393E0,-8.798690885E-2
1.871578333E0,-4.680664241E-1,-9.795277596E0,-8.319851011E-2
1.874066041E0,-4.680664241E-1,-9.785700798E0,-8.319851011E-2
1.876553750E0,-4.920084476E-1,-9.780912399E0,-4.489128292E-2
1.879041458E0,-5.015852451E-1,-9.776124001E0,-4.010287672E-2
1.881529166E0,-5.207388401E-1,-9.785700798E0,-5.446808785E-2
1.884016875E0,-5.063736439E-1,-9.795277596E0,-7.841010392E-2
1.886504583E0,-4.872200489E-1,-9.795277596E0,-1.167173311E-1
1.888992291E0,-4.728548229E-1,-9.819219589E0,-1.406593472E-1
1.891480000E0,-4.776432514E-1,-9.838373184E0,-1.454477459E-1
1.893967708E0,-4.776432514E-1,-9.862315178E0,-1.646013707E-1
1.896455416E0,-4.776432514E-1,-9.881468773E0,-1.837549806E-1
1.898943125E0,-4.584896266E-1,-9.919775963E0,-1.933317930E-1
1.901430833E0,-4.632780254E-1,-9.934141159E0,-2.029085904E-1
1.903918593E0,-4.441244006E-1,-9.958083153E0,-1.885433793E-1
1.906406354E0,-4.393360019E-1,-1.000117874E1,-2.029085904E-1
1.908894114E0,-4.010287821E-1,-1.001075554E1,-2.029085904E-1
1.911381875E0,-3.818751574E-1,-1.002033234E1,-2.029085904E-1
1.913869635E0,-3.627215624E-1,-1.002512074E1,-2.124854028E-1
1.916357396E0,-3.627215624E-1,-1.001075554E1,-2.220622003E-1
1.918845156E0,-3.435679376E-1,-1.001075554E1,-1.885433793E-1
1.921332916E0,-3.531447649E-1,-9.982025146E0,-2.029085904E-1
1.923820677E0,-3.531447649E-1,-9.982025146E0,-1.981201917E-1
1.926308437E0,-3.675099611E-1,-9.972448349E0,-1.933317930E-1
1.928796198E0,-3.818751574E-1,-9.986813545E0,-1.837549806E-1
1.931283958E0,-3.866635859E-1,-1.002033234E1,-1.646013707E-1
1.933771718E0,-3.770867586E-1,-1.004427433E1,-1.646013707E-1
1.936259479E0,-3.722983599E-1,-1.008258152E1,-1.310825497E-1
1.938747239E0,-3.866635859E-1,-1.012567711E1,-7.362170517E-2
1.941235000E0,-3.675099611E-1,-1.017356110E1,-5.446808785E-2
1.943722760E0,-3.722983599E-1,-1.021186924E1,-4.489128292E-2
1.946210521E0,-3.770867586E-1,-1.024538803E1,-2.573766746E-2
1.948698281E0,-3.866635859E-1,-1.026933002E1,-1.137245819E-2
1.951186041E0,-4.058171809E-1,-1.027890682E1,-2.573766746E-2
1.953673802E0,-4.058171809E-1,-1.029327202E1,-6.584054790E-3
1.956161562E0,-4.058171809E-1,-1.030284882E1,-1.616086066E-2
1.958649323E0,-3.914519846E-1,-1.032679081E1,-3.531447425E-2
1.961137083E0,-3.962403834E-1,-1.031721401E1,-5.446808785E-2
1.963624843E0,-4.106055796E-1,-1.033636761E1,-6.404489279E-2
1.966112604E0,-4.106055796E-1,-1.036030960E1,-9.756372124E-2
1.968600364E0,-4.441244006E-1,-1.037467480E1,-1.262941360E-1
1.971088125E0,-4.920084476E-1,-1.038903999E1,-1.789665818E-1
1.973575885E0,-5.111620426E-1,-1.045128918E1,-2.029085904E-1
1.976063646E0,-5.207388401E-1,-1.049438477E1,-2.220622003E-1
1.978551406E0,-5.446808934E-1,-1.053748035E1,-2.268506140E-1
1.981039166E0,-5.351040959E-1,-1.058536434E1,-2.076970041E-1
1.983526927E0,-5.159504414E-1,-1.064282513E1,-1.981201917E-1
1.986014687E0,-4.776432514E-1,-1.067634392E1,-1.981201917E-1
1.988502448E0,-4.728548229E-1,-1.069549751E1,-2.220622003E-1
1.990990208E0,-4.728548229E-1,-1.073380470E1,-2.603694201E-1
1.993477968E0,-4.728548229E-1,-1.074338150E1,-2.699462473E-1
1.995965729E0,-4.872200489E-1,-1.078168869E1,-2.460042238E-1
1.998453489E0,-4.920084476E-1,-1.079605389E1,-2.172738016E-1
2.000941250E0,-5.015852451E-1,-1.082478428E1,-1.741781682E-1
2.003429010E0,-4.776432514E-1,-1.087266827E1,-1.310825497E-1
2.005916771E0,-4.345476031E-1,-1.091576385E1,-7.362170517E-2
2.008404531E0,-3.914519846E-1,-1.100195503E1,-4.010287672E-2
2.010892291E0,-3.579331636E-1,-1.107856941E1,7.781155407E-3
2.013380052E0,-2.813186944E-1,-1.115997314E1,2.214636654E-2
2.015867812E0,-2.238578647E-1,-1.124137592E1,4.129998013E-2
2.018355573E0,-1.711854190E-1,-1.130841351E1,5.566519126E-2
2.020843333E0,-1.328781992E-1,-1.138023949E1,7.960720360E-2
2.023331093E0,-1.137245819E-1,-1.146643066E1,7.960720360E-2
2.025818854E0,-1.233013868E-1,-1.152867985E1,8.918401599E-2
2.028306614E0,-1.568202078E-1,-1.159092903E1,9.876082093E-2
2.030794375E0,-1.616086215E-1,-1.164838982E1,6.524199992E-2
2.033282135E0,-1.855506301E-1,-1.169627380E1,3.172317147E-2
2.035769896E0,-1.999158412E-1,-1.175852299E1,-1.795651275E-3
2.038257656E0,-1.999158412E-1,-1.179683018E1,-1.137245819E-2
2.040745416E0,-2.142810524E-1,-1.187344456E1,-1.137245819E-2
2.043233177E0,-2.286462635E-1,-1.192132854E1,-1.616086066E-2
2.045720937E0,-2.477998734E-1,-1.196921253E1,-3.052607179E-2
2.048208698E0,-2.717418969E-1,-1.201230812E1,-5.925649032E-2
2.050696458E0,-2.956839204E-1,-1.206976891E1,-5.446808785E-2
2.053184218E0,-3.579331636E-1,-1.211286449E1,-3.531447425E-2
2.055671979E0,-4.153940082E-1,-1.215596104E1,-5.446808785E-2
2.058159739E0,-4.584896266E-1,-1.221821022E1,-8.798690885E-2
2.060647500E0,-5.159504414E-1,-1.227567101E1,-1.358709484E-1
2.063135260E0,-5.494692922E-1,-1.235228539E1,-1.550245583E-1
2.065623021E0,-5.829881430E-1,-1.239538097E1,-1.693897694E-1
2.068110781E0,-6.021417379E-1,-1.248157215E1,-1.741781682E-1
2.070598541E0,-6.165069342E-1,-1.254382133E1,-1.646013707E-1
2.073086302E0,-6.260837317E-1,-1.262043571E1,-1.741781682E-1
2.075574062E0,-6.404489279E-1,-1.269226170E1,-1.981201917E-1
2.078061823E0,-6.404489279E-1,-1.276887608E1,-1.741781682E-1
2.080549583E0,-6.260837317E-1,-1.283591366E1,-1.741781682E-1
2.083037343E0,-6.069301367E-1,-1.289816284E1,-2.076970041E-1
2.085525104E0,-5.590460896E-1,-1.296998882E1,-2.460042238E-1
2.088012812E0,-5.063736439E-1,-1.302744961E1,-2.507926226E-1
2.090500521E0,-4.393360019E-1,-1.308012199E1,-2.555810213E-1
2.092988229E0,-4.201824069E-1,-1.312321854E1,-2.747346461E-1
2.095475937E0,-4.106055796E-1,-1.314237213E1,-2.699462473E-1
2.097963646E0,-4.153940082E-1,-1.314237213E1,-2.460042238E-1
2.100451354E0,-4.297592044E-1,-1.314716053E1,-2.507926226E-1
2.102939062E0,-4.776432514E-1,-1.313758373E1,-2.316390127E-1
2.105426771E0,-5.063736439E-1,-1.312321854E1,-2.364274114E-1
2.107914479E0,-5.446808934E-1,-1.312800694E1,-2.316390127E-1
2.110402187E0,-5.829881430E-1,-1.312321854E1,-2.076970041E-1
2.112889896E0,-6.260837317E-1,-1.311843014E1,-1.741781682E-1
2.115377604E0,-6.596025825E-1,-1.310885239E1,-1.406593472E-1
2.117865312E0,-6.787561774E-1,-1.310885239E1,-9.756372124E-2
2.120353021E0,-7.170634270E-1,-1.311364079E1,-5.925649032E-2
2.122840729E0,-7.505822182E-1,-1.311843014E1,-2.573766746E-2
2.125328437E0,-7.649474144E-1,-1.313279533E1,7.781155407E-3
2.127816146E0,-7.601590157E-1,-1.312800694E1,5.087678507E-2
2.130303854E0,-7.745242715E-1,-1.314716053E1,7.960720360E-2
2.132791562E0,-7.697358727E-1,-1.315673733E1,1.035492271E-1
2.135279271E0,-7.888894677E-1,-1.316152573E1,1.227028370E-1
2.137766979E0,-8.032546639E-1,-1.315673733E1,1.322796494E-1
2.140254687E0,-8.176198602E-1,-1.314716053E1,1.131260321E-1
2.142742396E0,-8.367735147E-1,-1.312800694E1,1.083376259E-1
2.145230104E0,-8.607155085E-1,-1.310885239E1,1.179144308E-1
2.147717812E0,-8.655039072E-1,-1.308491039E1,1.227028370E-1
2.150205521E0,-8.798691034E-1,-1.305618000E1,1.418564469E-1
2.152693229E0,-8.750807047E-1,-1.303223801E1,1.514332592E-1
2.155180937E0,-8.750807047E-1,-1.300829601E1,1.849520802E-1
2.157668646E0,-8.367735147E-1,-1.298914242E1,2.041056901E-1
2.160156354E0,-8.128314614E-1,-1.297956562E1,2.280477136E-1
2.162644062E0,-7.888894677E-1,-1.295562363E1,2.232593149E-1
2.165131771E0,-7.457938194E-1,-1.292689323E1,2.519897223E-1
2.167619479E0,-7.266402245E-1,-1.289816284E1,2.759317458E-1
2.170107187E0,-6.739677787E-1,-1.288379765E1,2.711433470E-1
2.172594896E0,-6.500257850E-1,-1.284549046E1,2.759317458E-1
2.175082604E0,-6.308721304E-1,-1.280239487E1,2.950853705E-1
2.177570312E0,-6.117185354E-1,-1.277366447E1,2.855085433E-1
2.180058073E0,-5.829881430E-1,-1.273535728E1,2.902969420E-1
2.182545833E0,-5.973533392E-1,-1.269226170E1,2.759317458E-1
2.185033593E0,-5.925649405E-1,-1.264437771E1,2.328361124E-1
2.187521354E0,-5.973533392E-1,-1.257734013E1,2.136825025E-1
2.190009114E0,-6.069301367E-1,-1.253424454E1,1.610100716E-1
2.192496875E0,-6.165069342E-1,-1.250072575E1,1.274912357E-1
2.194984635E0,-6.308721304E-1,-1.244805336E1,1.083376259E-1
2.197472396E0,-6.452373862E-1,-1.241453457E1,8.439560980E-2
2.199960156E0,-6.452373862E-1,-1.238101578E1,8.439560980E-2
2.202447916E0,-6.548141837E-1,-1.235707378E1,8.439560980E-2
2.204935677E0,-6.739677787E-1,-1.233313179E1,7.481880486E-2
2.207423437E0,-6.691793799E-1,-1.233792019E1,7.960720360E-2
2.209911198E0,-6.787561774E-1,-1.233313179E1,1.035492271E-1
2.212398958E0,-6.931213737E-1,-1.232834339E1,1.179144308E-1
2.214886718E0,-6.931213737E-1,-1.232834339E1,1.227028370E-1
2.217374479E0,-6.979097724E-1,-1.237622738E1,1.322796494E-1
2.219862239E0,-6.643909812E-1,-1.239538097E1,1.993172914E-1
2.222350000E0,-6.117185354E-1,-1.241453457E1,2.088941038E-1
2.224837760E0,-6.021417379E-1,-1.244805336E1,2.088941038E-1
2.227325521E0,-5.638344884E-1,-1.245763016E1,1.849520802E-1
2.229813281E0,-5.159504414E-1,-1.246720695E1,1.418564469E-1
2.232301041E0,-4.967968464E-1,-1.247678375E1,1.274912357E-1
2.234788802E0,-4.680664241E-1,-1.245763016E1,1.035492271E-1
2.237276562E0,-4.489128292E-1,-1.244326496E1,1.083376259E-1
2.239764323E0,-4.249708056E-1,-1.241932297E1,1.035492271E-1
2.242252083E0,-3.914519846E-1,-1.239538097E1,1.035492271E-1
2.244739843E0,-3.627215624E-1,-1.236665058E1,9.876082093E-2
2.247227604E0,-3.483563364E-1,-1.234270859E1,1.131260321E-1
2.249715364E0,-3.292027414E-1,-1.232834339E1,1.083376259E-1
2.252203125E0,-3.100491166E-1,-1.233313179E1,1.227028370E-1
2.254690885E0,-3.148375154E-1,-1.236665058E1,1.562216580E-1
2.257178646E0,-3.052607179E-1,-1.240495777E1,1.945288926E-1
2.259666406E0,-3.148375154E-1,-1.242889977E1,2.328361124E-1
2.262154166E0,-3.292027414E-1,-1.247199535E1,2.519897223E-1
2.264641927E0,-3.483563364E-1,-1.251509094E1,2.567781210E-1
2.267129687E0,-3.627215624E-1,-1.254860973E1,2.711433470E-1
2.269617448E0,-4.058171809E-1,-1.257734013E1,2.807201445E-1
2.272105208E0,-4.489128292E-1,-1.260607052E1,2.711433470E-1
2.274592968E0,-5.255272985E-1,-1.261085892E1,2.424129248E-1
2.277080729E0,-5.829881430E-1,-1.260128212E1,2.136825025E-1
2.279568489E0,-6.548141837E-1,-1.258691692E1,2.041056901E-1
2.282056250E0,-7.170634270E-1,-1.258691692E1,2.232593149E-1
2.284544010E0,-7.601590157E-1,-1.256297493E1,2.711433470E-1
2.287031771E0,-8.032546639E-1,-1.255339813E1,3.429693878E-1
2.289519531E0,-8.750807047E-1,-1.253424454E1,4.291606545E-1
2.292007291E0,-9.660604000E-1,-1.252945614E1,4.674678743E-1
2.294495052E0,-1.037886381E0,-1.251509094E1,4.578910768E-1
2.296982812E0,-1.143231273E0,-1.249593735E1,4.387374520E-1
2.299470573E0,-1.224634171E0,-1.248157215E1,4.195838571E-1
2.301958333E0,-1.306037068E0,-1.247199535E1,4.100070298E-1
2.304446093E0,-1.373074651E0,-1.244805336E1,3.812766075E-1
2.306933854E0,-1.382651448E0,-1.244805336E1,3.621230125E-1
2.309421614E0,-1.397016644E0,-1.241453457E1,3.621230125E-1
2.311909375E0,-1.392228246E0,-1.239538097E1,3.621230125E-1
2.314397135E0,-1.368286252E0,-1.239059258E1,4.100070298E-1
2.316884896E0,-1.329979062E0,-1.238580418E1,4.531026781E-1
2.319372656E0,-1.296460271E0,-1.235707378E1,4.531026781E-1
2.321860416E0,-1.267729759E0,-1.234749699E1,4.195838571E-1
2.324348177E0,-1.248576164E0,-1.233792019E1,3.956418335E-1
2.326835937E0,-1.215057373E0,-1.231397820E1,3.525462151E-1
2.329323698E0,-1.191115379E0,-1.229482460E1,3.381809890E-1
2.331811458E0,-1.167173386E0,-1.225651741E1,3.381809890E-1
2.334299218E0,-1.119289279E0,-1.220384502E1,3.238157928E-1
2.336786979E0,-1.090558887E0,-1.216553783E1,3.286041915E-1
2.339274739E0,-1.042674899E0,-1.211286449E1,3.238157928E-1
2.341762500E0,-9.708487988E-1,-1.206019211E1,3.286041915E-1
2.344250260E0,-9.038111567E-1,-1.201230812E1,3.477577865E-1
2.346738021E0,-7.888894677E-1,-1.197878933E1,3.573346138E-1
2.349225781E0,-6.787561774E-1,-1.194048214E1,4.339490533E-1
2.351713541E0,-5.590460896E-1,-1.192611694E1,4.674678743E-1
2.354201302E0,-4.393360019E-1,-1.192611694E1,5.009866953E-1
2.356689062E0,-3.196259141E-1,-1.190217495E1,5.009866953E-1
2.359176823E0,-2.094926536E-1,-1.194048214E1,4.770447016E-1
2.361664583E0,-1.280897856E-1,-1.193090534E1,4.531026781E-1
2.364152343E0,-5.147533491E-2,-1.192611694E1,4.387374520E-1
2.366640104E0,1.197100850E-3,-1.193090534E1,3.812766075E-1
2.369127864E0,5.985504016E-3,-1.192132854E1,3.094505668E-1
2.371615573E0,-3.591302549E-3,-1.188302135E1,2.663549483E-1
2.374103281E0,-3.232172132E-2,-1.184471416E1,2.376245260E-1
2.376590989E0,-7.541735470E-2,-1.180161858E1,2.280477136E-1
2.379078698E0,-1.328781992E-1,-1.175852299E1,2.232593149E-1
2.381566406E0,-1.903390288E-1,-1.172021580E1,2.088941038E-1
2.384054114E0,-2.525882721E-1,-1.167233181E1,1.610100716E-1
2.386541823E0,-3.052607179E-1,-1.159571743E1,1.179144308E-1
2.389029531E0,-3.818751574E-1,-1.154304504E1,7.960720360E-2
2.391517239E0,-4.776432514E-1,-1.146643066E1,7.003039867E-2
2.394004948E0,-5.734112859E-1,-1.141375828E1,5.087678507E-2
2.396492656E0,-6.643909812E-1,-1.135150909E1,4.608838260E-2
2.398980364E0,-7.553706169E-1,-1.128447151E1,6.524199992E-2
2.401468073E0,-8.415619135E-1,-1.123658752E1,6.045359373E-2
2.403955781E0,-9.373299479E-1,-1.120306873E1,7.003039867E-2
2.406443489E0,-9.900023937E-1,-1.115997314E1,7.481880486E-2
2.408931198E0,-1.042674899E0,-1.110729980E1,8.918401599E-2
2.411418906E0,-1.085770488E0,-1.106420422E1,1.514332592E-1
2.413906614E0,-1.128866076E0,-1.103547382E1,2.328361124E-1
2.416394323E0,-1.104924083E0,-1.100195503E1,3.477577865E-1
2.418882031E0,-1.080982089E0,-1.097322464E1,4.626794755E-1
2.421369739E0,-1.037886381E0,-1.095407104E1,5.297171474E-1
2.423857448E0,-1.004367590E0,-1.092534065E1,5.871779919E-1
2.426345156E0,-9.516952038E-1,-1.089661026E1,5.919663906E-1
2.428832864E0,-9.229647517E-1,-1.086309147E1,6.015431881E-1
2.431320573E0,-9.085995555E-1,-1.079605389E1,5.776011348E-1
2.433808281E0,-8.990227580E-1,-1.072422791E1,5.536591411E-1
2.436295989E0,-9.181763530E-1,-1.065719032E1,5.345055461E-1
2.438783698E0,-9.229647517E-1,-1.058057594E1,4.914098978E-1
2.441271406E0,-9.133879542E-1,-1.052790356E1,4.483142793E-1
2.443759114E0,-9.085995555E-1,-1.046086597E1,4.052186310E-1
2.446246823E0,-8.415619135E-1,-1.040819359E1,4.052186310E-1
2.448734531E0,-7.936778665E-1,-1.033157921E1,3.860650361E-1
2.451222239E0,-7.266402245E-1,-1.025017643E1,3.429693878E-1
2.453709948E0,-6.260837317E-1,-1.019271564E1,3.094505668E-1
2.456197656E0,-5.494692922E-1,-1.012088871E1,3.046621680E-1
2.458685416E0,-4.824316502E-1,-1.005863953E1,3.333925903E-1
2.461173177E0,-4.249708056E-1,-1.000596714E1,3.333925903E-1
2.463660937E0,-3.818751574E-1,-9.938929558E0,3.094505668E-1
2.466148698E0,-3.722983599E-1,-9.871891975E0,2.855085433E-1
2.468636458E0,-4.153940082E-1,-9.814431190E0,2.807201445E-1
2.471124218E0,-4.584896266E-1,-9.761758804E0,2.759317458E-1
2.473611979E0,-4.680664241E-1,-9.713874817E0,2.472013235E-1
2.476099739E0,-4.967968464E-1,-9.661202431E0,2.376245260E-1
2.478587500E0,-5.159504414E-1,-9.613318443E0,2.472013235E-1
2.481075260E0,-4.967968464E-1,-9.551069260E0,2.998737693E-1
2.483563021E0,-4.920084476E-1,-9.503185272E0,3.429693878E-1
2.486050781E0,-4.632780254E-1,-9.460089684E0,3.908534348E-1
2.488538541E0,-4.201824069E-1,-9.412205696E0,4.578910768E-1
2.491026302E0,-4.010287821E-1,-9.345168114E0,5.345055461E-1
2.493514062E0,-3.866635859E-1,-9.306860924E0,5.871779919E-1
2.496001823E0,-3.818751574E-1,-9.254188538E0,5.967547894E-1
2.498489583E0,-4.106055796E-1,-9.172784805E0,6.015431881E-1
2.500977343E0,-4.489128292E-1,-9.105747223E0,5.728127360E-1
2.503465104E0,-4.967968464E-1,-9.038709641E0,5.632359385E-1
2.505952864E0,-5.351040959E-1,-8.962095261E0,5.345055461E-1
2.508440625E0,-5.781996846E-1,-8.885480881E0,5.009866953E-1
2.510928385E0,-6.021417379E-1,-8.789712906E0,4.578910768E-1
2.513416146E0,-6.260837317E-1,-8.717886925E0,3.764882088E-1
2.515903906E0,-6.452373862E-1,-8.646060944E0,2.998737693E-1
2.518391666E0,-6.596025825E-1,-8.569446564E0,2.472013235E-1
2.520879427E0,-6.548141837E-1,-8.492832184E0,2.280477136E-1
2.523367187E0,-6.643909812E-1,-8.406641006E0,2.136825025E-1
2.525854948E0,-6.643909812E-1,-8.330026627E0,1.610100716E-1
2.528342708E0,-6.883329749E-1,-8.253412247E0,1.227028370E-1
2.530830468E0,-7.074866295E-1,-8.176796913E0,9.397241473E-2
2.533318229E0,-7.314286232E-1,-8.090605736E0,6.045359373E-2
2.535805989E0,-7.553706169E-1,-8.023568153E0,6.045359373E-2
2.538293750E0,-7.793126702E-1,-7.961318970E0,6.524199992E-2
2.540781510E0,-7.888894677E-1,-7.889492989E0,4.129998013E-2
2.543269271E0,-8.367735147E-1,-7.836820602E0,4.129998013E-2
2.545757031E0,-8.846575022E-1,-7.769783020E0,6.045359373E-2
2.548244791E0,-9.325415492E-1,-7.707533836E0,6.524199992E-2
2.550732552E0,-9.612720013E-1,-7.654861450E0,6.524199992E-2
2.553220312E0,-9.756371975E-1,-7.611765862E0,9.876082093E-2
2.555708073E0,-9.373299479E-1,-7.573458672E0,1.322796494E-1
2.558195833E0,-8.798691034E-1,-7.535151482E0,1.897404790E-1
2.560683593E0,-7.984662652E-1,-7.520786285E0,2.328361124E-1
2.563171354E0,-7.122750282E-1,-7.492055893E0,2.711433470E-1
2.565659114E0,-6.212953329E-1,-7.472901821E0,3.142389655E-1
2.568146875E0,-5.494692922E-1,-7.463325024E0,3.573346138E-1
2.570634635E0,-4.872200489E-1,-7.434594631E0,4.100070298E-1
2.573122396E0,-4.680664241E-1,-7.410652637E0,4.483142793E-1
2.575610156E0,-4.441244006E-1,-7.381922245E0,4.626794755E-1
2.578097916E0,-4.489128292E-1,-7.329249859E0,4.291606545E-1
2.580585677E0,-4.632780254E-1,-7.276577473E0,4.004302323E-1
2.583073437E0,-4.632780254E-1,-7.223905087E0,3.764882088E-1
2.585561198E0,-4.393360019E-1,-7.166444302E0,3.669114113E-1
2.588048958E0,-4.489128292E-1,-7.089829922E0,3.812766075E-1
2.590536718E0,-4.393360019E-1,-7.018003941E0,4.243722558E-1
2.593024479E0,-4.249708056E-1,-6.950965881E0,4.531026781E-1
2.595512239E0,-4.249708056E-1,-6.864774704E0,4.818331003E-1
2.598000000E0,-4.249708056E-1,-6.778583527E0,5.392939448E-1
2.600487760E0,-4.393360019E-1,-6.716334343E0,5.919663906E-1
2.602975521E0,-4.393360019E-1,-6.630143166E0,6.685808301E-1
2.605463281E0,-4.249708056E-1,-6.553528786E0,7.116764784E-1
2.607951041E0,-4.106055796E-1,-6.491279125E0,7.643488646E-1
2.610438802E0,-3.722983599E-1,-6.452971935E0,8.505401611E-1
2.612926562E0,-3.579331636E-1,-6.414664745E0,9.415197968E-1
2.615414323E0,-3.292027414E-1,-6.400299549E0,9.894038439E-1
2.617902083E0,-2.765302956E-1,-6.381145954E0,1.027711034E0
2.620389843E0,-2.382230759E-1,-6.342838764E0,1.046864748E0
2.622877604E0,-1.855506301E-1,-6.347627163E0,1.070806742E0
2.625365364E0,-1.951274425E-1,-6.328473568E0,1.061229944E0
2.627853125E0,-2.142810524E-1,-6.328473568E0,1.046864748E0
2.630340885E0,-2.334346622E-1,-6.299743176E0,1.022922635E0
2.632828646E0,-2.669534981E-1,-6.271012783E0,9.415197968E-1
2.635316406E0,-3.004723191E-1,-6.227917194E0,8.553285599E-1
2.637804166E0,-3.531447649E-1,-6.184821606E0,7.835025191E-1
2.640291927E0,-4.441244006E-1,-6.127360821E0,6.925228238E-1
2.642779687E0,-5.446808934E-1,-6.089053631E0,6.111199856E-1
2.645267448E0,-6.165069342E-1,-6.050746441E0,5.776011348E-1
2.647755208E0,-6.596025825E-1,-5.993285179E0,5.392939448E-1
2.650242968E0,-6.739677787E-1,-5.954977989E0,5.249287486E-1
2.652730729E0,-6.979097724E-1,-5.921459198E0,5.536591411E-1
2.655218437E0,-6.979097724E-1,-5.868786812E0,6.015431881E-1
2.657706146E0,-6.883329749E-1,-5.816114426E0,6.159083843E-1
2.660193854E0,-7.122750282E-1,-5.768230438E0,6.302735806E-1
2.662681562E0,-7.362170219E-1,-5.739500046E0,6.398503780E-1
2.665169271E0,-7.841010690E-1,-5.682039261E0,6.637924314E-1
2.667656979E0,-8.367735147E-1,-5.624578476E0,6.829460263E-1
2.670144687E0,-9.133879542E-1,-5.547964096E0,7.356184721E-1
2.672632396E0,-9.804255962E-1,-5.466560841E0,7.930793166E-1
2.675120104E0,-1.018732786E0,-5.389946461E0,8.313865662E-1
2.677607812E0,-1.023521185E0,-5.313332081E0,9.367313981E-1
2.680095521E0,-1.023521185E0,-5.241506100E0,1.037287831E0
2.682583229E0,-9.564836025E-1,-5.179256916E0,1.137844324E0
2.685070937E0,-9.038111567E-1,-5.145738125E0,1.233612418E0
2.687558646E0,-8.367735147E-1,-5.117007732E0,1.310226917E0
2.690046354E0,-7.649474144E-1,-5.093065739E0,1.382052898E0
2.692534062E0,-7.410054207E-1,-5.102642536E0,1.429937005E0
2.695021771E0,-7.170634270E-1,-5.121796131E0,1.468244195E0
2.697509479E0,-7.218518257E-1,-5.160103321E0,1.444302201E0
2.699997187E0,-7.362170219E-1,-5.222352505E0,1.425148606E0
2.702484896E0,-7.362170219E-1,-5.265448093E0,1.382052898E0
2.704972604E0,-7.553706169E-1,-5.294178486E0,1.329380512E0
2.707460312E0,-7.793126702E-1,-5.342062473E0,1.243189216E0
2.709948021E0,-7.793126702E-1,-5.375581264E0,1.185728431E0
2.712435729E0,-7.888894677E-1,-5.413888454E0,1.113902330E0
2.714923437E0,-7.888894677E-1,-5.413888454E0,1.080383539E0
2.717411146E0,-7.888894677E-1,-5.409100056E0,1.085171938E0
2.719898854E0,-7.505822182E-1,-5.394734859E0,1.118690729E0
2.722386562E0,-7.457938194E-1,-5.394734859E0,1.190516829E0
2.724874271E0,-7.505822182E-1,-5.356427670E0,1.209670424E0
2.727361979E0,-7.649474144E-1,-5.318120480E0,1.233612418E0
2.729849687E0,-7.793126702E-1,-5.313332081E0,1.262342811E0
2.732337396E0,-7.984662652E-1,-5.313332081E0,1.291073322E0
2.734825104E0,-8.224082589E-1,-5.303755283E0,1.315015316E0
2.737312812E0,-8.415619135E-1,-5.322908878E0,1.358110905E0
2.739800521E0,-8.607155085E-1,-5.342062473E0,1.362899303E0
2.742288281E0,-8.750807047E-1,-5.370792866E0,1.362899303E0
2.744776041E0,-8.894459605E-1,-5.413888454E0,1.353322506E0
2.747263802E0,-9.085995555E-1,-5.442618847E0,1.310226917E0
2.749751562E0,-9.325415492E-1,-5.490502834E0,1.243189216E0
2.752239323E0,-9.660604000E-1,-5.504868031E0,1.171363235E0
2.754727083E0,-1.013944387E0,-5.519233704E0,1.066018343E0
2.757214843E0,-1.071405292E0,-5.524022102E0,9.702502489E-1
2.759702604E0,-1.100135684E0,-5.533598900E0,8.984242082E-1
2.762190364E0,-1.104924083E0,-5.519233704E0,9.080010056E-1
2.764678125E0,-1.114500880E0,-5.495291233E0,8.936358094E-1
2.767165885E0,-1.104924083E0,-5.461772442E0,8.649053574E-1
2.769653646E0,-1.104924083E0,-5.409100056E0,9.080010056E-1
2.772141406E0,-1.071405292E0,-5.356427670E0,9.750386477E-1
2.774629166E0,-1.071405292E0,-5.294178486E0,1.032499433E0
2.777116927E0,-1.047463298E0,-5.212775707E0,1.085171938E0
2.779604687E0,-1.013944387E0,-5.160103321E0,1.109113932E0
2.782092448E0,-9.612720013E-1,-5.112219334E0,1.104325533E0
2.784580208E0,-9.181763530E-1,-5.078700542E0,1.128267527E0
2.787067968E0,-8.415619135E-1,-5.054758549E0,1.118690729E0
2.789555729E0,-7.505822182E-1,-5.026028156E0,1.109113932E0
2.792043489E0,-6.739677787E-1,-5.011662483E0,1.080383539E0
2.794531250E0,-5.686228871E-1,-5.002085686E0,1.066018343E0
2.797019010E0,-4.967968464E-1,-4.987720490E0,1.037287831E0
2.799506771E0,-4.584896266E-1,-5.006874084E0,1.037287831E0
2.801994531E0,-4.201824069E-1,-5.016450882E0,1.056441545E0
2.804482291E0,-3.818751574E-1,-5.045181751E0,1.104325533E0
2.806970052E0,-3.483563364E-1,-5.064335346E0,1.128267527E0
2.809457812E0,-2.956839204E-1,-5.097854137E0,1.171363235E0
2.811945573E0,-2.190694511E-1,-5.136161327E0,1.262342811E0
2.814433333E0,-1.472434103E-1,-5.169680119E0,1.377264500E0
2.816921093E0,-3.711012751E-2,-5.231929302E0,1.496974587E0
2.819408854E0,3.950432688E-2,-5.313332081E0,1.611896276E0
2.821896614E0,1.352723986E-1,-5.380369663E0,1.726817966E0
2.824384375E0,2.166752517E-1,-5.466560841E0,1.774701953E0
2.826872135E0,2.789244950E-1,-5.557540894E0,1.875258446E0
2.829359896E0,3.459621370E-1,-5.638943672E0,2.052429438E0
2.831847656E0,3.890577853E-1,-5.710769653E0,2.200869799E0
2.834335416E0,4.273650050E-1,-5.787384033E0,2.306214809E0
2.836823177E0,4.608838260E-1,-5.840056419E0,2.363675594E0
2.839310937E0,4.944026470E-1,-5.897517204E0,2.378040791E0
2.841798698E0,5.231330991E-1,-5.935824394E0,2.311003208E0
2.844286458E0,5.374982953E-1,-5.954977989E0,2.243965626E0
2.846774218E0,5.422866940E-1,-5.998073578E0,2.172139406E0
2.849261979E0,5.231330991E-1,-6.007650852E0,2.062006235E0
2.851749739E0,4.704606235E-1,-5.983708382E0,1.894412041E0
2.854237500E0,4.034229815E-1,-5.954977989E0,1.731606364E0
2.856725260E0,3.363853395E-1,-5.921459198E0,1.659780383E0
2.859213021E0,2.406172752E-1,-5.863998413E0,1.583165884E0
2.861700781E0,1.352723986E-1,-5.835268021E0,1.520916581E0
2.864188541E0,2.035071515E-2,-5.811326027E0,1.444302201E0
2.866676302E0,-1.089361757E-1,-5.796960831E0,1.377264500E0
2.869164062E0,-2.430114746E-1,-5.806537628E0,1.305438519E0
2.871651823E0,-3.627215624E-1,-5.825691223E0,1.262342811E0
2.874139583E0,-5.063736439E-1,-5.863998413E0,1.295861721E0
2.876627343E0,-6.356605291E-1,-5.926247597E0,1.353322506E0
2.879115104E0,-7.601590157E-1,-6.012439251E0,1.429937005E0
2.881602864E0,-8.655039072E-1,-6.146514416E0,1.516128182E0
2.884090625E0,-9.564836025E-1,-6.261435986E0,1.669357181E0
2.886578385E0,-1.018732786E0,-6.400299549E0,1.860893250E0
2.889066146E0,-1.013944387E0,-6.577470779E0,2.076371431E0
2.891553906E0,-1.004367590E0,-6.769006729E0,2.263119221E0
2.894041666E0,-9.612720013E-1,-6.955754280E0,2.430713177E0
2.896529427E0,-8.702923059E-1,-7.171232700E0,2.598307371E0
2.899017187E0,-7.457938194E-1,-7.362768650E0,2.756324768E0
2.901504948E0,-6.069301367E-1,-7.563881874E0,2.837727547E0
2.903992708E0,-4.632780254E-1,-7.755417824E0,2.895188332E0
2.906480468E0,-2.908954918E-1,-7.913434982E0,2.928707123E0
2.908968229E0,-1.424549967E-1,-8.047510147E0,2.890399933E0
2.911455989E0,-2.753331885E-2,-8.176796913E0,2.794631958E0
2.913943750E0,6.344634295E-2,-8.291719437E0,2.722805977E0
2.916431510E0,1.544260085E-1,-8.382699013E0,2.627037764E0
2.918919271E0,2.214636505E-1,-8.478466988E0,2.507327795E0
2.921407031E0,2.645592988E-1,-8.569446564E0,2.392405987E0
2.923894791E0,3.124433160E-1,-8.650849342E0,2.243965626E0
2.926382552E0,3.411737382E-1,-8.741828918E0,2.081159830E0
2.928870312E0,3.411737382E-1,-8.799289703E0,1.966238141E0
2.931358073E0,3.172317147E-1,-8.861538887E0,1.841739655E0
2.933845833E0,2.837128937E-1,-8.890269279E0,1.736394763E0
2.936333593E0,2.118868530E-1,-8.895057678E0,1.650203466E0
2.938821354E0,1.352723986E-1,-8.890269279E0,1.583165884E0
2.941309114E0,5.865794048E-2,-8.871115685E0,1.520916581E0
2.943796875E0,-2.274491638E-2,-8.895057678E0,1.482609391E0
2.946284635E0,-8.020575345E-2,-8.890269279E0,1.487397790E0
2.948772396E0,-1.376665980E-1,-8.899846077E0,1.511339784E0
2.951260156E0,-1.424549967E-1,-8.909422874E0,1.568800688E0
2.953747864E0,-1.376665980E-1,-8.966883659E0,1.631049871E0
2.956235573E0,-1.089361757E-1,-9.033921242E0,1.769913554E0
2.958723281E0,-4.668693244E-2,-9.110535622E0,1.975814939E0
2.961210989E0,2.035071515E-2,-9.187150002E0,2.239177227E0
2.963698698E0,1.065419763E-1,-9.292495728E0,2.540846586E0
2.966186406E0,2.310404629E-1,-9.412205696E0,2.832939148E0
2.968674114E0,3.315969408E-1,-9.531915665E0,3.139396906E0
2.971161823E0,4.417302012E-1,-9.651625633E0,3.393182278E0
2.973649531E0,5.279214978E-1,-9.766547203E0,3.584718466E0
2.976137239E0,5.758054852E-1,-9.881468773E0,3.699640274E0
2.978624948E0,5.901707411E-1,-9.977236748E0,3.714005470E0
2.981112656E0,5.710170865E-1,-1.006821632E1,3.699640274E0
2.983600364E0,4.991910458E-1,-1.011131191E1,3.627814054E0
2.986088073E0,4.177882075E-1,-1.015440750E1,3.527257681E0
2.988575781E0,2.885012925E-1,-1.016877270E1,3.383605480E0
2.991063489E0,1.400607973E-1,-1.017835045E1,3.216011524E0
2.993551198E0,1.197100850E-3,-1.020708084E1,3.038840532E0
2.996038906E0,-1.424549967E-1,-1.022144604E1,2.871246338E0
2.998526614E0,-2.861070931E-1,-1.026454163E1,2.698863983E0
3.001014323E0,-4.249708056E-1,-1.031242561E1,2.550423384E0
3.003502031E0,-5.686228871E-1,-1.036030960E1,2.430713177E0
3.005989739E0,-7.026981711E-1,-1.040340519E1,2.315791607E0
3.008477448E0,-8.176198602E-1,-1.044171238E1,2.253542423E0
3.010965156E0,-9.229647517E-1,-1.048001957E1,2.248754025E0
3.013452864E0,-1.037886381E0,-1.048001957E1,2.296638012E0
3.015940573E0,-1.133654475E0,-1.049917316E1,2.378040791E0
3.018428281E0,-1.234210968E0,-1.051353836E1,2.502539396E0
3.020915989E0,-1.301248670E0,-1.049917316E1,2.622249365E0
3.023403698E0,-1.353921056E0,-1.051832676E1,2.765901566E0
3.025891406E0,-1.368286252E0,-1.052311516E1,2.923918724E0
3.028379114E0,-1.349132657E0,-1.051353836E1,3.062782526E0
3.030866823E0,-1.310825467E0,-1.051832676E1,3.172915697E0
3.033354531E0,-1.286883354E0,-1.050396156E1,3.263895512E0
3.035842239E0,-1.248576164E0,-1.044650078E1,3.287837505E0
3.038330000E0,-1.215057373E0,-1.040340519E1,3.254318714E0
3.040817760E0,-1.176750183E0,-1.035552120E1,3.187281132E0
3.043305521E0,-1.176750183E0,-1.028369522E1,3.072359324E0
3.045793281E0,-1.195903778E0,-1.022144604E1,2.923918724E0
3.048281041E0,-1.219845772E0,-1.014961910E1,2.789843559E0
3.050768802E0,-1.262941360E0,-1.007779312E1,2.650979757E0
3.053256562E0,-1.301248670E0,-1.001554394E1,2.560000181E0
3.055744323E0,-1.325190663E0,-9.938929558E0,2.526481390E0
3.058232083E0,-1.339555860E0,-9.886257172E0,2.512116194E0
3.060719843E0,-1.329979062E0,-9.833584785E0,2.593518972E0
3.063207604E0,-1.306037068E0,-9.814431190E0,2.689286947E0
3.065695364E0,-1.248576164E0,-9.804854393E0,2.799420357E0
3.068183125E0,-1.176750183E0,-9.809642792E0,2.962226152E0
3.070670885E0,-1.114500880E0,-9.819219589E0,3.105878115E0
3.073158646E0,-1.037886381E0,-9.838373184E0,3.230376720E0
3.075646406E0,-9.852139950E-1,-9.886257172E0,3.330933094E0
3.078134166E0,-9.325415492E-1,-9.900622368E0,3.369240284E0
3.080621927E0,-8.750807047E-1,-9.934141159E0,3.431489468E0
3.083109687E0,-8.224082589E-1,-9.934141159E0,3.426701069E0
3.085597448E0,-7.888894677E-1,-9.938929558E0,3.431489468E0
3.088085208E0,-7.505822182E-1,-9.924564362E0,3.417124271E0
3.090572968E0,-7.170634270E-1,-9.871891975E0,3.397970676E0
3.093060729E0,-6.931213737E-1,-9.819219589E0,3.374028683E0
3.095548489E0,-6.835445762E-1,-9.776124001E0,3.330933094E0
3.098036250E0,-7.218518257E-1,-9.718663216E0,3.211223125E0
3.100524010E0,-7.888894677E-1,-9.637260437E0,3.062782526E0
3.103011771E0,-8.655039072E-1,-9.603741646E0,2.923918724E0
3.105499531E0,-9.421183467E-1,-9.560646057E0,2.818573952E0
3.107987291E0,-1.009155989E0,-9.522338867E0,2.698863983E0
3.110475052E0,-1.090558887E0,-9.527127266E0,2.598307371E0
3.112962812E0,-1.181538582E0,-9.507973671E0,2.478597403E0
3.115450573E0,-1.291671872E0,-9.517550468E0,2.397194386E0
3.117938333E0,-1.377863050E0,-9.531915665E0,2.358887196E0
3.120426093E0,-1.473631144E0,-9.565434456E0,2.363675594E0
3.122913854E0,-1.535880446E0,-9.603741646E0,2.382829189E0
3.125401614E0,-1.617283225E0,-9.646837234E0,2.411559582E0
3.127889375E0,-1.660378933E0,-9.680356026E0,2.464232206E0
3.130377135E0,-1.698686123E0,-9.737816811E0,2.555211782E0
3.132864896E0,-1.713051319E0,-9.800065994E0,2.674921751E0
3.135352656E0,-1.689109325E0,-9.847949982E0,2.799420357E0
3.137840416E0,-1.684320927E0,-9.900622368E0,2.909553528E0
3.140328177E0,-1.693897724E0,-9.924564362E0,3.005321741E0
3.142815937E0,-1.689109325E0,-9.924564362E0,3.077147722E0
3.145303698E0,-1.669955730E0,-9.929352760E0,3.115454912E0
3.147791458E0,-1.655590534E0,-9.910199165E0,3.158550501E0
3.150279218E0,-1.636436820E0,-9.876680374E0,3.196857929E0
3.152766979E0,-1.602918029E0,-9.843161583E0,3.216011524E0
3.155254739E0,-1.574187636E0,-9.838373184E0,3.230376720E0
3.157742500E0,-1.531091928E0,-9.804854393E0,3.211223125E0
3.160230260E0,-1.531091928E0,-9.761758804E0,3.144185305E0
3.162718021E0,-1.526303530E0,-9.733028412E0,3.034052134E0
3.165205781E0,-1.521515131E0,-9.704298019E0,2.957437754E0
3.167693541E0,-1.545457244E0,-9.670779228E0,2.871246338E0
3.170181302E0,-1.569399238E0,-9.608530045E0,2.761113167E0
3.172669062E0,-1.617283225E0,-9.555857658E0,2.660556555E0
3.175156823E0,-1.655590534E0,-9.493608475E0,2.617460966E0
3.177644583E0,-1.665167332E0,-9.474454880E0,2.550423384E0
3.180132343E0,-1.665167332E0,-9.455301285E0,2.502539396E0
3.182620104E0,-1.660378933E0,-9.450512886E0,2.512116194E0
3.185107864E0,-1.626860023E0,-9.460089684E0,2.540846586E0
3.187595625E0,-1.588552833E0,-9.479243279E0,2.583942175E0
3.190083385E0,-1.550245643E0,-9.488820076E0,2.646191359E0
3.192571146E0,-1.535880446E0,-9.507973671E0,2.703652382E0
3.195058906E0,-1.511938334E0,-9.517550468E0,2.751536369E0
3.197546666E0,-1.507149935E0,-9.527127266E0,2.770689964E0
3.200034427E0,-1.516726732E0,-9.536704063E0,2.785055161E0
3.202522187E0,-1.540668845E0,-9.512762070E0,2.789843559E0
3.205009948E0,-1.531091928E0,-9.527127266E0,2.761113167E0
3.207497708E0,-1.531091928E0,-9.507973671E0,2.708440781E0
3.209985468E0,-1.531091928E0,-9.469666481E0,2.636614561E0
3.212473229E0,-1.540668845E0,-9.431359291E0,2.603095770E0
3.214960989E0,-1.550245643E0,-9.397840500E0,2.569576979E0
3.217448750E0,-1.578976035E0,-9.345168114E0,2.540846586E0
3.219936510E0,-1.588552833E0,-9.316437721E0,2.526481390E0
3.222424271E0,-1.607706428E0,-9.292495728E0,2.512116194E0
3.224912031E0,-1.602918029E0,-9.258976936E0,2.536058187E0
3.227399791E0,-1.593341231E0,-9.239823341E0,2.550423384E0
3.229887552E0,-1.578976035E0,-9.220669746E0,2.560000181E0
3.232375312E0,-1.564610839E0,-9.211092949E0,2.521692991E0
3.234863073E0,-1.550245643E0,-9.196727753E0,2.473809004E0
3.237350833E0,-1.545457244E0,-9.191938400E0,2.387617588E0
3.239838593E0,-1.540668845E0,-9.172784805E0,2.287061214E0
3.242326354E0,-1.559822440E0,-9.158419609E0,2.186504602E0
3.244814114E0,-1.569399238E0,-9.139266014E0,2.119467020E0
3.247301875E0,-1.555034041E0,-9.148842812E0,2.076371431E0
3.249789635E0,-1.550245643E0,-9.158419609E0,2.057217836E0
3.252277396E0,-1.521515131E0,-9.182361603E0,2.095525026E0
3.254765156E0,-1.464054346E0,-9.211092949E0,2.196081400E0
3.257252916E0,-1.392228246E0,-9.273342133E0,2.272696018E0
3.259740677E0,-1.329979062E0,-9.335591316E0,2.344521999E0
3.262228437E0,-1.286883354E0,-9.402628899E0,2.387617588E0
3.264716146E0,-1.238999367E0,-9.479243279E0,2.435501575E0
3.267203854E0,-1.186326981E0,-9.570222855E0,2.464232206E0
3.269691562E0,-1.143231273E0,-9.627683640E0,2.464232206E0
3.272179271E0,-1.133654475E0,-9.670779228E0,2.459443808E0
3.274666979E0,-1.148019671E0,-9.689932823E0,2.445078373E0
3.277154687E0,-1.157596469E0,-9.694721222E0,2.425924778E0
3.279642396E0,-1.176750183E0,-9.689932823E0,2.373252392E0
3.282130104E0,-1.224634171E0,-9.632472038E0,2.301426411E0
3.284617812E0,-1.291671872E0,-9.570222855E0,2.248754025E0
3.287105521E0,-1.349132657E0,-9.517550468E0,2.181716204E0
3.289593229E0,-1.401805043E0,-9.455301285E0,2.124255419E0
3.292080937E0,-1.464054346E0,-9.402628899E0,2.100313425E0
3.294568646E0,-1.483207941E0,-9.364321709E0,2.071583033E0
3.297056354E0,-1.507149935E0,-9.335591316E0,2.076371431E0
3.299544062E0,-1.521515131E0,-9.326014519E0,2.081159830E0
3.302031771E0,-1.511938334E0,-9.326014519E0,2.081159830E0
3.304519479E0,-1.516726732E0,-9.354744911E0,2.081159830E0
3.307007187E0,-1.497573137E0,-9.373898506E0,2.105101824E0
3.309494896E0,-1.473631144E0,-9.402628899E0,2.114678621E0
3.311982604E0,-1.444900751E0,-9.436147690E0,2.095525026E0
3.314470312E0,-1.406593442E0,-9.436147690E0,2.090736628E0
3.316958021E0,-1.363497853E0,-9.431359291E0,2.081159830E0
3.319445729E0,-1.315613866E0,-9.436147690E0,2.081159830E0
3.321933437E0,-1.306037068E0,-9.445724487E0,2.042852640E0
3.324421146E0,-1.262941360E0,-9.421782494E0,1.999756932E0
3.326908854E0,-1.215057373E0,-9.412205696E0,1.956661344E0
3.329396562E0,-1.181538582E0,-9.412205696E0,1.947084546E0
3.331884271E0,-1.148019671E0,-9.397840500E0,1.951872945E0
3.334371979E0,-1.133654475E0,-9.393052101E0,1.961449742E0
3.336859687E0,-1.124077678E0,-9.402628899E0,1.951872945E0
3.339347396E0,-1.143231273E0,-9.393052101E0,1.937507749E0
3.341835104E0,-1.167173386E0,-9.397840500E0,1.932719350E0
3.344322812E0,-1.176750183E0,-9.397840500E0,1.932719350E0
3.346810573E0,-1.195903778E0,-9.378686905E0,1.923142552E0
3.349298333E0,-1.215057373E0,-9.359533310E0,1.913565755E0
3.351786093E0,-1.224634171E0,-9.359533310E0,1.903988957E0
3.354273854E0,-1.234210968E0,-9.349956512E0,1.923142552E0
3.356761614E0,-1.243787766E0,-9.354744911E0,1.961449742E0
3.359249375E0,-1.258152962E0,-9.364321709E0,1.951872945E0
3.361737135E0,-1.258152962E0,-9.369110107E0,1.942296147E0
3.364224896E0,-1.253364563E0,-9.373898506E0,1.947084546E0
3.366712656E0,-1.229422569E0,-9.393052101E0,1.927930951E0
3.369200416E0,-1.238999367E0,-9.407417297E0,1.918354154E0
3.371688177E0,-1.229422569E0,-9.416994095E0,1.889623642E0
3.374175937E0,-1.224634171E0,-9.440936089E0,1.841739655E0
3.376663698E0,-1.224634171E0,-9.455301285E0,1.813009262E0
3.379151458E0,-1.229422569E0,-9.464878082E0,1.779490471E0
3.381639218E0,-1.200692177E0,-9.488820076E0,1.722029567E0
3.384126979E0,-1.181538582E0,-9.474454880E0,1.693299174E0
3.386614739E0,-1.148019671E0,-9.464878082E0,1.650203466E0
3.389102500E0,-1.133654475E0,-9.469666481E0,1.626261473E0
3.391590260E0,-1.133654475E0,-9.450512886E0,1.645415068E0
3.394078021E0,-1.162384868E0,-9.421782494E0,1.674145579E0
3.396565781E0,-1.205480576E0,-9.412205696E0,1.707664371E0
3.399053541E0,-1.224634171E0,-9.397840500E0,1.769913554E0
3.401541302E0,-1.234210968E0,-9.383475304E0,1.846528053E0
3.404029062E0,-1.234210968E0,-9.378686905E0,1.947084546E0
3.406516823E0,-1.224634171E0,-9.378686905E0,2.018910646E0
3.409004583E0,-1.210268974E0,-9.397840500E0,2.124255419E0
3.411492343E0,-1.205480576E0,-9.426570892E0,2.172139406E0
3.413980104E0,-1.205480576E0,-9.407417297E0,2.215235233E0
3.416467864E0,-1.210268974E0,-9.421782494E0,2.248754025E0
3.418955625E0,-1.243787766E0,-9.426570892E0,2.263119221E0
3.421443385E0,-1.310825467E0,-9.431359291E0,2.243965626E0
3.423931146E0,-1.349132657E0,-9.397840500E0,2.224812031E0
3.426418906E0,-1.392228246E0,-9.397840500E0,2.148197412E0
3.428906666E0,-1.440112352E0,-9.369110107E0,2.081159830E0
3.431394427E0,-1.511938334E0,-9.349956512E0,2.028487444E0
3.433882187E0,-1.578976035E0,-9.349956512E0,1.994968534E0
3.436369948E0,-1.612494826E0,-9.359533310E0,1.980603337E0
3.438857708E0,-1.669955730E0,-9.345168114E0,1.966238141E0
3.441345468E0,-1.703474522E0,-9.340379715E0,1.966238141E0
3.443833229E0,-1.717839718E0,-9.354744911E0,1.990180135E0
3.446320989E0,-1.727416515E0,-9.369110107E0,1.999756932E0
3.448808750E0,-1.765723705E0,-9.373898506E0,2.009333849E0
3.451296510E0,-1.799242616E0,-9.383475304E0,1.994968534E0
3.453784271E0,-1.827973008E0,-9.388263702E0,1.975814939E0
3.456272031E0,-1.847126603E0,-9.416994095E0,1.971026540E0
3.458759791E0,-1.861491799E0,-9.426570892E0,2.004545450E0
3.461247552E0,-1.851915002E0,-9.445724487E0,2.038064241E0
3.463735312E0,-1.808819413E0,-9.464878082E0,2.076371431E0
3.466223073E0,-1.765723705E0,-9.493608475E0,2.114678621E0
3.468710833E0,-1.703474522E0,-9.527127266E0,2.152985811E0
3.471198593E0,-1.646013618E0,-9.560646057E0,2.186504602E0
3.473686354E0,-1.588552833E0,-9.598953247E0,2.210446835E0
3.476174114E0,-1.540668845E0,-9.613318443E0,2.220023632E0
3.478661875E0,-1.497573137E0,-9.627683640E0,2.239177227E0
3.481149635E0,-1.449689150E0,-9.651625633E0,2.272696018E0
3.483637396E0,-1.406593442E0,-9.661202431E0,2.267907619E0
3.486125156E0,-1.387439847E0,-9.656414032E0,2.248754025E0
3.488612916E0,-1.373074651E0,-9.642048836E0,2.220023632E0
3.491100677E0,-1.377863050E0,-9.637260437E0,2.157774210E0
3.493588437E0,-1.382651448E0,-9.627683640E0,2.133832216E0
3.496076198E0,-1.411381960E0,-9.613318443E0,2.119467020E0
3.498563958E0,-1.416170359E0,-9.579799652E0,2.109890223E0
3.501051718E0,-1.387439847E0,-9.555857658E0,2.119467020E0
3.503539479E0,-1.349132657E0,-9.536704063E0,2.095525026E0
3.506027239E0,-1.325190663E0,-9.546280861E0,2.081159830E0
3.508515000E0,-1.310825467E0,-9.546280861E0,2.071583033E0
3.511002760E0,-1.296460271E0,-9.546280861E0,2.052429438E0
3.513490521E0,-1.315613866E0,-9.536704063E0,2.033275843E0
3.515978281E0,-1.339555860E0,-9.531915665E0,1.990180135E0
3.518466041E0,-1.358709455E0,-9.507973671E0,1.937507749E0
3.520953802E0,-1.406593442E0,-9.517550468E0,1.899200439E0
3.523441562E0,-1.444900751E0,-9.507973671E0,1.841739655E0
3.525929323E0,-1.487996340E0,-9.479243279E0,1.813009262E0
3.528417083E0,-1.526303530E0,-9.479243279E0,1.813009262E0
3.530904843E0,-1.545457244E0,-9.469666481E0,1.817797661E0
3.533392604E0,-1.531091928E0,-9.455301285E0,1.841739655E0
3.535880364E0,-1.516726732E0,-9.445724487E0,1.875258446E0
3.538368125E0,-1.492784739E0,-9.455301285E0,1.908777356E0
3.540855885E0,-1.473631144E0,-9.450512886E0,1.961449742E0
3.543343646E0,-1.430535555E0,-9.460089684E0,2.009333849E0
3.545831406E0,-1.420958757E0,-9.464878082E0,2.004545450E0
3.548319166E0,-1.406593442E0,-9.464878082E0,2.018910646E0
3.550806927E0,-1.382651448E0,-9.469666481E0,2.014122248E0
3.553294687E0,-1.382651448E0,-9.488820076E0,1.999756932E0
3.555782448E0,-1.382651448E0,-9.474454880E0,2.004545450E0
3.558270208E0,-1.349132657E0,-9.460089684E0,2.009333849E0
3.560757968E0,-1.334767461E0,-9.455301285E0,2.028487444E0
3.563245729E0,-1.301248670E0,-9.455301285E0,2.071583033E0
3.565733489E0,-1.262941360E0,-9.460089684E0,2.105101824E0
3.568221250E0,-1.219845772E0,-9.455301285E0,2.124255419E0
3.570709010E0,-1.176750183E0,-9.431359291E0,2.129043818E0
3.573196771E0,-1.162384868E0,-9.431359291E0,2.143409014E0
3.575684531E0,-1.167173386E0,-9.407417297E0,2.148197412E0
3.578172291E0,-1.176750183E0,-9.373898506E0,2.152985811E0
3.580660052E0,-1.176750183E0,-9.354744911E0,2.138620615E0
3.583147812E0,-1.210268974E0,-9.311649323E0,2.148197412E0
3.585635573E0,-1.243787766E0,-9.273342133E0,2.148197412E0
3.588123281E0,-1.234210968E0,-9.249400139E0,2.172139406E0
3.590610989E0,-1.262941360E0,-9.220669746E0,2.148197412E0
3.593098698E0,-1.248576164E0,-9.220669746E0,2.152985811E0
3.595586406E0,-1.238999367E0,-9.215881348E0,2.152985811E0
3.598074114E0,-1.205480576E0,-9.225458145E0,2.157774210E0
3.600561823E0,-1.191115379E0,-9.244611740E0,2.162562609E0
3.603049531E0,-1.186326981E0,-9.263765335E0,2.186504602E0
3.605537239E0,-1.162384868E0,-9.278130531E0,2.162562609E0
3.608024948E0,-1.162384868E0,-9.292495728E0,2.148197412E0
3.610512656E0,-1.157596469E0,-9.311649323E0,2.143409014E0
3.613000364E0,-1.157596469E0,-9.321226120E0,2.105101824E0
3.615488073E0,-1.162384868E0,-9.330802917E0,2.090736628E0
3.617975781E0,-1.162384868E0,-9.335591316E0,2.081159830E0
3.620463489E0,-1.143231273E0,-9.335591316E0,2.076371431E0
3.622951198E0,-1.109712481E0,-9.335591316E0,2.057217836E0
3.625438906E0,-1.090558887E0,-9.330802917E0,2.047641039E0
3.627926614E0,-1.066616893E0,-9.345168114E0,2.047641039E0
3.630414323E0,-1.076193690E0,-9.349956512E0,2.038064241E0
3.632902031E0,-1.076193690E0,-9.359533310E0,2.023699045E0
3.635389739E0,-1.052251697E0,-9.345168114E0,1.990180135E0
3.637877448E0,-1.066616893E0,-9.359533310E0,1.951872945E0
3.640365156E0,-1.057040095E0,-9.349956512E0,1.927930951E0
3.642852864E0,-1.061828494E0,-9.354744911E0,1.889623642E0
3.645340573E0,-1.061828494E0,-9.354744911E0,1.856104851E0
3.647828281E0,-1.052251697E0,-9.369110107E0,1.836951256E0
3.650315989E0,-1.057040095E0,-9.369110107E0,1.827374458E0
3.652803698E0,-1.037886381E0,-9.383475304E0,1.836951256E0
3.655291406E0,-1.037886381E0,-9.378686905E0,1.851316452E0
3.657779114E0,-1.052251697E0,-9.378686905E0,1.880046844E0
3.660266823E0,-1.066616893E0,-9.388263702E0,1.889623642E0
3.662754531E0,-1.080982089E0,-9.397840500E0,1.903988957E0
3.665242239E0,-1.109712481E0,-9.369110107E0,1.913565755E0
3.667729948E0,-1.124077678E0,-9.349956512E0,1.923142552E0
3.670217708E0,-1.133654475E0,-9.345168114E0,1.918354154E0
3.672705468E0,-1.167173386E0,-9.340379715E0,1.918354154E0
3.675193229E0,-1.181538582E0,-9.340379715E0,1.927930951E0
3.677680989E0,-1.191115379E0,-9.359533310E0,1.956661344E0
3.680168750E0,-1.181538582E0,-9.359533310E0,1.961449742E0
3.682656510E0,-1.181538582E0,-9.359533310E0,1.937507749E0
3.685144271E0,-1.195903778E0,-9.378686905E0,1.923142552E0
3.687632031E0,-1.191115379E0,-9.402628899E0,1.918354154E0
3.690119791E0,-1.195903778E0,-9.416994095E0,1.894412041E0
3.692607552E0,-1.186326981E0,-9.421782494E0,1.889623642E0
3.695095312E0,-1.181538582E0,-9.412205696E0,1.889623642E0
3.697583073E0,-1.186326981E0,-9.416994095E0,1.903988957E0
3.700070833E0,-1.148019671E0,-9.436147690E0,1.937507749E0
3.702558593E0,-1.114500880E0,-9.421782494E0,1.971026540E0
3.705046354E0,-1.114500880E0,-9.421782494E0,2.009333849E0
3.707534114E0,-1.100135684E0,-9.412205696E0,2.057217836E0
3.710021875E0,-1.080982089E0,-9.421782494E0,2.066794634E0
3.712509635E0,-1.071405292E0,-9.421782494E0,2.085948229E0
3.714997396E0,-1.071405292E0,-9.426570892E0,2.095525026E0
3.717485156E0,-1.085770488E0,-9.412205696E0,2.105101824E0
3.719972916E0,-1.080982089E0,-9.402628899E0,2.105101824E0
3.722460677E0,-1.104924083E0,-9.397840500E0,2.105101824E0
3.724948437E0,-1.133654475E0,-9.412205696E0,2.095525026E0
3.727436198E0,-1.148019671E0,-9.397840500E0,2.100313425E0
3.729923958E0,-1.162384868E0,-9.412205696E0,2.081159830E0
3.732411718E0,-1.157596469E0,-9.421782494E0,2.052429438E0
3.734899479E0,-1.157596469E0,-9.426570892E0,2.042852640E0
3.737387239E0,-1.162384868E0,-9.426570892E0,2.047641039E0
3.739875000E0,-1.181538582E0,-9.416994095E0,2.057217836E0
3.742362760E0,-1.205480576E0,-9.407417297E0,2.052429438E0
3.744850521E0,-1.248576164E0,-9.407417297E0,2.033275843E0
3.747338281E0,-1.286883354E0,-9.393052101E0,2.028487444E0
3.749826041E0,-1.325190663E0,-9.359533310E0,2.018910646E0
3.752313802E0,-1.358709455E0,-9.335591316E0,2.028487444E0
3.754801562E0,-1.392228246E0,-9.321226120E0,2.033275843E0
3.757289323E0,-1.411381960E0,-9.321226120E0,2.023699045E0
3.759777083E0,-1.444900751E0,-9.330802917E0,2.038064241E0
3.762264843E0,-1.459265947E0,-9.326014519E0,2.042852640E0
3.764752604E0,-1.454477549E0,-9.330802917E0,2.028487444E0
3.767240364E0,-1.464054346E0,-9.340379715E0,2.023699045E0
3.769728125E0,-1.459265947E0,-9.354744911E0,2.028487444E0
3.772215885E0,-1.435323954E0,-9.349956512E0,1.999756932E0
3.774703646E0,-1.411381960E0,-9.364321709E0,1.966238141E0
3.777191406E0,-1.401805043E0,-9.373898506E0,1.932719350E0
3.779679166E0,-1.363497853E0,-9.373898506E0,1.913565755E0
3.782166927E0,-1.353921056E0,-9.369110107E0,1.903988957E0
3.784654687E0,-1.334767461E0,-9.349956512E0,1.903988957E0
3.787142448E0,-1.310825467E0,-9.326014519E0,1.903988957E0
3.789630208E0,-1.277306557E0,-9.311649323E0,1.937507749E0
3.792117968E0,-1.253364563E0,-9.297284126E0,1.961449742E0
3.794605729E0,-1.210268974E0,-9.306860924E0,1.961449742E0
3.797093489E0,-1.215057373E0,-9.278130531E0,1.990180135E0
3.799581250E0,-1.215057373E0,-9.268553734E0,1.990180135E0
3.802069010E0,-1.215057373E0,-9.239823341E0,1.985391736E0
3.804556771E0,-1.224634171E0,-9.230246544E0,1.975814939E0
3.807044531E0,-1.258152962E0,-9.211092949E0,1.999756932E0
3.809532291E0,-1.282094955E0,-9.196727753E0,2.014122248E0
3.812020052E0,-1.301248670E0,-9.182361603E0,2.014122248E0
3.814507812E0,-1.301248670E0,-9.177573204E0,2.023699045E0
3.816995573E0,-1.291671872E0,-9.177573204E0,2.047641039E0
3.819483333E0,-1.282094955E0,-9.191938400E0,2.057217836E0
3.821971093E0,-1.262941360E0,-9.211092949E0,2.076371431E0
3.824458854E0,-1.234210968E0,-9.220669746E0,2.095525026E0
3.826946614E0,-1.200692177E0,-9.239823341E0,2.114678621E0
3.829434375E0,-1.210268974E0,-9.268553734E0,2.119467020E0
3.831922135E0,-1.224634171E0,-9.268553734E0,2.119467020E0
3.834409896E0,-1.210268974E0,-9.273342133E0,2.105101824E0
3.836897656E0,-1.200692177E0,-9.278130531E0,2.057217836E0
3.839385416E0,-1.219845772E0,-9.282918930E0,2.004545450E0
3.841873177E0,-1.224634171E0,-9.282918930E0,1.966238141E0
3.844360937E0,-1.234210968E0,-9.273342133E0,1.947084546E0
3.846848698E0,-1.248576164E0,-9.249400139E0,1.932719350E0
3.849336458E0,-1.238999367E0,-9.254188538E0,1.923142552E0
3.851824218E0,-1.248576164E0,-9.249400139E0,1.937507749E0
3.854311979E0,-1.258152962E0,-9.249400139E0,1.937507749E0
3.856799739E0,-1.296460271E0,-9.268553734E0,1.947084546E0
3.859287500E0,-1.320402265E0,-9.282918930E0,1.956661344E0
3.861775260E0,-1.349132657E0,-9.287707329E0,1.961449742E0
3.864263021E0,-1.377863050E0,-9.311649323E0,1.966238141E0
3.866750781E0,-1.406593442E0,-9.335591316E0,1.985391736E0
3.869238541E0,-1.449689150E0,-9.335591316E0,2.014122248E0
3.871726302E0,-1.468842745E0,-9.330802917E0,2.014122248E0
3.874214062E0,-1.511938334E0,-9.321226120E0,2.009333849E0
3.876701823E0,-1.521515131E0,-9.302072525E0,2.042852640E0
3.879189583E0,-1.535880446E0,-9.302072525E0,2.066794634E0
3.881677343E0,-1.555034041E0,-9.302072525E0,2.076371431E0
3.884165104E0,-1.574187636E0,-9.297284126E0,2.105101824E0
3.886652864E0,-1.564610839E0,-9.297284126E0,2.114678621E0
3.889140625E0,-1.593341231E0,-9.292495728E0,2.138620615E0
3.891628385E0,-1.607706428E0,-9.306860924E0,2.157774210E0
3.894116146E0,-1.617283225E0,-9.302072525E0,2.133832216E0
3.896603906E0,-1.626860023E0,-9.306860924E0,2.095525026E0
3.899091666E0,-1.622071624E0,-9.316437721E0,2.085948229E0
3.901579427E0,-1.631648421E0,-9.330802917E0,2.052429438E0
3.904067187E0,-1.626860023E0,-9.335591316E0,2.047641039E0
3.906554948E0,-1.593341231E0,-9.354744911E0,2.033275843E0
3.909042708E0,-1.569399238E0,-9.349956512E0,2.014122248E0
3.911530468E0,-1.535880446E0,-9.359533310E0,2.018910646E0
3.914018229E0,-1.507149935E0,-9.364321709E0,2.028487444E0
3.916505989E0,-1.478419542E0,-9.369110107E0,2.038064241E0
3.918993750E0,-1.440112352E0,-9.393052101E0,2.023699045E0
3.921481510E0,-1.416170359E0,-9.397840500E0,2.042852640E0
3.923969271E0,-1.363497853E0,-9.393052101E0,2.057217836E0
3.926457031E0,-1.334767461E0,-9.402628899E0,2.042852640E0
3.928944791E0,-1.310825467E0,-9.402628899E0,2.057217836E0
3.931432552E0,-1.286883354E0,-9.402628899E0,2.047641039E0
3.933920260E0,-1.286883354E0,-9.393052101E0,2.066794634E0
3.936407968E0,-1.286883354E0,-9.378686905E0,2.047641039E0
3.938895677E0,-1.306037068E0,-9.359533310E0,2.023699045E0
3.941383385E0,-1.320402265E0,-9.330802917E0,2.033275843E0
3.943871093E0,-1.325190663E0,-9.330802917E0,2.062006235E0
3.946358802E0,-1.334767461E0,-9.311649323E0,2.042852640E0
3.948846510E0,-1.334767461E0,-9.311649323E0,2.085948229E0
3.951334218E0,-1.339555860E0,-9.306860924E0,2.119467020E0
3.953821927E0,-1.334767461E0,-9.311649323E0,2.152985811E0
3.956309635E0,-1.344344258E0,-9.306860924E0,2.176927805E0
3.958797343E0,-1.349132657E0,-9.311649323E0,2.205658197E0
3.961285052E0,-1.339555860E0,-9.302072525E0,2.253542423E0
3.963772760E0,-1.329979062E0,-9.321226120E0,2.296638012E0
3.966260468E0,-1.306037068E0,-9.345168114E0,2.344521999E0
3.968748177E0,-1.320402265E0,-9.335591316E0,2.373252392E0
3.971235885E0,-1.334767461E0,-9.359533310E0,2.392405987E0
3.973723593E0,-1.325190663E0,-9.364321709E0,2.392405987E0
3.976211302E0,-1.325190663E0,-9.364321709E0,2.378040791E0
3.978699010E0,-1.349132657E0,-9.388263702E0,2.358887196E0
3.981186718E0,-1.363497853E0,-9.397840500E0,2.311003208E0
3.983674427E0,-1.373074651E0,-9.402628899E0,2.267907619E0
3.986162135E0,-1.368286252E0,-9.416994095E0,2.248754025E0
3.988649843E0,-1.377863050E0,-9.407417297E0,2.234388828E0
3.991137552E0,-1.387439847E0,-9.416994095E0,2.215235233E0
3.993625260E0,-1.368286252E0,-9.421782494E0,2.181716204E0
3.996112968E0,-1.368286252E0,-9.416994095E0,2.196081400E0
3.998600677E0,-1.349132657E0,-9.436147690E0,2.191293001E0
4.001088385E0,-1.353921056E0,-9.450512886E0,2.172139406E0
4.003576093E0,-1.368286252E0,-9.460089684E0,2.162562609E0
4.006063802E0,-1.397016644E0,-9.469666481E0,2.152985811E0
4.008551510E0,-1.435323954E0,-9.479243279E0,2.114678621E0
4.011039218E0,-1.454477549E0,-9.469666481E0,2.071583033E0
4.013526979E0,-1.468842745E0,-9.460089684E0,2.042852640E0
4.016014739E0,-1.492784739E0,-9.474454880E0,2.028487444E0
4.018502500E0,-1.507149935E0,-9.474454880E0,2.038064241E0
4.020990260E0,-1.492784739E0,-9.464878082E0,2.081159830E0
4.023478021E0,-1.464054346E0,-9.464878082E0,2.133832216E0
4.025965781E0,-1.420958757E0,-9.469666481E0,2.172139406E0
4.028453541E0,-1.368286252E0,-9.503185272E0,2.224812031E0
4.030941302E0,-1.296460271E0,-9.527127266E0,2.258330822E0
4.033429062E0,-1.234210968E0,-9.536704063E0,2.272696018E0
4.035916823E0,-1.167173386E0,-9.570222855E0,2.263119221E0
4.038404583E0,-1.124077678E0,-9.594164848E0,2.272696018E0
4.040892343E0,-1.080982089E0,-9.613318443E0,2.282272816E0
4.043380104E0,-1.052251697E0,-9.608530045E0,2.272696018E0
4.045867864E0,-1.023521185E0,-9.603741646E0,2.239177227E0
4.048355625E0,-1.013944387E0,-9.608530045E0,2.215235233E0
4.050843385E0,-1.013944387E0,-9.608530045E0,2.200869799E0
4.053331146E0,-9.900023937E-1,-9.598953247E0,2.200869799E0
4.055818906E0,-9.756371975E-1,-9.594164848E0,2.210446835E0
4.058306666E0,-9.900023937E-1,-9.589376450E0,2.191293001E0
4.060794427E0,-1.004367590E0,-9.579799652E0,2.181716204E0
4.063282187E0,-1.028309584E0,-9.546280861E0,2.181716204E0
4.065769948E0,-1.061828494E0,-9.527127266E0,2.181716204E0
4.068257708E0,-1.071405292E0,-9.536704063E0,2.200869799E0
4.070745468E0,-1.090558887E0,-9.517550468E0,2.210446835E0
4.073233229E0,-1.114500880E0,-9.503185272E0,2.229600430E0
4.075720989E0,-1.133654475E0,-9.479243279E0,2.272696018E0
4.078208750E0,-1.133654475E0,-9.445724487E0,2.320580006E0
4.080696510E0,-1.128866076E0,-9.426570892E0,2.339733601E0
4.083184271E0,-1.152808070E0,-9.402628899E0,2.354098797E0
4.085672031E0,-1.181538582E0,-9.393052101E0,2.368463993E0
4.088159791E0,-1.200692177E0,-9.373898506E0,2.406771183E0
4.090647552E0,-1.229422569E0,-9.354744911E0,2.421136379E0
4.093135312E0,-1.258152962E0,-9.321226120E0,2.435501575E0
4.095623073E0,-1.296460271E0,-9.311649323E0,2.421136379E0
4.098110833E0,-1.301248670E0,-9.306860924E0,2.449866772E0
4.100598593E0,-1.315613866E0,-9.292495728E0,2.478597403E0
4.103086354E0,-1.315613866E0,-9.287707329E0,2.502539396E0
4.105574114E0,-1.320402265E0,-9.278130531E0,2.502539396E0
4.108061875E0,-1.315613866E0,-9.278130531E0,2.492962599E0
4.110549635E0,-1.315613866E0,-9.263765335E0,2.483385801E0
4.113037396E0,-1.286883354E0,-9.244611740E0,2.473809004E0
4.115525156E0,-1.272518158E0,-9.220669746E0,2.488174200E0
4.118012916E0,-1.248576164E0,-9.211092949E0,2.473809004E0
4.120500677E0,-1.195903778E0,-9.201516151E0,2.464232206E0
4.122988437E0,-1.167173386E0,-9.191938400E0,2.464232206E0
4.125476198E0,-1.109712481E0,-9.172784805E0,2.459443808E0
4.127963958E0,-1.052251697E0,-9.177573204E0,2.440289974E0
4.130451718E0,-9.900023937E-1,-9.163208008E0,2.406771183E0
4.132939479E0,-9.085995555E-1,-9.144054413E0,2.363675594E0
4.135427239E0,-8.750807047E-1,-9.105747223E0,2.315791607E0
4.137915000E0,-8.271966577E-1,-9.077016830E0,2.263119221E0
4.140402760E0,-8.080430627E-1,-9.033921242E0,2.210446835E0
4.142890521E0,-7.888894677E-1,-8.990825653E0,2.200869799E0
4.145378281E0,-7.553706169E-1,-8.957306862E0,2.215235233E0
4.147866041E0,-7.553706169E-1,-8.904634476E0,2.224812031E0
4.150353802E0,-7.601590157E-1,-8.871115685E0,2.253542423E0
4.152841562E0,-7.649474144E-1,-8.832808495E0,2.311003208E0
4.155329323E0,-7.793126702E-1,-8.808866501E0,2.349310398E0
4.157817083E0,-7.936778665E-1,-8.794501305E0,2.425924778E0
4.160304843E0,-7.888894677E-1,-8.784924507E0,2.454655409E0
4.162792604E0,-8.128314614E-1,-8.765770912E0,2.488174200E0
4.165280364E0,-8.463503122E-1,-8.746617317E0,2.502539396E0
4.167768125E0,-8.511387110E-1,-8.760982513E0,2.512116194E0
4.170255885E0,-8.655039072E-1,-8.765770912E0,2.512116194E0
4.172743646E0,-8.798691034E-1,-8.780136108E0,2.507327795E0
4.175231406E0,-8.990227580E-1,-8.794501305E0,2.507327795E0
4.177719166E0,-9.181763530E-1,-8.799289703E0,2.497750998E0
4.180206927E0,-9.373299479E-1,-8.808866501E0,2.464232206E0
4.182694687E0,-9.373299479E-1,-8.794501305E0,2.421136379E0
4.185182448E0,-9.373299479E-1,-8.784924507E0,2.406771183E0
4.187670208E0,-9.229647517E-1,-8.775347710E0,2.378040791E0
4.190157968E0,-9.133879542E-1,-8.751405716E0,2.334945202E0
4.192645729E0,-9.277531505E-1,-8.727463722E0,2.282272816E0
4.195133489E0,-9.325415492E-1,-8.703521729E0,2.248754025E0
4.197621250E0,-9.085995555E-1,-8.655637741E0,2.210446835E0
4.200109010E0,-9.133879542E-1,-8.626907349E0,2.167351007E0
4.202596771E0,-9.085995555E-1,-8.593388557E0,2.138620615E0
4.205084531E0,-9.277531505E-1,-8.555081367E0,2.124255419E0
4.207572291E0,-9.229647517E-1,-8.545504570E0,2.124255419E0
4.210060052E0,-9.181763530E-1,-8.516774178E0,2.081159830E0
4.212547812E0,-9.038111567E-1,-8.521562576E0,2.062006235E0
4.215035573E0,-8.846575022E-1,-8.511985779E0,2.023699045E0
4.217523333E0,-8.702923059E-1,-8.502408981E0,2.014122248E0
4.220011093E0,-8.511387110E-1,-8.478466988E0,2.014122248E0
4.222498854E0,-8.224082589E-1,-8.468890190E0,2.023699045E0
4.224986614E0,-8.032546639E-1,-8.468890190E0,2.047641039E0
4.227474375E0,-7.888894677E-1,-8.488043785E0,2.052429438E0
4.229962135E0,-7.553706169E-1,-8.507197380E0,2.071583033E0
4.232449896E0,-7.170634270E-1,-8.521562576E0,2.109890223E0
4.234937656E0,-6.739677787E-1,-8.535927773E0,2.138620615E0
4.237425416E0,-6.356605291E-1,-8.550292969E0,2.152985811E0
4.239913177E0,-6.212953329E-1,-8.564658165E0,2.148197412E0
4.242400937E0,-6.260837317E-1,-8.559869766E0,2.172139406E0
4.244888698E0,-6.117185354E-1,-8.559869766E0,2.172139406E0
4.247376458E0,-6.212953329E-1,-8.526350975E0,2.186504602E0
4.249864218E0,-6.548141837E-1,-8.497620583E0,2.191293001E0
4.252351979E0,-6.548141837E-1,-8.483255386E0,2.196081400E0
4.254839739E0,-6.787561774E-1,-8.449736595E0,2.148197412E0
4.257327500E0,-6.883329749E-1,-8.416217804E0,2.105101824E0
4.259815260E0,-7.026981711E-1,-8.382699013E0,2.062006235E0
4.262303021E0,-7.122750282E-1,-8.363545418E0,2.014122248E0
4.264790781E0,-7.553706169E-1,-8.315661430E0,1.971026540E0
4.267278541E0,-7.841010690E-1,-8.272565842E0,1.937507749E0
4.269766302E0,-7.888894677E-1,-8.239047050E0,1.880046844E0
4.272254062E0,-7.793126702E-1,-8.210315704E0,1.822586060E0
4.274741823E0,-7.936778665E-1,-8.200738907E0,1.813009262E0
4.277229583E0,-8.080430627E-1,-8.167220116E0,1.803432465E0
4.279717343E0,-8.271966577E-1,-8.138489723E0,1.793855667E0
4.282205104E0,-8.367735147E-1,-8.119336128E0,1.769913554E0
4.284692864E0,-8.415619135E-1,-8.095394135E0,1.779490471E0
4.287180625E0,-8.463503122E-1,-8.076240540E0,1.731606364E0
4.289668385E0,-8.559271097E-1,-8.081028938E0,1.750759959E0
4.292156093E0,-8.224082589E-1,-8.047510147E0,1.779490471E0
4.294643802E0,-8.224082589E-1,-8.023568153E0,1.808220863E0
4.297131510E0,-8.128314614E-1,-7.994838238E0,1.793855667E0
4.299619218E0,-8.080430627E-1,-7.956530571E0,1.789067268E0
4.302106927E0,-8.032546639E-1,-7.932588577E0,1.808220863E0
4.304594635E0,-8.032546639E-1,-7.889492989E0,1.808220863E0
4.307082343E0,-8.463503122E-1,-7.841609001E0,1.798644066E0
4.309570052E0,-8.846575022E-1,-7.784148216E0,1.774701953E0
4.312057760E0,-9.085995555E-1,-7.731475830E0,1.755548358E0
4.314545468E0,-9.469067454E-1,-7.669226646E0,1.726817966E0
4.317033177E0,-9.708487988E-1,-7.630919456E0,1.674145579E0
4.319520885E0,-9.852139950E-1,-7.568670273E0,1.664568782E0
4.322008593E0,-9.947907925E-1,-7.535151482E0,1.640626669E0
4.324496302E0,-1.004367590E0,-7.496844292E0,1.626261473E0
4.326984010E0,-9.995791912E-1,-7.458536625E0,1.640626669E0
4.329471718E0,-9.947907925E-1,-7.415441036E0,1.664568782E0
4.331959427E0,-9.804255962E-1,-7.396287441E0,1.654991984E0
4.334447135E0,-9.564836025E-1,-7.353191853E0,1.664568782E0
4.336934843E0,-9.516952038E-1,-7.314884663E0,1.645415068E0
4.339422552E0,-9.277531505E-1,-7.281365871E0,1.611896276E0
4.341910260E0,-9.229647517E-1,-7.252635479E0,1.568800688E0
4.344397968E0,-9.085995555E-1,-7.204751492E0,1.544858694E0
4.346885677E0,-9.133879542E-1,-7.142502308E0,1.516128182E0
4.349373385E0,-9.181763530E-1,-7.085041523E0,1.477820992E0
4.351861093E0,-9.085995555E-1,-7.013215542E0,1.468244195E0
4.354348802E0,-9.181763530E-1,-6.974907875E0,1.449090600E0
4.356836510E0,-9.181763530E-1,-6.888716698E0,1.434725404E0
4.359324218E0,-9.038111567E-1,-6.826467514E0,1.429937005E0
4.361811927E0,-9.038111567E-1,-6.764218330E0,1.429937005E0
4.364299635E0,-8.750807047E-1,-6.706757545E0,1.458667397E0
4.366787343E0,-8.607155085E-1,-6.678027153E0,1.520916581E0
4.369275104E0,-8.271966577E-1,-6.625354767E0,1.559223890E0
4.371762864E0,-7.936778665E-1,-6.587047577E0,1.592742682E0
4.374250625E0,-7.697358727E-1,-6.558317184E0,1.607107878E0
4.376738385E0,-7.601590157E-1,-6.534375191E0,1.607107878E0
4.379226146E0,-7.601590157E-1,-6.500856400E0,1.602319479E0
4.381713906E0,-7.553706169E-1,-6.476913929E0,1.564012289E0
4.384201666E0,-7.649474144E-1,-6.448183537E0,1.535281897E0
4.386689427E0,-7.745242715E-1,-6.438606739E0,1.473032594E0
4.389177187E0,-7.745242715E-1,-6.424241543E0,1.372476101E0
4.391664948E0,-7.314286232E-1,-6.424241543E0,1.291073322E0
4.394152708E0,-6.931213737E-1,-6.419453144E0,1.219247222E0
4.396640468E0,-6.452373862E-1,-6.429029942E0,1.185728431E0
4.399128229E0,-6.069301367E-1,-6.424241543E0,1.166574836E0
4.401615989E0,-5.590460896E-1,-6.457760334E0,1.123479128E0
4.404103750E0,-5.207388401E-1,-6.481702328E0,1.109113932E0
4.406591510E0,-5.015852451E-1,-6.491279125E0,1.099537134E0
4.409079271E0,-4.776432514E-1,-6.510433197E0,1.066018343E0
4.411567031E0,-4.584896266E-1,-6.548740387E0,1.046864748E0
4.414054791E0,-4.297592044E-1,-6.577470779E0,1.018134236E0
4.416542552E0,-4.058171809E-1,-6.606201172E0,1.003769040E0
4.419030312E0,-3.962403834E-1,-6.668450356E0,1.037287831E0
4.421518073E0,-3.818751574E-1,-6.706757545E0,1.089960337E0
4.424005833E0,-3.387795389E-1,-6.759429932E0,1.094748735E0
4.426493593E0,-3.148375154E-1,-6.797737122E0,1.109113932E0
4.428981354E0,-3.052607179E-1,-6.869563103E0,1.123479128E0
4.431469114E0,-3.052607179E-1,-6.936600685E0,1.142632723E0
4.433956875E0,-3.244143426E-1,-7.003638744E0,1.128267527E0
4.436444635E0,-3.531447649E-1,-7.056311131E0,1.089960337E0
4.438932396E0,-4.153940082E-1,-7.123348713E0,1.061229944E0
4.441420156E0,-4.489128292E-1,-7.166444302E0,1.032499433E0
4.443907916E0,-5.111620426E-1,-7.209539890E0,1.013345838E0
4.446395677E0,-5.686228871E-1,-7.238270283E0,9.798270464E-1
4.448883437E0,-6.165069342E-1,-7.286154270E0,9.175778031E-1
4.451371198E0,-6.691793799E-1,-7.319673061E0,8.696937561E-1
4.453858958E0,-7.026981711E-1,-7.367557049E0,8.122329116E-1
4.456346718E0,-7.266402245E-1,-7.410652637E0,7.691373229E-1
4.458834479E0,-7.793126702E-1,-7.429806232E0,7.260416746E-1
4.461322239E0,-8.128314614E-1,-7.458536625E0,7.116764784E-1
4.463810000E0,-8.607155085E-1,-7.482479095E0,6.590040326E-1
4.466297760E0,-8.894459605E-1,-7.554305077E0,6.063315868E-1
4.468785521E0,-9.181763530E-1,-7.583035469E0,5.392939448E-1
4.471273281E0,-9.612720013E-1,-7.630919456E0,4.722562730E-1
4.473761041E0,-1.004367590E0,-7.678803444E0,3.956418335E-1
4.476248802E0,-1.052251697E0,-7.712322235E0,3.477577865E-1
4.478736562E0,-1.071405292E0,-7.769783020E0,3.094505668E-1
4.481224323E0,-1.090558887E0,-7.817667007E0,2.807201445E-1
4.483712083E0,-1.095347285E0,-7.846397400E0,2.280477136E-1
4.486199843E0,-1.104924083E0,-7.879916191E0,2.184709013E-1
4.488687604E0,-1.114500880E0,-7.918223381E0,1.897404790E-1
4.491175364E0,-1.114500880E0,-7.961318970E0,1.753752679E-1
4.493663125E0,-1.124077678E0,-7.966107368E0,1.849520802E-1
4.496150885E0,-1.128866076E0,-7.994838238E0,1.993172914E-1
4.498638646E0,-1.133654475E0,-7.994838238E0,1.849520802E-1
4.501126406E0,-1.152808070E0,-7.999626637E0,2.041056901E-1
4.503614166E0,-1.167173386E0,-8.004414558E0,2.711433470E-1
4.506101927E0,-1.176750183E0,-8.013991356E0,3.908534348E-1
4.508589687E0,-1.186326981E0,-8.042721748E0,4.818331003E-1
4.511077448E0,-1.157596469E0,-8.033144951E0,5.488707423E-1
4.513565208E0,-1.143231273E0,-8.052298546E0,6.159083843E-1
4.516052968E0,-1.104924083E0,-8.057086945E0,6.925228238E-1
4.518540729E0,-1.076193690E0,-8.071452141E0,7.835025191E-1
4.521028489E0,-1.042674899E0,-8.114547729E0,9.080010056E-1
4.523516250E0,-9.900023937E-1,-8.128912926E0,9.702502489E-1
4.526004010E0,-9.564836025E-1,-8.172008514E0,1.013345838E0
4.528491771E0,-9.181763530E-1,-8.200738907E0,1.037287831E0
4.530979531E0,-8.655039072E-1,-8.243835449E0,1.037287831E0
4.533467291E0,-8.271966577E-1,-8.296507835E0,1.018134236E0
4.535955052E0,-7.697358727E-1,-8.344391823E0,9.989806414E-1
4.538442812E0,-7.170634270E-1,-8.401852608E0,9.702502489E-1
4.540930573E0,-6.931213737E-1,-8.440159798E0,9.080010056E-1
4.543418333E0,-6.643909812E-1,-8.478466988E0,8.218097091E-1
4.545906093E0,-6.548141837E-1,-8.502408981E0,7.739257216E-1
4.548393854E0,-6.548141837E-1,-8.521562576E0,6.877344251E-1
4.550881614E0,-6.452373862E-1,-8.550292969E0,5.776011348E-1
4.553369375E0,-6.835445762E-1,-8.545504570E0,4.578910768E-1
4.555857135E0,-7.122750282E-1,-8.564658165E0,3.094505668E-1
4.558344896E0,-7.697358727E-1,-8.559869766E0,1.753752679E-1
4.560832656E0,-8.367735147E-1,-8.569446564E0,1.131260321E-1
4.563320416E0,-9.229647517E-1,-8.559869766E0,7.481880486E-2
4.565808177E0,-9.756371975E-1,-8.559869766E0,6.045359373E-2
4.568295937E0,-1.023521185E0,-8.559869766E0,6.524199992E-2
4.570783698E0,-1.061828494E0,-8.555081367E0,6.524199992E-2
4.573271458E0,-1.061828494E0,-8.617330551E0,7.960720360E-2
4.575759218E0,-1.057040095E0,-8.674791336E0,8.439560980E-2
4.578246979E0,-1.042674899E0,-8.708310127E0,1.657984704E-1
4.580734739E0,-1.033097982E0,-8.765770912E0,2.376245260E-1
4.583222500E0,-1.004367590E0,-8.818443298E0,3.094505668E-1
4.585710260E0,-9.660604000E-1,-8.875904083E0,3.333925903E-1
4.588198021E0,-9.469067454E-1,-8.942941666E0,3.525462151E-1
4.590685781E0,-9.229647517E-1,-8.995614052E0,3.669114113E-1
4.593173541E0,-9.277531505E-1,-9.033921242E0,3.956418335E-1
4.595661302E0,-9.469067454E-1,-9.081805229E0,4.100070298E-1
4.598149062E0,-9.756371975E-1,-9.100958824E0,4.147954583E-1
4.600636823E0,-9.900023937E-1,-9.144054413E0,3.908534348E-1
4.603124583E0,-1.004367590E0,-9.196727753E0,3.429693878E-1
4.605612343E0,-1.004367590E0,-9.254188538E0,3.046621680E-1
4.608100104E0,-9.947907925E-1,-9.282918930E0,2.663549483E-1
4.610587864E0,-9.804255962E-1,-9.340379715E0,2.280477136E-1
4.613075625E0,-9.947907925E-1,-9.397840500E0,1.993172914E-1
4.615563385E0,-9.900023937E-1,-9.440936089E0,1.514332592E-1
4.618051146E0,-9.852139950E-1,-9.498396873E0,1.322796494E-1
4.620538906E0,-9.900023937E-1,-9.546280861E0,1.131260321E-1
4.623026666E0,-1.004367590E0,-9.589376450E0,8.918401599E-2
4.625514427E0,-1.028309584E0,-9.632472038E0,7.003039867E-2
4.628002187E0,-1.047463298E0,-9.665990829E0,2.214636654E-2
4.630489948E0,-1.076193690E0,-9.685144424E0,-3.052607179E-2
4.632977708E0,-1.090558887E0,-9.713874817E0,-6.404489279E-2
4.635465468E0,-1.109712481E0,-9.718663216E0,-1.215057373E-1
4.637953229E0,-1.143231273E0,-9.728240013E0,-1.550245583E-1
4.640440989E0,-1.162384868E0,-9.723451614E0,-1.598129570E-1
4.642928750E0,-1.157596469E0,-9.728240013E0,-1.837549806E-1
4.645416510E0,-1.162384868E0,-9.713874817E0,-1.741781682E-1
4.647904271E0,-1.152808070E0,-9.709086418E0,-1.837549806E-1
4.650392031E0,-1.119289279E0,-9.689932823E0,-1.693897694E-1
4.652879791E0,-1.090558887E0,-9.675567627E0,-1.406593472E-1
4.655367552E0,-1.028309584E0,-9.675567627E0,-7.362170517E-2
4.657855312E0,-9.947907925E-1,-9.675567627E0,-6.584054790E-3
4.660343021E0,-9.612720013E-1,-9.670779228E0,3.651157767E-2
4.662830729E0,-9.277531505E-1,-9.680356026E0,6.524199992E-2
4.665318437E0,-8.846575022E-1,-9.694721222E0,8.439560980E-2
4.667806146E0,-8.655039072E-1,-9.733028412E0,8.439560980E-2
4.670293854E0,-8.463503122E-1,-9.776124001E0,5.566519126E-2
4.672781562E0,-8.511387110E-1,-9.809642792E0,1.735796221E-2
4.675269271E0,-8.511387110E-1,-9.838373184E0,-3.052607179E-2
4.677756979E0,-8.607155085E-1,-9.852738380E0,-6.883329898E-2
4.680244687E0,-8.750807047E-1,-9.871891975E0,-9.756372124E-2
4.682732396E0,-8.702923059E-1,-9.900622368E0,-8.798690885E-2
4.685220104E0,-8.894459605E-1,-9.919775963E0,-9.277531505E-2
4.687707812E0,-9.325415492E-1,-9.938929558E0,-1.262941360E-1
4.690195521E0,-9.612720013E-1,-9.948506355E0,-1.598129570E-1
4.692683229E0,-9.708487988E-1,-9.977236748E0,-1.598129570E-1
4.695170937E0,-9.804255962E-1,-1.001554394E1,-1.502361596E-1
4.697658646E0,-9.852139950E-1,-1.004906273E1,-1.550245583E-1
4.700146354E0,-9.852139950E-1,-1.007779312E1,-1.502361596E-1
4.702634062E0,-9.947907925E-1,-1.012088871E1,-1.167173311E-1
4.705121771E0,-9.947907925E-1,-1.013046551E1,-1.071405262E-1
4.707609479E0,-1.004367590E0,-1.015919590E1,-1.167173311E-1
4.710097187E0,-1.013944387E0,-1.015919590E1,-1.310825497E-1
4.712584896E0,-1.033097982E0,-1.017835045E1,-1.119289324E-1
4.715072604E0,-1.047463298E0,-1.016877270E1,-1.119289324E-1
4.717560312E0,-1.085770488E0,-1.015919590E1,-1.262941360E-1
4.720048021E0,-1.104924083E0,-1.014004230E1,-1.262941360E-1
4.722535729E0,-1.143231273E0,-1.013046551E1,-8.319851011E-2
4.725023437E0,-1.148019671E0,-1.013046551E1,-6.404489279E-2
4.727511146E0,-1.162384868E0,-1.012088871E1,-2.094926499E-2
4.729998854E0,-1.176750183E0,-1.012088871E1,-1.795651275E-3
4.732486562E0,-1.176750183E0,-1.013046551E1,3.651157767E-2
4.734974323E0,-1.186326981E0,-1.016398430E1,3.172317147E-2
4.737462083E0,-1.171961784E0,-1.020229244E1,6.045359373E-2
4.739949843E0,-1.152808070E0,-1.025017643E1,1.035492271E-1
4.742437604E0,-1.100135684E0,-1.028369522E1,1.466448605E-1
4.744925364E0,-1.028309584E0,-1.030763721E1,1.705868691E-1
4.747413125E0,-9.516952038E-1,-1.036030960E1,2.088941038E-1
4.749900885E0,-8.655039072E-1,-1.041298199E1,2.232593149E-1
4.752388646E0,-7.841010690E-1,-1.044650078E1,2.136825025E-1
4.754876406E0,-7.122750282E-1,-1.047044277E1,1.993172914E-1
4.757364166E0,-6.500257850E-1,-1.049438477E1,1.657984704E-1
4.759851927E0,-6.021417379E-1,-1.051832676E1,1.466448605E-1
4.762339687E0,-5.542576909E-1,-1.050874996E1,9.876082093E-2
4.764827448E0,-5.207388401E-1,-1.051353836E1,7.481880486E-2
4.767315208E0,-4.824316502E-1,-1.051832676E1,7.481880486E-2
4.769802968E0,-4.680664241E-1,-1.050874996E1,6.045359373E-2
4.772290729E0,-4.441244006E-1,-1.050396156E1,3.651157767E-2
4.774778489E0,-4.058171809E-1,-1.051832676E1,2.214636654E-2
4.777266250E0,-3.962403834E-1,-1.054226875E1,1.735796221E-2
4.779754010E0,-3.818751574E-1,-1.054705715E1,-3.531447425E-2
4.782241771E0,-4.249708056E-1,-1.055184555E1,-9.277531505E-2
4.784729531E0,-4.632780254E-1,-1.054705715E1,-1.598129570E-1
4.787217291E0,-5.303156972E-1,-1.052790356E1,-1.933317930E-1
4.789705052E0,-6.165069342E-1,-1.050874996E1,-2.316390127E-1
4.792192812E0,-6.691793799E-1,-1.047523117E1,-2.747346461E-1
4.794680573E0,-7.457938194E-1,-1.042734718E1,-2.986766696E-1
4.797168333E0,-8.559271097E-1,-1.039382839E1,-2.938882709E-1
4.799656093E0,-9.277531505E-1,-1.036988640E1,-3.082534671E-1
4.802143854E0,-1.004367590E0,-1.034594440E1,-2.843114436E-1
4.804631614E0,-1.076193690E0,-1.032679081E1,-2.651578486E-1
4.807119375E0,-1.143231273E0,-1.032200241E1,-2.268506140E-1
4.809607135E0,-1.219845772E0,-1.032200241E1,-1.981201917E-1
4.812094896E0,-1.310825467E0,-1.033636761E1,-1.789665818E-1
4.814582656E0,-1.358709455E0,-1.033636761E1,-1.693897694E-1
4.817070416E0,-1.425747156E0,-1.035552120E1,-1.646013707E-1
4.819558177E0,-1.464054346E0,-1.038903999E1,-1.215057373E-1
4.822045937E0,-1.487996340E0,-1.039861679E1,-8.798690885E-2
4.824533698E0,-1.492784739E0,-1.039861679E1,-4.967968538E-2
4.827021458E0,-1.487996340E0,-1.039861679E1,-2.094926499E-2
4.829509218E0,-1.464054346E0,-1.038425159E1,6.045359373E-2
4.831996979E0,-1.449689150E0,-1.036509800E1,1.227028370E-1
4.834484739E0,-1.435323954E0,-1.034115601E1,1.705868691E-1
4.836972500E0,-1.406593442E0,-1.028848362E1,2.328361124E-1
4.839460260E0,-1.387439847E0,-1.022623444E1,2.807201445E-1
4.841948021E0,-1.349132657E0,-1.014961910E1,3.238157928E-1
4.844435781E0,-1.291671872E0,-1.008258152E1,3.716998100E-1
4.846923541E0,-1.215057373E0,-1.000117874E1,4.291606545E-1
4.849411302E0,-1.100135684E0,-9.914987564E0,4.866214991E-1
4.851899062E0,-9.804255962E-1,-9.828796387E0,5.536591411E-1
4.854386823E0,-8.655039072E-1,-9.752182007E0,6.159083843E-1
4.856874583E0,-7.505822182E-1,-9.685144424E0,6.590040326E-1
4.859362343E0,-6.596025825E-1,-9.618106842E0,7.116764784E-1
4.861850104E0,-5.781996846E-1,-9.575011253E0,7.595604658E-1
4.864337864E0,-5.063736439E-1,-9.565434456E0,7.835025191E-1
4.866825625E0,-4.489128292E-1,-9.584588051E0,8.074445128E-1
4.869313385E0,-3.962403834E-1,-9.613318443E0,7.643488646E-1
4.871801146E0,-3.483563364E-1,-9.675567627E0,6.829460263E-1
4.874288906E0,-2.765302956E-1,-9.752182007E0,5.823895931E-1
4.876776666E0,-2.286462635E-1,-9.852738380E0,4.531026781E-1
4.879264427E0,-1.807622313E-1,-9.905410767E0,3.573346138E-1
4.881752187E0,-1.616086215E-1,-9.996390343E0,2.807201445E-1
4.884239948E0,-1.376665980E-1,-1.007300472E1,2.280477136E-1
4.886727708E0,-1.280897856E-1,-1.012088871E1,1.705868691E-1
4.889215468E0,-1.520318091E-1,-1.018313885E1,1.274912357E-1
4.891703229E0,-1.999158412E-1,-1.024538803E1,1.322796494E-1
4.894190989E0,-2.861070931E-1,-1.030763721E1,1.131260321E-1
4.896678750E0,-3.962403834E-1,-1.034115601E1,3.651157767E-2
4.899166510E0,-5.398924947E-1,-1.038425159E1,-2.094926499E-2
4.901654271E0,-6.596025825E-1,-1.044650078E1,-1.167173311E-1
4.904142031E0,-7.553706169E-1,-1.048001957E1,-1.981201917E-1
4.906629791E0,-8.846575022E-1,-1.048959637E1,-2.843114436E-1
4.909117552E0,-9.804255962E-1,-1.046565437E1,-3.513490856E-1
4.911605312E0,-1.047463298E0,-1.044171238E1,-3.657143116E-1
4.914093073E0,-1.100135684E0,-1.038425159E1,-3.609259129E-1
4.916580833E0,-1.128866076E0,-1.032200241E1,-3.226186931E-1
4.919068593E0,-1.157596469E0,-1.023581123E1,-2.364274114E-1
4.921556354E0,-1.181538582E0,-1.018313885E1,-1.693897694E-1
4.924044114E0,-1.176750183E0,-1.013525391E1,-5.446808785E-2
4.926531875E0,-1.186326981E0,-1.010173512E1,4.129998013E-2
4.929019635E0,-1.171961784E0,-1.007300472E1,1.322796494E-1
4.931507396E0,-1.181538582E0,-1.007779312E1,2.136825025E-1
4.933995156E0,-1.200692177E0,-1.010652351E1,2.998737693E-1
4.936482916E0,-1.176750183E0,-1.014004230E1,3.525462151E-1
4.938970677E0,-1.138442874E0,-1.018313885E1,3.573346138E-1
4.941458437E0,-1.095347285E0,-1.021665764E1,3.525462151E-1
4.943946198E0,-1.066616893E0,-1.025017643E1,3.190273643E-1
4.946433958E0,-1.013944387E0,-1.028848362E1,3.094505668E-1
4.948921718E0,-9.612720013E-1,-1.028848362E1,2.615665495E-1
4.951409479E0,-9.229647517E-1,-1.027411842E1,2.088941038E-1
4.953897239E0,-8.894459605E-1,-1.025496483E1,1.179144308E-1
4.956385000E0,-8.511387110E-1,-1.019750404E1,7.481880486E-2
4.958872760E0,-8.032546639E-1,-1.018313885E1,5.566519126E-2
4.961360521E0,-7.553706169E-1,-1.015919590E1,1.256955881E-2
4.963848281E0,-7.074866295E-1,-1.013525391E1,-6.584054790E-3
4.966336041E0,-6.596025825E-1,-1.013046551E1,-6.584054790E-3
4.968823802E0,-6.260837317E-1,-1.013046551E1,7.781155407E-3
4.971311562E0,-5.877765417E-1,-1.016877270E1,1.735796221E-2
4.973799323E0,-5.303156972E-1,-1.022144604E1,8.439560980E-2
4.976287083E0,-5.015852451E-1,-1.028369522E1,1.227028370E-1
4.978774843E0,-4.776432514E-1,-1.034594440E1,1.801636815E-1
4.981262604E0,-4.584896266E-1,-1.040819359E1,2.424129248E-1
4.983750364E0,-4.489128292E-1,-1.047044277E1,2.711433470E-1
4.986238125E0,-4.680664241E-1,-1.053269196E1,2.759317458E-1
4.988725885E0,-4.872200489E-1,-1.058057594E1,2.902969420E-1
4.991213646E0,-5.255272985E-1,-1.061409473E1,2.711433470E-1
4.993701406E0,-5.638344884E-1,-1.061409473E1,2.280477136E-1
4.996189166E0,-5.829881430E-1,-1.061409473E1,1.897404790E-1
4.998676927E0,-6.117185354E-1,-1.059972954E1,1.753752679E-1
5.001164687E0,-6.308721304E-1,-1.057099915E1,1.466448605E-1
5.003652448E0,-6.452373862E-1,-1.054226875E1,1.370680481E-1
5.006140208E0,-6.691793799E-1,-1.049917316E1,1.227028370E-1
5.008627968E0,-6.883329749E-1,-1.047523117E1,1.035492271E-1
5.011115729E0,-7.170634270E-1,-1.045128918E1,8.439560980E-2
5.013603489E0,-7.266402245E-1,-1.044171238E1,9.397241473E-2
5.016091250E0,-7.410054207E-1,-1.043213558E1,1.131260321E-1
5.018579010E0,-7.457938194E-1,-1.043692398E1,1.227028370E-1
5.021066771E0,-7.553706169E-1,-1.044171238E1,1.322796494E-1
5.023554531E0,-8.032546639E-1,-1.045607758E1,1.657984704E-1
5.026042291E0,-8.463503122E-1,-1.046565437E1,1.945288926E-1
5.028530052E0,-8.990227580E-1,-1.051353836E1,1.849520802E-1
5.031017812E0,-9.660604000E-1,-1.057578754E1,1.274912357E-1
5.033505573E0,-1.023521185E0,-1.061888313E1,5.087678507E-2
5.035993333E0,-1.080982089E0,-1.068113232E1,-3.052607179E-2
5.038481093E0,-1.109712481E0,-1.070986271E1,-8.798690885E-2
5.040968854E0,-1.114500880E0,-1.073859310E1,-1.358709484E-1
5.043456614E0,-1.095347285E0,-1.078168869E1,-1.454477459E-1
5.045944375E0,-1.033097982E0,-1.077690029E1,-1.358709484E-1
5.048432083E0,-9.612720013E-1,-1.075774670E1,-5.446808785E-2
5.050919791E0,-8.607155085E-1,-1.070507431E1,4.129998013E-2
5.053407500E0,-7.888894677E-1,-1.067634392E1,1.514332592E-1
5.055895208E0,-6.835445762E-1,-1.064282513E1,2.807201445E-1
5.058382916E0,-6.260837317E-1,-1.061888313E1,3.860650361E-1
5.060870625E0,-5.877765417E-1,-1.062367153E1,4.626794755E-1
5.063358333E0,-5.207388401E-1,-1.064282513E1,5.392939448E-1
5.065846041E0,-4.489128292E-1,-1.067634392E1,5.967547894E-1
5.068333750E0,-3.818751574E-1,-1.071943951E1,6.446388364E-1
5.070821458E0,-2.908954918E-1,-1.078168869E1,6.829460263E-1
5.073309166E0,-2.047042400E-1,-1.083436108E1,7.116764784E-1
5.075796875E0,-1.568202078E-1,-1.087266827E1,7.260416746E-1
5.078284583E0,-1.376665980E-1,-1.091097546E1,6.829460263E-1
5.080772291E0,-1.424549967E-1,-1.092534065E1,6.350619793E-1
5.083260000E0,-1.855506301E-1,-1.094449425E1,5.680243373E-1
5.085747708E0,-2.430114746E-1,-1.096843624E1,4.626794755E-1
5.088235416E0,-3.100491166E-1,-1.099716663E1,3.333925903E-1
5.090723125E0,-3.675099611E-1,-1.102110863E1,1.897404790E-1
5.093210833E0,-4.153940082E-1,-1.104505062E1,6.524199992E-2
