"Time (s)","Acceleration x (m/s^2)","Acceleration y (m/s^2)","Acceleration z (m/s^2)"
4.920642000E-2,-2.153584480E0,8.376712799E0,8.457517624E-1
5.170214900E-2,-2.086546898E0,8.170811653E0,7.164648771E-1
5.419782600E-2,-2.129642487E0,8.031948090E0,5.967547894E-1
5.669345100E-2,-2.215833664E0,7.960122108E0,4.866214991E-1
5.918907600E-2,-2.311601639E0,7.888296127E0,4.243722558E-1
6.168470100E-2,-2.388216257E0,7.821258545E0,3.956418335E-1
6.418032600E-2,-2.431311846E0,7.754220963E0,4.674678743E-1
6.667871100E-2,-2.450465441E0,7.677606106E0,5.392939448E-1
6.917709700E-2,-2.440888643E0,7.567472935E0,6.494272351E-1
7.162709700E-2,-2.373851061E0,7.452551365E0,7.451952696E-1
7.407709700E-2,-2.302024841E0,7.323264599E0,7.835025191E-1
7.652709700E-2,-2.191891670E0,7.189188957E0,7.882909179E-1
7.898162800E-2,-2.091335297E0,7.079055786E0,7.451952696E-1
8.143615900E-2,-1.995567083E0,6.983287811E0,6.494272351E-1
8.390110700E-2,-1.923741102E0,6.949769020E0,5.440823436E-1
8.637730500E-2,-1.895010591E0,6.997653008E0,5.009866953E-1
8.886490900E-2,-1.871068597E0,7.055113792E0,4.914098978E-1
9.136350300E-2,-1.880645394E0,7.112574577E0,4.866214991E-1
9.387220100E-2,-1.885433793E0,7.170035362E0,4.674678743E-1
9.638975300E-2,-1.914164305E0,7.193977356E0,4.818331003E-1
9.891459700E-2,-1.938106298E0,7.193977356E0,6.111199856E-1
1.014449610E-1,-1.938106298E0,7.136516571E0,7.451952696E-1
1.039789200E-1,-1.957259893E0,7.069478989E0,8.601169586E-1
1.065144930E-1,-1.947683096E0,7.007229805E0,9.271546006E-1
1.090418360E-1,-1.899798989E0,6.916250229E0,9.558850527E-1
1.115296490E-1,-1.861491799E0,6.830059052E0,9.463081956E-1
1.140174610E-1,-1.847126603E0,6.705560207E0,9.558850527E-1
1.165052740E-1,-1.851915002E0,6.614580631E0,9.510966539E-1
1.189930860E-1,-1.899798989E0,6.542754650E0,8.888474107E-1
1.214808990E-1,-1.966836691E0,6.504447460E0,7.882909179E-1
1.239687110E-1,-2.033874273E0,6.494870663E0,6.925228238E-1
1.264565240E-1,-2.086546898E0,6.504447460E0,6.302735806E-1
1.289443360E-1,-2.134430885E0,6.509235859E0,6.111199856E-1
1.314320970E-1,-2.206256866E0,6.514024258E0,6.063315868E-1
1.339198570E-1,-2.321178436E0,6.537966251E0,6.781576276E-1
1.364076180E-1,-2.479195833E0,6.542754650E0,8.026561141E-1
1.388953780E-1,-2.632424831E0,6.571485043E0,8.649053574E-1
1.413831380E-1,-2.766499996E0,6.581061840E0,9.080010056E-1
1.438708990E-1,-2.847903013E0,6.600215435E0,9.032126069E-1
1.463586590E-1,-2.862268209E0,6.585850239E0,8.696937561E-1
1.488464200E-1,-2.847903013E0,6.542754650E0,8.457517624E-1
1.513341800E-1,-2.804807186E0,6.490082264E0,8.505401611E-1
1.538219400E-1,-2.771288395E0,6.490082264E0,7.643488646E-1
1.563097010E-1,-2.766499996E0,6.528389454E0,6.302735806E-1
1.587974610E-1,-2.742558002E0,6.590638638E0,4.483142793E-1
1.612852220E-1,-2.680308819E0,6.672041416E0,2.902969420E-1
1.637729820E-1,-2.546233416E0,6.724713802E0,3.238157928E-1
1.662607430E-1,-2.373851061E0,6.782175064E0,3.908534348E-1
1.687485030E-1,-2.148796082E0,6.791751862E0,4.052186310E-1
1.712362630E-1,-2.000355482E0,6.782175064E0,4.243722558E-1
1.737240240E-1,-1.957259893E0,6.772598267E0,5.297171474E-1
1.762117840E-1,-2.048239470E0,6.791751862E0,5.919663906E-1
1.786995450E-1,-2.234987259E0,6.863577843E0,5.967547894E-1
1.811873050E-1,-2.503137827E0,6.997653008E0,6.111199856E-1
1.836750650E-1,-2.732981205E0,7.170035362E0,6.877344251E-1
1.861628260E-1,-2.871845007E0,7.318476200E0,8.074445128E-1
1.886505860E-1,-2.919728994E0,7.438186169E0,9.319429994E-1
1.911383470E-1,-2.847903013E0,7.505223751E0,1.013345838E0
1.936261070E-1,-2.699462414E0,7.500435352E0,1.032499433E0
1.961138680E-1,-2.517503023E0,7.452551365E0,1.027711034E0
1.986016800E-1,-2.349909067E0,7.351994991E0,9.846154451E-1
2.010894930E-1,-2.258929253E0,7.217919350E0,9.558850527E-1
2.035773050E-1,-2.230198860E0,7.093420982E0,8.888474107E-1
2.060651180E-1,-2.249352455E0,7.012018204E0,8.505401611E-1
2.085529300E-1,-2.340332270E0,6.906673431E0,8.601169586E-1
2.110407430E-1,-2.431311846E0,6.801328659E0,8.409633636E-1
2.135285550E-1,-2.512714624E0,6.691195011E0,8.026561141E-1
2.160163680E-1,-2.618059635E0,6.581061840E0,7.020996213E-1
2.185041800E-1,-2.776076794E0,6.499659061E0,6.494272351E-1
2.209919930E-1,-2.938882589E0,6.466140270E0,6.302735806E-1
2.234798050E-1,-3.087323189E0,6.466140270E0,4.866214991E-1
2.259676180E-1,-3.168725967E0,6.451775074E0,3.956418335E-1
2.284554300E-1,-3.149572372E0,6.408679485E0,4.052186310E-1
2.309432430E-1,-3.039438963E0,6.332065105E0,4.100070298E-1
2.334310550E-1,-2.934094191E0,6.298546314E0,3.812766075E-1
2.359188680E-1,-2.857479811E0,6.269815922E0,4.052186310E-1
2.384066800E-1,-2.809595585E0,6.260239124E0,5.201402903E-1
2.408944930E-1,-2.718616009E0,6.260239124E0,5.488707423E-1
2.433823050E-1,-2.579752445E0,6.255450726E0,3.669114113E-1
2.458701180E-1,-2.412158251E0,6.241085052E0,2.041056901E-1
2.483579300E-1,-2.220622063E0,6.269815922E0,1.801636815E-1
2.508457430E-1,-2.024297476E0,6.336853504E0,3.286041915E-1
2.533335550E-1,-1.866280198E0,6.427833080E0,5.201402903E-1
2.558213680E-1,-1.780089021E0,6.504447460E0,6.685808301E-1
2.583091800E-1,-1.775300503E0,6.576273441E0,8.170213103E-1
2.607969930E-1,-1.842338204E0,6.624157429E0,1.008557439E0
2.632848050E-1,-1.976413488E0,6.609792233E0,1.137844324E0
2.657726180E-1,-2.129642487E0,6.566696644E0,1.133055925E0
2.682604300E-1,-2.249352455E0,6.470928669E0,1.018134236E0
2.707482430E-1,-2.292448044E0,6.346430302E0,8.936358094E-1
2.732360550E-1,-2.273294449E0,6.188412666E0,8.409633636E-1
2.757238680E-1,-2.187103271E0,6.054337502E0,7.451952696E-1
2.782116800E-1,-2.096123695E0,5.948992729E0,6.542156339E-1
2.806994930E-1,-2.024297476E0,5.915473938E0,6.302735806E-1
2.831873050E-1,-1.962048292E0,5.920262337E0,6.302735806E-1
2.856751180E-1,-1.875856996E0,5.886743546E0,7.643488646E-1
2.881629300E-1,-1.784877419E0,5.743091106E0,1.037287831E0
2.906507430E-1,-1.717839718E0,5.680841923E0,8.026561141E-1
2.931385550E-1,-1.741781712E0,5.666476727E0,4.291606545E-1
2.956263680E-1,-1.880645394E0,5.656899929E0,3.238157928E-1
2.981141800E-1,-2.067393064E0,5.704783916E0,3.094505668E-1
3.006019930E-1,-2.163161278E0,5.747879505E0,2.998737693E-1
3.030898050E-1,-2.182314873E0,5.776610374E0,4.866214991E-1
3.055776180E-1,-2.091335297E0,5.805340767E0,4.147954583E-1
3.080654300E-1,-1.976413488E0,5.805340767E0,4.052186310E-1
3.105532430E-1,-1.837549806E0,5.781398773E0,8.649053574E-1
3.130410550E-1,-1.732204914E0,5.790975571E0,9.894038439E-1
3.155288680E-1,-1.636436820E0,5.843647957E0,8.601169586E-1
3.180166800E-1,-1.511938334E0,5.838859558E0,1.089960337E0
3.205044930E-1,-1.377863050E0,5.867589951E0,1.315015316E0
3.229923050E-1,-1.291671872E0,5.972934723E0,1.343745708E0
3.254801180E-1,-1.272518158E0,6.111798286E0,1.281496406E0
3.279679300E-1,-1.334767461E0,6.250661850E0,1.156997919E0
3.304557430E-1,-1.420958757E0,6.341641903E0,1.018134236E0
3.329435550E-1,-1.468842745E0,6.389525890E0,8.936358094E-1
3.354313680E-1,-1.473631144E0,6.370372295E0,8.074445128E-1
3.379191800E-1,-1.468842745E0,6.332065105E0,7.739257216E-1
3.404069930E-1,-1.483207941E0,6.360795498E0,6.829460263E-1
3.428948050E-1,-1.521515131E0,6.418256283E0,7.068880796E-1
3.453826180E-1,-1.617283225E0,6.518812656E0,8.122329116E-1
3.478704300E-1,-1.693897724E0,6.595427036E0,8.888474107E-1
3.503582430E-1,-1.775300503E0,6.648099422E0,9.606734514E-1
3.528460550E-1,-1.871068597E0,6.719925404E0,1.003769040E0
3.553338680E-1,-2.024297476E0,6.791751862E0,1.099537134E0
3.578216800E-1,-2.211045265E0,6.873154640E0,1.200093627E0
3.603094930E-1,-2.349909067E0,6.935403824E0,1.295861721E0
3.627973050E-1,-2.431311846E0,6.968922615E0,1.405994892E0
3.652851180E-1,-2.474407434E0,6.978499413E0,1.401206493E0
3.677729300E-1,-2.493561029E0,7.026383400E0,1.329380512E0
3.702607430E-1,-2.455253839E0,7.098209381E0,1.286284804E0
3.727485550E-1,-2.421735048E0,7.193977356E0,1.300650120E0
3.752363680E-1,-2.354697466E0,7.337629795E0,1.425148606E0
3.777241800E-1,-2.282871246E0,7.505223751E0,1.410783410E0
3.802119930E-1,-2.100912094E0,7.668029308E0,1.113902330E0
3.826998050E-1,-1.818396211E0,7.715913296E0,1.142632723E0
3.851876180E-1,-1.550245643E0,7.720701694E0,1.372476101E0
3.876754300E-1,-1.454477549E0,7.869142532E0,1.468244195E0
3.901632430E-1,-1.526303530E0,8.098985672E0,1.535281897E0
3.926510550E-1,-1.641225219E0,8.290521622E0,1.530493379E0
3.951388680E-1,-1.708262920E0,8.429385185E0,1.559223890E0
3.976266800E-1,-1.626860023E0,8.472481728E0,1.669357181E0
4.001144930E-1,-1.449689150E0,8.486846924E0,1.745971560E0
4.026023050E-1,-1.219845772E0,8.529942513E0,1.769913554E0
4.050901180E-1,-9.900023937E-1,8.549096107E0,1.745971560E0
4.075779300E-1,-8.415619135E-1,8.573038101E0,1.755548358E0
4.100657430E-1,-7.936778665E-1,8.587403297E0,1.789067268E0
4.125535550E-1,-8.942343593E-1,8.577826500E0,1.808220863E0
4.150413680E-1,-1.095347285E0,8.549096107E0,1.745971560E0
4.175291800E-1,-1.325190663E0,8.539519310E0,1.664568782E0
4.200169930E-1,-1.531091928E0,8.534730911E0,1.650203466E0
4.225048050E-1,-1.626860023E0,8.520365715E0,1.698087573E0
4.249926180E-1,-1.617283225E0,8.515577316E0,1.813009262E0
4.274804300E-1,-1.521515131E0,8.520365715E0,1.903988957E0
4.299682430E-1,-1.392228246E0,8.582614899E0,1.985391736E0
4.324560550E-1,-1.243787766E0,8.649652481E0,2.066794634E0
4.349438680E-1,-1.124077678E0,8.726266861E0,2.152985811E0
4.374316800E-1,-1.057040095E0,8.788516045E0,2.239177227E0
4.399194930E-1,-1.095347285E0,8.879495621E0,2.339733601E0
4.424073050E-1,-1.238999367E0,8.951321602E0,2.397194386E0
4.448951180E-1,-1.425747156E0,9.008782387E0,2.373252392E0
4.473829300E-1,-1.569399238E0,9.090185165E0,2.334945202E0
4.498707430E-1,-1.602918029E0,9.157222748E0,2.263119221E0
4.523585550E-1,-1.535880446E0,9.209895134E0,2.143409014E0
4.548463680E-1,-1.416170359E0,9.281721115E0,1.971026540E0
4.573341800E-1,-1.363497853E0,9.841964722E0,5.728127360E-1
4.598219930E-1,-3.398569345E0,1.320342350E1,-5.470152378E0
4.623098050E-1,-8.469488144E0,1.803971100E1,-1.227447319E1
4.647976180E-1,-1.475187397E1,1.989761162E1,-1.216912842E1
4.672854300E-1,-2.163280869E1,1.744594955E1,-1.759139657E0
4.697732430E-1,-2.269104576E1,1.080922222E1,4.235941410E0
4.722610550E-1,-1.853471184E1,4.708796024E0,1.803432465E0
4.747488680E-1,-1.139999104E1,1.682525277E0,-5.285200477E-1
4.772366800E-1,-3.456030130E0,1.562815189E0,-1.347337008E0
4.797244930E-1,3.281253338E0,2.697666883E0,-6.051344872E-1
4.822123050E-1,7.466318130E0,4.158129692E0,2.564788580E0
4.847001180E-1,8.280346870E0,6.427833080E0,5.404311657E0
4.871879300E-1,5.694608688E0,9.320028305E0,6.199186802E0
4.896757430E-1,1.255758762E0,1.176211452E1,5.878363609E0
4.921635550E-1,-3.168725967E0,1.328003788E1,4.092289448E0
4.946513680E-1,-5.629965305E0,1.332792187E1,1.779490471E0
4.971391800E-1,-5.438429356E0,1.159452057E1,1.338957310E0
4.996269930E-1,-3.398569345E0,8.850765228E0,2.536058187E0
5.021148050E-1,-8.990227580E-1,6.308123112E0,3.852869034E0
5.046026180E-1,5.422866940E-1,5.158905983E0,3.967790842E0
5.070904300E-1,5.949591398E-1,5.743091106E0,2.229600430E0
5.095782430E-1,6.823474914E-2,7.380725384E0,-4.967968538E-2
5.120660550E-1,-1.616086215E-1,9.075819969E0,-1.807023764E0
5.145538680E-1,5.470750928E-1,9.976039886E0,-2.558803082E0
5.170416800E-1,1.816002011E0,9.770138741E0,-1.490989089E0
5.195294930E-1,2.816778183E0,8.879495621E0,6.877344251E-1
5.220173050E-1,2.735375404E0,7.988852501E0,2.512116194E0
5.245051180E-1,1.231816769E0,7.821258545E0,2.876034737E0
5.269929300E-1,-1.047463298E0,8.453327179E0,1.875258446E0
5.294807430E-1,-3.053804159E0,9.473258018E0,6.063315868E-1
5.319685550E-1,-3.848679304E0,1.019151783E1,-7.362170517E-2
5.344563680E-1,-3.202244759E0,1.016278744E1,5.105634928E-1
5.369441800E-1,-1.871068597E0,9.592967987E0,1.798644066E0
5.394319930E-1,-7.170634270E-1,8.960898399E0,2.904765129E0
5.419198050E-1,-4.058171809E-1,8.774150848E0,3.302202702E0
5.444076180E-1,-8.415619135E-1,9.128492355E0,2.818573952E0
5.468954820E-1,-1.473631144E0,9.669582367E0,2.186504602E0
5.493833470E-1,-1.780089021E0,1.007659626E1,1.765125155E0
5.518712110E-1,-1.550245643E0,1.006701946E1,1.822586060E0
5.543590760E-1,-1.104924083E0,9.722254753E0,2.296638012E0
5.568469400E-1,-7.601590157E-1,9.324816704E0,2.689286947E0
5.593348050E-1,-7.745242715E-1,9.200318336E0,2.770689964E0
5.618226700E-1,-1.157596469E0,9.492411613E0,2.315791607E0
5.643105340E-1,-1.531091928E0,9.961674690E0,1.784278870E0
5.667983990E-1,-1.574187636E0,1.031601620E1,1.453878999E0
5.692862630E-1,-1.238999367E0,1.034953499E1,1.473032594E0
5.717741280E-1,-7.984662652E-1,1.013405704E1,1.769913554E0
5.742619930E-1,-5.351040959E-1,9.894637108E0,2.014122248E0
5.767498570E-1,-6.212953329E-1,9.794080734E0,2.042852640E0
5.792377220E-1,-9.181763530E-1,9.861118317E0,1.822586060E0
5.817255860E-1,-1.191115379E0,9.980828285E0,1.573589087E0
5.842134510E-1,-1.320402265E0,1.000477028E1,1.449090600E0
5.867013150E-1,-1.267729759E0,9.841964722E0,1.506551385E0
5.891891800E-1,-1.191115379E0,9.607333183E0,1.635838270E0
5.916770450E-1,-1.191115379E0,9.434949875E0,1.688510776E0
5.941649090E-1,-1.272518158E0,9.415796280E0,1.554435492E0
5.966527740E-1,-1.339555860E0,9.535507202E0,1.358110905E0
5.991406380E-1,-1.310825467E0,9.655217171E0,1.267131209E0
6.016285030E-1,-1.167173386E0,9.683947563E0,1.315015316E0
6.041163680E-1,-1.033097982E0,9.588179588E0,1.520916581E0
6.066042320E-1,-1.052251697E0,9.478046417E0,1.659780383E0
6.090920970E-1,-1.215057373E0,9.473258018E0,1.712452769E0
6.115799610E-1,-1.440112352E0,9.473258018E0,1.683722377E0
6.140677740E-1,-1.555034041E0,9.434949875E0,1.664568782E0
6.165555860E-1,-1.574187636E0,9.348758698E0,1.698087573E0
6.190433990E-1,-1.550245643E0,9.195529938E0,1.803432465E0
6.215312110E-1,-1.555034041E0,9.047089577E0,1.899200439E0
6.240190240E-1,-1.617283225E0,9.013570786E0,1.894412041E0
6.265068360E-1,-1.684320927E0,9.056666374E0,1.808220863E0
6.289946490E-1,-1.703474522E0,9.133280754E0,1.745971560E0
6.314824610E-1,-1.660378933E0,9.195529938E0,1.779490471E0
6.339702740E-1,-1.535880446E0,9.190741539E0,1.889623642E0
6.364580860E-1,-1.420958757E0,9.181164742E0,2.004545450E0
6.389458990E-1,-1.344344258E0,9.166799545E0,2.062006235E0
6.414337110E-1,-1.325190663E0,9.233837128E0,2.028487444E0
6.439215240E-1,-1.329979062E0,9.324816704E0,1.966238141E0
6.464093360E-1,-1.272518158E0,9.415796280E0,1.908777356E0
6.488971490E-1,-1.171961784E0,9.434949875E0,1.889623642E0
6.513849610E-1,-1.095347285E0,9.415796280E0,1.865681648E0
6.538727740E-1,-1.080982089E0,9.387065887E0,1.803432465E0
6.563605860E-1,-1.119289279E0,9.339181900E0,1.707664371E0
6.588483990E-1,-1.176750183E0,9.286509514E0,1.602319479E0
6.613362110E-1,-1.210268974E0,9.224260330E0,1.549647093E0
6.638240240E-1,-1.243787766E0,9.133280754E0,1.544858694E0
6.663118360E-1,-1.329979062E0,9.071031570E0,1.587954283E0
6.687996490E-1,-1.435323954E0,9.042301178E0,1.635838270E0
6.712874610E-1,-1.564610839E0,9.027935982E0,1.659780383E0
6.737752740E-1,-1.727416515E0,9.003993988E0,1.707664371E0
6.762630860E-1,-1.847126603E0,8.956110001E0,1.779490471E0
6.787508990E-1,-1.947683096E0,8.860342026E0,1.841739655E0
6.812387110E-1,-2.024297476E0,8.750208855E0,1.880046844E0
6.837265240E-1,-2.091335297E0,8.620922089E0,1.884835243E0
6.862143360E-1,-2.148796082E0,8.506000519E0,1.851316452E0
6.887021490E-1,-2.177526474E0,8.400654793E0,1.822586060E0
6.911899610E-1,-2.191891670E0,8.280944824E0,1.813009262E0
6.936777740E-1,-2.191891670E0,8.180388451E0,1.793855667E0
6.961655860E-1,-2.144007683E0,8.070255280E0,1.760336757E0
6.986533990E-1,-2.120065689E0,7.969698906E0,1.702875972E0
7.011412110E-1,-2.110488892E0,7.917026520E0,1.611896276E0
7.036290240E-1,-2.139219284E0,7.888296127E0,1.477820992E0
7.061168360E-1,-2.148796082E0,7.893084526E0,1.291073322E0
7.086046490E-1,-2.144007683E0,7.907449722E0,1.176151633E0
7.110924610E-1,-2.081758261E0,7.883507729E0,1.171363235E0
7.135802740E-1,-1.985990286E0,7.830835342E0,1.214458823E0
7.160680860E-1,-1.904587507E0,7.811681747E0,1.286284804E0
7.185558990E-1,-1.832761407E0,7.778162956E0,1.329380512E0
7.210437110E-1,-1.722628117E0,7.768586159E0,1.382052898E0
7.235315240E-1,-1.569399238E0,7.792528152E0,1.434725404E0
7.260193360E-1,-1.397016644E0,7.826046944E0,1.492186189E0
7.285071490E-1,-1.253364563E0,7.912238121E0,1.492186189E0
7.309949610E-1,-1.195903778E0,8.051101685E0,1.453878999E0
7.334827740E-1,-1.191115379E0,8.237849236E0,1.362899303E0
7.359705860E-1,-1.181538582E0,8.415019989E0,1.315015316E0
7.384583990E-1,-1.114500880E0,8.544307709E0,1.334168911E0
7.409462110E-1,-9.660604000E-1,8.616133690E0,1.334168911E0
7.434340240E-1,-7.841010690E-1,8.640075684E0,1.300650120E0
7.459218360E-1,-6.356605291E-1,8.625710487E0,1.271919608E0
7.484096490E-1,-5.494692922E-1,8.592191696E0,1.233612418E0
7.508974610E-1,-5.734112859E-1,8.553884506E0,1.176151633E0
7.533852740E-1,-7.026981711E-1,8.525154114E0,1.113902330E0
7.558730860E-1,-8.750807047E-1,8.515577316E0,1.066018343E0
7.583608990E-1,-1.052251697E0,8.515577316E0,1.042076349E0
7.608487110E-1,-1.205480576E0,8.534730911E0,1.008557439E0
7.633365240E-1,-1.301248670E0,8.568249702E0,1.070806742E0
7.658243360E-1,-1.358709455E0,8.568249702E0,1.156997919E0
7.683121490E-1,-1.420958757E0,8.553884506E0,1.262342811E0
7.707999610E-1,-1.511938334E0,8.549096107E0,1.362899303E0
7.732877740E-1,-1.631648421E0,8.515577316E0,1.453878999E0
7.757755860E-1,-1.760935307E0,8.443750381E0,1.530493379E0
7.782633990E-1,-1.871068597E0,8.324040413E0,1.597531080E0
7.807512110E-1,-1.952471495E0,8.166023254E0,1.659780383E0
7.832390240E-1,-2.005143881E0,7.993640900E0,1.683722377E0
7.857268360E-1,-2.038662672E0,7.821258545E0,1.712452769E0
7.882146490E-1,-2.091335297E0,7.677606106E0,1.717241168E0
7.907024610E-1,-2.105700493E0,7.577049732E0,1.707664371E0
7.931902740E-1,-2.086546898E0,7.510012150E0,1.698087573E0
7.956780860E-1,-2.057816267E0,7.462128162E0,1.717241168E0
7.981658990E-1,-2.019509077E0,7.438186169E0,1.779490471E0
8.006537110E-1,-1.957259893E0,7.395090580E0,1.813009262E0
8.031415240E-1,-1.947683096E0,7.385513783E0,1.769913554E0
8.056293360E-1,-1.962048292E0,7.409455776E0,1.722029567E0
8.081171490E-1,-1.952471495E0,7.428609371E0,1.674145579E0
8.106049610E-1,-1.856703401E0,7.452551365E0,1.674145579E0
8.130927740E-1,-1.655590534E0,7.476493359E0,1.702875972E0
8.155805860E-1,-1.392228246E0,7.476493359E0,1.793855667E0
8.180683990E-1,-1.080982089E0,7.471704960E0,1.894412041E0
8.205562110E-1,-8.128314614E-1,7.490858555E0,1.994968534E0
8.230440240E-1,-5.829881430E-1,7.519588947E0,2.095525026E0
8.255318360E-1,-4.297592044E-1,7.543530941E0,2.162562609E0
8.280196490E-1,-3.483563364E-1,7.586626530E0,2.167351007E0
8.305074610E-1,-3.770867586E-1,7.634510517E0,2.148197412E0
8.329952740E-1,-4.297592044E-1,7.711124897E0,2.066794634E0
8.354830860E-1,-4.632780254E-1,7.811681747E0,1.937507749E0
8.379708990E-1,-4.201824069E-1,7.859565735E0,1.808220863E0
8.404587110E-1,-2.908954918E-1,7.859565735E0,1.702875972E0
8.429465240E-1,-8.020575345E-2,7.797316551E0,1.626261473E0
8.454343360E-1,8.738835901E-2,7.691971302E0,1.568800688E0
8.479221490E-1,1.640028208E-1,7.615356922E0,1.564012289E0
8.504099610E-1,1.448491961E-1,7.562684536E0,1.568800688E0
8.528977740E-1,2.992752194E-2,7.557896137E0,1.616684675E0
8.553855860E-1,-1.328781992E-1,7.577049732E0,1.707664371E0
8.578733990E-1,-2.908954918E-1,7.596203327E0,1.798644066E0
8.603612110E-1,-3.962403834E-1,7.600991726E0,1.894412041E0
8.628490240E-1,-4.728548229E-1,7.586626530E0,1.975814939E0
8.653368360E-1,-5.494692922E-1,7.548319340E0,2.028487444E0
8.678246490E-1,-5.973533392E-1,7.500435352E0,2.052429438E0
8.703124610E-1,-6.165069342E-1,7.447762966E0,2.085948229E0
8.728002740E-1,-5.829881430E-1,7.414244175E0,2.143409014E0
8.752880860E-1,-5.686228871E-1,7.375936985E0,2.176927805E0
8.777758990E-1,-5.111620426E-1,7.337629795E0,2.176927805E0
8.802637110E-1,-4.584896266E-1,7.332841396E0,2.148197412E0
8.827515240E-1,-4.058171809E-1,7.351994991E0,2.124255419E0
8.852393360E-1,-3.579331636E-1,7.390302181E0,2.071583033E0
8.877271490E-1,-3.052607179E-1,7.452551365E0,1.990180135E0
8.902149610E-1,-2.190694511E-1,7.505223751E0,1.951872945E0
8.927027740E-1,-1.376665980E-1,7.514800549E0,1.937507749E0
8.951905860E-1,-7.062894851E-2,7.500435352E0,1.927930951E0
8.976783990E-1,-4.189852998E-2,7.452551365E0,1.947084546E0
9.001662110E-1,1.556231081E-2,7.399878979E0,1.947084546E0
9.026540240E-1,6.823474914E-2,7.347206593E0,1.889623642E0
9.051418360E-1,1.256955862E-1,7.366360188E0,1.779490471E0
9.076296490E-1,1.448491961E-1,7.505223751E0,1.640626669E0
9.101174610E-1,1.783680320E-1,7.754220963E0,1.520916581E0
9.126052740E-1,2.597708702E-1,8.031948090E0,1.425148606E0
9.150930860E-1,4.465186298E-1,8.237849236E0,1.463455796E0
9.175808990E-1,6.572083831E-1,8.319252014E0,1.616684675E0
9.200687110E-1,8.535329103E-1,8.295310020E0,1.774701953E0
9.225565240E-1,9.253589511E-1,8.185176849E0,1.927930951E0
9.250443360E-1,8.822633028E-1,8.022371292E0,2.004545450E0
9.275321490E-1,7.242460251E-1,7.878719330E0,1.961449742E0
9.300199610E-1,5.374982953E-1,7.854777336E0,1.803432465E0
9.325077740E-1,3.842693865E-1,7.960122108E0,1.626261473E0
9.349955860E-1,3.028665185E-1,8.223484039E0,1.434725404E0
9.374833990E-1,3.172317147E-1,8.544307709E0,1.243189216E0
9.399712110E-1,4.082113802E-1,8.879495621E0,1.142632723E0
9.424590240E-1,5.662286878E-1,9.075819969E0,1.166574836E0
9.449468360E-1,6.811503768E-1,9.085396767E0,1.295861721E0
9.474346490E-1,7.242460251E-1,8.898649216E0,1.516128182E0
9.499224610E-1,6.141127348E-1,8.611345291E0,1.745971560E0
9.524102740E-1,3.842693865E-1,8.309675217E0,1.918354154E0
9.548980860E-1,1.017535701E-1,8.094197273E0,2.018910646E0
9.573858990E-1,-1.855506301E-1,7.998429298E0,2.023699045E0
9.598737110E-1,-4.297592044E-1,8.022371292E0,1.971026540E0
9.623615240E-1,-5.925649405E-1,8.156446457E0,1.908777356E0
9.648493360E-1,-6.691793799E-1,8.333617210E0,1.827374458E0
9.673371490E-1,-6.021417379E-1,8.467693329E0,1.789067268E0
9.698250130E-1,-4.393360019E-1,8.544307709E0,1.851316452E0
9.723128780E-1,-2.908954918E-1,8.501212120E0,1.990180135E0
9.748007430E-1,-2.142810524E-1,8.410231590E0,2.119467020E0
9.772886070E-1,-2.621650994E-1,8.233060837E0,2.210446835E0
9.797764720E-1,-4.058171809E-1,8.051101685E0,2.172139406E0
9.822643360E-1,-6.069301367E-1,7.917026520E0,2.052429438E0
9.847522010E-1,-8.176198602E-1,7.888296127E0,1.870470047E0
9.872400650E-1,-9.756371975E-1,7.964910507E0,1.664568782E0
9.897279300E-1,-1.066616893E0,8.122927666E0,1.540070295E0
9.922157950E-1,-1.128866076E0,8.381501198E0,1.425148606E0
9.947036590E-1,-1.124077678E0,8.659229279E0,1.358110905E0
9.971915240E-1,-1.071405292E0,8.922591209E0,1.348534107E0
9.996793880E-1,-9.995791912E-1,9.109338760E0,1.415571809E0
1.002167253E0,-9.421183467E-1,9.219471931E0,1.477820992E0
1.004655118E0,-9.229647517E-1,9.238625526E0,1.549647093E0
1.007142982E0,-1.013944387E0,9.219471931E0,1.635838270E0
1.009630847E0,-1.215057373E0,9.219471931E0,1.731606364E0
1.012118711E0,-1.492784739E0,9.248202324E0,1.803432465E0
1.014606576E0,-1.751358509E0,9.329605103E0,1.913565755E0
1.017094440E0,-1.957259893E0,9.454104424E0,2.033275843E0
1.019582305E0,-2.096123695E0,9.616909981E0,2.186504602E0
1.022070170E0,-2.239775658E0,9.746196747E0,2.325368404E0
1.024558034E0,-2.397793055E0,9.822811127E0,2.344521999E0
1.027045899E0,-2.536656618E0,9.846753120E0,2.325368404E0
1.029533763E0,-2.637213230E0,9.808445930E0,2.205658197E0
1.032021628E0,-2.704250813E0,9.717466354E0,2.119467020E0
1.034509493E0,-2.713827610E0,9.607333183E0,2.028487444E0
1.036997357E0,-2.694674015E0,9.473258018E0,1.937507749E0
1.039485222E0,-2.637213230E0,9.353547096E0,1.899200439E0
1.041973086E0,-2.622848034E0,9.229048729E0,1.899200439E0
1.044460951E0,-2.637213230E0,9.123703957E0,1.894412041E0
1.046948815E0,-2.665943623E0,9.037512779E0,1.808220863E0
1.049436680E0,-2.689885616E0,9.003993988E0,1.659780383E0
1.051924493E0,-2.689885616E0,9.032724380E0,1.602319479E0
1.054412305E0,-2.584540844E0,9.066243172E0,1.640626669E0
1.056900118E0,-2.407369852E0,9.109338760E0,1.726817966E0
1.059387930E0,-2.206256866E0,9.138069153E0,1.784278870E0
1.061875743E0,-2.067393064E0,9.138069153E0,1.760336757E0
1.064363555E0,-2.053027868E0,9.157222748E0,1.616684675E0
1.066851368E0,-2.139219284E0,9.205106735E0,1.429937005E0
1.069339180E0,-2.311601639E0,9.291297913E0,1.161786318E0
1.071826993E0,-2.455253839E0,9.415796280E0,9.606734514E-1
1.074314805E0,-2.483984232E0,9.516353607E0,9.175778031E-1
1.076802618E0,-2.354697466E0,9.588179588E0,9.798270464E-1
1.079290430E0,-2.129642487E0,9.636063576E0,1.161786318E0
1.081778243E0,-1.923741102E0,9.645640373E0,1.358110905E0
1.084266055E0,-1.842338204E0,9.636063576E0,1.616684675E0
1.086753868E0,-1.938106298E0,9.631275177E0,1.813009262E0
1.089241680E0,-2.144007683E0,9.650428772E0,1.908777356E0
1.091729493E0,-2.416946650E0,9.698312759E0,1.856104851E0
1.094217305E0,-2.704250813E0,9.798869133E0,1.736394763E0
1.096705118E0,-2.943670988E0,9.909002304E0,1.650203466E0
1.099192930E0,-3.058592558E0,9.990405083E0,1.698087573E0
1.101680743E0,-3.053804159E0,9.956886292E0,1.827374458E0
1.104168555E0,-2.962824583E0,9.856329918E0,1.961449742E0
1.106656368E0,-2.857479811E0,9.679159164E0,2.042852640E0
1.109144180E0,-2.771288395E0,9.487623215E0,2.057217836E0
1.111631993E0,-2.742558002E0,9.257779121E0,2.109890223E0
1.114119805E0,-2.766499996E0,9.071031570E0,2.234388828E0
1.116607618E0,-2.814383984E0,8.951321602E0,2.334945202E0
1.119095430E0,-2.895787001E0,8.893860817E0,2.382829189E0
1.121583243E0,-2.996343374E0,8.884284019E0,2.401982784E0
1.124071055E0,-3.087323189E0,8.932168007E0,2.378040791E0
1.126558868E0,-3.159149170E0,9.018359184E0,2.373252392E0
1.129046680E0,-3.202244759E0,9.037512779E0,2.421136379E0
1.131534493E0,-3.207033157E0,9.056666374E0,2.531269789E0
1.134022305E0,-3.183091164E0,9.037512779E0,2.660556555E0
1.136510118E0,-3.130418777E0,9.018359184E0,2.703652382E0
1.138997930E0,-3.058592558E0,9.013570786E0,2.650979757E0
1.141485743E0,-3.020285368E0,9.080608368E0,2.521692991E0
1.143973555E0,-3.020285368E0,9.181164742E0,2.397194386E0
1.146461368E0,-3.044227362E0,9.272144318E0,2.325368404E0
1.148949180E0,-3.077746391E0,9.329605103E0,2.330156803E0
1.151436993E0,-3.096899986E0,9.339181900E0,2.349310398E0
1.153924805E0,-3.096899986E0,9.272144318E0,2.382829189E0
1.156412618E0,-3.130418777E0,9.248202324E0,2.363675594E0
1.158900430E0,-3.192667961E0,9.281721115E0,2.301426411E0
1.161388243E0,-3.250128746E0,9.406219482E0,2.277484417E0
1.163876055E0,-3.283647537E0,9.612121582E0,2.282272816E0
1.166363868E0,-3.269282341E0,9.851541519E0,2.354098797E0
1.168851680E0,-3.211821556E0,1.007659626E1,2.497750998E0
1.171339493E0,-3.159149170E0,1.025376701E1,2.650979757E0
1.173827305E0,-3.120841980E0,1.038305378E1,2.818573952E0
1.176315118E0,-3.168725967E0,1.045009232E1,2.986168146E0
1.178802930E0,-3.331531763E0,1.049797630E1,3.110666513E0
1.181290743E0,-3.556586742E0,1.053149509E1,3.101089716E0
1.183778555E0,-3.728969097E0,1.057459068E1,3.014898539E0
1.186266368E0,-3.901351690E0,1.059853268E1,2.904765129E0
1.188754180E0,-4.006696701E0,1.062247467E1,2.832939148E0
1.191241993E0,-4.049792290E0,1.062726307E1,2.823362350E0
1.193729805E0,-4.068945885E0,1.057459068E1,2.828150749E0
1.196217618E0,-4.054580688E0,1.052191830E1,2.799420357E0
1.198705430E0,-4.021061897E0,1.043093872E1,2.756324768E0
1.201193243E0,-3.977966070E0,1.031122780E1,2.718017578E0
1.203681055E0,-3.930082083E0,1.015799904E1,2.670133352E0
1.206168868E0,-3.920505285E0,1.002392387E1,2.603095770E0
1.208656680E0,-3.925293684E0,9.880271912E0,2.560000181E0
1.211144493E0,-3.939658880E0,9.755773544E0,2.531269789E0
1.213632305E0,-3.930082083E0,9.693524361E0,2.521692991E0
1.216120118E0,-3.901351690E0,9.640851974E0,2.564788580E0
1.218607930E0,-3.858256102E0,9.607333183E0,2.641402960E0
1.221095743E0,-3.824737310E0,9.564237595E0,2.785055161E0
1.223583555E0,-3.829525709E0,9.468469620E0,2.876034737E0
1.226071368E0,-3.819948912E0,9.353547096E0,2.861669540E0
1.228559180E0,-3.786429882E0,9.238625526E0,2.737171173E0
1.231046993E0,-3.695450306E0,9.128492355E0,2.521692991E0
1.233534805E0,-3.575740337E0,9.051877975E0,2.363675594E0
1.236022670E0,-3.460818529E0,9.042301178E0,2.296638012E0
1.238510534E0,-3.360262156E0,9.118915558E0,2.296638012E0
1.240998399E0,-3.278859138E0,9.248202324E0,2.291849613E0
1.243486263E0,-3.264493942E0,9.387065887E0,2.258330822E0
1.245974128E0,-3.302801132E0,9.530718803E0,2.133832216E0
1.248461993E0,-3.398569345E0,9.626486778E0,2.014122248E0
1.250949857E0,-3.523067713E0,9.679159164E0,1.942296147E0
1.253437722E0,-3.657143116E0,9.688735962E0,1.947084546E0
1.255925586E0,-3.748122692E0,9.674370766E0,2.009333849E0
1.258413451E0,-3.772064686E0,9.669582367E0,2.124255419E0
1.260901315E0,-3.733757496E0,9.707889557E0,2.282272816E0
1.263389180E0,-3.676296711E0,9.779715538E0,2.421136379E0
1.265877045E0,-3.618835926E0,9.904213905E0,2.560000181E0
1.268364909E0,-3.585317135E0,1.006701946E1,2.660556555E0
1.270852774E0,-3.633201122E0,1.025376701E1,2.689286947E0
1.273340638E0,-3.719392300E0,1.042136192E1,2.708440781E0
1.275828503E0,-3.819948912E0,1.058416748E1,2.732382774E0
1.278316368E0,-3.901351690E0,1.067514706E1,2.751536369E0
1.280804232E0,-3.963600874E0,1.074218464E1,2.789843559E0
1.283292097E0,-4.035427094E0,1.075654984E1,2.775478363E0
1.285779961E0,-4.068945885E0,1.073739624E1,2.703652382E0
1.288267826E0,-4.068945885E0,1.069430065E1,2.617460966E0
1.290755690E0,-4.025850296E0,1.064641666E1,2.536058187E0
1.293243555E0,-3.930082083E0,1.059374428E1,2.473809004E0
1.295731420E0,-3.843890905E0,1.056501389E1,2.416347980E0
1.298219284E0,-3.752911091E0,1.052191830E1,2.382829189E0
1.300707149E0,-3.676296711E0,1.049318790E1,2.378040791E0
1.303195013E0,-3.661931515E0,1.042136192E1,2.425924778E0
1.305682878E0,-3.724180698E0,1.034474659E1,2.507327795E0
1.308170743E0,-3.819948912E0,1.027292061E1,2.564788580E0
1.310658607E0,-3.915716887E0,1.022024822E1,2.516904593E0
1.313146472E0,-3.982754469E0,1.018194103E1,2.406771183E0
1.315634336E0,-4.021061897E0,1.018672943E1,2.282272816E0
1.318122201E0,-3.977966070E0,1.020588303E1,2.186504602E0
1.320610065E0,-3.882198095E0,1.023940182E1,2.181716204E0
1.323097930E0,-3.733757496E0,1.030165100E1,2.176927805E0
1.325585795E0,-3.599682331E0,1.035432339E1,2.200869799E0
1.328073659E0,-3.489548922E0,1.038784218E1,2.272696018E0
1.330561524E0,-3.499125719E0,1.038784218E1,2.330156803E0
1.333049388E0,-3.551798105E0,1.038784218E1,2.354098797E0
1.335537201E0,-3.695450306E0,1.033516979E1,2.354098797E0
1.338025013E0,-3.834314108E0,1.030165100E1,2.301426411E0
1.340512826E0,-3.886986494E0,1.028249741E1,2.191293001E0
1.343000638E0,-3.843890905E0,1.029207420E1,2.071583033E0
1.345488451E0,-3.748122692E0,1.037347698E1,2.038064241E0
1.347976263E0,-3.637989521E0,1.049318790E1,2.100313425E0
1.350464076E0,-3.532644510E0,1.061768627E1,2.248754025E0
1.352951888E0,-3.436876535E0,1.076612663E1,2.358887196E0
1.355439701E0,-3.393780947E0,1.088104820E1,2.411559582E0
1.357927513E0,-3.403357744E0,1.093372059E1,2.445078373E0
1.360415326E0,-3.475183725E0,1.098160458E1,2.478597403E0
1.362903138E0,-3.570951939E0,1.098639297E1,2.483385801E0
1.365390951E0,-3.676296711E0,1.095766258E1,2.469020605E0
1.367878763E0,-3.757699490E0,1.092893219E1,2.411559582E0
1.370366576E0,-3.748122692E0,1.090499020E1,2.301426411E0
1.372854388E0,-3.709815502E0,1.088104820E1,2.162562609E0
1.375342201E0,-3.594893932E0,1.082837582E1,2.038064241E0
1.377830013E0,-3.451241732E0,1.075176144E1,1.927930951E0
1.380317826E0,-3.341108561E0,1.067993546E1,1.856104851E0
1.382805638E0,-3.274070740E0,1.057459068E1,1.803432465E0
1.385293451E0,-3.283647537E0,1.046445751E1,1.779490471E0
1.387781263E0,-3.321954966E0,1.038784218E1,1.755548358E0
1.390269076E0,-3.388992548E0,1.030165100E1,1.760336757E0
1.392756888E0,-3.456030130E0,1.025376701E1,1.789067268E0
1.395244701E0,-3.508702517E0,1.023940182E1,1.803432465E0
1.397732513E0,-3.523067713E0,1.025855541E1,1.808220863E0
1.400220326E0,-3.503914118E0,1.029207420E1,1.827374458E0
1.402708138E0,-3.470395327E0,1.033995819E1,1.827374458E0
1.405195951E0,-3.475183725E0,1.040699577E1,1.851316452E0
1.407683763E0,-3.499125719E0,1.046445751E1,1.875258446E0
1.410171576E0,-3.527856112E0,1.048839951E1,1.903988957E0
1.412659388E0,-3.556586742E0,1.048839951E1,1.937507749E0
1.415147201E0,-3.594893932E0,1.049318790E1,1.937507749E0
1.417635013E0,-3.633201122E0,1.047403431E1,1.937507749E0
1.420122826E0,-3.695450306E0,1.045488071E1,1.947084546E0
1.422610638E0,-3.733757496E0,1.044530392E1,1.894412041E0
1.425098451E0,-3.748122692E0,1.045488071E1,1.817797661E0
1.427586263E0,-3.700238705E0,1.047403431E1,1.722029567E0
1.430074076E0,-3.628412724E0,1.050276470E1,1.650203466E0
1.432561888E0,-3.527856112E0,1.051712990E1,1.587954283E0
1.435049701E0,-3.436876535E0,1.053628349E1,1.559223890E0
1.437537513E0,-3.456030130E0,1.054586029E1,1.530493379E0
1.440025326E0,-3.494337320E0,1.052670670E1,1.535281897E0
1.442513138E0,-3.547009706E0,1.047403431E1,1.530493379E0
1.445000951E0,-3.637989521E0,1.042615032E1,1.530493379E0
1.447488763E0,-3.700238705E0,1.037347698E1,1.487397790E0
1.449976576E0,-3.714603901E0,1.033038139E1,1.439513803E0
1.452464388E0,-3.676296711E0,1.028728580E1,1.439513803E0
1.454952201E0,-3.599682331E0,1.023940182E1,1.463455796E0
1.457440013E0,-3.513490915E0,1.021545982E1,1.458667397E0
1.459927826E0,-3.432088137E0,1.022503662E1,1.444302201E0
1.462415638E0,-3.384204149E0,1.022503662E1,1.492186189E0
1.464903451E0,-3.422511339E0,1.022024822E1,1.587954283E0
1.467391263E0,-3.475183725E0,1.021545982E1,1.650203466E0
1.469879128E0,-3.547009706E0,1.022503662E1,1.621473074E0
1.472366993E0,-3.575740337E0,1.020109463E1,1.520916581E0
1.474854857E0,-3.518279314E0,1.017715263E1,1.396418095E0
1.477342722E0,-3.341108561E0,1.011969185E1,1.291073322E0
1.479830586E0,-3.101688385E0,1.005744267E1,1.291073322E0
1.482318451E0,-2.886210203E0,9.976039886E0,1.358110905E0
1.484806315E0,-2.766499996E0,9.947309494E0,1.439513803E0
1.487294180E0,-2.761711597E0,9.942521095E0,1.506551385E0
1.489782045E0,-2.833537817E0,9.985616684E0,1.530493379E0
1.492269909E0,-2.910152197E0,1.005265427E1,1.492186189E0
1.494757774E0,-2.958036184E0,1.011490345E1,1.377264500E0
1.497245638E0,-2.943670988E0,1.021067142E1,1.334168911E0
1.499733503E0,-2.881421804E0,1.025376701E1,1.372476101E0
1.502221368E0,-2.747346401E0,1.029686260E1,1.492186189E0
1.504709232E0,-2.594117641E0,1.028249741E1,1.607107878E0
1.507197097E0,-2.488772631E0,1.028728580E1,1.688510776E0
1.509684961E0,-2.426523447E0,1.027292061E1,1.712452769E0
1.512172826E0,-2.455253839E0,1.027292061E1,1.741183162E0
1.514660690E0,-2.522291422E0,1.026813221E1,1.774701953E0
1.517148555E0,-2.594117641E0,1.027292061E1,1.784278870E0
1.519636420E0,-2.646790028E0,1.029686260E1,1.736394763E0
1.522124284E0,-2.680308819E0,1.032080460E1,1.678933978E0
1.524612149E0,-2.699462414E0,1.036390018E1,1.640626669E0
1.527100013E0,-2.689885616E0,1.039263058E1,1.635838270E0
1.529587878E0,-2.665943623E0,1.044530392E1,1.688510776E0
1.532075743E0,-2.651578426E0,1.045966911E1,1.674145579E0
1.534563607E0,-2.651578426E0,1.048839951E1,1.654991984E0
1.537051472E0,-2.627636433E0,1.049797630E1,1.621473074E0
1.539539336E0,-2.608482838E0,1.049318790E1,1.597531080E0
1.542027201E0,-2.603694439E0,1.053149509E1,1.597531080E0
1.544515065E0,-2.608482838E0,1.057459068E1,1.559223890E0
1.547002930E0,-2.642001629E0,1.062726307E1,1.492186189E0
1.549490795E0,-2.704250813E0,1.067993546E1,1.425148606E0
1.551978659E0,-2.761711597E0,1.073260784E1,1.362899303E0
1.554466524E0,-2.833537817E0,1.078528023E1,1.319803715E0
1.556954388E0,-2.895787001E0,1.081879902E1,1.310226917E0
1.559442253E0,-2.967612982E0,1.086668301E1,1.305438519E0
1.561930118E0,-3.010708570E0,1.091456699E1,1.305438519E0
1.564417982E0,-3.082534790E0,1.095766258E1,1.305438519E0
1.566905847E0,-3.144783974E0,1.100075817E1,1.310226917E0
1.569393711E0,-3.192667961E0,1.104385376E1,1.353322506E0
1.571881576E0,-3.230975151E0,1.108694935E1,1.367687702E0
1.574369440E0,-3.226186752E0,1.110610294E1,1.382052898E0
1.576857305E0,-3.207033157E0,1.113483334E1,1.401206493E0
1.579345170E0,-3.183091164E0,1.113004494E1,1.410783410E0
1.581833034E0,-3.173514366E0,1.111089134E1,1.463455796E0
1.584320899E0,-3.192667961E0,1.111089134E1,1.487397790E0
1.586808763E0,-3.240551949E0,1.113483334E1,1.482609391E0
1.589296628E0,-3.274070740E0,1.116835213E1,1.473032594E0
1.591784493E0,-3.259705544E0,1.119708252E1,1.463455796E0
1.594272305E0,-3.216609955E0,1.123538971E1,1.434725404E0
1.596760118E0,-3.149572372E0,1.126412010E1,1.382052898E0
1.599247930E0,-3.077746391E0,1.130721569E1,1.300650120E0
1.601735743E0,-3.025073767E0,1.132636929E1,1.247977614E0
1.604223555E0,-2.981978178E0,1.132636929E1,1.214458823E0
1.606711368E0,-2.924517393E0,1.129763889E1,1.209670424E0
1.609199180E0,-2.881421804E0,1.125933170E1,1.247977614E0
1.611686993E0,-2.847903013E0,1.126412010E1,1.262342811E0
1.614174805E0,-2.843114614E0,1.125454330E1,1.247977614E0
1.616662618E0,-2.886210203E0,1.126412010E1,1.224035621E0
1.619150430E0,-2.919728994E0,1.127369690E1,1.224035621E0
1.621638243E0,-2.943670988E0,1.132636929E1,1.185728431E0
1.624126055E0,-2.972401381E0,1.134073448E1,1.142632723E0
1.626613868E0,-2.953247786E0,1.135988808E1,1.109113932E0
1.629101680E0,-2.914940596E0,1.137425327E1,1.037287831E0
1.631589493E0,-2.852691412E0,1.136946487E1,9.702502489E-1
1.634077305E0,-2.790441990E0,1.136467648E1,9.558850527E-1
1.636565118E0,-2.732981205E0,1.135509968E1,9.750386477E-1
1.639052930E0,-2.713827610E0,1.135988808E1,9.750386477E-1
1.641540743E0,-2.732981205E0,1.135988808E1,9.846154451E-1
1.644028555E0,-2.771288395E0,1.135988808E1,1.008557439E0
1.646516368E0,-2.843114614E0,1.137425327E1,1.018134236E0
1.649004180E0,-2.862268209E0,1.137904167E1,1.037287831E0
1.651491993E0,-2.847903013E0,1.137904167E1,1.022922635E0
1.653979805E0,-2.809595585E0,1.137425327E1,1.032499433E0
1.656467618E0,-2.761711597E0,1.137425327E1,1.061229944E0
1.658955430E0,-2.704250813E0,1.136946487E1,1.109113932E0
1.661443243E0,-2.665943623E0,1.133594608E1,1.123479128E0
1.663931055E0,-2.618059635E0,1.130721569E1,1.128267527E0
1.666418868E0,-2.589329243E0,1.128327370E1,1.133055925E0
1.668906680E0,-2.584540844E0,1.125933170E1,1.123479128E0
1.671394493E0,-2.574964046E0,1.125454330E1,1.109113932E0
1.673882305E0,-2.570175409E0,1.124975491E1,1.113902330E0
1.676370118E0,-2.536656618E0,1.124975491E1,1.128267527E0
1.678857930E0,-2.483984232E0,1.123538971E1,1.171363235E0
1.681345743E0,-2.421735048E0,1.120665932E1,1.252766013E0
1.683833555E0,-2.359485865E0,1.117792892E1,1.310226917E0
1.686321368E0,-2.325966835E0,1.116356373E1,1.382052898E0
1.688809180E0,-2.306813240E0,1.113004494E1,1.429937005E0
1.691296993E0,-2.302024841E0,1.110131454E1,1.458667397E0
1.693784805E0,-2.302024841E0,1.106779575E1,1.468244195E0
1.696272618E0,-2.302024841E0,1.102470016E1,1.487397790E0
1.698760430E0,-2.325966835E0,1.098160458E1,1.525704980E0
1.701248243E0,-2.316390038E0,1.091935539E1,1.554435492E0
1.703736107E0,-2.330755472E0,1.085231781E1,1.631049871E0
1.706223972E0,-2.345120668E0,1.077570343E1,1.760336757E0
1.708711836E0,-2.340332270E0,1.073739624E1,1.865681648E0
1.711199701E0,-2.364274263E0,1.070387745E1,1.937507749E0
1.713687565E0,-2.388216257E0,1.068472385E1,1.947084546E0
1.716175430E0,-2.397793055E0,1.066078186E1,1.947084546E0
1.718663295E0,-2.402581453E0,1.063683987E1,1.975814939E0
1.721151159E0,-2.416946650E0,1.056501389E1,1.966238141E0
1.723639024E0,-2.407369852E0,1.048839951E1,1.966238141E0
1.726126888E0,-2.393004656E0,1.041657257E1,1.961449742E0
1.728614753E0,-2.369062662E0,1.033995819E1,1.990180135E0
1.731102618E0,-2.306813240E0,1.027292061E1,2.014122248E0
1.733590482E0,-2.234987259E0,1.024419022E1,2.038064241E0
1.736078347E0,-2.167949677E0,1.020588303E1,2.081159830E0
1.738566211E0,-2.100912094E0,1.018194103E1,2.138620615E0
1.741054076E0,-2.048239470E0,1.018194103E1,2.196081400E0
1.743541940E0,-2.024297476E0,1.020588303E1,2.176927805E0
1.746029805E0,-2.033874273E0,1.020588303E1,2.119467020E0
1.748517670E0,-2.029085875E0,1.020109463E1,2.066794634E0
1.751005534E0,-2.000355482E0,1.020109463E1,2.033275843E0
1.753493399E0,-1.952471495E0,1.017236423E1,2.004545450E0
1.755981263E0,-1.895010591E0,1.014363384E1,1.999756932E0
1.758469128E0,-1.837549806E0,1.011490345E1,2.018910646E0
1.760956993E0,-1.789665818E0,1.007659626E1,2.062006235E0
1.763444857E0,-1.751358509E0,1.005265427E1,2.085948229E0
1.765932722E0,-1.770512104E0,1.005265427E1,2.119467020E0
1.768420586E0,-1.827973008E0,1.005265427E1,2.109890223E0
1.770908451E0,-1.914164305E0,1.003828907E1,2.066794634E0
1.773396315E0,-2.000355482E0,1.001434708E1,2.028487444E0
1.775884180E0,-2.067393064E0,9.952097893E0,1.994968534E0
1.778372045E0,-2.086546898E0,9.913790703E0,1.999756932E0
1.780859909E0,-2.081758261E0,9.870695114E0,2.018910646E0
1.783347774E0,-2.076969862E0,9.875483513E0,2.057217836E0
1.785835638E0,-2.053027868E0,9.875483513E0,2.066794634E0
1.788323503E0,-2.076969862E0,9.889848709E0,2.062006235E0
1.790811368E0,-2.144007683E0,9.889848709E0,2.042852640E0
1.793299232E0,-2.239775658E0,9.894637108E0,2.014122248E0
1.795787097E0,-2.340332270E0,9.909002304E0,2.004545450E0
1.798274961E0,-2.436100245E0,9.899425507E0,1.975814939E0
1.800762826E0,-2.488772631E0,9.904213905E0,1.971026540E0
1.803250690E0,-2.517503023E0,9.913790703E0,1.961449742E0
1.805738555E0,-2.479195833E0,9.932944298E0,1.947084546E0
1.808226420E0,-2.436100245E0,9.947309494E0,1.937507749E0
1.810714284E0,-2.369062662E0,9.932944298E0,1.894412041E0
1.813202149E0,-2.306813240E0,9.932944298E0,1.860893250E0
1.815690013E0,-2.282871246E0,9.932944298E0,1.841739655E0
1.818177878E0,-2.258929253E0,9.928155899E0,1.813009262E0
1.820665743E0,-2.273294449E0,9.909002304E0,1.760336757E0
1.823153607E0,-2.282871246E0,9.923367500E0,1.712452769E0
1.825641472E0,-2.297236443E0,9.918579102E0,1.650203466E0
1.828129336E0,-2.292448044E0,9.923367500E0,1.616684675E0
1.830617201E0,-2.306813240E0,9.918579102E0,1.564012289E0
1.833105065E0,-2.273294449E0,9.928155899E0,1.559223890E0
1.835592930E0,-2.263717651E0,9.923367500E0,1.535281897E0
1.838080795E0,-2.239775658E0,9.913790703E0,1.549647093E0
1.840568659E0,-2.215833664E0,9.932944298E0,1.587954283E0
1.843056524E0,-2.177526474E0,9.952097893E0,1.640626669E0
1.845544388E0,-2.158372879E0,9.956886292E0,1.674145579E0
1.848032253E0,-2.153584480E0,9.961674690E0,1.702875972E0
1.850520118E0,-2.158372879E0,9.947309494E0,1.741183162E0
1.853007982E0,-2.167949677E0,9.909002304E0,1.755548358E0
1.855495847E0,-2.196680069E0,9.899425507E0,1.736394763E0
1.857983711E0,-2.215833664E0,9.894637108E0,1.726817966E0
1.860471524E0,-2.230198860E0,9.894637108E0,1.712452769E0
1.862959336E0,-2.191891670E0,9.889848709E0,1.688510776E0
1.865447149E0,-2.158372879E0,9.899425507E0,1.683722377E0
1.867934961E0,-2.115277290E0,9.909002304E0,1.683722377E0
1.870422774E0,-2.067393064E0,9.918579102E0,1.688510776E0
1.872910586E0,-2.072181463E0,9.942521095E0,1.678933978E0
1.875398399E0,-2.081758261E0,9.956886292E0,1.664568782E0
1.877886211E0,-2.096123695E0,9.976039886E0,1.674145579E0
1.880374024E0,-2.115277290E0,9.999981880E0,1.664568782E0
1.882861836E0,-2.153584480E0,1.003350067E1,1.674145579E0
1.885349649E0,-2.206256866E0,1.005265427E1,1.688510776E0
1.887837461E0,-2.215833664E0,1.009096146E1,1.731606364E0
1.890325274E0,-2.215833664E0,1.012448025E1,1.784278870E0
1.892813086E0,-2.182314873E0,1.018672943E1,1.808220863E0
1.895300899E0,-2.158372879E0,1.024897861E1,1.832162857E0
1.897788711E0,-2.120065689E0,1.033995819E1,1.851316452E0
1.900276524E0,-2.100912094E0,1.040699577E1,1.875258446E0
1.902764336E0,-2.105700493E0,1.046924591E1,1.913565755E0
1.905252149E0,-2.110488892E0,1.050755310E1,1.932719350E0
1.907739961E0,-2.134430885E0,1.056022549E1,1.942296147E0
1.910227774E0,-2.139219284E0,1.059374428E1,1.937507749E0
1.912715586E0,-2.158372879E0,1.065599346E1,1.913565755E0
1.915203399E0,-2.177526474E0,1.070866585E1,1.903988957E0
1.917691211E0,-2.158372879E0,1.076133823E1,1.899200439E0
1.920179024E0,-2.129642487E0,1.080443382E1,1.908777356E0
1.922666836E0,-2.091335297E0,1.084752941E1,1.937507749E0
1.925154649E0,-2.076969862E0,1.090977859E1,1.913565755E0
1.927642461E0,-2.062604666E0,1.096245098E1,1.913565755E0
1.930130274E0,-2.067393064E0,1.101991177E1,1.875258446E0
1.932618086E0,-2.124854088E0,1.105821896E1,1.813009262E0
1.935105899E0,-2.177526474E0,1.110131454E1,1.784278870E0
1.937593711E0,-2.234987259E0,1.113962173E1,1.803432465E0
1.940081524E0,-2.292448044E0,1.115398693E1,1.860893250E0
1.942569336E0,-2.349909067E0,1.118271732E1,1.908777356E0
1.945057149E0,-2.383427858E0,1.122102451E1,1.971026540E0
1.947544961E0,-2.416946650E0,1.127369690E1,1.999756932E0
1.950032774E0,-2.421735048E0,1.136467648E1,2.018910646E0
1.952520638E0,-2.445677042E0,1.148438740E1,2.071583033E0
1.955008503E0,-2.469619036E0,1.158494377E1,2.105101824E0
1.957496368E0,-2.479195833E0,1.170465374E1,2.095525026E0
1.959984232E0,-2.517503023E0,1.180521011E1,2.090736628E0
1.962472097E0,-2.584540844E0,1.190097809E1,2.133832216E0
1.964959961E0,-2.656366825E0,1.197759247E1,2.181716204E0
1.967447826E0,-2.704250813E0,1.205420685E1,2.176927805E0
1.969935690E0,-2.752134800E0,1.215476322E1,2.129043818E0
1.972423555E0,-2.780865192E0,1.223616600E1,2.095525026E0
1.974911420E0,-2.771288395E0,1.232714558E1,2.090736628E0
1.977399284E0,-2.747346401E0,1.241812611E1,2.109890223E0
1.979887149E0,-2.732981205E0,1.250431728E1,2.138620615E0
1.982375013E0,-2.675520420E0,1.260008526E1,2.176927805E0
1.984862878E0,-2.656366825E0,1.271021843E1,2.200869799E0
1.987350743E0,-2.661155224E0,1.282992840E1,2.181716204E0
1.989838607E0,-2.661155224E0,1.293048477E1,2.114678621E0
1.992326472E0,-2.704250813E0,1.302146435E1,2.023699045E0
1.994814336E0,-2.785653591E0,1.311244392E1,1.937507749E0
1.997302201E0,-2.847903013E0,1.319384670E1,1.884835243E0
1.999790065E0,-2.900575399E0,1.327524948E1,1.808220863E0
2.002277930E0,-2.977189779E0,1.333749866E1,1.736394763E0
2.004765795E0,-3.053804159E0,1.338538361E1,1.683722377E0
2.007253659E0,-3.125630379E0,1.344284439E1,1.664568782E0
2.009741524E0,-3.168725967E0,1.349072838E1,1.712452769E0
2.012229388E0,-3.245340347E0,1.354818916E1,1.760336757E0
2.014717253E0,-3.331531763E0,1.361043835E1,1.813009262E0
2.017205118E0,-3.451241732E0,1.367268753E1,1.827374458E0
2.019692982E0,-3.609259129E0,1.375887871E1,1.860893250E0
2.022180847E0,-3.781641483E0,1.381633949E1,1.913565755E0
2.024668711E0,-3.954024076E0,1.388337708E1,1.999756932E0
2.027156576E0,-4.102464676E0,1.394083786E1,2.028487444E0
2.029644440E0,-4.236539841E0,1.402224064E1,2.004545450E0
2.032132305E0,-4.327519417E0,1.408448982E1,1.942296147E0
2.034620170E0,-4.365826607E0,1.414195061E1,1.908777356E0
2.037108034E0,-4.351461411E0,1.418983459E1,1.860893250E0
2.039595899E0,-4.303577423E0,1.422335339E1,1.822586060E0
2.042083763E0,-4.246116638E0,1.425208378E1,1.784278870E0
2.044571628E0,-4.174290657E0,1.429039097E1,1.750759959E0
2.047059493E0,-4.140771866E0,1.434306431E1,1.698087573E0
2.049547357E0,-4.131195068E0,1.440052509E1,1.678933978E0
2.052035222E0,-4.121618271E0,1.447713947E1,1.650203466E0
2.054523086E0,-4.102464676E0,1.452502346E1,1.616684675E0
2.057010951E0,-4.092887878E0,1.459206104E1,1.583165884E0
2.059498815E0,-4.045003891E0,1.463515663E1,1.578377485E0
2.061986680E0,-3.949235678E0,1.463515663E1,1.587954283E0
2.064474545E0,-3.863044500E0,1.462557983E1,1.530493379E0
2.066962409E0,-3.810372114E0,1.464473343E1,1.506551385E0
2.069450274E0,-3.752911091E0,1.464473343E1,1.492186189E0
2.071938138E0,-3.709815502E0,1.466388702E1,1.473032594E0
2.074426003E0,-3.681085110E0,1.465909863E1,1.463455796E0
2.076913868E0,-3.647566319E0,1.463036823E1,1.458667397E0
2.079401732E0,-3.637989521E0,1.456811905E1,1.511339784E0
2.081889597E0,-3.647566319E0,1.450108147E1,1.573589087E0
2.084377461E0,-3.681085110E0,1.442446709E1,1.611896276E0
2.086865326E0,-3.714603901E0,1.436221790E1,1.621473074E0
2.089353190E0,-3.743334293E0,1.430954456E1,1.549647093E0
2.091841055E0,-3.738545895E0,1.425208378E1,1.487397790E0
2.094328920E0,-3.714603901E0,1.419941139E1,1.453878999E0
2.096816784E0,-3.657143116E0,1.414195061E1,1.477820992E0
2.099304649E0,-3.585317135E0,1.407970142E1,1.473032594E0
2.101792513E0,-3.537432909E0,1.400787544E1,1.487397790E0
2.104280378E0,-3.489548922E0,1.393604946E1,1.520916581E0
2.106768243E0,-3.465606928E0,1.388337708E1,1.540070295E0
2.109256107E0,-3.465606928E0,1.385943508E1,1.544858694E0
2.111743972E0,-3.436876535E0,1.384028149E1,1.573589087E0
2.114231836E0,-3.374627352E0,1.381155109E1,1.492186189E0
2.116719701E0,-3.264493942E0,1.380197430E1,1.396418095E0
2.119207565E0,-3.149572372E0,1.378760910E1,1.396418095E0
2.121695430E0,-3.044227362E0,1.376845551E1,1.458667397E0
2.124183295E0,-2.972401381E0,1.374451351E1,1.511339784E0
2.126671159E0,-2.924517393E0,1.372057152E1,1.587954283E0
2.129159024E0,-2.914940596E0,1.373493671E1,1.592742682E0
2.131646888E0,-2.929305792E0,1.372535992E1,1.587954283E0
2.134134753E0,-2.919728994E0,1.370141792E1,1.650203466E0
2.136622618E0,-2.871845007E0,1.369184113E1,1.669357181E0
2.139110482E0,-2.852691412E0,1.367268753E1,1.698087573E0
2.141598347E0,-2.833537817E0,1.365353394E1,1.741183162E0
2.144086211E0,-2.843114614E0,1.362959194E1,1.798644066E0
2.146574076E0,-2.862268209E0,1.358649635E1,1.875258446E0
2.149061940E0,-2.900575399E0,1.353382397E1,1.908777356E0
2.151549805E0,-2.914940596E0,1.349551678E1,1.899200439E0
2.154037670E0,-2.890998602E0,1.346199799E1,1.927930951E0
2.156525534E0,-2.828749418E0,1.339974880E1,1.956661344E0
2.159013399E0,-2.771288395E0,1.332792187E1,1.966238141E0
2.161501263E0,-2.737769604E0,1.324173069E1,1.966238141E0
2.163989128E0,-2.742558002E0,1.314117432E1,1.966238141E0
2.166476993E0,-2.766499996E0,1.303104115E1,1.937507749E0
2.168964805E0,-2.795230389E0,1.292090797E1,1.913565755E0
2.171452618E0,-2.819172382E0,1.279162121E1,1.894412041E0
2.173940430E0,-2.828749418E0,1.270543003E1,1.860893250E0
2.176428243E0,-2.804807186E0,1.262402725E1,1.846528053E0
2.178916055E0,-2.780865192E0,1.256656647E1,1.808220863E0
2.181403868E0,-2.747346401E0,1.249952888E1,1.832162857E0
2.183891680E0,-2.661155224E0,1.241333771E1,1.880046844E0
2.186379493E0,-2.574964046E0,1.231756878E1,1.856104851E0
2.188867305E0,-2.503137827E0,1.219785881E1,1.808220863E0
2.191355118E0,-2.450465441E0,1.208293724E1,1.741183162E0
2.193842930E0,-2.397793055E0,1.196801567E1,1.664568782E0
2.196330743E0,-2.340332270E0,1.188182449E1,1.587954283E0
2.198818555E0,-2.311601639E0,1.182915211E1,1.492186189E0
2.201306368E0,-2.292448044E0,1.178605652E1,1.401206493E0
2.203794180E0,-2.234987259E0,1.178605652E1,1.295861721E0
2.206281993E0,-2.124854088E0,1.175253773E1,1.257554412E0
2.208769805E0,-1.957259893E0,1.168071175E1,1.257554412E0
2.211257618E0,-1.789665818E0,1.158494377E1,1.286284804E0
2.213745430E0,-1.646013618E0,1.145565701E1,1.252766013E0
2.216233243E0,-1.535880446E0,1.132636929E1,1.214458823E0
2.218721055E0,-1.507149935E0,1.120187092E1,1.190516829E0
2.221208868E0,-1.564610839E0,1.108694935E1,1.156997919E0
2.223696680E0,-1.622071624E0,1.099118137E1,1.113902330E0
2.226184493E0,-1.665167332E0,1.093850899E1,1.061229944E0
2.228672305E0,-1.665167332E0,1.090020180E1,1.037287831E0
2.231160118E0,-1.588552833E0,1.085710621E1,9.367313981E-1
2.233647930E0,-1.487996340E0,1.079006863E1,9.510966539E-1
2.236135743E0,-1.344344258E0,1.068951225E1,1.037287831E0
2.238623555E0,-1.215057373E0,1.055064869E1,1.137844324E0
2.241111368E0,-1.090558887E0,1.034953499E1,1.233612418E0
2.243599180E0,-1.028309584E0,1.013884544E1,1.267131209E0
2.246086993E0,-1.023521185E0,9.913790703E0,1.243189216E0
2.248574857E0,-1.052251697E0,9.712677956E0,1.152209520E0
2.251062722E0,-1.090558887E0,9.559449196E0,1.075595140E0
2.253550586E0,-1.109712481E0,9.458892822E0,1.022922635E0
2.256038451E0,-1.100135684E0,9.348758698E0,9.654618502E-1
2.258526315E0,-1.057040095E0,9.238625526E0,9.463081956E-1
2.261014180E0,-1.004367590E0,9.118915558E0,9.558850527E-1
2.263502045E0,-9.373299479E-1,8.965686798E0,1.037287831E0
2.265989909E0,-8.798691034E-1,8.802881241E0,1.142632723E0
2.268477774E0,-8.511387110E-1,8.611345291E0,1.190516829E0
2.270965638E0,-8.607155085E-1,8.391077995E0,1.204882026E0
2.273453503E0,-8.463503122E-1,8.175600052E0,1.166574836E0
2.275941368E0,-8.224082589E-1,7.988852501E0,1.161786318E0
2.278429232E0,-7.697358727E-1,7.830835342E0,1.209670424E0
2.280917097E0,-7.505822182E-1,7.663240910E0,1.228824019E0
2.283404961E0,-7.362170219E-1,7.543530941E0,1.204882026E0
2.285892826E0,-7.410054207E-1,7.471704960E0,1.190516829E0
2.288380690E0,-7.553706169E-1,7.414244175E0,1.204882026E0
2.290868555E0,-7.601590157E-1,7.337629795E0,1.219247222E0
2.293356420E0,-7.649474144E-1,7.246650219E0,1.233612418E0
2.295844284E0,-7.362170219E-1,7.150881767E0,1.171363235E0
2.298332149E0,-6.835445762E-1,7.069478989E0,1.061229944E0
2.300820013E0,-6.165069342E-1,7.007229805E0,9.798270464E-1
2.303307878E0,-5.351040959E-1,6.935403824E0,8.984242082E-1
2.305795743E0,-5.063736439E-1,6.901885033E0,8.361749649E-1
2.308283607E0,-4.728548229E-1,6.806117058E0,7.739257216E-1
2.310771472E0,-4.345476031E-1,6.715137005E0,7.356184721E-1
2.313259336E0,-5.973533392E-1,6.719925404E0,6.925228238E-1
2.315747201E0,-8.080430627E-1,6.777386665E0,6.063315868E-1
2.318235065E0,-1.009155989E0,6.820482254E0,5.680243373E-1
2.320722930E0,-1.171961784E0,6.825270653E0,5.871779919E-1
2.323210795E0,-1.262941360E0,6.791751862E0,6.446388364E-1
2.325698659E0,-1.310825467E0,6.743867874E0,6.877344251E-1
2.328186524E0,-1.349132657E0,6.715137005E0,6.973112226E-1
2.330674388E0,-1.392228246E0,6.753444672E0,7.404068708E-1
2.333162253E0,-1.435323954E0,6.825270653E0,7.930793166E-1
2.335650118E0,-1.473631144E0,6.940192223E0,8.888474107E-1
2.338137982E0,-1.492784739E0,7.050325394E0,1.032499433E0
2.340625847E0,-1.425747156E0,7.069478989E0,1.219247222E0
2.343113711E0,-1.349132657E0,6.997653008E0,1.358110905E0
2.345601576E0,-1.272518158E0,6.849212646E0,1.487397790E0
2.348089440E0,-1.262941360E0,6.643311024E0,1.635838270E0
2.350577305E0,-1.334767461E0,6.446986675E0,1.774701953E0
2.353065170E0,-1.473631144E0,6.288969517E0,1.827374458E0
2.355553034E0,-1.626860023E0,6.188412666E0,1.779490471E0
2.358040899E0,-1.736993313E0,6.130951881E0,1.611896276E0
2.360528763E0,-1.780089021E0,6.126163483E0,1.439513803E0
2.363016628E0,-1.789665818E0,6.130951881E0,1.329380512E0
2.365504493E0,-1.756146908E0,6.178835869E0,1.200093627E0
2.367992357E0,-1.760935307E0,6.241085052E0,1.089960337E0
2.370480222E0,-1.794454217E0,6.298546314E0,1.032499433E0
2.372968086E0,-1.823184609E0,6.332065105E0,1.032499433E0
2.375455951E0,-1.827973008E0,6.317699909E0,1.042076349E0
2.377943815E0,-1.842338204E0,6.312911510E0,9.989806414E-1
2.380431680E0,-1.875856996E0,6.332065105E0,9.080010056E-1
2.382919545E0,-1.861491799E0,6.317699909E0,7.930793166E-1
2.385407409E0,-1.813607812E0,6.356007099E0,6.973112226E-1
2.387895274E0,-1.746570110E0,6.403891087E0,6.206967831E-1
2.390383138E0,-1.684320927E0,6.423044682E0,7.212532759E-1
2.392871003E0,-1.650802016E0,6.384737492E0,8.840589523E-1
2.395358868E0,-1.669955730E0,6.298546314E0,1.003769040E0
2.397846732E0,-1.770512104E0,6.145317078E0,1.133055925E0
2.400334597E0,-2.005143881E0,5.982511520E0,1.291073322E0
2.402822461E0,-2.311601639E0,5.814917564E0,1.434725404E0
2.405310326E0,-2.670732021E0,5.690418720E0,1.449090600E0
2.407798190E0,-3.010708570E0,5.609015942E0,1.544858694E0
2.410286055E0,-3.274070740E0,5.522824764E0,1.712452769E0
2.412773920E0,-3.422511339E0,5.436633587E0,1.841739655E0
2.415261784E0,-3.384204149E0,5.340865612E0,1.856104851E0
2.417749649E0,-3.221398354E0,5.230731964E0,1.736394763E0
2.420237513E0,-2.972401381E0,5.101445198E0,1.492186189E0
2.422725378E0,-2.728192806E0,5.039196014E0,1.276708007E0
2.425213243E0,-2.517503023E0,4.986523628E0,1.051653147E0
2.427701107E0,-2.306813240E0,5.010465622E0,7.691373229E-1
2.430188972E0,-2.105700493E0,5.067926407E0,3.812766075E-1
2.432676836E0,-1.957259893E0,5.115810394E0,1.801636815E-1
2.435164701E0,-1.842338204E0,5.168482780E0,5.087678507E-2
2.437652565E0,-1.617283225E0,5.288193226E0,-1.789665818E-1
2.440140430E0,-1.310825467E0,5.355230808E0,-1.741781682E-1
2.442628295E0,-1.104924083E0,5.383961201E0,2.214636654E-2
2.445116159E0,-1.076193690E0,5.436633587E0,1.735796221E-2
2.447604024E0,-1.181538582E0,5.489305973E0,-1.616086066E-2
2.450091888E0,-1.363497853E0,5.513247967E0,-6.584054790E-3
2.452579753E0,-1.507149935E0,5.532401562E0,1.227028370E-1
2.455067618E0,-1.574187636E0,5.513247967E0,3.573346138E-1
2.457555482E0,-1.473631144E0,5.427056789E0,5.728127360E-1
2.460043347E0,-1.454477549E0,5.589862347E0,3.764882088E-1
2.462531211E0,-1.339555860E0,5.503671169E0,7.595604658E-1
2.465019076E0,-1.248576164E0,5.321712017E0,8.936358094E-1
2.467506940E0,-1.095347285E0,4.809352875E0,1.597531080E0
2.469994805E0,-1.411381960E0,5.106233597E0,5.823895931E-1
2.472482670E0,-2.053027868E0,5.642534733E0,-1.616086066E-2
2.474970534E0,-2.426523447E0,5.647323132E0,6.494272351E-1
2.477458399E0,-2.522291422E0,5.666476727E0,6.206967831E-1
2.479946263E0,-2.373851061E0,5.580285549E0,6.159083843E-1
2.482434128E0,-2.076969862E0,5.436633587E0,7.787141204E-1
2.484921993E0,-1.741781712E0,5.283404827E0,9.415197968E-1
2.487409857E0,-1.521515131E0,5.163694382E0,1.142632723E0
2.489897722E0,-1.497573137E0,5.096656799E0,1.267131209E0
2.492385586E0,-1.655590534E0,5.120598793E0,1.310226917E0
2.494873451E0,-1.957259893E0,5.269039154E0,1.382052898E0
2.497361315E0,-2.278082848E0,5.465363979E0,1.449090600E0
2.499849180E0,-2.551021814E0,5.699995518E0,1.353322506E0
2.502337045E0,-2.704250813E0,5.877166748E0,1.219247222E0
2.504824909E0,-2.728192806E0,5.929839134E0,1.142632723E0
2.507312774E0,-2.598906040E0,5.915473938E0,1.089960337E0
2.509800638E0,-2.393004656E0,5.915473938E0,9.941922426E-1
2.512288503E0,-2.144007683E0,5.858013153E0,9.798270464E-1
2.514776368E0,-1.895010591E0,5.790975571E0,1.042076349E0
2.517264232E0,-1.765723705E0,5.814917564E0,1.022922635E0
2.519752097E0,-1.770512104E0,5.925050735E0,1.018134236E0
2.522239961E0,-1.871068597E0,6.092644691E0,1.032499433E0
2.524727826E0,-2.000355482E0,6.279392719E0,1.018134236E0
2.527215690E0,-2.129642487E0,6.442198277E0,1.018134236E0
2.529703555E0,-2.206256866E0,6.566696644E0,1.027711034E0
2.532191420E0,-2.234987259E0,6.662464619E0,1.027711034E0
2.534679284E0,-2.158372879E0,6.753444672E0,1.070806742E0
2.537167149E0,-1.957259893E0,6.820482254E0,1.156997919E0
2.539655013E0,-1.646013618E0,6.849212646E0,1.228824019E0
2.542142878E0,-1.282094955E0,6.834847450E0,1.386841297E0
2.544630743E0,-9.660604000E-1,6.844424248E0,1.496974587E0
2.547118607E0,-7.984662652E-1,6.882731438E0,1.564012289E0
2.549606472E0,-7.314286232E-1,6.949769020E0,1.659780383E0
2.552094336E0,-7.122750282E-1,6.954557419E0,1.813009262E0
2.554582201E0,-6.021417379E-1,6.820482254E0,2.301426411E0
2.557070065E0,-7.841010690E-1,7.102997780E0,1.789067268E0
2.559557930E0,-1.171961784E0,7.581838131E0,1.113902330E0
2.562045795E0,-1.277306557E0,7.682394505E0,1.372476101E0
2.564533659E0,-1.162384868E0,7.596203327E0,1.219247222E0
2.567021524E0,-9.373299479E-1,7.347206593E0,1.113902330E0
2.569509388E0,-8.032546639E-1,7.155670166E0,1.042076349E0
2.571997253E0,-8.367735147E-1,7.098209381E0,9.846154451E-1
2.574485118E0,-9.995791912E-1,7.160458565E0,1.037287831E0
2.576972982E0,-1.224634171E0,7.347206593E0,1.133055925E0
2.579460847E0,-1.459265947E0,7.586626530E0,1.262342811E0
2.581948711E0,-1.689109325E0,7.768586159E0,1.396418095E0
2.584436576E0,-1.851915002E0,7.912238121E0,1.429937005E0
2.586924440E0,-1.827973008E0,7.974487305E0,1.473032594E0
2.589412305E0,-1.631648421E0,8.008006096E0,1.444302201E0
2.591900170E0,-1.377863050E0,8.075043678E0,1.420360208E0
2.594388034E0,-1.152808070E0,8.166023254E0,1.415571809E0
2.596875899E0,-9.804255962E-1,8.280944824E0,1.429937005E0
2.599363763E0,-8.798691034E-1,8.410231590E0,1.463455796E0
2.601851628E0,-8.511387110E-1,8.520365715E0,1.520916581E0
2.604339493E0,-9.181763530E-1,8.635287285E0,1.564012289E0
2.606827357E0,-1.028309584E0,8.764574051E0,1.559223890E0
2.609315222E0,-1.109712481E0,8.932168007E0,1.607107878E0
2.611803086E0,-1.071405292E0,9.085396767E0,1.631049871E0
2.614290951E0,-8.846575022E-1,9.171587944E0,1.616684675E0
2.616778815E0,-6.165069342E-1,9.243413925E0,1.587954283E0
2.619266680E0,-3.244143426E-1,9.276932716E0,1.573589087E0
2.621754545E0,-6.584054977E-2,9.286509514E0,1.559223890E0
2.624242409E0,3.950432688E-2,9.358335495E0,1.520916581E0
2.626730274E0,4.908113554E-2,9.434949875E0,1.453878999E0
2.629218138E0,-1.316810958E-2,9.501988411E0,1.420360208E0
2.631706003E0,-1.185129806E-1,9.525930405E0,1.405994892E0
2.634193868E0,-2.477998734E-1,9.521142006E0,1.453878999E0
2.636681732E0,-3.531447649E-1,9.482834816E0,1.492186189E0
2.639169597E0,-4.393360019E-1,9.444527626E0,1.525704980E0
2.641657461E0,-5.111620426E-1,9.430161476E0,1.530493379E0
2.644145326E0,-5.781996846E-1,9.420584679E0,1.578377485E0
2.646633190E0,-5.734112859E-1,9.444527626E0,1.645415068E0
2.649121055E0,-5.351040959E-1,9.487623215E0,1.678933978E0
2.651608920E0,-4.537012279E-1,9.540295601E0,1.722029567E0
2.654096784E0,-4.153940082E-1,9.554660797E0,1.808220863E0
2.656584649E0,-4.058171809E-1,9.588179588E0,1.942296147E0
2.659072513E0,-4.967968464E-1,9.631275177E0,2.071583033E0
2.661560378E0,-5.925649405E-1,9.650428772E0,2.138620615E0
2.664048243E0,-6.452373862E-1,9.636063576E0,2.148197412E0
2.666536107E0,-6.117185354E-1,9.588179588E0,2.124255419E0
2.669023972E0,-5.303156972E-1,9.564237595E0,2.047641039E0
2.671511836E0,-4.058171809E-1,9.535507202E0,1.985391736E0
2.673999701E0,-2.669534981E-1,9.540295601E0,1.927930951E0
2.676487565E0,-1.520318091E-1,9.535507202E0,1.841739655E0
2.678975430E0,-5.626374111E-2,9.478046417E0,1.726817966E0
2.681463295E0,-1.316810958E-2,9.411007881E0,1.626261473E0
2.683951159E0,-8.379706182E-3,9.353547096E0,1.506551385E0
2.686439024E0,-3.591302549E-3,9.363123894E0,1.420360208E0
2.688926888E0,2.035071515E-2,9.430161476E0,1.405994892E0
2.691414753E0,9.217676520E-2,9.516353607E0,1.449090600E0
2.693902618E0,1.927332431E-1,9.573814392E0,1.544858694E0
2.696390482E0,2.932897210E-1,9.583391190E0,1.635838270E0
2.698878347E0,3.363853395E-1,9.578602791E0,1.688510776E0
2.701366211E0,3.220201433E-1,9.607333183E0,1.698087573E0
2.703854076E0,2.166752517E-1,9.645640373E0,1.674145579E0
2.706341940E0,1.400607973E-1,9.660005569E0,1.659780383E0
2.708829805E0,1.304839998E-1,9.645640373E0,1.645415068E0
2.711317670E0,1.879448295E-1,9.569025993E0,1.626261473E0
2.713805534E0,2.549824715E-1,9.535507202E0,1.559223890E0
2.716293399E0,2.980781198E-1,9.521142006E0,1.482609391E0
2.718781263E0,2.932897210E-1,9.545084000E0,1.429937005E0
2.721269128E0,2.837128937E-1,9.578602791E0,1.439513803E0
2.723756993E0,1.975216419E-1,9.645640373E0,1.482609391E0
2.726244857E0,1.352723986E-1,9.664793968E0,1.535281897E0
2.728732722E0,1.544260085E-1,9.621698380E0,1.578377485E0
2.731220586E0,9.696517140E-2,9.597756386E0,1.702875972E0
2.733708451E0,-3.052607179E-1,9.889848709E0,1.765125155E0
2.736196315E0,-4.393360019E-1,9.999981880E0,1.884835243E0
2.738684180E0,-3.196259141E-1,9.827599525E0,2.100313425E0
2.741172045E0,-1.711854190E-1,9.636063576E0,2.162562609E0
2.743659909E0,-1.424549967E-1,9.545084000E0,2.119467020E0
2.746147774E0,-2.477998734E-1,9.588179588E0,2.018910646E0
2.748635638E0,-4.010287821E-1,9.688735962E0,1.903988957E0
2.751123503E0,-5.542576909E-1,9.779715538E0,1.793855667E0
2.753611368E0,-6.308721304E-1,9.794080734E0,1.755548358E0
2.756099180E0,-6.260837317E-1,9.760561943E0,1.798644066E0
2.758586993E0,-6.212953329E-1,9.717466354E0,1.880046844E0
2.761074805E0,-6.260837317E-1,9.650428772E0,1.951872945E0
2.763562618E0,-6.883329749E-1,9.607333183E0,1.999756932E0
2.766050430E0,-7.745242715E-1,9.549872398E0,2.033275843E0
2.768538243E0,-8.463503122E-1,9.492411613E0,2.023699045E0
2.771026055E0,-8.655039072E-1,9.425373077E0,1.990180135E0
2.773513868E0,-7.984662652E-1,9.358335495E0,1.951872945E0
2.776001680E0,-6.117185354E-1,9.229048729E0,1.860893250E0
2.778489493E0,-2.286462635E-1,8.563461304E0,-8.062474132E-1
2.780977305E0,-5.448006153E0,1.203505325E1,-1.248037529E1
2.783465118E0,-1.615008736E1,1.908837128E1,-2.117611504E1
2.785952930E0,-2.520495796E1,2.051531601E1,-1.373972511E1
2.788440743E0,-3.122398186E1,1.724004745E1,-1.352125406E0
2.790928555E0,-2.551620483E1,8.568249702E0,5.758653641E0
2.793416368E0,-1.288439655E1,-6.350619793E-1,6.376357555E0
2.795904180E0,-1.885433793E0,-4.872798920E0,3.532046080E0
2.798391993E0,4.487931252E0,-2.397194386E0,8.601169586E-1
2.800879805E0,6.192602634E0,3.894767523E0,2.052429438E0
2.803367618E0,5.297171116E0,1.032559299E1,5.160103321E0
2.805855430E0,4.200626850E0,1.463994503E1,5.672462463E0
2.808343243E0,3.329137564E0,1.633503914E1,4.116231441E0
2.810831055E0,2.539050817E0,1.535820580E1,3.967790842E0
2.813318868E0,1.155202270E0,1.260008526E1,5.739500046E0
2.815806680E0,-1.138442874E0,9.674370766E0,7.305307865E0
2.818294545E0,-3.791218281E0,7.754220963E0,6.941389084E0
2.820782409E0,-5.778405666E0,7.237073421E0,4.398746967E0
2.823270274E0,-6.266822815E0,7.586626530E0,7.978677154E-1
2.825758138E0,-5.069722176E0,8.055890083E0,-2.199672699E0
2.828246003E0,-2.881421804E0,8.180388451E0,-2.937086821E0
2.830733868E0,-4.728548229E-1,7.902661324E0,-1.136647224E0
2.833221732E0,1.499967337E0,7.596203327E0,1.492186189E0
2.835709597E0,2.472013235E0,7.687182903E0,2.746747971E0
2.838197461E0,2.385822058E0,8.257002831E0,2.459443808E0
2.840685326E0,1.562216640E0,9.027935982E0,1.473032594E0
2.843173190E0,4.800374508E-1,9.660005569E0,7.595604658E-1
2.845661055E0,-5.111620426E-1,9.813234329E0,1.128267527E0
2.848148920E0,-1.238999367E0,9.545084000E0,2.028487444E0
2.850636784E0,-1.789665818E0,9.166799545E0,2.655768156E0
2.853124649E0,-2.196680069E0,9.032724380E0,2.469020605E0
2.855612513E0,-2.335543871E0,9.209895134E0,1.717241168E0
2.858100378E0,-2.100912094E0,9.516353607E0,1.152209520E0
2.860588243E0,-1.464054346E0,9.727043152E0,1.046864748E0
2.863076107E0,-6.069301367E-1,9.707889557E0,1.262342811E0
2.865563972E0,2.214636505E-1,9.573814392E0,1.420360208E0
2.868051836E0,7.003039718E-1,9.478046417E0,1.453878999E0
2.870539701E0,7.912836671E-1,9.569025993E0,1.295861721E0
2.873027565E0,5.279214978E-1,9.784503937E0,1.228824019E0
2.875515430E0,1.065419763E-1,1.002392387E1,1.372476101E0
2.878003295E0,-3.052607179E-1,1.013884544E1,1.669357181E0
2.880491159E0,-6.739677787E-1,1.012448025E1,1.903988957E0
2.882979024E0,-1.028309584E0,1.006701946E1,2.028487444E0
2.885466888E0,-1.382651448E0,1.004786587E1,2.047641039E0
2.887954753E0,-1.669955730E0,1.009574986E1,2.023699045E0
2.890442618E0,-1.789665818E0,1.013405704E1,2.062006235E0
2.892930482E0,-1.727416515E0,1.012448025E1,2.138620615E0
2.895418347E0,-1.631648421E0,1.003350067E1,2.224812031E0
2.897906211E0,-1.636436820E0,9.932944298E0,2.368463993E0
2.900394076E0,-1.808819413E0,9.856329918E0,2.469020605E0
2.902881940E0,-2.100912094E0,9.846753120E0,2.483385801E0
2.905369805E0,-2.460042238E0,9.865906715E0,2.416347980E0
2.907857670E0,-2.737769604E0,9.851541519E0,2.311003208E0
2.910345534E0,-2.867056608E0,9.731831551E0,2.224812031E0
2.912833399E0,-2.867056608E0,9.554660797E0,2.176927805E0
2.915321263E0,-2.795230389E0,9.377489090E0,2.167351007E0
2.917809128E0,-2.704250813E0,9.262567520E0,2.076371431E0
2.920296993E0,-2.589329243E0,9.229048729E0,1.884835243E0
2.922784857E0,-2.412158251E0,9.262567520E0,1.650203466E0
2.925272722E0,-2.172738075E0,9.305663109E0,1.516128182E0
2.927760586E0,-1.923741102E0,9.300874710E0,1.429937005E0
2.930248451E0,-1.689109325E0,9.286509514E0,1.377264500E0
2.932736315E0,-1.492784739E0,9.286509514E0,1.300650120E0
2.935224180E0,-1.353921056E0,9.339181900E0,1.185728431E0
2.937712045E0,-1.215057373E0,9.411007881E0,1.075595140E0
2.940199909E0,-1.119289279E0,9.497200012E0,1.056441545E0
2.942687774E0,-9.995791912E-1,9.540295601E0,1.080383539E0
2.945175638E0,-8.846575022E-1,9.540295601E0,1.109113932E0
2.947663503E0,-7.841010690E-1,9.497200012E0,1.128267527E0
2.950151368E0,-6.883329749E-1,9.468469620E0,1.104325533E0
2.952639232E0,-6.165069342E-1,9.478046417E0,1.118690729E0
2.955127097E0,-5.781996846E-1,9.463681221E0,1.147421122E0
2.957614961E0,-5.542576909E-1,9.434949875E0,1.243189216E0
2.960102826E0,-5.638344884E-1,9.367912292E0,1.334168911E0
2.962590690E0,-6.308721304E-1,9.276932716E0,1.429937005E0
2.965078555E0,-7.457938194E-1,9.176376343E0,1.477820992E0
2.967566420E0,-8.942343593E-1,9.090185165E0,1.520916581E0
2.970054284E0,-1.057040095E0,9.023147583E0,1.549647093E0
2.972542149E0,-1.152808070E0,8.999205589E0,1.559223890E0
2.975030013E0,-1.219845772E0,9.013570786E0,1.573589087E0
2.977517878E0,-1.229422569E0,9.023147583E0,1.621473074E0
2.980005743E0,-1.258152962E0,9.042301178E0,1.683722377E0
2.982493607E0,-1.315613866E0,9.047089577E0,1.779490471E0
2.984981472E0,-1.373074651E0,8.994417191E0,1.841739655E0
2.987469336E0,-1.444900751E0,8.893860817E0,1.913565755E0
2.989957201E0,-1.555034041E0,8.764574051E0,1.980603337E0
2.992445065E0,-1.684320927E0,8.630498886E0,2.009333849E0
2.994932930E0,-1.813607812E0,8.558672905E0,1.966238141E0
2.997420795E0,-1.928529501E0,8.577826500E0,1.880046844E0
2.999908659E0,-1.990778685E0,8.664017677E0,1.789067268E0
3.002396524E0,-1.995567083E0,8.759785652E0,1.798644066E0
3.004884388E0,-1.928529501E0,8.802881241E0,1.851316452E0
3.007372253E0,-1.818396211E0,8.807669640E0,1.899200439E0
3.009860118E0,-1.751358509E0,8.735843658E0,1.927930951E0
3.012347982E0,-1.698686123E0,8.635287285E0,1.942296147E0
3.014835847E0,-1.708262920E0,8.520365715E0,1.927930951E0
3.017323711E0,-1.751358509E0,8.405443192E0,1.822586060E0
3.019811576E0,-1.861491799E0,8.319252014E0,1.664568782E0
3.022299440E0,-2.005143881E0,8.309675217E0,1.492186189E0
3.024787305E0,-2.124854088E0,8.386289597E0,1.338957310E0
3.027275170E0,-2.158372879E0,8.510788918E0,1.286284804E0
3.029763034E0,-2.053027868E0,8.630498886E0,1.324592113E0
3.032250899E0,-1.818396211E0,8.707113266E0,1.439513803E0
3.034738763E0,-1.535880446E0,8.707113266E0,1.568800688E0
3.037226628E0,-1.277306557E0,8.678382874E0,1.702875972E0
3.039714493E0,-1.095347285E0,8.625710487E0,1.827374458E0
3.042202357E0,-1.033097982E0,8.596980095E0,1.903988957E0
3.044690222E0,-1.023521185E0,8.558672905E0,1.918354154E0
3.047178086E0,-1.023521185E0,8.534730911E0,1.880046844E0
3.049665951E0,-1.028309584E0,8.515577316E0,1.755548358E0
3.052153815E0,-1.018732786E0,8.515577316E0,1.597531080E0
3.054641680E0,-9.995791912E-1,8.563461304E0,1.401206493E0
3.057129545E0,-9.756371975E-1,8.649652481E0,1.238400817E0
3.059617409E0,-9.756371975E-1,8.726266861E0,1.118690729E0
3.062105274E0,-9.564836025E-1,8.759785652E0,1.080383539E0
3.064593138E0,-9.038111567E-1,8.735843658E0,1.085171938E0
3.067081003E0,-8.655039072E-1,8.640075684E0,1.142632723E0
3.069568868E0,-8.559271097E-1,8.510788918E0,1.209670424E0
3.072056732E0,-9.181763530E-1,8.386289597E0,1.295861721E0
3.074544597E0,-1.071405292E0,8.295310020E0,1.367687702E0
3.077032461E0,-1.277306557E0,8.228272438E0,1.405994892E0
3.079520326E0,-1.454477549E0,8.175600052E0,1.444302201E0
3.082008243E0,-1.564610839E0,8.142081261E0,1.468244195E0
3.084496159E0,-1.593341231E0,8.122927666E0,1.468244195E0
3.086984076E0,-1.593341231E0,8.094197273E0,1.458667397E0
3.089471993E0,-1.588552833E0,8.065466881E0,1.463455796E0
3.091959909E0,-1.559822440E0,7.993640900E0,1.425148606E0
3.094447826E0,-1.578976035E0,7.921814919E0,1.410783410E0
3.096935743E0,-1.612494826E0,7.811681747E0,1.410783410E0
3.099423659E0,-1.650802016E0,7.648875713E0,1.415571809E0
3.101911576E0,-1.727416515E0,7.466916561E0,1.425148606E0
3.104399493E0,-1.765723705E0,7.284957409E0,1.429937005E0
3.106887409E0,-1.837549806E0,7.131728172E0,1.353322506E0
3.109375326E0,-1.995567083E0,7.098209381E0,1.195305228E0
3.111863243E0,-2.172738075E0,7.179612160E0,1.037287831E0
3.114351159E0,-2.287659645E0,7.304111004E0,9.941922426E-1
3.116839076E0,-2.273294449E0,7.399878979E0,1.094748735E0
3.119326993E0,-2.120065689E0,7.452551365E0,1.257554412E0
3.121814909E0,-1.861491799E0,7.414244175E0,1.396418095E0
3.124302826E0,-1.588552833E0,7.313687801E0,1.540070295E0
3.126790743E0,-1.363497853E0,7.174823761E0,1.607107878E0
3.129278659E0,-1.253364563E0,7.055113792E0,1.626261473E0
3.131766576E0,-1.219845772E0,6.954557419E0,1.544858694E0
3.134254493E0,-1.310825467E0,6.930615425E0,1.396418095E0
3.136742409E0,-1.454477549E0,7.007229805E0,1.228824019E0
3.139230326E0,-1.564610839E0,7.174823761E0,1.171363235E0
3.141718243E0,-1.578976035E0,7.371148586E0,1.190516829E0
3.144206159E0,-1.449689150E0,7.510012150E0,1.224035621E0
3.146694024E0,-1.215057373E0,7.596203327E0,1.286284804E0
3.149181888E0,-9.373299479E-1,7.581838131E0,1.353322506E0
3.151669753E0,-7.314286232E-1,7.514800549E0,1.439513803E0
3.154157618E0,-6.212953329E-1,7.395090580E0,1.511339784E0
3.156645482E0,-6.500257850E-1,7.270592213E0,1.564012289E0
3.159133347E0,-7.505822182E-1,7.174823761E0,1.554435492E0
3.161621211E0,-9.038111567E-1,7.107786179E0,1.511339784E0
3.164109076E0,-1.057040095E0,7.055113792E0,1.444302201E0
3.166596940E0,-1.167173386E0,7.012018204E0,1.362899303E0
3.169084805E0,-1.262941360E0,6.978499413E0,1.276708007E0
3.171572670E0,-1.334767461E0,6.930615425E0,1.257554412E0
3.174060534E0,-1.411381960E0,6.892308235E0,1.252766013E0
3.176548399E0,-1.473631144E0,6.858789444E0,1.233612418E0
3.179036263E0,-1.531091928E0,6.796540260E0,1.219247222E0
3.181524128E0,-1.574187636E0,6.734290600E0,1.209670424E0
3.184011993E0,-1.583764434E0,6.691195011E0,1.214458823E0
3.186499857E0,-1.569399238E0,6.662464619E0,1.195305228E0
3.188987722E0,-1.497573137E0,6.605003834E0,1.228824019E0
3.191475586E0,-1.387439847E0,6.494870663E0,1.348534107E0
3.193963451E0,-1.253364563E0,6.375160694E0,1.463455796E0
3.196451315E0,-1.152808070E0,6.250661850E0,1.516128182E0
3.198939180E0,-1.119289279E0,6.164470673E0,1.520916581E0
3.201427045E0,-1.148019671E0,6.130951881E0,1.429937005E0
3.203914909E0,-1.243787766E0,6.221931458E0,1.228824019E0
3.206402774E0,-1.373074651E0,6.437409878E0,9.223662019E-1
3.208890638E0,-1.487996340E0,6.772598267E0,6.111199856E-1
3.211378503E0,-1.492784739E0,7.136516571E0,3.860650361E-1
3.213866368E0,-1.344344258E0,7.423820972E0,4.339490533E-1
3.216354232E0,-1.100135684E0,7.605780125E0,6.877344251E-1
3.218842097E0,-7.601590157E-1,7.653664112E0,9.941922426E-1
3.221329961E0,-4.441244006E-1,7.577049732E0,1.233612418E0
3.223817826E0,-2.334346622E-1,7.447762966E0,1.329380512E0
3.226305690E0,-1.568202078E-1,7.332841396E0,1.319803715E0
3.228793555E0,-1.711854190E-1,7.318476200E0,1.262342811E0
3.231281420E0,-2.956839204E-1,7.404667377E0,1.147421122E0
3.233769284E0,-4.249708056E-1,7.600991726E0,1.003769040E0
3.236257149E0,-5.446808934E-1,7.845200539E0,8.792705536E-1
3.238745013E0,-6.069301367E-1,8.046313286E0,8.313865662E-1
3.241232878E0,-6.356605291E-1,8.180388451E0,8.505401611E-1
3.243720743E0,-6.691793799E-1,8.170811653E0,9.415197968E-1
3.246208607E0,-7.026981711E-1,8.055890083E0,1.022922635E0
3.248696472E0,-7.984662652E-1,7.878719330E0,1.066018343E0
3.251184336E0,-9.133879542E-1,7.687182903E0,1.061229944E0
3.253672201E0,-1.018732786E0,7.538742542E0,1.056441545E0
3.256160065E0,-1.090558887E0,7.471704960E0,1.085171938E0
3.258647930E0,-1.114500880E0,7.442974567E0,1.142632723E0
3.261135795E0,-1.109712481E0,7.457339764E0,1.257554412E0
3.263623659E0,-1.085770488E0,7.495646954E0,1.425148606E0
3.266111524E0,-1.095347285E0,7.486070156E0,1.568800688E0
3.268599388E0,-1.109712481E0,7.433397770E0,1.659780383E0
3.271087253E0,-1.138442874E0,7.318476200E0,1.616684675E0
3.273575118E0,-1.171961784E0,7.193977356E0,1.382052898E0
3.276062982E0,-1.248576164E0,7.122151375E0,1.018134236E0
3.278550847E0,-1.353921056E0,7.198765755E0,5.488707423E-1
3.281038711E0,-1.392228246E0,7.433397770E0,1.227028370E-1
3.283526576E0,-1.315613866E0,7.773374557E0,-6.883329898E-2
3.286014440E0,-1.090558887E0,8.079832077E0,4.129998013E-2
3.288502305E0,-7.362170219E-1,8.304886818E0,3.764882088E-1
3.290990170E0,-3.818751574E-1,8.472481728E0,7.308300734E-1
3.293478034E0,-1.185129806E-1,8.515577316E0,1.022922635E0
3.295965899E0,-1.795651205E-2,8.510788918E0,1.190516829E0
3.298453763E0,-9.457096457E-2,8.467693329E0,1.315015316E0
3.300941628E0,-2.765302956E-1,8.448538780E0,1.343745708E0
3.303429493E0,-4.680664241E-1,8.534730911E0,1.353322506E0
3.305917357E0,-6.739677787E-1,8.740632057E0,1.319803715E0
3.308405222E0,-8.319851160E-1,9.061454773E0,1.276708007E0
3.310893086E0,-8.942343593E-1,9.454104424E0,1.267131209E0
3.313380951E0,-8.702923059E-1,9.832387924E0,1.291073322E0
3.315868815E0,-7.984662652E-1,1.009096146E1,1.372476101E0
3.318356680E0,-7.649474144E-1,1.022982502E1,1.511339784E0
3.320844545E0,-7.649474144E-1,1.023940182E1,1.611896276E0
3.323332409E0,-8.367735147E-1,1.010053825E1,1.698087573E0
3.325820274E0,-9.612720013E-1,9.865906715E0,1.774701953E0
3.328308138E0,-1.104924083E0,9.664793968E0,1.808220863E0
3.330796003E0,-1.238999367E0,9.549872398E0,1.846528053E0
3.333283868E0,-1.363497853E0,9.535507202E0,1.903988957E0
3.335771732E0,-1.406593442E0,9.626486778E0,2.023699045E0
3.338259597E0,-1.435323954E0,9.707889557E0,2.200869799E0
3.340747461E0,-1.435323954E0,9.741408348E0,2.435501575E0
3.343235326E0,-1.464054346E0,9.722254753E0,2.670133352E0
3.345723190E0,-1.540668845E0,9.636063576E0,2.828150749E0
3.348211055E0,-1.679532528E0,9.511565208E0,2.837727547E0
3.350698920E0,-1.804031014E0,9.353547096E0,2.679710150E0
3.353186784E0,-1.875856996E0,9.219471931E0,2.435501575E0
3.355674649E0,-1.890222192E0,9.162011147E0,2.143409014E0
3.358162513E0,-1.866280198E0,9.219471931E0,1.846528053E0
3.360650378E0,-1.866280198E0,9.406219482E0,1.621473074E0
3.363138243E0,-1.851915002E0,9.650428772E0,1.458667397E0
3.365626107E0,-1.813607812E0,9.875483513E0,1.319803715E0
3.368113972E0,-1.703474522E0,1.005744267E1,1.271919608E0
3.370601836E0,-1.555034041E0,1.016278744E1,1.310226917E0
3.373089701E0,-1.363497853E0,1.011969185E1,1.506551385E0
3.375577565E0,-1.162384868E0,9.990405083E0,1.789067268E0
3.378065430E0,-9.947907925E-1,9.841964722E0,2.028487444E0
3.380553295E0,-9.516952038E-1,9.755773544E0,2.152985811E0
3.383041159E0,-9.995791912E-1,9.798869133E0,2.133832216E0
3.385529024E0,-1.138442874E0,9.985616684E0,2.081159830E0
3.388016888E0,-1.310825467E0,1.031122780E1,2.129043818E0
3.390504753E0,-1.454477549E0,1.069908905E1,2.172139406E0
3.392992618E0,-1.535880446E0,1.106779575E1,2.133832216E0
3.395480482E0,-1.617283225E0,1.132158089E1,2.133832216E0
3.397968347E0,-1.708262920E0,1.146523380E1,2.229600430E0
3.400456211E0,-1.799242616E0,1.145565701E1,2.296638012E0
3.402944076E0,-1.909375906E0,1.131679249E1,2.425924778E0
3.405431940E0,-1.995567083E0,1.109652615E1,2.531269789E0
3.407919805E0,-2.086546898E0,1.086668301E1,2.521692991E0
3.410407670E0,-2.182314873E0,1.066078186E1,2.478597403E0
3.412895534E0,-2.268506050E0,1.052191830E1,2.473809004E0
3.415383399E0,-2.345120668E0,1.045488071E1,2.421136379E0
3.417871263E0,-2.364274263E0,1.043093872E1,2.378040791E0
3.420359128E0,-2.340332270E0,1.041178417E1,2.392405987E0
3.422846993E0,-2.330755472E0,1.038784218E1,2.459443808E0
3.425334857E0,-2.302024841E0,1.031601620E1,2.555211782E0
3.427822722E0,-2.292448044E0,1.020588303E1,2.689286947E0
3.430310586E0,-2.287659645E0,1.009574986E1,2.808997154E0
3.432798451E0,-2.287659645E0,9.976039886E0,2.909553528E0
3.435286315E0,-2.306813240E0,9.889848709E0,2.957437754E0
3.437774180E0,-2.330755472E0,9.846753120E0,2.943072557E0
3.440262045E0,-2.369062662E0,9.837176323E0,2.828150749E0
3.442749909E0,-2.397793055E0,9.885060310E0,2.674921751E0
3.445237774E0,-2.383427858E0,9.971251488E0,2.512116194E0
3.447725638E0,-2.330755472E0,1.004786587E1,2.401982784E0
3.450213503E0,-2.206256866E0,1.011011505E1,2.339733601E0
3.452701368E0,-2.029085875E0,1.009096146E1,2.330156803E0
3.455189232E0,-1.871068597E0,1.006223106E1,2.301426411E0
3.457677097E0,-1.813607812E0,1.002871227E1,2.215235233E0
3.460164961E0,-1.880645394E0,1.005744267E1,2.081159830E0
3.462652826E0,-2.005143881E0,1.014363384E1,1.942296147E0
3.465140690E0,-2.115277290E0,1.031122780E1,1.889623642E0
3.467628555E0,-2.110488892E0,1.047882271E1,1.923142552E0
3.470116420E0,-2.009932280E0,1.062247467E1,1.999756932E0
3.472604284E0,-1.880645394E0,1.071345425E1,2.057217836E0
3.475092149E0,-1.808819413E0,1.072781944E1,2.100313425E0
3.477580013E0,-1.827973008E0,1.073260784E1,2.076371431E0
3.480067878E0,-1.985990286E0,1.071824265E1,2.033275843E0
3.482555743E0,-2.163161278E0,1.068951225E1,1.994968534E0
3.485043607E0,-2.325966835E0,1.068472385E1,1.971026540E0
3.487531472E0,-2.445677042E0,1.072303104E1,1.980603337E0
3.490019336E0,-2.479195833E0,1.081879902E1,1.985391736E0
3.492507201E0,-2.469619036E0,1.095287418E1,2.033275843E0
3.494995065E0,-2.431311846E0,1.108694935E1,2.124255419E0
3.497482930E0,-2.412158251E0,1.120665932E1,2.172139406E0
3.499970795E0,-2.412158251E0,1.127369690E1,2.172139406E0
3.502458659E0,-2.474407434E0,1.128806210E1,2.143409014E0
3.504946524E0,-2.589329243E0,1.120665932E1,2.138620615E0
3.507434388E0,-2.718616009E0,1.106300735E1,2.172139406E0
3.509922253E0,-2.804807186E0,1.088104820E1,2.234388828E0
3.512410118E0,-2.876633406E0,1.069430065E1,2.258330822E0
3.514897982E0,-2.876633406E0,1.054107189E1,2.186504602E0
3.517385847E0,-2.814383984E0,1.047403431E1,2.100313425E0
3.519873711E0,-2.675520420E0,1.045488071E1,2.047641039E0
3.522361576E0,-2.512714624E0,1.047882271E1,2.014122248E0
3.524849440E0,-2.397793055E0,1.052670670E1,1.956661344E0
3.527337305E0,-2.373851061E0,1.059374428E1,1.836951256E0
3.529825170E0,-2.426523447E0,1.063683987E1,1.736394763E0
3.532313034E0,-2.498349428E0,1.064162827E1,1.698087573E0
3.534800899E0,-2.551021814E0,1.060810947E1,1.678933978E0
3.537288763E0,-2.560598612E0,1.055543709E1,1.635838270E0
3.539776628E0,-2.517503023E0,1.052191830E1,1.611896276E0
3.542264493E0,-2.416946650E0,1.056022549E1,1.611896276E0
3.544752357E0,-2.287659645E0,1.068951225E1,1.583165884E0
3.547240222E0,-2.148796082E0,1.090020180E1,1.530493379E0
3.549728086E0,-2.048239470E0,1.117314053E1,1.511339784E0
3.552215951E0,-1.966836691E0,1.147002220E1,1.535281897E0
3.554703815E0,-1.966836691E0,1.174774933E1,1.650203466E0
3.557191680E0,-1.981201887E0,1.197280407E1,1.784278870E0
3.559679545E0,-2.057816267E0,1.209730244E1,1.908777356E0
3.562167409E0,-2.134430885E0,1.211166763E1,1.985391736E0
3.564655274E0,-2.196680069E0,1.207336044E1,2.033275843E0
3.567143138E0,-2.254140854E0,1.201589966E1,2.076371431E0
3.569631003E0,-2.278082848E0,1.193449688E1,2.133832216E0
3.572118868E0,-2.254140854E0,1.188661289E1,2.181716204E0
3.574606732E0,-2.244564056E0,1.185309410E1,2.181716204E0
3.577094597E0,-2.254140854E0,1.182915211E1,2.186504602E0
3.579582461E0,-2.268506050E0,1.184351730E1,2.186504602E0
3.582070326E0,-2.316390038E0,1.185788250E1,2.162562609E0
3.584558190E0,-2.325966835E0,1.184351730E1,2.114678621E0
3.587046055E0,-2.335543871E0,1.179084492E1,2.066794634E0
3.589533920E0,-2.335543871E0,1.166155815E1,2.042852640E0
3.592021784E0,-2.335543871E0,1.149396420E1,2.071583033E0
3.594509649E0,-2.340332270E0,1.132636929E1,2.114678621E0
3.596997513E0,-2.369062662E0,1.113962173E1,2.157774210E0
3.599485378E0,-2.397793055E0,1.098639297E1,2.205658197E0
3.601973243E0,-2.402581453E0,1.086189461E1,2.196081400E0
3.604461107E0,-2.364274263E0,1.076612663E1,2.172139406E0
3.606948972E0,-2.302024841E0,1.066557026E1,2.167351007E0
3.609436836E0,-2.225410461E0,1.058416748E1,2.205658197E0
3.611924701E0,-2.124854088E0,1.050276470E1,2.215235233E0
3.614412565E0,-2.029085875E0,1.039741898E1,2.234388828E0
3.616900430E0,-1.938106298E0,1.029686260E1,2.239177227E0
3.619388295E0,-1.885433793E0,1.024897861E1,2.220023632E0
3.621876159E0,-1.808819413E0,1.020588303E1,2.181716204E0
3.624364024E0,-1.756146908E0,1.021545982E1,2.138620615E0
3.626851888E0,-1.674744129E0,1.023461342E1,2.085948229E0
3.629339753E0,-1.617283225E0,1.028728580E1,2.009333849E0
3.631827618E0,-1.545457244E0,1.033038139E1,2.004545450E0
3.634315482E0,-1.497573137E0,1.034474659E1,2.057217836E0
3.636803347E0,-1.444900751E0,1.031601620E1,2.148197412E0
3.639291211E0,-1.425747156E0,1.024897861E1,2.248754025E0
3.641779076E0,-1.430535555E0,1.014842224E1,2.306214809E0
3.644266940E0,-1.440112352E0,1.001913548E1,2.311003208E0
3.646754805E0,-1.459265947E0,9.899425507E0,2.253542423E0
3.649242670E0,-1.425747156E0,9.851541519E0,2.152985811E0
3.651730534E0,-1.387439847E0,9.827599525E0,2.119467020E0
3.654218399E0,-1.306037068E0,9.861118317E0,2.105101824E0
3.656706263E0,-1.253364563E0,9.923367500E0,2.119467020E0
3.659194128E0,-1.224634171E0,9.928155899E0,2.152985811E0
3.661682045E0,-1.248576164E0,9.923367500E0,2.186504602E0
3.664169961E0,-1.334767461E0,9.885060310E0,2.176927805E0
3.666657878E0,-1.397016644E0,9.832387924E0,2.148197412E0
3.669145795E0,-1.430535555E0,9.746196747E0,2.129043818E0
3.671633711E0,-1.430535555E0,9.640851974E0,2.152985811E0
3.674121628E0,-1.430535555E0,9.545084000E0,2.186504602E0
3.676609545E0,-1.420958757E0,9.478046417E0,2.162562609E0
3.679097461E0,-1.406593442E0,9.454104424E0,2.085948229E0
3.681585378E0,-1.411381960E0,9.449316025E0,2.028487444E0
3.684073295E0,-1.440112352E0,9.473258018E0,1.927930951E0
3.686561211E0,-1.478419542E0,9.497200012E0,1.817797661E0
3.689049128E0,-1.492784739E0,9.540295601E0,1.722029567E0
3.691537045E0,-1.535880446E0,9.569025993E0,1.693299174E0
3.694024961E0,-1.588552833E0,9.588179588E0,1.774701953E0
3.696512878E0,-1.655590534E0,9.616909981E0,1.903988957E0
3.699000795E0,-1.698686123E0,9.631275177E0,2.023699045E0
3.701488711E0,-1.751358509E0,9.669582367E0,2.138620615E0
3.703976628E0,-1.813607812E0,9.703101158E0,2.191293001E0
3.706464545E0,-1.904587507E0,9.789292336E0,2.272696018E0
3.708952461E0,-1.962048292E0,9.870695114E0,2.258330822E0
3.711440378E0,-2.067393064E0,9.937732697E0,2.253542423E0
3.713928295E0,-2.211045265E0,9.999981880E0,2.344521999E0
3.716416211E0,-2.407369852E0,1.007180786E1,2.334945202E0
3.718904128E0,-2.618059635E0,1.011490345E1,2.277484417E0
3.721392045E0,-2.780865192E0,1.016757584E1,2.263119221E0
3.723879961E0,-2.890998602E0,1.021545982E1,2.263119221E0
3.726367878E0,-2.958036184E0,1.023461342E1,2.311003208E0
3.728855795E0,-3.001131773E0,1.022982502E1,2.411559582E0
3.731343711E0,-3.001131773E0,1.022503662E1,2.536058187E0
3.733831628E0,-2.996343374E0,1.022024822E1,2.655768156E0
3.736319493E0,-2.981978178E0,1.021067142E1,2.737171173E0
3.738807357E0,-3.010708570E0,1.024897861E1,2.794631958E0
3.741295222E0,-3.068169594E0,1.030643940E1,2.789843559E0
3.743783086E0,-3.154360771E0,1.041178417E1,2.689286947E0
3.746270951E0,-3.250128746E0,1.051234150E1,2.593518972E0
3.748758815E0,-3.341108561E0,1.062247467E1,2.536058187E0
3.751246680E0,-3.398569345E0,1.071824265E1,2.536058187E0
3.753734545E0,-3.456030130E0,1.079964542E1,2.612672567E0
3.756222409E0,-3.518279314E0,1.081401062E1,2.708440781E0
3.758710274E0,-3.566163540E0,1.081879902E1,2.770689964E0
3.761198138E0,-3.628412724E0,1.081401062E1,2.780266762E0
3.763686003E0,-3.666719913E0,1.081401062E1,2.679710150E0
3.766173868E0,-3.695450306E0,1.083795261E1,2.492962599E0
3.768661732E0,-3.700238705E0,1.091456699E1,2.263119221E0
3.771149597E0,-3.661931515E0,1.101033497E1,2.105101824E0
3.773637461E0,-3.609259129E0,1.111567974E1,2.014122248E0
3.776125326E0,-3.542221308E0,1.121623611E1,1.947084546E0
3.778613190E0,-3.523067713E0,1.128806210E1,1.932719350E0
3.781101055E0,-3.537432909E0,1.132158089E1,1.951872945E0
3.783588920E0,-3.628412724E0,1.132158089E1,1.937507749E0
3.786076784E0,-3.767276287E0,1.132158089E1,1.937507749E0
3.788564649E0,-3.954024076E0,1.131200409E1,1.903988957E0
3.791052513E0,-4.155137062E0,1.130242729E1,1.870470047E0
3.793540378E0,-4.265270233E0,1.131679249E1,1.822586060E0
3.796028243E0,-4.317942619E0,1.135031128E1,1.808220863E0
3.798516107E0,-4.298789024E0,1.138383007E1,1.889623642E0
3.801003972E0,-4.226963043E0,1.145565701E1,1.975814939E0
3.803491836E0,-4.145560265E0,1.148438740E1,2.081159830E0
3.805979701E0,-4.054580688E0,1.150354099E1,2.210446835E0
3.808467565E0,-4.030638695E0,1.155142498E1,2.296638012E0
3.810955430E0,-4.040215492E0,1.157536697E1,2.334945202E0
3.813443295E0,-4.097676277E0,1.158973217E1,2.330156803E0
3.815931159E0,-4.179079056E0,1.159930897E1,2.258330822E0
3.818419024E0,-4.236539841E0,1.161367416E1,2.191293001E0
3.820906888E0,-4.217386246E0,1.160409737E1,2.085948229E0
3.823394753E0,-4.145560265E0,1.157536697E1,1.990180135E0
3.825882618E0,-4.068945885E0,1.150354099E1,1.942296147E0
3.828370482E0,-3.944447279E0,1.140298462E1,1.956661344E0
3.830858347E0,-3.858256102E0,1.132636929E1,1.966238141E0
3.833346211E0,-3.810372114E0,1.126412010E1,1.942296147E0
3.835834076E0,-3.776853085E0,1.123538971E1,1.918354154E0
3.838321940E0,-3.781641483E0,1.120187092E1,1.870470047E0
3.840809805E0,-3.757699490E0,1.118750572E1,1.846528053E0
3.843297670E0,-3.719392300E0,1.121144772E1,1.817797661E0
3.845785534E0,-3.685873508E0,1.121623611E1,1.808220863E0
3.848273399E0,-3.633201122E0,1.122102451E1,1.817797661E0
3.850761263E0,-3.561375141E0,1.122102451E1,1.803432465E0
3.853249128E0,-3.503914118E0,1.123060131E1,1.769913554E0
3.855736993E0,-3.403357744E0,1.122102451E1,1.745971560E0
3.858224857E0,-3.317166567E0,1.121623611E1,1.779490471E0
3.860712722E0,-3.269282341E0,1.121144772E1,1.822586060E0
3.863200586E0,-3.259705544E0,1.120665932E1,1.860893250E0
3.865688451E0,-3.288435936E0,1.119229412E1,1.880046844E0
3.868176315E0,-3.345896959E0,1.116835213E1,1.875258446E0
3.870664180E0,-3.393780947E0,1.113483334E1,1.913565755E0
3.873152045E0,-3.441664934E0,1.109652615E1,1.942296147E0
3.875639909E0,-3.446453333E0,1.107258415E1,1.932719350E0
3.878127774E0,-3.456030130E0,1.102470016E1,1.903988957E0
3.880615638E0,-3.465606928E0,1.100554657E1,1.875258446E0
3.883103503E0,-3.456030130E0,1.099118137E1,1.841739655E0
3.885591368E0,-3.441664934E0,1.100075817E1,1.827374458E0
3.888079232E0,-3.384204149E0,1.101033497E1,1.836951256E0
3.890567097E0,-3.312378168E0,1.101512337E1,1.880046844E0
3.893054961E0,-3.259705544E0,1.099596977E1,1.903988957E0
3.895542826E0,-3.216609955E0,1.097681618E1,1.937507749E0
3.898030690E0,-3.178302765E0,1.096723938E1,1.980603337E0
3.900518555E0,-3.168725967E0,1.093372059E1,1.994968534E0
3.903006420E0,-3.168725967E0,1.090020180E1,1.994968534E0
3.905494284E0,-3.163937569E0,1.085710621E1,2.009333849E0
3.907982149E0,-3.168725967E0,1.081401062E1,2.038064241E0
3.910470013E0,-3.163937569E0,1.078049183E1,2.057217836E0
3.912957878E0,-3.139995575E0,1.075176144E1,2.038064241E0
3.915445743E0,-3.116053581E0,1.070866585E1,2.033275843E0
3.917933607E0,-3.077746391E0,1.066557026E1,2.028487444E0
3.920421472E0,-3.039438963E0,1.062726307E1,2.004545450E0
3.922909336E0,-2.972401381E0,1.056980228E1,1.999756932E0
3.925397201E0,-2.910152197E0,1.049797630E1,1.971026540E0
3.927885065E0,-2.890998602E0,1.042615032E1,1.971026540E0
3.930372930E0,-2.881421804E0,1.036390018E1,1.985391736E0
3.932860795E0,-2.862268209E0,1.029207420E1,1.971026540E0
3.935348659E0,-2.867056608E0,1.024419022E1,1.966238141E0
3.937836524E0,-2.857479811E0,1.017236423E1,1.975814939E0
3.940324388E0,-2.843114614E0,1.013405704E1,1.947084546E0
3.942812253E0,-2.847903013E0,1.009574986E1,1.937507749E0
3.945300118E0,-2.867056608E0,1.004307747E1,1.942296147E0
3.947787982E0,-2.852691412E0,9.995193481E0,1.923142552E0
3.950275847E0,-2.852691412E0,9.937732697E0,1.894412041E0
3.952763711E0,-2.843114614E0,9.913790703E0,1.880046844E0
3.955251576E0,-2.814383984E0,9.880271912E0,1.851316452E0
3.957739440E0,-2.785653591E0,9.865906715E0,1.851316452E0
3.960227305E0,-2.704250813E0,9.856329918E0,1.846528053E0
3.962715170E0,-2.646790028E0,9.832387924E0,1.899200439E0
3.965203034E0,-2.598906040E0,9.818022728E0,1.894412041E0
3.967690899E0,-2.589329243E0,9.808445930E0,1.846528053E0
3.970178763E0,-2.589329243E0,9.789292336E0,1.836951256E0
3.972666628E0,-2.598906040E0,9.750985146E0,1.803432465E0
3.975154493E0,-2.661155224E0,9.727043152E0,1.755548358E0
3.977642357E0,-2.661155224E0,9.698312759E0,1.741183162E0
3.980130222E0,-2.665943623E0,9.674370766E0,1.745971560E0
3.982618086E0,-2.661155224E0,9.664793968E0,1.736394763E0
3.985105951E0,-2.656366825E0,9.636063576E0,1.717241168E0
3.987593815E0,-2.656366825E0,9.640851974E0,1.717241168E0
3.990081680E0,-2.637213230E0,9.616909981E0,1.717241168E0
3.992569545E0,-2.646790028E0,9.592967987E0,1.731606364E0
3.995057409E0,-2.661155224E0,9.578602791E0,1.750759959E0
3.997545274E0,-2.680308819E0,9.549872398E0,1.793855667E0
4.000033138E0,-2.742558002E0,9.506776810E0,1.836951256E0
4.002521003E0,-2.823961020E0,9.497200012E0,1.836951256E0
4.005008868E0,-2.876633406E0,9.478046417E0,1.827374458E0
4.007496784E0,-2.934094191E0,9.439739227E0,1.822586060E0
4.009984701E0,-2.914940596E0,9.401431084E0,1.813009262E0
4.012472618E0,-2.895787001E0,9.363123894E0,1.779490471E0
4.014960534E0,-2.852691412E0,9.315239906E0,1.784278870E0
4.017448451E0,-2.804807186E0,9.276932716E0,1.803432465E0
4.019936368E0,-2.771288395E0,9.252990723E0,1.813009262E0
4.022424284E0,-2.771288395E0,9.238625526E0,1.827374458E0
4.024912201E0,-2.790441990E0,9.224260330E0,1.813009262E0
4.027400118E0,-2.823961020E0,9.205106735E0,1.803432465E0
4.029888034E0,-2.852691412E0,9.209895134E0,1.827374458E0
4.032375951E0,-2.867056608E0,9.205106735E0,1.803432465E0
4.034863868E0,-2.876633406E0,9.185953140E0,1.817797661E0
4.037351784E0,-2.890998602E0,9.185953140E0,1.822586060E0
4.039839701E0,-2.867056608E0,9.190741539E0,1.798644066E0
4.042327618E0,-2.823961020E0,9.190741539E0,1.760336757E0
4.044815534E0,-2.790441990E0,9.181164742E0,1.736394763E0
4.047303451E0,-2.732981205E0,9.166799545E0,1.755548358E0
4.049791368E0,-2.685097218E0,9.157222748E0,1.760336757E0
4.052279284E0,-2.656366825E0,9.147645950E0,1.755548358E0
4.054767201E0,-2.637213230E0,9.133280754E0,1.717241168E0
4.057255118E0,-2.670732021E0,9.133280754E0,1.688510776E0
4.059743034E0,-2.685097218E0,9.138069153E0,1.678933978E0
4.062230951E0,-2.709039211E0,9.152434349E0,1.693299174E0
4.064718868E0,-2.742558002E0,9.147645950E0,1.683722377E0
4.067206784E0,-2.756923199E0,9.152434349E0,1.693299174E0
4.069694701E0,-2.771288395E0,9.152434349E0,1.722029567E0
4.072182618E0,-2.785653591E0,9.147645950E0,1.741183162E0
4.074670534E0,-2.800018787E0,9.142857552E0,1.774701953E0
4.077158451E0,-2.814383984E0,9.152434349E0,1.793855667E0
4.079646368E0,-2.823961020E0,9.138069153E0,1.827374458E0
4.082134284E0,-2.852691412E0,9.104550362E0,1.813009262E0
4.084622201E0,-2.871845007E0,9.094973564E0,1.817797661E0
4.087110118E0,-2.871845007E0,9.109338760E0,1.817797661E0
4.089597982E0,-2.890998602E0,9.099761963E0,1.808220863E0
4.092085847E0,-2.895787001E0,9.104550362E0,1.822586060E0
4.094573711E0,-2.900575399E0,9.114127159E0,1.822586060E0
4.097061576E0,-2.919728994E0,9.128492355E0,1.822586060E0
4.099549440E0,-2.924517393E0,9.133280754E0,1.851316452E0
4.102037305E0,-2.938882589E0,9.147645950E0,1.851316452E0
4.104525170E0,-2.919728994E0,9.138069153E0,1.846528053E0
4.107013034E0,-2.905363798E0,9.152434349E0,1.832162857E0
4.109500899E0,-2.881421804E0,9.147645950E0,1.827374458E0
4.111988763E0,-2.852691412E0,9.128492355E0,1.832162857E0
4.114476628E0,-2.833537817E0,9.133280754E0,1.841739655E0
4.116964493E0,-2.843114614E0,9.138069153E0,1.870470047E0
4.119452357E0,-2.847903013E0,9.166799545E0,1.870470047E0
4.121940222E0,-2.862268209E0,9.200318336E0,1.832162857E0
4.124428086E0,-2.862268209E0,9.233837128E0,1.827374458E0
4.126915951E0,-2.871845007E0,9.252990723E0,1.813009262E0
4.129403815E0,-2.843114614E0,9.262567520E0,1.851316452E0
4.131891680E0,-2.833537817E0,9.267355919E0,1.913565755E0
4.134379545E0,-2.819172382E0,9.252990723E0,1.980603337E0
4.136867409E0,-2.819172382E0,9.238625526E0,2.009333849E0
4.139355274E0,-2.819172382E0,9.238625526E0,2.018910646E0
4.141843138E0,-2.843114614E0,9.243413925E0,1.999756932E0
4.144331003E0,-2.876633406E0,9.233837128E0,1.985391736E0
4.146818868E0,-2.881421804E0,9.243413925E0,1.961449742E0
4.149306732E0,-2.886210203E0,9.257779121E0,1.937507749E0
4.151794597E0,-2.862268209E0,9.281721115E0,1.903988957E0
4.154282461E0,-2.814383984E0,9.276932716E0,1.923142552E0
4.156770326E0,-2.790441990E0,9.267355919E0,1.942296147E0
4.159258190E0,-2.776076794E0,9.257779121E0,1.961449742E0
4.161746055E0,-2.752134800E0,9.257779121E0,1.990180135E0
4.164233920E0,-2.752134800E0,9.252990723E0,2.014122248E0
4.166721784E0,-2.771288395E0,9.257779121E0,2.018910646E0
4.169209649E0,-2.780865192E0,9.281721115E0,2.009333849E0
4.171697513E0,-2.790441990E0,9.276932716E0,2.028487444E0
4.174185378E0,-2.780865192E0,9.286509514E0,2.066794634E0
4.176673243E0,-2.756923199E0,9.276932716E0,2.105101824E0
4.179161107E0,-2.752134800E0,9.272144318E0,2.148197412E0
4.181648972E0,-2.752134800E0,9.276932716E0,2.157774210E0
4.184136836E0,-2.771288395E0,9.276932716E0,2.129043818E0
4.186624701E0,-2.766499996E0,9.267355919E0,2.085948229E0
4.189112565E0,-2.732981205E0,9.291297913E0,2.062006235E0
4.191600430E0,-2.713827610E0,9.281721115E0,2.090736628E0
4.194088295E0,-2.694674015E0,9.262567520E0,2.143409014E0
4.196576159E0,-2.670732021E0,9.257779121E0,2.181716204E0
4.199064024E0,-2.646790028E0,9.262567520E0,2.205658197E0
4.201551888E0,-2.642001629E0,9.262567520E0,2.210446835E0
4.204039753E0,-2.637213230E0,9.267355919E0,2.196081400E0
4.206527618E0,-2.618059635E0,9.272144318E0,2.200869799E0
4.209015482E0,-2.589329243E0,9.286509514E0,2.253542423E0
4.211503347E0,-2.555810213E0,9.296086311E0,2.311003208E0
4.213991211E0,-2.541445017E0,9.305663109E0,2.330156803E0
4.216479076E0,-2.541445017E0,9.329605103E0,2.301426411E0
4.218966940E0,-2.570175409E0,9.358335495E0,2.263119221E0
4.221454805E0,-2.555810213E0,9.382277489E0,2.220023632E0
4.223942670E0,-2.531868219E0,9.415796280E0,2.162562609E0
4.226430534E0,-2.527079821E0,9.434949875E0,2.172139406E0
4.228918399E0,-2.498349428E0,9.454104424E0,2.196081400E0
4.231406263E0,-2.479195833E0,9.458892822E0,2.200869799E0
4.233894128E0,-2.493561029E0,9.463681221E0,2.234388828E0
4.236381993E0,-2.498349428E0,9.506776810E0,2.229600430E0
4.238869857E0,-2.512714624E0,9.530718803E0,2.229600430E0
4.241357722E0,-2.536656618E0,9.525930405E0,2.239177227E0
4.243845586E0,-2.565387011E0,9.530718803E0,2.263119221E0
4.246333451E0,-2.589329243E0,9.549872398E0,2.282272816E0
4.248821315E0,-2.632424831E0,9.588179588E0,2.282272816E0
4.251309180E0,-2.656366825E0,9.645640373E0,2.287061214E0
4.253797045E0,-2.665943623E0,9.674370766E0,2.287061214E0
4.256284909E0,-2.689885616E0,9.741408348E0,2.315791607E0
4.258772774E0,-2.713827610E0,9.784503937E0,2.349310398E0
4.261260638E0,-2.718616009E0,9.827599525E0,2.368463993E0
4.263748503E0,-2.737769604E0,9.880271912E0,2.378040791E0
4.266236368E0,-2.756923199E0,9.923367500E0,2.411559582E0
4.268724232E0,-2.790441990E0,9.947309494E0,2.416347980E0
4.271212097E0,-2.843114614E0,9.990405083E0,2.440289974E0
4.273699961E0,-2.886210203E0,1.000477028E1,2.478597403E0
4.276187826E0,-2.914940596E0,1.003350067E1,2.497750998E0
4.278675690E0,-2.943670988E0,1.004307747E1,2.526481390E0
4.281163555E0,-2.958036184E0,1.006223106E1,2.540846586E0
4.283651420E0,-2.958036184E0,1.009574986E1,2.564788580E0
4.286139284E0,-2.981978178E0,1.011011505E1,2.579153776E0
4.288627149E0,-2.996343374E0,1.015799904E1,2.607884169E0
4.291115013E0,-3.029862165E0,1.019630623E1,2.641402960E0
4.293602878E0,-3.068169594E0,1.024897861E1,2.655768156E0
4.296090743E0,-3.087323189E0,1.028249741E1,2.636614561E0
4.298578659E0,-3.096899986E0,1.031601620E1,2.617460966E0
4.301066576E0,-3.101688385E0,1.033995819E1,2.588730574E0
4.303554493E0,-3.077746391E0,1.035432339E1,2.569576979E0
4.306042409E0,-3.077746391E0,1.034474659E1,2.579153776E0
4.308530326E0,-3.087323189E0,1.034474659E1,2.612672567E0
4.311018243E0,-3.116053581E0,1.033038139E1,2.603095770E0
4.313506159E0,-3.163937569E0,1.033516979E1,2.521692991E0
4.315994076E0,-3.192667961E0,1.037826538E1,2.411559582E0
4.318481993E0,-3.216609955E0,1.043572712E1,2.306214809E0
4.320969909E0,-3.254917145E0,1.052670670E1,2.234388828E0
4.323457826E0,-3.312378168E0,1.061289787E1,2.200869799E0
4.325945743E0,-3.331531763E0,1.070387745E1,2.167351007E0
4.328433659E0,-3.365050554E0,1.078049183E1,2.133832216E0
4.330921576E0,-3.365050554E0,1.083795261E1,2.119467020E0
4.333409493E0,-3.374627352E0,1.089541340E1,2.062006235E0
4.335897409E0,-3.398569345E0,1.093850899E1,2.033275843E0
4.338385326E0,-3.432088137E0,1.101033497E1,2.028487444E0
4.340873243E0,-3.479972124E0,1.113483334E1,2.014122248E0
4.343361159E0,-3.551798105E0,1.123060131E1,2.014122248E0
4.345849076E0,-3.657143116E0,1.135988808E1,2.014122248E0
4.348336993E0,-3.748122692E0,1.148917580E1,1.999756932E0
4.350824909E0,-3.839102507E0,1.161367416E1,1.980603337E0
4.353312826E0,-3.949235678E0,1.170944214E1,1.956661344E0
4.355800743E0,-4.025850296E0,1.180999851E1,1.956661344E0
4.358288659E0,-4.064157486E0,1.188182449E1,2.023699045E0
4.360776576E0,-4.112041473E0,1.195365047E1,2.114678621E0
4.363264493E0,-4.126406670E0,1.203505325E1,2.196081400E0
4.365752409E0,-4.135983467E0,1.212603283E1,2.301426411E0
4.368240326E0,-4.169502258E0,1.221701241E1,2.354098797E0
4.370728243E0,-4.203021049E0,1.231278038E1,2.373252392E0
4.373216159E0,-4.226963043E0,1.240376091E1,2.406771183E0
4.375704076E0,-4.203021049E0,1.246601009E1,2.425924778E0
4.378191993E0,-4.140771866E0,1.253783607E1,2.421136379E0
4.380679909E0,-4.097676277E0,1.260008526E1,2.368463993E0
4.383167826E0,-4.045003891E0,1.264796925E1,2.291849613E0
4.385655743E0,-3.997119665E0,1.268148804E1,2.210446835E0
4.388143607E0,-3.958812475E0,1.267191124E1,2.109890223E0
4.390631472E0,-3.930082083E0,1.265275764E1,1.999756932E0
4.393119336E0,-3.930082083E0,1.264796925E1,1.889623642E0
4.395607201E0,-3.949235678E0,1.262881565E1,1.784278870E0
4.398095065E0,-3.963600874E0,1.260487366E1,1.650203466E0
4.400582930E0,-3.982754469E0,1.255220127E1,1.564012289E0
4.403070795E0,-4.021061897E0,1.252347088E1,1.535281897E0
4.405558659E0,-4.059369087E0,1.249952888E1,1.516128182E0
4.408046524E0,-4.073734283E0,1.247079849E1,1.530493379E0
4.410534388E0,-4.073734283E0,1.249474049E1,1.535281897E0
4.413022253E0,-4.073734283E0,1.251868248E1,1.530493379E0
4.415510118E0,-4.064157486E0,1.257135487E1,1.578377485E0
4.417997982E0,-4.092887878E0,1.263360405E1,1.626261473E0
4.420485847E0,-4.121618271E0,1.269106483E1,1.654991984E0
4.422973711E0,-4.135983467E0,1.276289082E1,1.683722377E0
4.425461576E0,-4.150348663E0,1.283950520E1,1.741183162E0
4.427949440E0,-4.159925461E0,1.290175438E1,1.784278870E0
4.430437305E0,-4.145560265E0,1.296879196E1,1.832162857E0
4.432925170E0,-4.107253075E0,1.304061794E1,1.870470047E0
4.435413034E0,-4.068945885E0,1.308850193E1,1.942296147E0
4.437900899E0,-4.040215492E0,1.313638592E1,2.014122248E0
4.440388763E0,-4.006696701E0,1.319863510E1,2.023699045E0
4.442876628E0,-3.973177671E0,1.327046108E1,1.990180135E0
4.445364493E0,-3.934870481E0,1.333271027E1,1.956661344E0
4.447852357E0,-3.886986494E0,1.339974880E1,1.908777356E0
4.450340222E0,-3.834314108E0,1.343805599E1,1.894412041E0
4.452828086E0,-3.781641483E0,1.345720959E1,1.918354154E0
4.455315951E0,-3.752911091E0,1.348593998E1,1.980603337E0
4.457803815E0,-3.743334293E0,1.350030518E1,2.042852640E0
4.460291680E0,-3.738545895E0,1.347636318E1,2.095525026E0
4.462779545E0,-3.714603901E0,1.346678638E1,2.105101824E0
4.465267409E0,-3.714603901E0,1.346199799E1,2.081159830E0
4.467755274E0,-3.738545895E0,1.347636318E1,2.028487444E0
4.470243138E0,-3.752911091E0,1.349551678E1,2.009333849E0
4.472731003E0,-3.767276287E0,1.350030518E1,2.009333849E0
4.475218868E0,-3.776853085E0,1.348593998E1,1.990180135E0
4.477706732E0,-3.791218281E0,1.349072838E1,1.889623642E0
4.480194597E0,-3.805583715E0,1.347157478E1,1.908777356E0
4.482682461E0,-3.800795317E0,1.345720959E1,1.927930951E0
4.485170326E0,-3.819948912E0,1.343326759E1,1.951872945E0
4.487658190E0,-3.829525709E0,1.340932560E1,1.971026540E0
4.490146055E0,-3.839102507E0,1.338538361E1,1.980603337E0
4.492633920E0,-3.848679304E0,1.337101841E1,1.966238141E0
4.495121784E0,-3.853467703E0,1.336623001E1,1.908777356E0
4.497609649E0,-3.839102507E0,1.334707546E1,1.875258446E0
4.500097513E0,-3.819948912E0,1.330876827E1,1.846528053E0
4.502585378E0,-3.767276287E0,1.328961468E1,1.827374458E0
4.505073243E0,-3.724180698E0,1.324651909E1,1.803432465E0
4.507561107E0,-3.671508312E0,1.320342350E1,1.789067268E0
4.510048972E0,-3.623624325E0,1.316990471E1,1.769913554E0
4.512536836E0,-3.527856112E0,1.314117432E1,1.731606364E0
4.515024701E0,-3.436876535E0,1.310765553E1,1.741183162E0
4.517512565E0,-3.369838953E0,1.305019474E1,1.731606364E0
4.520000430E0,-3.312378168E0,1.303582954E1,1.683722377E0
4.522488295E0,-3.254917145E0,1.299752235E1,1.650203466E0
4.524976159E0,-3.187879562E0,1.294963837E1,1.573589087E0
4.527464024E0,-3.130418777E0,1.289217758E1,1.540070295E0
4.529951888E0,-3.111265182E0,1.282992840E1,1.568800688E0
4.532439753E0,-3.096899986E0,1.276767921E1,1.587954283E0
4.534927618E0,-3.077746391E0,1.269106483E1,1.616684675E0
4.537415482E0,-3.058592558E0,1.262402725E1,1.616684675E0
4.539903347E0,-3.025073767E0,1.254741287E1,1.621473074E0
4.542391211E0,-2.981978178E0,1.248037529E1,1.592742682E0
4.544879076E0,-2.943670988E0,1.239418411E1,1.559223890E0
4.547366940E0,-2.919728994E0,1.234151077E1,1.559223890E0
4.549854805E0,-2.943670988E0,1.230799198E1,1.530493379E0
4.552342670E0,-2.953247786E0,1.226968479E1,1.506551385E0
4.554830534E0,-2.958036184E0,1.223137760E1,1.449090600E0
4.557318399E0,-2.958036184E0,1.217870522E1,1.405994892E0
4.559806263E0,-2.962824583E0,1.211166763E1,1.410783410E0
4.562294180E0,-2.962824583E0,1.205899525E1,1.367687702E0
4.564782097E0,-2.986766577E0,1.199195766E1,1.305438519E0
4.567270013E0,-2.986766577E0,1.195365047E1,1.238400817E0
4.569757930E0,-2.986766577E0,1.191055489E1,1.195305228E0
4.572245847E0,-2.977189779E0,1.187703609E1,1.171363235E0
4.574733763E0,-2.948459387E0,1.183394051E1,1.180940032E0
4.577221680E0,-2.914940596E0,1.176690292E1,1.228824019E0
4.579709597E0,-2.900575399E0,1.172380733E1,1.276708007E0
4.582197513E0,-2.881421804E0,1.167113495E1,1.295861721E0
4.584685430E0,-2.886210203E0,1.161367416E1,1.324592113E0
4.587173347E0,-2.890998602E0,1.159452057E1,1.343745708E0
4.589661263E0,-2.910152197E0,1.158015537E1,1.348534107E0
4.592149180E0,-2.929305792E0,1.156100178E1,1.372476101E0
4.594637097E0,-2.934094191E0,1.155142498E1,1.367687702E0
4.597125013E0,-2.895787001E0,1.150832939E1,1.372476101E0
4.599612930E0,-2.871845007E0,1.142213821E1,1.362899303E0
4.602100847E0,-2.828749418E0,1.131679249E1,1.420360208E0
4.604588763E0,-2.800018787E0,1.119708252E1,1.492186189E0
4.607076680E0,-2.790441990E0,1.104864216E1,1.501762986E0
4.609564597E0,-2.800018787E0,1.091456699E1,1.496974587E0
4.612052513E0,-2.790441990E0,1.079485703E1,1.449090600E0
4.614540430E0,-2.790441990E0,1.071345425E1,1.348534107E0
4.617028347E0,-2.790441990E0,1.065120506E1,1.214458823E0
4.619516263E0,-2.771288395E0,1.058895588E1,1.128267527E0
4.622004180E0,-2.732981205E0,1.055543709E1,1.089960337E0
4.624492097E0,-2.713827610E0,1.051712990E1,1.080383539E0
4.626980013E0,-2.680308819E0,1.047882271E1,1.070806742E0
4.629467930E0,-2.646790028E0,1.042615032E1,1.027711034E0
4.631955847E0,-2.637213230E0,1.037347698E1,1.042076349E0
4.634443763E0,-2.622848034E0,1.030165100E1,1.109113932E0
4.636931680E0,-2.613271236E0,1.024419022E1,1.219247222E0
4.639419597E0,-2.594117641E0,1.015799904E1,1.348534107E0
4.641907513E0,-2.574964046E0,1.004307747E1,1.434725404E0
4.644395430E0,-2.555810213E0,9.976039886E0,1.487397790E0
4.646883347E0,-2.555810213E0,9.952097893E0,1.530493379E0
4.649371263E0,-2.551021814E0,9.932944298E0,1.549647093E0
4.651859180E0,-2.570175409E0,9.928155899E0,1.573589087E0
4.654347097E0,-2.560598612E0,9.904213905E0,1.559223890E0
4.656835013E0,-2.584540844E0,9.875483513E0,1.544858694E0
4.659322930E0,-2.589329243E0,9.808445930E0,1.511339784E0
4.661810795E0,-2.589329243E0,9.736619949E0,1.482609391E0
4.664298659E0,-2.541445017E0,9.631275177E0,1.449090600E0
4.666786524E0,-2.464830637E0,9.540295601E0,1.439513803E0
4.669274388E0,-2.364274263E0,9.444527626E0,1.449090600E0
4.671762253E0,-2.263717651E0,9.377489090E0,1.410783410E0
4.674250118E0,-2.191891670E0,9.348758698E0,1.319803715E0
4.676737982E0,-2.172738075E0,9.339181900E0,1.233612418E0
4.679225847E0,-2.191891670E0,9.348758698E0,1.147421122E0
4.681713711E0,-2.249352455E0,9.401431084E0,1.070806742E0
4.684201576E0,-2.292448044E0,9.487623215E0,1.018134236E0
4.686689440E0,-2.306813240E0,9.583391190E0,1.018134236E0
4.689177305E0,-2.306813240E0,9.645640373E0,1.094748735E0
4.691665170E0,-2.273294449E0,9.645640373E0,1.310226917E0
4.694153034E0,-2.258929253E0,9.559449196E0,1.578377485E0
4.696640899E0,-2.230198860E0,9.363123894E0,1.870470047E0
4.699128763E0,-2.230198860E0,9.128492355E0,2.119467020E0
4.701616628E0,-2.282871246E0,8.850765228E0,2.296638012E0
4.704104493E0,-2.349909067E0,8.611345291E0,2.416347980E0
4.706592357E0,-2.426523447E0,8.443750381E0,2.469020605E0
4.709080222E0,-2.469619036E0,8.367136002E0,2.497750998E0
4.711568086E0,-2.483984232E0,8.367136002E0,2.502539396E0
4.714055951E0,-2.455253839E0,8.419808388E0,2.545634985E0
4.716543815E0,-2.383427858E0,8.482058525E0,2.607884169E0
4.719031680E0,-2.282871246E0,8.553884506E0,2.612672567E0
4.721519545E0,-2.139219284E0,8.549096107E0,2.583942175E0
4.724007409E0,-2.024297476E0,8.477270126E0,2.512116194E0
4.726495274E0,-1.981201887E0,8.285733223E0,2.397194386E0
4.728983138E0,-2.029085875E0,8.022371292E0,2.325368404E0
4.731471003E0,-2.134430885E0,7.759009361E0,2.200869799E0
4.733958868E0,-2.282871246E0,7.562684536E0,1.980603337E0
4.736446732E0,-2.402581453E0,7.500435352E0,1.769913554E0
4.738934597E0,-2.455253839E0,7.500435352E0,1.607107878E0
4.741422461E0,-2.349909067E0,7.577049732E0,1.496974587E0
4.743910326E0,-2.148796082E0,7.677606106E0,1.396418095E0
4.746398190E0,-1.880645394E0,7.744644165E0,1.257554412E0
4.748886055E0,-1.650802016E0,7.782951355E0,1.166574836E0
4.751373920E0,-1.483207941E0,7.711124897E0,1.152209520E0
4.753861784E0,-1.464054346E0,7.572261333E0,1.166574836E0
4.756349649E0,-1.588552833E0,7.409455776E0,1.104325533E0
4.758837513E0,-1.837549806E0,7.280169010E0,9.654618502E-1
4.761325378E0,-2.100912094E0,7.208342552E0,8.218097091E-1
4.763813243E0,-2.316390038E0,7.237073421E0,7.308300734E-1
4.766301107E0,-2.383427858E0,7.313687801E0,7.020996213E-1
4.768788972E0,-2.306813240E0,7.404667377E0,8.265981078E-1
4.771276836E0,-2.096123695E0,7.423820972E0,9.558850527E-1
4.773764701E0,-1.875856996E0,7.356783390E0,1.224035621E0
4.776252565E0,-1.693897724E0,7.222707748E0,1.482609391E0
4.778740430E0,-1.583764434E0,7.031171799E0,1.693299174E0
4.781228295E0,-1.569399238E0,6.863577843E0,1.808220863E0
4.783716159E0,-1.636436820E0,6.748656273E0,1.846528053E0
4.786204024E0,-1.693897724E0,6.734290600E0,1.865681648E0
4.788691888E0,-1.727416515E0,6.782175064E0,1.659780383E0
4.791179753E0,-1.741781712E0,6.873154640E0,1.559223890E0
4.793667618E0,-1.703474522E0,6.925827026E0,1.549647093E0
4.796155482E0,-1.684320927E0,6.973711014E0,1.492186189E0
4.798643347E0,-1.684320927E0,6.964134216E0,1.410783410E0
4.801131211E0,-1.780089021E0,6.849212646E0,1.372476101E0
4.803619076E0,-1.928529501E0,6.691195011E0,1.386841297E0
4.806106993E0,-2.144007683E0,6.509235859E0,1.338957310E0
4.808594909E0,-2.321178436E0,6.308123112E0,1.224035621E0
4.811082826E0,-2.412158251E0,6.107009888E0,1.104325533E0
4.813570743E0,-2.436100245E0,5.929839134E0,9.894038439E-1
4.816058659E0,-2.383427858E0,5.848436356E0,9.032126069E-1
4.818546576E0,-2.268506050E0,5.834071159E0,8.505401611E-1
4.821034493E0,-2.096123695E0,5.829282761E0,7.643488646E-1
4.823522409E0,-1.904587507E0,5.790975571E0,7.020996213E-1
4.826010326E0,-1.770512104E0,5.752667904E0,6.254851818E-1
4.828498243E0,-1.713051319E0,5.747879505E0,5.440823436E-1
4.830986159E0,-1.713051319E0,5.795763969E0,5.057750940E-1
4.833474076E0,-1.693897724E0,5.867589951E0,4.770447016E-1
4.835961993E0,-1.684320927E0,5.944204330E0,5.776011348E-1
4.838449909E0,-1.669955730E0,6.044760704E0,7.547720671E-1
4.840937826E0,-1.641225219E0,6.150105476E0,8.744821548E-1
4.843425743E0,-1.564610839E0,6.197989464E0,1.037287831E0
4.845913659E0,-1.483207941E0,6.207566261E0,1.176151633E0
4.848401576E0,-1.387439847E0,6.107009888E0,1.334168911E0
4.850889493E0,-1.037886381E0,5.537189960E0,2.358887196E0
4.853377409E0,-1.076193690E0,5.604227543E0,1.415571809E0
4.855865326E0,-1.440112352E0,5.872378349E0,1.018134236E0
4.858353243E0,-1.665167332E0,5.676053524E0,1.664568782E0
4.860841159E0,-1.895010591E0,5.594650745E0,1.482609391E0
4.863329076E0,-2.033874273E0,5.518036366E0,1.348534107E0
4.865816993E0,-2.081758261E0,5.460575581E0,1.386841297E0
4.868304909E0,-2.019509077E0,5.436633587E0,1.343745708E0
4.870792826E0,-1.851915002E0,5.398326397E0,1.382052898E0
4.873280743E0,-1.674744129E0,5.345654011E0,1.453878999E0
4.875768659E0,-1.555034041E0,5.292981625E0,1.496974587E0
4.878256576E0,-1.516726732E0,5.240308762E0,1.415571809E0
4.880744493E0,-1.727416515E0,5.312135220E0,1.324592113E0
4.883232409E0,-2.139219284E0,5.556343555E0,1.176151633E0
4.885720326E0,-2.536656618E0,5.829282761E0,1.142632723E0
4.888208243E0,-2.756923199E0,6.001665115E0,1.233612418E0
4.890696159E0,-2.828749418E0,6.140528679E0,1.276708007E0
4.893184076E0,-2.752134800E0,6.217143059E0,1.343745708E0
4.895671993E0,-2.522291422E0,6.197989464E0,1.477820992E0
4.898159909E0,-2.172738075E0,6.025607109E0,1.654991984E0
4.900647826E0,-1.818396211E0,5.829282761E0,1.755548358E0
4.903135743E0,-1.641225219E0,5.714360714E0,1.755548358E0
4.905623659E0,-1.708262920E0,5.819705963E0,1.654991984E0
4.908111576E0,-1.923741102E0,6.006453514E0,1.693299174E0
4.910599493E0,-2.110488892E0,6.130951881E0,1.851316452E0
4.913087409E0,-1.856703401E0,5.704783916E0,3.134608507E0
4.915575326E0,-1.823184609E0,5.953781128E0,2.339733601E0
4.918063243E0,-2.158372879E0,6.595427036E0,1.386841297E0
4.920551107E0,-2.000355482E0,6.351218700E0,2.315791607E0
4.923038972E0,-1.717839718E0,6.174047470E0,2.090736628E0
4.925526836E0,-1.449689150E0,5.944204330E0,1.899200439E0
4.928014701E0,-1.320402265E0,5.819705963E0,1.765125155E0
4.930502565E0,-1.310825467E0,5.824494362E0,1.611896276E0
4.932990430E0,-1.411381960E0,5.819705963E0,1.587954283E0
4.935478295E0,-1.660378933E0,5.786187172E0,1.870470047E0
4.937966159E0,-1.962048292E0,5.886743546E0,1.994968534E0
4.940454024E0,-2.239775658E0,6.083067894E0,1.942296147E0
4.942941888E0,-2.383427858E0,6.231508255E0,1.947084546E0
4.945429753E0,-2.421735048E0,6.336853504E0,1.918354154E0
4.947917618E0,-2.383427858E0,6.466140270E0,1.707664371E0
4.950405482E0,-2.292448044E0,6.595427036E0,1.458667397E0
4.952893347E0,-2.177526474E0,6.700771809E0,1.276708007E0
4.955381211E0,-2.057816267E0,6.777386665E0,1.190516829E0
4.957869076E0,-2.038662672E0,6.916250229E0,1.190516829E0
4.960356940E0,-2.062604666E0,7.098209381E0,1.286284804E0
4.962844805E0,-2.076969862E0,7.284957409E0,1.473032594E0
4.965332670E0,-2.005143881E0,7.423820972E0,1.640626669E0
4.967820534E0,-1.794454217E0,7.514800549E0,1.851316452E0
4.970308399E0,-1.483207941E0,7.553107738E0,2.114678621E0
4.972796263E0,-1.224634171E0,7.581838131E0,2.354098797E0
4.975284128E0,-1.033097982E0,7.615356922E0,2.550423384E0
4.977771993E0,-9.181763530E-1,7.644087315E0,2.631826162E0
4.980259857E0,-8.271966577E-1,7.696759701E0,2.622249365E0
4.982747722E0,-7.410054207E-1,7.778162956E0,2.488174200E0
4.985235586E0,-6.212953329E-1,7.907449722E0,2.344521999E0
4.987723451E0,-4.201824069E-1,8.036736488E0,2.282272816E0
4.990211315E0,-1.376665980E-1,8.166023254E0,2.291849613E0
4.992699180E0,1.592144072E-1,8.180388451E0,2.330156803E0
4.995187045E0,3.507505357E-1,8.103774071E0,2.411559582E0
4.997674909E0,3.459621370E-1,8.031948090E0,2.483385801E0
5.000162774E0,9.696517140E-2,8.055890083E0,2.545634985E0
5.002650638E0,-3.148375154E-1,8.142081261E0,2.564788580E0
5.005138503E0,-7.457938194E-1,8.204330444E0,2.521692991E0
5.007626368E0,-1.100135684E0,8.170811653E0,2.492962599E0
5.010114232E0,-1.286883354E0,8.017582893E0,2.488174200E0
5.012602097E0,-1.339555860E0,7.816470146E0,2.411559582E0
5.015089961E0,-1.416170359E0,7.691971302E0,2.291849613E0
5.017577826E0,-1.583764434E0,7.658452511E0,2.224812031E0
5.020065690E0,-1.780089021E0,7.763797760E0,2.172139406E0
5.022553555E0,-1.966836691E0,7.921814919E0,2.105101824E0
5.025041420E0,-2.100912094E0,8.031948090E0,2.119467020E0
5.027529284E0,-2.172738075E0,8.022371292E0,2.277484417E0
5.030017149E0,-2.211045265E0,7.931391716E0,2.555211782E0
5.032505013E0,-2.316390038E0,7.811681747E0,2.861669540E0
5.034992878E0,-2.527079821E0,7.759009361E0,3.077147722E0
5.037480743E0,-2.776076794E0,7.792528152E0,3.216011524E0
5.039968659E0,-2.977189779E0,7.902661324E0,3.321356297E0
5.042456576E0,-2.991554976E0,8.008006096E0,3.321356297E0
5.044944493E0,-2.742558002E0,8.046313286E0,3.225588322E0
5.047432409E0,-2.364274263E0,8.103774071E0,3.144185305E0
5.049920326E0,-1.942894697E0,8.180388451E0,3.115454912E0
5.052408243E0,-1.550245643E0,8.290521622E0,3.096301317E0
5.054896159E0,-1.215057373E0,8.419808388E0,3.091512918E0
5.057384076E0,-9.181763530E-1,8.496423721E0,3.086724520E0
5.059871993E0,-6.787561774E-1,8.711901665E0,2.574365377E0
5.062359909E0,-1.234210968E0,1.043093872E1,-2.046443939E0
5.064847826E0,-5.199008942E0,1.456811905E1,-1.136467648E1
5.067335743E0,-1.254442024E1,1.797746277E1,-1.443404388E1
5.069823659E0,-2.025853729E1,1.615307999E1,-3.142988205E0
5.072311576E0,-2.428079605E1,1.035911179E1,8.962095261E0
5.074799493E0,-2.178125000E1,5.178059578E0,8.358757019E0
5.077287409E0,-1.430655193E1,2.961029053E0,1.046864748E0
5.079775326E0,-5.404910564E0,3.425503969E0,-5.360019207E0
5.082263243E0,3.065775394E0,4.220378876E0,-5.173271179E0
5.084751159E0,9.156624794E0,4.627393246E0,1.688510776E0
5.087239076E0,1.099537086E1,5.029619217E0,9.551069260E0
5.089726993E0,8.189367294E0,5.992088318E0,1.262522411E1
5.092214909E0,2.155978680E0,7.960122108E0,9.024344444E0
5.094702826E0,-4.432864666E0,1.058895588E1,2.674921751E0
5.097190743E0,-9.091980934E0,1.282035160E1,-2.343324900E0
5.099678659E0,-9.944316864E0,1.302146435E1,-2.913144827E0
5.102166576E0,-6.851007938E0,1.042136192E1,2.071583033E0
5.104654493E0,-2.167949677E0,6.940192223E0,7.568670273E0
5.107142409E0,1.351526856E0,4.909909248E0,8.708310127E0
5.109630326E0,2.223016262E0,5.350442410E0,5.418676853E0
5.112118243E0,1.025915384E0,7.672817707E0,9.032126069E-1
5.114606159E0,-5.351040959E-1,1.024419022E1,-2.070385933E0
5.117094076E0,-7.457938194E-1,1.154663658E1,-2.405574083E0
5.119581993E0,6.332663298E-1,1.084752941E1,4.052186310E-1
5.122069909E0,2.352303267E0,8.980051994E0,4.111443043E0
5.124557826E0,3.037044764E0,7.361571789E0,6.122572422E0
5.127045743E0,1.930923700E0,7.021595001E0,5.753865242E0
5.129533659E0,-4.249708056E-1,8.046313286E0,4.092289448E0
5.132021576E0,-2.522291422E0,9.525930405E0,2.670133352E0
5.134509493E0,-3.163937569E0,1.056501389E1,1.741183162E0
5.136997409E0,-2.067393064E0,1.049797630E1,1.607107878E0
5.139485326E0,-1.903390288E-1,9.492411613E0,2.114678621E0
5.141973243E0,1.289277673E0,8.199542046E0,2.631826162E0
5.144461159E0,1.528697729E0,7.304111004E0,2.986168146E0
5.146949076E0,5.901707411E-1,7.256227016E0,2.765901566E0
5.149436993E0,-7.697358727E-1,7.907449722E0,2.200869799E0
5.151924909E0,-1.760935307E0,8.826823235E0,1.635838270E0
5.154412826E0,-1.962048292E0,9.501988411E0,1.310226917E0
5.156900743E0,-1.569399238E0,9.583391190E0,1.745971560E0
5.159388659E0,-1.028309584E0,9.171587944E0,2.689286947E0
5.161876576E0,-7.410054207E-1,8.616133690E0,3.646967649E0
5.164364493E0,-9.181763530E-1,8.371924400E0,3.953425646E0
5.166852409E0,-1.473631144E0,8.592191696E0,3.388393879E0
5.169340326E0,-2.053027868E0,9.047089577E0,2.598307371E0
5.171828190E0,-2.244564056E0,9.315239906E0,2.105101824E0
5.174316055E0,-2.048239470E0,9.195529938E0,2.263119221E0
5.176803920E0,-1.698686123E0,8.865130424E0,2.737171173E0
5.179291784E0,-1.468842745E0,8.640075684E0,3.144185305E0
5.181779649E0,-1.459265947E0,8.774150848E0,3.148973703E0
5.184267513E0,-1.578976035E0,9.195529938E0,2.856881142E0
5.186755378E0,-1.646013618E0,9.698312759E0,2.655768156E0
5.189243243E0,-1.540668845E0,1.003350067E1,2.703652382E0
5.191731107E0,-1.329979062E0,1.008138466E1,2.990956545E0
5.194218972E0,-1.114500880E0,9.961674690E0,3.249530315E0
5.196706836E0,-1.042674899E0,9.827599525E0,3.287837505E0
5.199194701E0,-1.104924083E0,9.827599525E0,3.048417330E0
5.201682565E0,-1.205480576E0,9.889848709E0,2.770689964E0
5.204170430E0,-1.248576164E0,9.942521095E0,2.569576979E0
5.206658295E0,-1.215057373E0,9.870695114E0,2.483385801E0
5.209146159E0,-1.138442874E0,9.703101158E0,2.464232206E0
5.211634024E0,-1.119289279E0,9.545084000E0,2.425924778E0
5.214121888E0,-1.148019671E0,9.497200012E0,2.354098797E0
5.216609753E0,-1.176750183E0,9.545084000E0,2.311003208E0
5.219097618E0,-1.162384868E0,9.583391190E0,2.373252392E0
5.221585482E0,-1.124077678E0,9.506776810E0,2.540846586E0
5.224073347E0,-1.100135684E0,9.387065887E0,2.703652382E0
5.226561211E0,-1.138442874E0,9.267355919E0,2.761113167E0
5.229049076E0,-1.210268974E0,9.138069153E0,2.722805977E0
5.231536940E0,-1.286883354E0,9.056666374E0,2.603095770E0
5.234024805E0,-1.306037068E0,8.956110001E0,2.507327795E0
5.236512670E0,-1.320402265E0,8.793304443E0,2.445078373E0
5.239000534E0,-1.382651448E0,8.620922089E0,2.425924778E0
5.241488399E0,-1.502361536E0,8.458115578E0,2.378040791E0
5.243976263E0,-1.641225219E0,8.333617210E0,2.267907619E0
