"Time (s)","Gyroscope x (rad/s)","Gyroscope y (rad/s)","Gyroscope z (rad/s)"
1.014449610E-1,-2.937464416E-1,-5.402218103E-1,8.303729892E-1
1.039789200E-1,-2.916159332E-1,-5.402218103E-1,8.399603963E-1
1.065144930E-1,-2.905506492E-1,-5.380913019E-1,8.516782522E-1
1.090418360E-1,-2.894853950E-1,-5.348954797E-1,8.665919900E-1
1.115296490E-1,-2.905506492E-1,-5.306344628E-1,8.815056682E-1
1.140174610E-1,-2.926811874E-1,-5.253081322E-1,8.974846005E-1
1.165052740E-1,-2.958769798E-1,-5.210470557E-1,9.155941010E-1
1.189930860E-1,-3.001380265E-1,-5.178512931E-1,9.326383471E-1
1.214808990E-1,-3.033338189E-1,-5.157207847E-1,9.496825337E-1
1.239687110E-1,-3.065296113E-1,-5.135902166E-1,9.688572884E-1
1.264565240E-1,-3.097254038E-1,-5.114597082E-1,9.880320430E-1
1.289443360E-1,-3.150517344E-1,-5.093291998E-1,1.007206798E0
1.314320970E-1,-3.225085735E-1,-5.061333776E-1,1.026381493E0
1.339198570E-1,-3.320959508E-1,-5.029376149E-1,1.047686815E0
1.364076180E-1,-3.427485824E-1,-4.997417927E-1,1.067926764E0
1.388953780E-1,-3.523359597E-1,-4.965460002E-1,1.087101579E0
1.413831380E-1,-3.619233072E-1,-4.954807460E-1,1.106276274E0
1.438708990E-1,-3.704454303E-1,-4.965460002E-1,1.124385715E0
1.463586590E-1,-3.779022694E-1,-5.018723607E-1,1.142495275E0
1.488464200E-1,-3.864243925E-1,-5.125249624E-1,1.156343699E0
1.513341800E-1,-3.938812315E-1,-5.306344628E-1,1.169126868E0
1.538219400E-1,-3.992075622E-1,-5.572660565E-1,1.178714275E0
1.563097010E-1,-4.066644013E-1,-5.892239809E-1,1.185105801E0
1.587974610E-1,-4.151864946E-1,-6.254429221E-1,1.189366817E0
1.612852220E-1,-4.269044101E-1,-6.648576856E-1,1.190432072E0
1.637729820E-1,-4.375570416E-1,-7.042724490E-1,1.188301563E0
1.662607430E-1,-4.492749274E-1,-7.404913902E-1,1.182975292E0
1.687485030E-1,-4.588623047E-1,-7.735145688E-1,1.172322631E0
1.712362630E-1,-4.695149362E-1,-8.012114167E-1,1.157408953E0
1.737240240E-1,-4.801675975E-1,-8.246471882E-1,1.139299512E0
1.762117840E-1,-4.929507375E-1,-8.448871970E-1,1.121189952E0
1.786995450E-1,-5.067991614E-1,-8.608661890E-1,1.105211020E0
1.811873050E-1,-5.227781534E-1,-8.736493587E-1,1.093493104E0
1.836750650E-1,-5.398223400E-1,-8.832367063E-1,1.088166833E0
1.861628260E-1,-5.579318404E-1,-8.896282911E-1,1.089232087E0
1.886505860E-1,-5.728455186E-1,-8.938893676E-1,1.097754240E0
1.911383470E-1,-5.856286883E-1,-8.981503844E-1,1.111602664E0
1.936261070E-1,-5.973466039E-1,-9.034767151E-1,1.128646851E0
1.961138680E-1,-6.058686972E-1,-9.119988084E-1,1.146756291E0
1.986016800E-1,-6.133255363E-1,-9.237167239E-1,1.165931106E0
2.010894930E-1,-6.197171211E-1,-9.407609701E-1,1.185105801E0
2.035773050E-1,-6.250434518E-1,-9.599357247E-1,1.204280496E0
2.060651180E-1,-6.314350367E-1,-9.823062420E-1,1.223455310E0
2.085529300E-1,-6.388918757E-1,-1.002546191E0,1.241564751E0
2.110407430E-1,-6.474139690E-1,-1.019590497E0,1.259674311E0
2.135285550E-1,-6.570013762E-1,-1.029177785E0,1.277783751E0
2.160163680E-1,-6.676539779E-1,-1.034504175E0,1.293762684E0
2.185041800E-1,-6.783066392E-1,-1.035569429E0,1.307611108E0
2.209919930E-1,-6.868287325E-1,-1.031308413E0,1.321459532E0
2.234798050E-1,-6.953508258E-1,-1.027047276E0,1.333177447E0
2.259676180E-1,-7.006771564E-1,-1.020655751E0,1.344895363E0
2.284554300E-1,-7.049382329E-1,-1.015329361E0,1.353417397E0
2.309432430E-1,-7.049382329E-1,-1.013198853E0,1.361939549E0
2.334310550E-1,-7.049382329E-1,-1.015329361E0,1.366200566E0
2.359188680E-1,-7.060034871E-1,-1.021721005E0,1.368331194E0
2.384066800E-1,-7.070687413E-1,-1.031308413E0,1.368331194E0
2.408944930E-1,-7.091992497E-1,-1.043026209E0,1.367265940E0
2.433823050E-1,-7.134603262E-1,-1.053678870E0,1.363004804E0
2.458701180E-1,-7.187866569E-1,-1.065396786E0,1.357678533E0
2.483579300E-1,-7.262434959E-1,-1.074984193E0,1.349156380E0
2.508457430E-1,-7.337003350E-1,-1.082440972E0,1.340634346E0
2.533335550E-1,-7.400919199E-1,-1.085636854E0,1.331046939E0
2.558213680E-1,-7.432876825E-1,-1.084571600E0,1.322524786E0
2.583091800E-1,-7.432876825E-1,-1.080310464E0,1.316133261E0
2.607969930E-1,-7.432876825E-1,-1.069657803E0,1.315068007E0
2.632848050E-1,-7.400919199E-1,-1.056874633E0,1.317198515E0
2.657726180E-1,-7.368960977E-1,-1.043026209E0,1.326785922E0
2.682604300E-1,-7.326350808E-1,-1.032373667E0,1.341699600E0
2.707482430E-1,-7.273087502E-1,-1.025982022E0,1.360874295E0
2.732360550E-1,-7.187866569E-1,-1.022786260E0,1.383244872E0
2.757238680E-1,-7.091992497E-1,-1.024916768E0,1.406680584E0
2.782116800E-1,-6.964160800E-1,-1.025982022E0,1.427985907E0
2.806994930E-1,-6.846982241E-1,-1.025982022E0,1.448225975E0
2.831873050E-1,-6.740455627E-1,-1.021721005E0,1.464204907E0
2.856751180E-1,-6.633929610E-1,-1.013198853E0,1.474857569E0
2.881629300E-1,-6.516750455E-1,-1.000415683E0,1.480183840E0
2.906507430E-1,-6.399571300E-1,-9.865673184E-1,1.480183840E0
2.931385550E-1,-6.303697824E-1,-9.727188349E-1,1.475922823E0
2.956263680E-1,-6.207823753E-1,-9.599357247E-1,1.468465924E0
2.981141800E-1,-6.111950278E-1,-9.471525550E-1,1.459943771E0
3.006019930E-1,-6.005423665E-1,-9.333041310E-1,1.450356483E0
3.030898050E-1,-5.877591968E-1,-9.183903933E-1,1.438638568E0
3.055776180E-1,-5.749760270E-1,-9.013462067E-1,1.426920652E0
3.080654300E-1,-5.621928573E-1,-8.832367063E-1,1.413072228E0
3.105532430E-1,-5.515402555E-1,-8.619314432E-1,1.397093296E0
3.130410550E-1,-5.430181623E-1,-8.406261802E-1,1.380048990E0
3.155288680E-1,-5.355613232E-1,-8.214514256E-1,1.361939549E0
3.180166800E-1,-5.323655009E-1,-8.054724932E-1,1.343830109E0
3.205044930E-1,-5.270391703E-1,-7.948198318E-1,1.325720549E0
3.229923050E-1,-5.227781534E-1,-7.905587554E-1,1.307611108E0
3.254801180E-1,-5.153213143E-1,-7.884282470E-1,1.289501667E0
3.279679300E-1,-5.057339072E-1,-7.862977386E-1,1.272457361E0
3.304557430E-1,-4.950812757E-1,-7.820366621E-1,1.255413175E0
3.329435550E-1,-4.812328517E-1,-7.756450772E-1,1.240499496E0
3.354313680E-1,-4.673844278E-1,-7.671229839E-1,1.225585818E0
3.379191800E-1,-4.503402114E-1,-7.564703226E-1,1.209606886E0
3.404069930E-1,-4.332959950E-1,-7.447524667E-1,1.189366817E0
3.428948050E-1,-4.151864946E-1,-7.287734747E-1,1.166996360E0
3.453826180E-1,-3.960117698E-1,-7.106640339E-1,1.140364766E0
3.478704300E-1,-3.747064769E-1,-6.904240251E-1,1.110537291E0
3.503582430E-1,-3.512706757E-1,-6.680534482E-1,1.075383663E0
3.528460550E-1,-3.278348744E-1,-6.478134394E-1,1.035968900E0
3.553338680E-1,-3.054643571E-1,-6.297039986E-1,9.912278056E-1
3.578216800E-1,-2.820285559E-1,-6.137250066E-1,9.432909489E-1
3.603094930E-1,-2.585927546E-1,-6.020070910E-1,8.910930157E-1
3.627973050E-1,-2.351569533E-1,-5.924197435E-1,8.356993198E-1
3.652851180E-1,-2.106558830E-1,-5.860281587E-1,7.781751156E-1
3.677729300E-1,-1.861548275E-1,-5.838976502E-1,7.174550891E-1
3.702607430E-1,-1.648495495E-1,-5.838976502E-1,6.535392404E-1
3.727485550E-1,-1.424790174E-1,-5.849629045E-1,5.885581374E-1
3.752363680E-1,-1.201084778E-1,-5.849629045E-1,5.225118399E-1
3.777241800E-1,-9.773793817E-2,-5.828323960E-1,4.585959911E-1
3.802119930E-1,-7.536740601E-2,-5.796365738E-1,3.957454562E-1
3.826998050E-1,-5.725792050E-2,-5.775060654E-1,3.350254297E-1
3.851876180E-1,-4.127896577E-2,-5.796365738E-1,2.785664499E-1
3.876754300E-1,-2.849580161E-2,-5.828323960E-1,2.242379934E-1
3.901632430E-1,-1.571263932E-2,-5.828323960E-1,1.741705984E-1
3.926510550E-1,-2.929474926E-3,-5.753754973E-1,1.294295341E-1
3.951388680E-1,8.788425475E-3,-5.604618192E-1,9.321057051E-2
3.976266800E-1,1.944106072E-2,-5.391565561E-1,6.338318437E-2
4.001144930E-1,2.902843431E-2,-5.146554708E-1,3.888212144E-2
4.026023050E-1,3.648528084E-2,-4.890891612E-1,1.757685095E-2
4.050901180E-1,4.074633494E-2,-4.635228515E-1,-1.597895520E-3
4.075779300E-1,4.607265070E-2,-4.411523044E-1,-1.970737800E-2
4.100657430E-1,4.926844314E-2,-4.187817574E-1,-3.781685978E-2
4.125535550E-1,5.566002429E-2,-3.974764943E-1,-5.486107618E-2
4.150413680E-1,6.098634377E-2,-3.751059473E-1,-7.084003091E-2
4.175291800E-1,6.844318658E-2,-3.516701460E-1,-8.362319320E-2
4.200169930E-1,7.483477145E-2,-3.282343447E-1,-9.427583218E-2
4.225048050E-1,8.122635633E-2,-3.047985733E-1,-1.038632020E-1
4.249926180E-1,8.548741043E-2,-2.824280262E-1,-1.123853177E-1
4.274804300E-1,8.974846452E-2,-2.621880174E-1,-1.230379492E-1
4.299682430E-1,9.400951862E-2,-2.462090552E-1,-1.358211190E-1
4.324560550E-1,9.720530361E-2,-2.334259003E-1,-1.518000662E-1
4.349438680E-1,1.004010960E-1,-2.238385230E-1,-1.709748209E-1
4.374316800E-1,1.014663652E-1,-2.174469382E-1,-1.922800839E-1
4.399194930E-1,1.025316268E-1,-2.131858915E-1,-2.146506310E-1
4.424073050E-1,1.046621501E-1,-2.089248300E-1,-2.359558940E-1
4.448951180E-1,1.046621501E-1,-2.067943066E-1,-2.551306486E-1
4.473829300E-1,1.057274193E-1,-2.067943066E-1,-2.721748650E-1
4.498707430E-1,1.057274193E-1,-2.067943066E-1,-2.849580348E-1
4.523585550E-1,1.078579426E-1,-2.067943066E-1,-2.988064587E-1
4.548463680E-1,1.089232042E-1,-2.067943066E-1,-3.115896285E-1
4.573341800E-1,1.025316268E-1,-2.057290375E-1,-3.254380524E-1
4.598219930E-1,5.246423557E-2,-1.950764060E-1,-3.350254297E-1
4.623098050E-1,-7.110634446E-2,-1.556616426E-1,-3.062632978E-1
4.647976180E-1,-2.404832691E-1,-8.002793044E-2,-2.082590461E-1
4.672854300E-1,-3.438138366E-1,3.182475269E-2,-1.118526794E-2
4.697732430E-1,-3.107906580E-1,1.415469050E-1,2.743053734E-1
4.722610550E-1,-1.808284968E-1,1.926795542E-1,5.832318664E-1
4.747488680E-1,-3.701791167E-2,1.980058849E-1,8.378298283E-1
4.772366800E-1,5.352949724E-2,2.097237855E-1,9.763141274E-1
4.797244930E-1,5.672528967E-2,2.384859025E-1,9.699225426E-1
4.822123050E-1,-9.321057238E-3,2.640522122E-1,8.207856417E-1
4.847001180E-1,-9.560741484E-2,2.640522122E-1,5.640571117E-1
4.871879300E-1,-1.541969180E-1,2.363553643E-1,2.583264410E-1
4.896757430E-1,-1.637842804E-1,1.958753467E-1,-3.355580568E-2
4.921635550E-1,-1.318263710E-1,1.532648057E-1,-2.583264410E-1
4.946513680E-1,-8.921582997E-2,1.031974182E-1,-3.893538713E-1
4.971391800E-1,-6.151897460E-2,3.395527974E-2,-4.362254739E-1
4.996269930E-1,-4.980107397E-2,-6.831002980E-2,-4.245075583E-1
5.021148050E-1,-4.021370411E-2,-1.993374527E-1,-3.861580789E-1
5.046026180E-1,-2.103895694E-2,-3.420827985E-1,-3.424822688E-1
5.070904300E-1,8.788425475E-3,-4.603270590E-1,-3.009369671E-1
5.095782430E-1,3.861580789E-2,-5.221123695E-1,-2.593916953E-1
5.120660550E-1,5.459476262E-2,-5.071986318E-1,-2.189116776E-1
5.145538680E-1,5.139897019E-2,-4.230428338E-1,-1.858884990E-1
5.170416800E-1,3.328948840E-2,-3.016027808E-1,-1.667137593E-1
5.195294930E-1,1.518000662E-2,-1.801627129E-1,-1.677790284E-1
5.220173050E-1,9.853689000E-3,-8.855003864E-2,-1.848232448E-1
5.245051180E-1,1.837579720E-2,-3.315633163E-2,-2.050632536E-1
5.269929300E-1,3.222422674E-2,-1.198421582E-3,-2.103895694E-1
5.294807430E-1,3.648528084E-2,2.969422378E-2,-1.912148297E-1
5.319685550E-1,2.583264373E-2,7.123950869E-2,-1.464737505E-1
5.344563680E-1,1.331579522E-3,1.223721579E-1,-8.894951642E-2
5.369441800E-1,-2.530001104E-2,1.692437679E-1,-3.462106735E-2
5.394319930E-1,-4.447475821E-2,1.980058849E-1,5.858949851E-3
5.419198050E-1,-5.299686641E-2,2.012016773E-1,2.716422267E-2
5.444076180E-1,-5.512739345E-2,1.841574460E-1,3.462106735E-2
5.468954820E-1,-5.725792050E-2,1.521995366E-1,3.675159439E-2
5.493833470E-1,-6.471476704E-2,1.170458421E-1,3.888212144E-2
5.518712110E-1,-8.069372177E-2,7.763108611E-2,3.994738683E-2
5.543590760E-1,-9.880319983E-2,2.969422378E-2,3.994738683E-2
5.568469400E-1,-1.169126853E-1,-2.996053919E-2,3.781685978E-2
5.593348050E-1,-1.318263710E-1,-9.920267761E-2,3.355580568E-2
5.618226700E-1,-1.414137483E-1,-1.705753356E-1,3.249054030E-2
5.643105340E-1,-1.499358565E-1,-2.334259003E-1,3.675159439E-2
5.667983990E-1,-1.584579647E-1,-2.813627720E-1,4.633896798E-2
5.692862630E-1,-1.680453420E-1,-3.122554123E-1,5.805686861E-2
5.717741280E-1,-1.776327193E-1,-3.303648829E-1,6.764423847E-2
5.742619930E-1,-1.850895584E-1,-3.431480527E-1,7.297056168E-2
5.767498570E-1,-1.882853508E-1,-3.538006842E-1,7.510108501E-2
5.792377220E-1,-1.904158741E-1,-3.612575233E-1,7.723161578E-2
5.817255860E-1,-1.904158741E-1,-3.655185997E-1,8.042740822E-2
5.842134510E-1,-1.882853508E-1,-3.655185997E-1,8.468846232E-2
5.867013150E-1,-1.861548275E-1,-3.623228073E-1,9.108003974E-2
5.891891800E-1,-1.818937659E-1,-3.591270149E-1,9.534109384E-2
5.916770450E-1,-1.744369268E-1,-3.538006842E-1,1.006674170E-1
5.941649090E-1,-1.659148186E-1,-3.463438451E-1,1.027979404E-1
5.966527740E-1,-1.563274413E-1,-3.356912136E-1,1.038632020E-1
5.991406380E-1,-1.478053331E-1,-3.186469972E-1,1.049284711E-1
6.016285030E-1,-1.414137483E-1,-2.952111959E-1,1.027979404E-1
6.041163680E-1,-1.339569092E-1,-2.696448565E-1,9.960214794E-2
6.066042320E-1,-1.254348010E-1,-2.430132627E-1,9.321057051E-2
6.090920970E-1,-1.158474237E-1,-2.185122073E-1,8.468846232E-2
6.115799610E-1,-1.062600464E-1,-1.972069293E-1,7.723161578E-2
6.140677740E-1,-9.880319983E-2,-1.769669205E-1,6.977476925E-2
6.165555860E-1,-9.241162241E-2,-1.609879732E-1,6.231792271E-2
6.190433990E-1,-8.602003753E-2,-1.471395344E-1,5.379581451E-2
6.215312110E-1,-8.069372177E-2,-1.375521719E-1,4.420844093E-2
6.240190240E-1,-7.536740601E-2,-1.311605871E-1,3.462106735E-2
6.265068360E-1,-7.323687524E-2,-1.268995255E-1,2.396843210E-2
6.289946490E-1,-7.217161357E-2,-1.237037405E-1,1.438105945E-2
6.314824610E-1,-7.110634446E-2,-1.205079481E-1,6.924213842E-3
6.339702740E-1,-7.217161357E-2,-1.162468940E-1,-1.597895520E-3
6.364580860E-1,-7.430213690E-2,-1.119858399E-1,-9.054740891E-3
6.389458990E-1,-7.643266767E-2,-1.087900475E-1,-1.438105945E-2
6.414337110E-1,-7.962846011E-2,-1.055942550E-1,-1.864211448E-2
6.439215240E-1,-8.388951421E-2,-1.013332009E-1,-1.970737800E-2
6.464093360E-1,-8.921582997E-2,-9.813741595E-2,-1.757685095E-2
6.488971490E-1,-9.454214573E-2,-9.387636185E-2,-1.225053146E-2
6.513849610E-1,-9.880319983E-2,-9.068056941E-2,-5.858949851E-3
6.538727740E-1,-1.019989923E-1,-8.748477697E-2,2.663159044E-3
6.563605860E-1,-1.041295230E-1,-8.428898454E-2,1.225053146E-2
6.588483990E-1,-1.041295230E-1,-8.002793044E-2,2.290316857E-2
6.613362110E-1,-1.030642539E-1,-7.363634557E-2,3.249054030E-2
6.638240240E-1,-1.030642539E-1,-6.617950648E-2,4.101264849E-2
6.663118360E-1,-1.009337306E-1,-5.872265995E-2,4.633896798E-2
6.687996490E-1,-9.773793817E-2,-5.020054802E-2,4.846949503E-2
6.712874610E-1,-9.347688407E-2,-4.167843983E-2,4.633896798E-2
6.737752740E-1,-8.815056831E-2,-3.315633163E-2,4.101264849E-2
6.762630860E-1,-7.962846011E-2,-2.676474862E-2,3.142527863E-2
6.787508990E-1,-7.110634446E-2,-2.143843099E-2,1.757685095E-2
6.812387110E-1,-6.045371294E-2,-1.824264042E-2,-1.597895520E-3
6.837265240E-1,-4.873581231E-2,-1.824264042E-2,-2.503369562E-2
6.862143360E-1,-3.595264629E-2,-2.250369452E-2,-5.273054913E-2
6.887021490E-1,-2.103895694E-2,-2.676474862E-2,-8.575372398E-2
6.911899610E-1,-5.060002208E-3,-3.422159329E-2,-1.230379492E-1
6.936777740E-1,1.091895252E-2,-4.167843983E-2,-1.624527127E-1
6.961655860E-1,2.902843431E-2,-4.913528636E-2,-2.061285079E-1
6.986533990E-1,4.713791609E-2,-5.659212917E-2,-2.508696020E-1
7.011412110E-1,6.631266326E-2,-6.191844866E-2,-2.988064587E-1
7.036290240E-1,8.442214131E-2,-6.511423737E-2,-3.467433155E-1
7.061168360E-1,1.035968885E-1,-6.511423737E-2,-3.957454562E-1
7.086046490E-1,1.238368973E-1,-6.085318699E-2,-4.415517747E-1
7.110924610E-1,1.419463754E-1,-5.020054802E-2,-4.852275848E-1
7.135802740E-1,1.589905918E-1,-3.635212034E-2,-5.267728567E-1
7.160680860E-1,1.739042848E-1,-1.824264042E-2,-5.640571117E-1
7.185558990E-1,1.877527237E-1,1.997369342E-3,-5.970802903E-1
7.210437110E-1,1.984053552E-1,2.436790615E-2,-6.258423924E-1
7.235315240E-1,2.069274634E-1,4.780370742E-2,-6.482129097E-1
7.260193360E-1,2.111885101E-1,7.017423958E-2,-6.641919017E-1
7.285071490E-1,2.143843025E-1,9.254477918E-2,-6.748445034E-1
7.309949610E-1,2.122537792E-1,1.127847880E-1,-6.791055799E-1
7.334827740E-1,2.101232558E-1,1.287637353E-1,-6.748445034E-1
7.359705860E-1,2.058621943E-1,1.447426975E-1,-6.641919017E-1
7.384583990E-1,2.016011477E-1,1.575258672E-1,-6.460824013E-1
7.409462110E-1,1.973400861E-1,1.703090221E-1,-6.215813160E-1
7.434340240E-1,1.941442937E-1,1.820269227E-1,-5.928192139E-1
7.459218360E-1,1.898832470E-1,1.926795542E-1,-5.608612895E-1
7.484096490E-1,1.834916621E-1,2.043974549E-1,-5.267728567E-1
7.508974610E-1,1.781653464E-1,2.150501013E-1,-4.916191697E-1
7.533852740E-1,1.717737615E-1,2.267680019E-1,-4.543349445E-1
7.558730860E-1,1.643169224E-1,2.406164259E-1,-4.170507193E-1
7.583608990E-1,1.579253376E-1,2.544648647E-1,-3.787012100E-1
7.608487110E-1,1.515337527E-1,2.693785429E-1,-3.392864764E-1
7.633365240E-1,1.462074369E-1,2.832269669E-1,-3.020022511E-1
7.658243360E-1,1.419463754E-1,2.970753908E-1,-2.679138184E-1
7.683121490E-1,1.376853287E-1,3.087933064E-1,-2.370211631E-1
7.707999610E-1,1.355548054E-1,3.183806837E-1,-2.135853618E-1
7.732877740E-1,1.323590130E-1,3.247722387E-1,-1.954758763E-1
7.757755860E-1,1.312937438E-1,3.279680312E-1,-1.837579757E-1
7.782633990E-1,1.302284747E-1,3.269027770E-1,-1.784316599E-1
7.807512110E-1,1.302284747E-1,3.205111921E-1,-1.794969290E-1
7.832390240E-1,1.312937438E-1,3.109238148E-1,-1.869537681E-1
7.857268360E-1,1.344895363E-1,2.970753908E-1,-2.018674612E-1
7.882146490E-1,1.366200596E-1,2.821617126E-1,-2.231727391E-1
7.907024610E-1,1.398158520E-1,2.672480047E-1,-2.498043180E-1
7.931902740E-1,1.419463754E-1,2.555301189E-1,-2.806969583E-1
7.956780860E-1,1.451421678E-1,2.470080107E-1,-3.169159293E-1
7.981658990E-1,1.483379602E-1,2.427469492E-1,-3.573959470E-1
8.006537110E-1,1.515337527E-1,2.406164259E-1,-4.010717571E-1
8.031415240E-1,1.547295451E-1,2.427469492E-1,-4.479433596E-1
8.056293360E-1,1.579253376E-1,2.448774725E-1,-4.948149621E-1
8.081171490E-1,1.589905918E-1,2.491385341E-1,-5.395560265E-1
8.106049610E-1,1.589905918E-1,2.533995807E-1,-5.832318664E-1
8.130927740E-1,1.589905918E-1,2.597911656E-1,-6.237118840E-1
8.155805860E-1,1.579253376E-1,2.661827505E-1,-6.609960794E-1
8.180683990E-1,1.557948142E-1,2.725743353E-1,-6.950845122E-1
8.205562110E-1,1.515337527E-1,2.810964286E-1,-7.249119282E-1
8.230440240E-1,1.462074369E-1,2.896185517E-1,-7.526087761E-1
8.255318360E-1,1.408811212E-1,3.002711833E-1,-7.760445476E-1
8.280196490E-1,1.323590130E-1,3.119890988E-1,-7.920235395E-1
8.305074610E-1,1.238368973E-1,3.269027770E-1,-8.026761413E-1
8.329952740E-1,1.163800508E-1,3.428817391E-1,-8.048067093E-1
8.354830860E-1,1.089232042E-1,3.609912097E-1,-8.016108871E-1
8.379708990E-1,1.025316268E-1,3.812312186E-1,-7.909582257E-1
8.404587110E-1,9.614004195E-2,4.057323039E-1,-7.771098018E-1
8.429465240E-1,9.081372619E-2,4.312986135E-1,-7.611308694E-1
8.454343360E-1,8.761793375E-2,4.589954615E-1,-7.440866828E-1
8.479221490E-1,8.442214131E-2,4.888228476E-1,-7.291729450E-1
8.504099610E-1,8.229161799E-2,5.207807422E-1,-7.163897753E-1
8.528977740E-1,8.122635633E-2,5.548691750E-1,-7.046719193E-1
8.553855860E-1,8.122635633E-2,5.910881758E-1,-6.950845122E-1
8.578733990E-1,8.016108721E-2,6.273071170E-1,-6.865624189E-1
8.603612110E-1,8.016108721E-2,6.603302956E-1,-6.780403256E-1
8.628490240E-1,7.803056389E-2,6.880271435E-1,-6.727139950E-1
8.653368360E-1,7.909582555E-2,7.093324065E-1,-6.695181727E-1
8.678246490E-1,8.016108721E-2,7.242461443E-1,-6.684529185E-1
8.703124610E-1,8.122635633E-2,7.306377292E-1,-6.705834866E-1
8.728002740E-1,8.335687965E-2,7.295724154E-1,-6.769750714E-1
8.752880860E-1,8.548741043E-2,7.231808305E-1,-6.865624189E-1
8.777758990E-1,8.868319541E-2,7.114629745E-1,-6.982803345E-1
8.802637110E-1,9.081372619E-2,6.954839826E-1,-7.142592669E-1
8.827515240E-1,9.294424951E-2,6.773745418E-1,-7.334340215E-1
8.852393360E-1,9.400951862E-2,6.571345329E-1,-7.536740303E-1
8.877271490E-1,9.507478029E-2,6.368945241E-1,-7.760445476E-1
8.902149610E-1,9.614004195E-2,6.166545153E-1,-7.994803786E-1
8.927027740E-1,9.827057272E-2,5.985450149E-1,-8.250467181E-1
8.951905860E-1,9.933583438E-2,5.825660825E-1,-8.484824896E-1
8.976783990E-1,1.004010960E-1,5.687175989E-1,-8.719182611E-1
9.001662110E-1,1.014663652E-1,5.569997430E-1,-8.942888379E-1
9.026540240E-1,1.014663652E-1,5.495429039E-1,-9.155941010E-1
9.051418360E-1,1.004010960E-1,5.452818274E-1,-9.347688556E-1
9.076296490E-1,9.614004195E-2,5.452818274E-1,-9.518130422E-1
9.101174610E-1,9.081372619E-2,5.516734123E-1,-9.667267799E-1
9.126052740E-1,8.229161799E-2,5.644565821E-1,-9.784446359E-1
9.150930860E-1,7.483477145E-2,5.825660825E-1,-9.869667888E-1
9.175808990E-1,6.631266326E-2,6.060018539E-1,-9.933583736E-1
9.200687110E-1,6.098634377E-2,6.305029392E-1,-9.986846447E-1
9.225565240E-1,5.459476262E-2,6.550039649E-1,-1.001880407E0
9.250443360E-1,4.926844314E-2,6.773745418E-1,-1.004011035E0
9.275321490E-1,4.287686199E-2,6.997450590E-1,-1.001880407E0
9.300199610E-1,3.542001545E-2,7.199850678E-1,-9.965541363E-1
9.325077740E-1,2.796317078E-2,7.402250767E-1,-9.848362207E-1
9.349955860E-1,1.944106072E-2,7.615303397E-1,-9.688572884E-1
9.374833990E-1,1.304947957E-2,7.849661708E-1,-9.507477880E-1
9.399712110E-1,6.657897960E-3,8.115977645E-1,-9.326383471E-1
9.424590240E-1,3.462106921E-3,8.392946124E-1,-9.166593552E-1
9.449468360E-1,3.462106921E-3,8.659262061E-1,-9.038761854E-1
9.474346490E-1,6.657897960E-3,8.893619776E-1,-8.953540921E-1
9.499224610E-1,1.091895252E-2,9.085367322E-1,-8.910930157E-1
9.524102740E-1,1.518000662E-2,9.223851562E-1,-8.900277615E-1
9.548980860E-1,1.837579720E-2,9.287767410E-1,-8.910930157E-1
9.573858990E-1,1.944106072E-2,9.330378175E-1,-8.910930157E-1
9.598737110E-1,1.624527015E-2,9.351683259E-1,-8.900277615E-1
9.623615240E-1,1.091895252E-2,9.383640885E-1,-8.889625072E-1
9.648493360E-1,4.527370445E-3,9.426251650E-1,-8.889625072E-1
9.673371490E-1,-2.929474926E-3,9.490167499E-1,-8.878972530E-1
9.698250130E-1,-1.038632076E-2,9.564735889E-1,-8.910930157E-1
9.723128780E-1,-1.677790284E-2,9.628651738E-1,-8.974846005E-1
9.748007430E-1,-2.210422046E-2,9.681915045E-1,-9.070720077E-1
9.772886070E-1,-2.743053809E-2,9.681915045E-1,-9.198551774E-1
9.797764720E-1,-3.275685757E-2,9.649956822E-1,-9.326383471E-1
9.822643360E-1,-3.808317333E-2,9.596694112E-1,-9.443562031E-1
9.847522010E-1,-4.660528526E-2,9.511472583E-1,-9.539436102E-1
9.872400650E-1,-5.725792050E-2,9.426251650E-1,-9.614004493E-1
9.897279300E-1,-6.897582114E-2,9.383640885E-1,-9.656614661E-1
9.922157950E-1,-8.282424510E-2,9.383640885E-1,-9.677920341E-1
9.947036590E-1,-9.454214573E-2,9.458209276E-1,-9.677920341E-1
9.971915240E-1,-1.062600464E-1,9.596694112E-1,-9.688572884E-1
9.996793880E-1,-1.169126853E-1,9.809746742E-1,-9.688572884E-1
1.002167253E0,-1.265000552E-1,1.005475760E0,-9.709877968E-1
1.004655118E0,-1.350221634E-1,1.031042099E0,-9.731183648E-1
1.007142982E0,-1.446095407E-1,1.054477811E0,-9.752488732E-1
1.009630847E0,-1.552621722E-1,1.072587371E0,-9.752488732E-1
1.012118711E0,-1.669800729E-1,1.084305286E0,-9.709877968E-1
1.014606576E0,-1.786979735E-1,1.090696812E0,-9.635309577E-1
1.017094440E0,-1.904158741E-1,1.089631557E0,-9.507477880E-1
1.019582305E0,-2.021337748E-1,1.084305286E0,-9.337036014E-1
1.022070170E0,-2.117211521E-1,1.073652625E0,-9.145288467E-1
1.024558034E0,-2.202432603E-1,1.059804201E0,-8.921582699E-1
1.027045899E0,-2.287653685E-1,1.042759895E0,-8.697877526E-1
1.029533763E0,-2.362222075E-1,1.024650455E0,-8.484824896E-1
1.032021628E0,-2.426137924E-1,1.003345251E0,-8.293077350E-1
1.034509493E0,-2.447443157E-1,9.820399284E-1,-8.133288026E-1
1.036997357E0,-2.447443157E-1,9.586040974E-1,-8.037413955E-1
1.039485222E0,-2.415485233E-1,9.341030717E-1,-7.994803786E-1
1.041973086E0,-2.362222075E-1,9.106672406E-1,-8.016108871E-1
1.044460951E0,-2.298306376E-1,8.872314692E-1,-8.069372177E-1
1.046948815E0,-2.223737836E-1,8.648608923E-1,-8.165245652E-1
1.049436680E0,-2.149169445E-1,8.435556293E-1,-8.282424808E-1
1.051924493E0,-2.074600905E-1,8.243808746E-1,-8.410256505E-1
1.054412305E0,-2.010685056E-1,8.073366880E-1,-8.516782522E-1
1.056900118E0,-1.936116666E-1,7.924230099E-1,-8.633961678E-1
1.059387930E0,-1.850895584E-1,7.796398401E-1,-8.740488291E-1
1.061875743E0,-1.765674502E-1,7.679219246E-1,-8.825709224E-1
1.064363555E0,-1.691105962E-1,7.562040091E-1,-8.900277615E-1
1.066851368E0,-1.627190262E-1,7.434208393E-1,-8.932235837E-1
1.069339180E0,-1.563274413E-1,7.295724154E-1,-8.910930157E-1
1.071826993E0,-1.520663798E-1,7.146587372E-1,-8.815056682E-1
1.074314805E0,-1.456748098E-1,6.986798048E-1,-8.655267358E-1
1.076802618E0,-1.392832249E-1,6.837661266E-1,-8.452867270E-1
1.079290430E0,-1.339569092E-1,6.699176431E-1,-8.218508959E-1
1.081778243E0,-1.275653243E-1,6.581997871E-1,-7.984151244E-1
1.084266055E0,-1.233042628E-1,6.496776342E-1,-7.760445476E-1
1.086753868E0,-1.222390011E-1,6.443513632E-1,-7.526087761E-1
1.089241680E0,-1.222390011E-1,6.411555409E-1,-7.281076908E-1
1.091729493E0,-1.243695319E-1,6.379597783E-1,-7.014760971E-1
1.094217305E0,-1.286305785E-1,6.358292103E-1,-6.727139950E-1
1.096705118E0,-1.350221634E-1,6.315681934E-1,-6.407560706E-1
1.099192930E0,-1.392832249E-1,6.241113544E-1,-6.087981462E-1
1.101680743E0,-1.403484792E-1,6.134586930E-1,-5.747097135E-1
1.104168555E0,-1.371526867E-1,5.996102691E-1,-5.427518487E-1
1.106656368E0,-1.318263710E-1,5.836313367E-1,-5.161202550E-1
1.109144180E0,-1.243695319E-1,5.655218363E-1,-4.937497079E-1
1.111631993E0,-1.179779470E-1,5.442165732E-1,-4.756402075E-1
1.114119805E0,-1.137168929E-1,5.207807422E-1,-4.628570378E-1
1.116607618E0,-1.094558388E-1,4.973449707E-1,-4.543349445E-1
1.119095430E0,-1.073253155E-1,4.717786312E-1,-4.479433596E-1
1.121583243E0,-1.062600464E-1,4.451470375E-1,-4.426170290E-1
1.124071055E0,-1.051947847E-1,4.174501896E-1,-4.394212663E-1
1.126558868E0,-1.030642539E-1,3.908185959E-1,-4.362254739E-1
1.129046680E0,-9.986846894E-2,3.641870022E-1,-4.340949357E-1
1.131534493E0,-9.347688407E-2,3.396859467E-1,-4.308991432E-1
1.134022305E0,-8.602003753E-2,3.173153996E-1,-4.277033508E-1
1.136510118E0,-7.749792933E-2,2.970753908E-1,-4.234423041E-1
1.138997930E0,-6.791055948E-2,2.779006660E-1,-4.191812575E-1
1.141485743E0,-6.151897460E-2,2.608564198E-1,-4.159854650E-1
1.143973555E0,-5.512739345E-2,2.438122183E-1,-4.127896726E-1
1.146461368E0,-5.193160102E-2,2.278332561E-1,-4.106591344E-1
1.148949180E0,-4.980107397E-2,2.118543088E-1,-4.095938802E-1
1.151436993E0,-4.554001987E-2,1.958753467E-1,-4.085285962E-1
1.153924805E0,-3.914843872E-2,1.788311303E-1,-4.074633420E-1
1.156412618E0,-3.169159219E-2,1.628521830E-1,-4.063980877E-1
1.158900430E0,-2.423474751E-2,1.479384899E-1,-4.053328037E-1
1.161388243E0,-1.677790284E-2,1.351553202E-1,-4.053328037E-1
1.163876055E0,-1.038632076E-2,1.255679578E-1,-4.032022953E-1
1.166363868E0,-7.190529723E-3,1.202416345E-1,-3.989412189E-1
1.168851680E0,-3.994738683E-3,1.181111038E-1,-3.936149180E-1
1.171339493E0,-2.929474926E-3,1.170458421E-1,-3.882885873E-1
1.173827305E0,-1.864211401E-3,1.170458421E-1,-3.818970025E-1
1.176315118E0,-7.989477599E-4,1.159805804E-1,-3.733749092E-1
1.178802930E0,2.396843163E-3,1.159805804E-1,-3.627222776E-1
1.181290743E0,5.592633970E-3,1.181111038E-1,-3.488738537E-1
1.183778555E0,7.723161485E-3,1.213068962E-1,-3.296990991E-1
1.186266368E0,8.788425475E-3,1.245026886E-1,-3.062632978E-1
1.188754180E0,6.657897960E-3,1.255679578E-1,-2.785664499E-1
1.191241993E0,3.462106921E-3,1.245026886E-1,-2.476737946E-1
1.193729805E0,-7.989477599E-4,1.202416345E-1,-2.146506310E-1
1.196217618E0,-5.060002208E-3,1.127847880E-1,-1.826927215E-1
1.198705430E0,-5.060002208E-3,1.021321490E-1,-1.507348120E-1
1.201193243E0,-5.060002208E-3,8.828372508E-2,-1.209074259E-1
1.203681055E0,-2.929474926E-3,7.230477035E-2,-9.427583218E-2
1.206168868E0,1.331579522E-3,5.739107728E-2,-7.297056168E-2
1.208656680E0,6.657897960E-3,4.034686089E-2,-5.273054913E-2
1.211144493E0,1.091895252E-2,2.436790615E-2,-3.568633273E-2
1.213632305E0,1.518000662E-2,9.454214945E-3,-2.077264152E-2
1.216120118E0,1.731053367E-2,-4.394212738E-3,-9.054740891E-3
1.218607930E0,1.944106072E-2,-1.611211337E-2,1.597895520E-3
1.221095743E0,1.944106072E-2,-2.676474862E-2,1.012000442E-2
1.223583555E0,2.157158963E-2,-3.635212034E-2,1.757685095E-2
1.226071368E0,2.370211668E-2,-4.700475931E-2,2.290316857E-2
1.228559180E0,2.583264373E-2,-5.872265995E-2,2.822948620E-2
1.231046993E0,2.583264373E-2,-7.257108390E-2,3.142527863E-2
1.233534805E0,2.370211668E-2,-8.855003864E-2,3.249054030E-2
1.236022670E0,2.157158963E-2,-1.055942550E-1,3.249054030E-2
1.238510534E0,1.837579720E-2,-1.205079481E-1,3.036001325E-2
1.240998399E0,1.731053367E-2,-1.332911104E-1,2.716422267E-2
1.243486263E0,1.837579720E-2,-1.407479644E-1,2.183790505E-2
1.245974128E0,2.157158963E-2,-1.418132186E-1,1.544632297E-2
1.248461993E0,2.583264373E-2,-1.364869028E-1,7.989477366E-3
1.250949857E0,3.009369783E-2,-1.237037405E-1,1.597895520E-3
1.253437722E0,3.435475379E-2,-1.077247858E-1,-2.663159044E-3
1.255925586E0,3.755054250E-2,-8.855003864E-2,-5.858949851E-3
1.258413451E0,3.861580789E-2,-7.044056058E-2,-6.924213842E-3
1.260901315E0,3.755054250E-2,-5.233107507E-2,-6.924213842E-3
1.263389180E0,3.328948840E-2,-3.848264739E-2,-6.924213842E-3
1.265877045E0,2.902843431E-2,-2.676474862E-2,-5.858949851E-3
1.268364909E0,2.476738021E-2,-1.824264042E-2,-4.793686327E-3
1.270852774E0,1.944106072E-2,-1.291632187E-2,-3.728422802E-3
1.273340638E0,1.304947957E-2,-9.720530361E-3,1.597895520E-3
1.275828503E0,6.657897960E-3,-8.655266836E-3,9.054740891E-3
1.278316368E0,-7.989477599E-4,-1.078579482E-2,1.970737800E-2
1.280804232E0,-8.255792782E-3,-1.504684892E-2,3.568633273E-2
1.283292097E0,-1.464737486E-2,-2.037316747E-2,5.379581451E-2
1.285779961E0,-1.890842989E-2,-2.676474862E-2,7.616634667E-2
1.288267826E0,-2.210422046E-2,-3.315633163E-2,9.960214794E-2
1.290755690E0,-2.530001104E-2,-3.954791278E-2,1.251684725E-1
1.293243555E0,-2.849580161E-2,-4.380896688E-2,1.496695429E-1
1.295731420E0,-2.956106514E-2,-4.487423226E-2,1.731053442E-1
1.298219284E0,-3.169159219E-2,-4.061317816E-2,1.944106072E-1
1.300707149E0,-3.275685757E-2,-3.315633163E-2,2.125200927E-1
1.303195013E0,-3.382211924E-2,-2.143843099E-2,2.295643091E-1
1.305682878E0,-3.488738462E-2,-8.655266836E-3,2.444780022E-1
1.308170743E0,-3.382211924E-2,4.127896391E-3,2.583264410E-1
1.310658607E0,-3.062633052E-2,1.691105962E-2,2.721748650E-1
1.313146472E0,-2.636527456E-2,2.756369673E-2,2.860232890E-1
1.315634336E0,-2.316948399E-2,3.821633384E-2,2.988064587E-1
1.318122201E0,-1.890842989E-2,4.673844203E-2,3.105243444E-1
1.320610065E0,-1.571263932E-2,5.419528857E-2,3.211769760E-1
1.323097930E0,-1.038632076E-2,5.952160433E-2,3.286338449E-1
1.325585795E0,-5.060002208E-3,6.271740049E-2,3.328948915E-1
1.328073659E0,3.462106921E-3,6.484792382E-2,3.339601457E-1
1.330561524E0,1.198421605E-2,6.697845459E-2,3.307643533E-1
1.333049388E0,2.370211668E-2,6.910897791E-2,3.265033066E-1
1.335537201E0,3.542001545E-2,7.337003201E-2,3.201117218E-1
1.338025013E0,4.713791609E-2,7.763108611E-2,3.158506751E-1
1.340512826E0,5.779055133E-2,8.295740932E-2,3.115896285E-1
1.343000638E0,6.631266326E-2,8.508793265E-2,3.083938360E-1
1.345488451E0,7.270424068E-2,8.615319431E-2,3.062632978E-1
1.347976263E0,7.803056389E-2,8.508793265E-2,3.041327596E-1
1.350464076E0,8.229161799E-2,8.082687855E-2,3.009369671E-1
1.352951888E0,8.868319541E-2,7.550056279E-2,2.988064587E-1
1.355439701E0,9.400951862E-2,6.910897791E-2,2.977411747E-1
1.357927513E0,1.004010960E-1,6.378266215E-2,2.977411747E-1
1.360415326E0,1.046621501E-1,5.952160433E-2,2.998717129E-1
1.362903138E0,1.078579426E-1,5.632581562E-2,3.051980436E-1
1.365390951E0,1.110537350E-1,5.526055023E-2,3.158506751E-1
1.367878763E0,1.121189967E-1,5.632581562E-2,3.286338449E-1
1.370366576E0,1.131842583E-1,5.739107728E-2,3.446127772E-1
1.372854388E0,1.131842583E-1,5.952160433E-2,3.637875319E-1
1.375342201E0,1.142495275E-1,6.165213138E-2,3.829622865E-1
1.377830013E0,1.153147891E-1,6.271740049E-2,4.000065029E-1
1.380317826E0,1.174453199E-1,6.484792382E-2,4.149201810E-1
1.382805638E0,1.206411049E-1,6.804371625E-2,4.277033508E-1
1.385293451E0,1.259674281E-1,7.230477035E-2,4.383559823E-1
1.387781263E0,1.312937438E-1,7.976161689E-2,4.468781054E-1
1.390269076E0,1.376853287E-1,8.934898674E-2,4.543349445E-1
1.392756888E0,1.430116445E-1,1.021321490E-1,4.617917836E-1
1.395244701E0,1.483379602E-1,1.170458421E-1,4.681833684E-1
1.397732513E0,1.525990218E-1,1.319595277E-1,4.767054915E-1
1.400220326E0,1.557948142E-1,1.458079666E-1,4.841623306E-1
1.402708138E0,1.589905918E-1,1.575258672E-1,4.926844239E-1
1.405195951E0,1.600558609E-1,1.660479754E-1,5.001412630E-1
1.407683763E0,1.621863842E-1,1.703090221E-1,5.097286701E-1
1.410171576E0,1.632516533E-1,1.713742912E-1,5.171855092E-1
1.412659388E0,1.653821766E-1,1.681784987E-1,5.267728567E-1
1.415147201E0,1.664474458E-1,1.628521830E-1,5.363602638E-1
1.417635013E0,1.675127149E-1,1.575258672E-1,5.459476113E-1
1.420122826E0,1.685779691E-1,1.511342824E-1,5.566002727E-1
1.422610638E0,1.675127149E-1,1.447426975E-1,5.661876202E-1
1.425098451E0,1.653821766E-1,1.394163817E-1,5.779055357E-1
1.427586263E0,1.632516533E-1,1.351553202E-1,5.874928832E-1
1.430074076E0,1.589905918E-1,1.298290044E-1,5.960150361E-1
1.432561888E0,1.547295451E-1,1.245026886E-1,6.024065614E-1
1.435049701E0,1.494032294E-1,1.202416345E-1,6.066676378E-1
1.437537513E0,1.440769136E-1,1.181111038E-1,6.087981462E-1
1.440025326E0,1.387505829E-1,1.159805804E-1,6.098634601E-1
1.442513138E0,1.323590130E-1,1.149153188E-1,6.098634601E-1
1.445000951E0,1.270326823E-1,1.138500497E-1,6.098634601E-1
1.447488763E0,1.206411049E-1,1.149153188E-1,6.087981462E-1
1.449976576E0,1.153147891E-1,1.149153188E-1,6.087981462E-1
1.452464388E0,1.099884734E-1,1.159805804E-1,6.077328920E-1
1.454952201E0,1.035968885E-1,1.159805804E-1,6.056023836E-1
1.457440013E0,9.614004195E-2,1.149153188E-1,6.034718752E-1
1.459927826E0,8.974846452E-2,1.117195264E-1,5.992107987E-1
1.462415638E0,8.335687965E-2,1.074584723E-1,5.938844681E-1
1.464903451E0,7.590003312E-2,1.021321490E-1,5.885581374E-1
1.467391263E0,6.950845569E-2,9.574057162E-2,5.842971206E-1
1.469879128E0,6.418213248E-2,8.934898674E-2,5.800360441E-1
1.472366993E0,5.779055133E-2,8.402267098E-2,5.768402815E-1
1.474854857E0,5.246423557E-2,7.869634777E-2,5.736444592E-1
1.477342722E0,4.500738904E-2,7.337003201E-2,5.693834424E-1
1.479830586E0,3.755054250E-2,6.484792382E-2,5.651223660E-1
1.482318451E0,2.902843431E-2,5.419528857E-2,5.576655269E-1
1.484806315E0,2.157158963E-2,4.354264960E-2,5.470128655E-1
1.487294180E0,1.518000662E-2,3.182475269E-2,5.352949500E-1
1.489782045E0,9.853689000E-3,2.223737910E-2,5.225118399E-1
1.492269909E0,3.462106921E-3,1.584579609E-2,5.107939243E-1
1.494757774E0,-3.994738683E-3,1.265000552E-2,5.012065172E-1
1.497245638E0,-1.251684781E-2,1.371526904E-2,4.948149621E-1
1.499733503E0,-2.316948399E-2,1.691105962E-2,4.894886315E-1
1.502221368E0,-3.275685757E-2,2.010685205E-2,4.841623306E-1
1.504709232E0,-4.234423116E-2,2.330264263E-2,4.799012840E-1
1.507197097E0,-5.193160102E-2,2.436790615E-2,4.745749533E-1
1.509684961E0,-6.151897460E-2,2.543316968E-2,4.681833684E-1
1.512172826E0,-7.110634446E-2,2.543316968E-2,4.607265294E-1
1.514660690E0,-7.962846011E-2,2.649843320E-2,4.532696903E-1
1.517148555E0,-9.028109163E-2,2.756369673E-2,4.458128214E-1
1.519636420E0,-1.019989923E-1,2.969422378E-2,4.394212663E-1
1.522124284E0,-1.137168929E-1,3.182475269E-2,4.330296814E-1
1.524612149E0,-1.265000552E-1,3.289001435E-2,4.277033508E-1
1.527100013E0,-1.371526867E-1,3.075948730E-2,4.223770201E-1
1.529587878E0,-1.478053331E-1,2.756369673E-2,4.170507193E-1
1.532075743E0,-1.573926955E-1,2.117211558E-2,4.106591344E-1
1.534563607E0,-1.669800729E-1,1.051947847E-2,4.032022953E-1
1.537051472E0,-1.765674502E-1,-2.263685223E-3,3.946801722E-1
1.539539336E0,-1.861548275E-1,-1.717737690E-2,3.850927949E-1
1.542027201E0,-1.968074590E-1,-3.315633163E-2,3.744401634E-1
1.544515065E0,-2.074600905E-1,-4.913528636E-2,3.627222776E-1
1.547002930E0,-2.191779912E-1,-6.511423737E-2,3.510043621E-1
1.549490795E0,-2.319611609E-1,-7.896266878E-2,3.392864764E-1
1.551978659E0,-2.458095849E-1,-9.174583107E-2,3.275685608E-1
1.554466524E0,-2.607232630E-1,-1.023984700E-1,3.169159293E-1
1.556954388E0,-2.756369710E-1,-1.077247858E-1,3.062632978E-1
1.559442253E0,-2.916159332E-1,-1.098553166E-1,2.956106663E-1
1.561930118E0,-3.075948656E-1,-1.077247858E-1,2.849580348E-1
1.564417982E0,-3.235738277E-1,-1.002679393E-1,2.764359117E-1
1.566905847E0,-3.384875357E-1,-8.961530030E-2,2.668485343E-1
1.569393711E0,-3.544664681E-1,-7.576687634E-2,2.572611570E-1
1.571881576E0,-3.683148921E-1,-5.872265995E-2,2.487390637E-1
1.574369440E0,-3.821633458E-1,-3.954791278E-2,2.402169555E-1
1.576857305E0,-3.949464858E-1,-2.037316747E-2,2.316948473E-1
1.579345170E0,-4.077296555E-1,-2.263685223E-3,2.221074700E-1
1.581833034E0,-4.205128253E-1,1.478053257E-2,2.135853618E-1
1.584320899E0,-4.322307110E-1,2.756369673E-2,2.050632536E-1
1.586808763E0,-4.428833723E-1,3.715106845E-2,1.976063997E-1
1.589296628E0,-4.535360038E-1,4.354264960E-2,1.912148297E-1
1.591784493E0,-4.620580971E-1,4.673844203E-2,1.869537681E-1
1.594272305E0,-4.705802202E-1,4.780370742E-2,1.837579757E-1
1.596760118E0,-4.769718051E-1,4.780370742E-2,1.805621833E-1
1.599247930E0,-4.833633900E-1,4.567318037E-2,1.763011366E-1
1.601735743E0,-4.876244366E-1,4.354264960E-2,1.731053442E-1
1.604223555E0,-4.918854833E-1,3.928159550E-2,1.688442826E-1
1.606711368E0,-4.950812757E-1,3.502054140E-2,1.656484902E-1
1.609199180E0,-4.961465299E-1,2.969422378E-2,1.613874435E-1
1.611686993E0,-4.961465299E-1,2.330264263E-2,1.571263820E-1
1.614174805E0,-4.950812757E-1,1.797632314E-2,1.539305896E-1
1.616662618E0,-4.929507375E-1,1.265000552E-2,1.518000662E-1
1.619150430E0,-4.897549450E-1,8.388951421E-3,1.507348120E-1
1.621638243E0,-4.854938984E-1,6.258423906E-3,1.507348120E-1
1.624126055E0,-4.801675975E-1,6.258423906E-3,1.518000662E-1
1.626613868E0,-4.748412669E-1,7.323687430E-3,1.518000662E-1
1.629101680E0,-4.684496820E-1,1.158474199E-2,1.518000662E-1
1.631589493E0,-4.620580971E-1,1.691105962E-2,1.518000662E-1
1.634077305E0,-4.546012580E-1,2.330264263E-2,1.518000662E-1
1.636565118E0,-4.482096732E-1,2.862896025E-2,1.507348120E-1
1.639052930E0,-4.396875799E-1,3.502054140E-2,1.486042738E-1
1.641540743E0,-4.311654568E-1,4.034686089E-2,1.454084814E-1
1.644028555E0,-4.205128253E-1,4.567318037E-2,1.422126889E-1
1.646516368E0,-4.098601937E-1,5.206476152E-2,1.390169114E-1
1.649004180E0,-3.981422782E-1,5.845634267E-2,1.379516423E-1
1.651491993E0,-3.864243925E-1,6.484792382E-2,1.368863732E-1
1.653979805E0,-3.736412227E-1,7.230477035E-2,1.368863732E-1
1.656467618E0,-3.619233072E-1,7.976161689E-2,1.368863732E-1
1.658955430E0,-3.502054214E-1,8.508793265E-2,1.358211190E-1
1.661443243E0,-3.363569975E-1,9.041424841E-2,1.358211190E-1
1.663931055E0,-3.214432895E-1,9.467530251E-2,1.358211190E-1
1.666418868E0,-3.065296113E-1,9.893636405E-2,1.347558498E-1
1.668906680E0,-2.905506492E-1,1.000016257E-1,1.358211190E-1
1.671394493E0,-2.745717168E-1,1.000016257E-1,1.358211190E-1
1.673882305E0,-2.575274706E-1,1.000016257E-1,1.368863732E-1
1.676370118E0,-2.394180000E-1,1.000016257E-1,1.400821656E-1
1.678857930E0,-2.213085145E-1,1.000016257E-1,1.422126889E-1
1.681345743E0,-2.031990439E-1,1.010668874E-1,1.454084814E-1
1.683833555E0,-1.850895584E-1,1.031974182E-1,1.496695429E-1
1.686321368E0,-1.669800729E-1,1.053279415E-1,1.518000662E-1
1.688809180E0,-1.499358565E-1,1.085237339E-1,1.560611278E-1
1.691296993E0,-1.328916401E-1,1.127847880E-1,1.592569202E-1
1.693784805E0,-1.158474237E-1,1.159805804E-1,1.635179669E-1
1.696272618E0,-1.009337306E-1,1.202416345E-1,1.667137593E-1
1.698760430E0,-8.602003753E-2,1.223721579E-1,1.709748209E-1
1.701248243E0,-7.217161357E-2,1.255679578E-1,1.752358675E-1
1.703736107E0,-5.832318589E-2,1.255679578E-1,1.794969290E-1
1.706223972E0,-4.554001987E-2,1.234374270E-1,1.848232448E-1
1.708711836E0,-3.382211924E-2,1.191763729E-1,1.869537681E-1
1.711199701E0,-2.210422046E-2,1.138500497E-1,1.890842915E-1
1.713687565E0,-1.038632076E-2,1.053279415E-1,1.901495606E-1
1.716175430E0,-1.864211401E-3,9.574057162E-2,1.901495606E-1
1.718663295E0,7.723161485E-3,8.402267098E-2,1.890842915E-1
1.721151159E0,1.731053367E-2,7.123950869E-2,1.869537681E-1
1.723639024E0,2.583264373E-2,5.952160433E-2,1.826927215E-1
1.726126888E0,3.542001545E-2,4.673844203E-2,1.784316599E-1
1.728614753E0,4.500738904E-2,3.395527974E-2,1.731053442E-1
1.731102618E0,5.352949724E-2,2.117211558E-2,1.656484902E-1
1.733590482E0,6.098634377E-2,1.051947847E-2,1.571263820E-1
1.736078347E0,6.950845569E-2,-1.331579551E-4,1.475390196E-1
1.738566211E0,7.590003312E-2,-8.655266836E-3,1.379516423E-1
1.741054076E0,8.229161799E-2,-1.504684892E-2,1.272990108E-1
1.743541940E0,8.868319541E-2,-2.037316747E-2,1.177116334E-1
1.746029805E0,9.400951862E-2,-2.463422157E-2,1.081242561E-1
1.748517670E0,9.720530361E-2,-2.569948509E-2,1.017326787E-1
1.751005534E0,1.004010960E-1,-2.463422157E-2,9.640636295E-2
1.753493399E0,1.035968885E-1,-2.037316747E-2,9.214530140E-2
1.755981263E0,1.078579426E-1,-1.504684892E-2,9.001477808E-2
1.758469128E0,1.099884734E-1,-9.720530361E-3,8.788424730E-2
1.760956993E0,1.131842583E-1,-3.328948980E-3,8.575372398E-2
1.763444857E0,1.163800508E-1,5.193160381E-3,8.468846232E-2
1.765932722E0,1.185105816E-1,1.478053257E-2,8.362319320E-2
1.768420586E0,1.195758432E-1,2.436790615E-2,8.255793154E-2
1.770908451E0,1.206411049E-1,3.608580679E-2,8.149266988E-2
1.773396315E0,1.195758432E-1,4.673844203E-2,8.149266988E-2
1.775884180E0,1.174453199E-1,5.739107728E-2,8.149266988E-2
1.778372045E0,1.142495275E-1,6.378266215E-2,8.042740822E-2
1.780859909E0,1.099884734E-1,6.804371625E-2,7.829687744E-2
1.783347774E0,1.067926809E-1,6.804371625E-2,7.510108501E-2
1.785835638E0,1.035968885E-1,6.484792382E-2,6.977476925E-2
1.788323503E0,1.014663652E-1,6.058686972E-2,6.231792271E-2
1.790811368E0,9.933583438E-2,5.526055023E-2,5.379581451E-2
1.793299232E0,9.614004195E-2,4.886896908E-2,4.420844093E-2
1.795787097E0,9.187898785E-2,4.354264960E-2,3.462106735E-2
1.798274961E0,8.655267209E-2,3.821633384E-2,2.503369562E-2
1.800762826E0,8.229161799E-2,3.395527974E-2,1.651158556E-2
1.803250690E0,7.696529478E-2,2.969422378E-2,9.054740891E-3
1.805738555E0,7.163897902E-2,2.330264263E-2,1.597895520E-3
1.808226420E0,6.524740160E-2,1.584579609E-2,-5.858949851E-3
1.810714284E0,5.992107838E-2,6.258423906E-3,-1.331579592E-2
1.813202149E0,5.352949724E-2,-4.394212738E-3,-2.077264152E-2
1.815690013E0,4.926844314E-2,-1.611211337E-2,-2.822948620E-2
1.818177878E0,4.607265070E-2,-2.676474862E-2,-3.568633273E-2
1.820665743E0,4.287686199E-2,-3.848264739E-2,-4.101264849E-2
1.823153607E0,3.968106955E-2,-4.807002097E-2,-4.527370632E-2
1.825641472E0,3.755054250E-2,-5.659212917E-2,-4.953476042E-2
1.828129336E0,3.542001545E-2,-6.085318699E-2,-5.060002208E-2
1.830617201E0,3.222422674E-2,-6.404897571E-2,-5.273054913E-2
1.833105065E0,2.902843431E-2,-6.511423737E-2,-5.273054913E-2
1.835592930E0,2.583264373E-2,-6.511423737E-2,-5.273054913E-2
1.838080795E0,2.263685316E-2,-6.404897571E-2,-5.166528746E-2
1.840568659E0,2.050632425E-2,-6.298371404E-2,-5.166528746E-2
1.843056524E0,1.944106072E-2,-6.298371404E-2,-5.166528746E-2
1.845544388E0,1.731053367E-2,-6.298371404E-2,-5.166528746E-2
1.848032253E0,1.837579720E-2,-6.404897571E-2,-5.166528746E-2
1.850520118E0,1.944106072E-2,-6.617950648E-2,-5.060002208E-2
1.853007982E0,1.944106072E-2,-6.937529147E-2,-5.060002208E-2
1.855495847E0,2.050632425E-2,-7.363634557E-2,-4.846949503E-2
1.857983711E0,2.157158963E-2,-7.789740711E-2,-4.740423337E-2
1.860471524E0,2.157158963E-2,-8.322372288E-2,-4.527370632E-2
1.862959336E0,2.263685316E-2,-8.961530030E-2,-4.207791388E-2
1.865447149E0,2.370211668E-2,-9.494162351E-2,-3.994738683E-2
1.867934961E0,2.370211668E-2,-1.013332009E-1,-3.888212144E-2
1.870422774E0,2.476738021E-2,-1.066595241E-1,-3.888212144E-2
1.872910586E0,2.583264373E-2,-1.119858399E-1,-3.888212144E-2
1.875398399E0,2.902843431E-2,-1.162468940E-1,-3.888212144E-2
1.877886211E0,3.115896136E-2,-1.194426864E-1,-4.101264849E-2
1.880374024E0,3.222422674E-2,-1.194426864E-1,-4.207791388E-2
1.882861836E0,3.435475379E-2,-1.173121557E-1,-4.527370632E-2
1.885349649E0,3.542001545E-2,-1.141163707E-1,-4.740423337E-2
1.887837461E0,3.755054250E-2,-1.109205782E-1,-4.953476042E-2
1.890325274E0,3.861580789E-2,-1.055942550E-1,-5.273054913E-2
1.892813086E0,3.968106955E-2,-1.023984700E-1,-5.592634156E-2
1.895300899E0,4.287686199E-2,-9.813741595E-2,-6.018739566E-2
1.897788711E0,4.500738904E-2,-9.600688517E-2,-6.551371515E-2
1.900276524E0,4.607265070E-2,-9.387636185E-2,-7.084003091E-2
1.902764336E0,4.820318148E-2,-9.281109273E-2,-7.616634667E-2
1.905252149E0,5.139897019E-2,-9.174583107E-2,-8.042740822E-2
1.907739961E0,5.566002429E-2,-9.281109273E-2,-8.575372398E-2
1.910227774E0,5.992107838E-2,-9.387636185E-2,-9.001477808E-2
1.912715586E0,6.524740160E-2,-9.387636185E-2,-9.427583218E-2
1.915203399E0,6.950845569E-2,-9.281109273E-2,-9.747162461E-2
1.917691211E0,7.376950979E-2,-8.961530030E-2,-9.853688627E-2
1.920179024E0,7.909582555E-2,-8.748477697E-2,-1.017326787E-1
1.922666836E0,8.442214131E-2,-8.428898454E-2,-1.027979404E-1
1.925154649E0,9.081372619E-2,-8.109319210E-2,-1.059937328E-1
1.927642461E0,9.933583438E-2,-7.896266878E-2,-1.091895252E-1
1.930130274E0,1.078579426E-1,-7.576687634E-2,-1.123853177E-1
1.932618086E0,1.174453199E-1,-7.363634557E-2,-1.166463718E-1
1.935105899E0,1.280979514E-1,-7.044056058E-2,-1.209074259E-1
1.937593711E0,1.376853287E-1,-6.724476814E-2,-1.262337416E-1
1.940081524E0,1.483379602E-1,-6.511423737E-2,-1.326253265E-1
1.942569336E0,1.600558609E-1,-6.085318699E-2,-1.390169114E-1
1.945057149E0,1.707084924E-1,-5.659212917E-2,-1.475390196E-1
1.947544961E0,1.824263930E-1,-5.126581341E-2,-1.581916511E-1
1.950032774E0,1.930790395E-1,-4.700475931E-2,-1.699095517E-1
1.952520638E0,2.037316710E-1,-4.274370521E-2,-1.826927215E-1
1.955008503E0,2.143843025E-1,-3.954791278E-2,-1.976063997E-1
1.957496368E0,2.250369489E-1,-3.848264739E-2,-2.135853618E-1
1.959984232E0,2.356895804E-1,-4.061317816E-2,-2.316948473E-1
1.962472097E0,2.484727502E-1,-4.380896688E-2,-2.476737946E-1
1.964959961E0,2.612559199E-1,-4.807002097E-2,-2.647180259E-1
1.967447826E0,2.751043439E-1,-5.339634046E-2,-2.806969583E-1
1.969935690E0,2.889527678E-1,-5.659212917E-2,-2.956106663E-1
1.972423555E0,3.017359376E-1,-5.765739456E-2,-3.105243444E-1
1.974911420E0,3.145190775E-1,-5.552686751E-2,-3.243727684E-1
1.977399284E0,3.262369931E-1,-5.233107507E-2,-3.382211924E-1
1.979887149E0,3.368896246E-1,-4.700475931E-2,-3.499391079E-1
1.982375013E0,3.486075401E-1,-3.954791278E-2,-3.616569936E-1
1.984862878E0,3.603254259E-1,-3.102580272E-2,-3.712443709E-1
1.987350743E0,3.720433414E-1,-2.143843099E-2,-3.797664940E-1
1.989838607E0,3.837612271E-1,-9.720530361E-3,-3.872233331E-1
1.992326472E0,3.965443969E-1,9.321057005E-4,-3.925496638E-1
1.994814336E0,4.082622826E-1,1.265000552E-2,-3.946801722E-1
1.997302201E0,4.210454524E-1,2.223737910E-2,-3.946801722E-1
1.999790065E0,4.338286221E-1,3.502054140E-2,-3.925496638E-1
2.002277930E0,4.476770461E-1,4.780370742E-2,-3.893538713E-1
2.004765795E0,4.604602158E-1,6.165213138E-2,-3.840275407E-1
2.007253659E0,4.732433856E-1,7.869634777E-2,-3.787012100E-1
2.009741524E0,4.860265255E-1,9.787109494E-2,-3.744401634E-1
2.012229388E0,4.988096952E-1,1.181111038E-1,-3.701791167E-1
2.014717253E0,5.105276108E-1,1.394163817E-1,-3.691138625E-1
2.017205118E0,5.222455263E-1,1.607216448E-1,-3.691138625E-1
2.019692982E0,5.328981280E-1,1.809616536E-1,-3.691138625E-1
2.022180847E0,5.414202213E-1,1.980058849E-1,-3.712443709E-1
2.024668711E0,5.499423742E-1,2.107890397E-1,-3.733749092E-1
2.027156576E0,5.573992133E-1,2.193111479E-1,-3.744401634E-1
2.029644440E0,5.659213066E-1,2.214416862E-1,-3.776359558E-1
2.032132305E0,5.765739679E-1,2.193111479E-1,-3.818970025E-1
2.034620170E0,5.882918239E-1,2.097237855E-1,-3.850927949E-1
2.037108034E0,6.000097394E-1,1.958753467E-1,-3.904191256E-1
2.039595899E0,6.127929091E-1,1.777658761E-1,-3.978759646E-1
2.042083763E0,6.255760789E-1,1.564605981E-1,-4.053328037E-1
2.044571628E0,6.394245028E-1,1.362205893E-1,-4.159854650E-1
2.047059493E0,6.532729268E-1,1.149153188E-1,-4.266380966E-1
2.049547357E0,6.660560966E-1,9.680583328E-2,-4.362254739E-1
2.052035222E0,6.788392663E-1,8.082687855E-2,-4.468781054E-1
2.054523086E0,6.916224360E-1,7.017423958E-2,-4.543349445E-1
2.057010951E0,7.033402920E-1,6.165213138E-2,-4.596612751E-1
2.059498815E0,7.150582075E-1,5.739107728E-2,-4.628570378E-1
2.061986680E0,7.278413773E-1,5.419528857E-2,-4.649875760E-1
2.064474545E0,7.395592928E-1,5.419528857E-2,-4.639223218E-1
2.066962409E0,7.502118945E-1,5.419528857E-2,-4.617917836E-1
2.069450274E0,7.608645558E-1,5.419528857E-2,-4.585959911E-1
2.071938138E0,7.715172172E-1,5.313002318E-2,-4.532696903E-1
2.074426003E0,7.811045647E-1,5.206476152E-2,-4.479433596E-1
2.076913868E0,7.874961495E-1,5.099949613E-2,-4.404865205E-1
2.079401732E0,7.938877344E-1,4.886896908E-2,-4.330296814E-1
2.081889597E0,7.970834970E-1,4.567318037E-2,-4.255728126E-1
2.084377461E0,8.002793193E-1,4.034686089E-2,-4.191812575E-1
2.086865326E0,8.013445735E-1,3.395527974E-2,-4.138549268E-1
2.089353190E0,8.045403361E-1,2.543316968E-2,-4.106591344E-1
2.091841055E0,8.077361584E-1,1.371526904E-2,-4.074633420E-1
2.094328920E0,8.098666668E-1,-1.198421582E-3,-4.063980877E-1
2.096816784E0,8.141277432E-1,-1.824264042E-2,-4.063980877E-1
2.099304649E0,8.205193281E-1,-3.741738573E-2,-4.085285962E-1
2.101792513E0,8.269109130E-1,-5.765739456E-2,-4.117243886E-1
2.104280378E0,8.333024979E-1,-7.789740711E-2,-4.170507193E-1
2.106768243E0,8.407593369E-1,-9.600688517E-2,-4.213117659E-1
2.109256107E0,8.460856676E-1,-1.109205782E-1,-4.266380966E-1
2.111743972E0,8.503466845E-1,-1.215732098E-1,-4.308991432E-1
2.114231836E0,8.535425067E-1,-1.279647946E-1,-4.351601899E-1
2.116719701E0,8.524772525E-1,-1.322258562E-1,-4.383559823E-1
2.119207565E0,8.492814302E-1,-1.354216337E-1,-4.415517747E-1
2.121695430E0,8.460856676E-1,-1.396826953E-1,-4.426170290E-1
2.124183295E0,8.418245912E-1,-1.439437568E-1,-4.436823130E-1
2.126671159E0,8.386288285E-1,-1.482048035E-1,-4.447475672E-1
2.129159024E0,8.343677521E-1,-1.514005959E-1,-4.426170290E-1
2.131646888E0,8.290414214E-1,-1.524658650E-1,-4.394212663E-1
2.134134753E0,8.237150908E-1,-1.482048035E-1,-4.351601899E-1
2.136622618E0,8.151929975E-1,-1.407479644E-1,-4.287686050E-1
2.139110482E0,8.034750819E-1,-1.300953180E-1,-4.191812575E-1
2.141598347E0,7.885614038E-1,-1.194426864E-1,-4.085285962E-1
2.144086211E0,7.715172172E-1,-1.098553166E-1,-3.957454562E-1
2.146574076E0,7.523424625E-1,-1.013332009E-1,-3.818970025E-1
2.149061940E0,7.321024537E-1,-9.707214683E-2,-3.659180701E-1
2.151549805E0,7.129276991E-1,-9.494162351E-2,-3.510043621E-1
2.154037670E0,6.926876903E-1,-9.494162351E-2,-3.371559381E-1
2.156525534E0,6.745781898E-1,-9.707214683E-2,-3.233075142E-1
2.159013399E0,6.564686894E-1,-9.920267761E-2,-3.126548827E-1
2.161501263E0,6.383592486E-1,-1.034637317E-1,-3.030675054E-1
2.163989128E0,6.202497482E-1,-1.077247858E-1,-2.945453823E-1
2.166476993E0,6.010749936E-1,-1.141163707E-1,-2.881538272E-1
2.168964805E0,5.829655528E-1,-1.226384789E-1,-2.817622423E-1
2.171452618E0,5.648560524E-1,-1.332911104E-1,-2.743053734E-1
2.173940430E0,5.467465520E-1,-1.460742801E-1,-2.689790726E-1
2.176428243E0,5.286371112E-1,-1.609879732E-1,-2.625874877E-1
2.178916055E0,5.105276108E-1,-1.759016514E-1,-2.561959028E-1
2.181403868E0,4.945486486E-1,-1.929458827E-1,-2.508696020E-1
2.183891680E0,4.785696864E-1,-2.078595608E-1,-2.455432713E-1
2.186379493E0,4.647212625E-1,-2.238385230E-1,-2.402169555E-1
2.188867305E0,4.498075843E-1,-2.398174703E-1,-2.359558940E-1
2.191355118E0,4.359591305E-1,-2.547311783E-1,-2.316948473E-1
2.193842930E0,4.221107066E-1,-2.717753947E-1,-2.274337858E-1
2.196330743E0,4.093275666E-1,-2.898848653E-1,-2.221074700E-1
2.198818555E0,3.944138587E-1,-3.090596199E-1,-2.146506310E-1
2.201306368E0,3.795001805E-1,-3.271690905E-1,-2.061285079E-1
2.203794180E0,3.645864725E-1,-3.431480527E-1,-1.965411454E-1
2.206281993E0,3.496727943E-1,-3.580617309E-1,-1.858884990E-1
2.208769805E0,3.336938322E-1,-3.676491082E-1,-1.741705984E-1
2.211257618E0,3.177148700E-1,-3.740406930E-1,-1.645832360E-1
2.213745430E0,3.006706536E-1,-3.772364855E-1,-1.539305896E-1
2.216233243E0,2.804306448E-1,-3.783017397E-1,-1.443432271E-1
2.218721055E0,2.601906359E-1,-3.793670237E-1,-1.336905807E-1
2.221208868E0,2.388853729E-1,-3.804322779E-1,-1.219726875E-1
2.223696680E0,2.154495716E-1,-3.814975321E-1,-1.070589945E-1
2.226184493E0,1.920137703E-1,-3.836280704E-1,-8.894951642E-2
2.228672305E0,1.675127149E-1,-3.857586086E-1,-6.764423847E-2
2.231160118E0,1.440769136E-1,-3.857586086E-1,-4.420844093E-2
2.233647930E0,1.185105816E-1,-3.846933246E-1,-2.077264152E-2
2.236135743E0,9.507478029E-2,-3.836280704E-1,3.728422802E-3
2.238623555E0,7.376950979E-2,-3.836280704E-1,2.929474972E-2
2.241111368E0,5.246423557E-2,-3.836280704E-1,5.379581451E-2
2.243599180E0,3.328948840E-2,-3.868238628E-1,7.829687744E-2
2.246086993E0,1.304947957E-2,-3.932154477E-1,1.027979404E-1
2.248574857E0,-6.125265732E-3,-4.028028250E-1,1.272990108E-1
2.251062722E0,-2.636527456E-2,-4.134554565E-1,1.528653353E-1
2.253550586E0,-4.660528526E-2,-4.241080880E-1,1.805621833E-1
2.256038451E0,-6.684529036E-2,-4.336954653E-1,2.061285079E-1
2.258526315E0,-8.495477587E-2,-4.400870502E-1,2.316948473E-1
2.261014180E0,-1.019989923E-1,-4.454133511E-1,2.561959028E-1
2.263502045E0,-1.169126853E-1,-4.475438893E-1,2.796317041E-1
2.265989909E0,-1.296958476E-1,-4.464786351E-1,2.998717129E-1
2.268477774E0,-1.424790174E-1,-4.443480968E-1,3.190464675E-1
2.270965638E0,-1.531316489E-1,-4.422175586E-1,3.360906839E-1
2.273453503E0,-1.659148186E-1,-4.411523044E-1,3.531349003E-1
2.275941368E0,-1.786979735E-1,-4.411523044E-1,3.701791167E-1
2.278429232E0,-1.914811432E-1,-4.443480968E-1,3.872233331E-1
2.280917097E0,-2.042642981E-1,-4.507396817E-1,4.032022953E-1
2.283404961E0,-2.159821987E-1,-4.581965208E-1,4.202465117E-1
2.285892826E0,-2.277000993E-1,-4.667186439E-1,4.383559823E-1
2.288380690E0,-2.383527458E-1,-4.763059914E-1,4.564654827E-1
2.290868555E0,-2.490053773E-1,-4.848281145E-1,4.767054915E-1
2.293356420E0,-2.575274706E-1,-4.944154918E-1,4.969455004E-1
2.295844284E0,-2.660495937E-1,-5.018723607E-1,5.203812718E-1
2.298332149E0,-2.745717168E-1,-5.082638860E-1,5.427518487E-1
2.300820013E0,-2.820285559E-1,-5.146554708E-1,5.651223660E-1
2.303307878E0,-2.894853950E-1,-5.199818015E-1,5.885581374E-1
2.305795743E0,-2.980075181E-1,-5.242428780E-1,6.119939685E-1
2.308283607E0,-3.043990731E-1,-5.253081322E-1,6.343644857E-1
2.310771472E0,-3.107906580E-1,-5.253081322E-1,6.567350626E-1
2.313259336E0,-3.150517344E-1,-5.210470557E-1,6.780403256E-1
2.315747201E0,-3.182475269E-1,-5.135902166E-1,7.004108429E-1
2.318235065E0,-3.203780353E-1,-5.008070469E-1,7.249119282E-1
2.320722930E0,-3.214432895E-1,-4.858933687E-1,7.515435219E-1
2.323210795E0,-3.225085735E-1,-4.688491523E-1,7.813708782E-1
2.325698659E0,-3.225085735E-1,-4.528702199E-1,8.111982346E-1
2.328186524E0,-3.235738277E-1,-4.390217662E-1,8.410256505E-1
2.330674388E0,-3.246390820E-1,-4.273038805E-1,8.708530068E-1
2.333162253E0,-3.267696202E-1,-4.177165031E-1,9.006804228E-1
2.335650118E0,-3.299654126E-1,-4.081291258E-1,9.283772707E-1
2.338137982E0,-3.320959508E-1,-4.006722867E-1,9.550088644E-1
2.340625847E0,-3.342264593E-1,-3.942807019E-1,9.795098901E-1
2.343113711E0,-3.363569975E-1,-3.910849094E-1,1.001880407E0
2.345601576E0,-3.406180441E-1,-3.921501637E-1,1.021055222E0
2.348089440E0,-3.448790908E-1,-4.006722867E-1,1.038099408E0
2.350577305E0,-3.512706757E-1,-4.166512489E-1,1.051947832E0
2.353065170E0,-3.565970063E-1,-4.400870502E-1,1.065796256E0
2.355553034E0,-3.629885912E-1,-4.688491523E-1,1.078579426E0
2.358040899E0,-3.693801761E-1,-5.018723607E-1,1.092427850E0
2.360528763E0,-3.768370152E-1,-5.380913019E-1,1.107341528E0
2.363016628E0,-3.842938542E-1,-5.764408112E-1,1.124385715E0
2.365504493E0,-3.906854391E-1,-6.158555150E-1,1.141430020E0
2.367992357E0,-3.970770240E-1,-6.563355327E-1,1.159539461E0
2.370480222E0,-4.024033546E-1,-6.968155503E-1,1.178714275E0
2.372968086E0,-4.055991173E-1,-7.362303138E-1,1.196823716E0
2.375455951E0,-4.098601937E-1,-7.745798230E-1,1.217063665E0
2.377943815E0,-4.141212404E-1,-8.086682558E-1,1.236238480E0
2.380431680E0,-4.183822870E-1,-8.395609260E-1,1.255413175E0
2.382919545E0,-4.237086177E-1,-8.672577739E-1,1.273522735E0
2.385407409E0,-4.301002026E-1,-8.885630369E-1,1.288436413E0
2.387895274E0,-4.364917874E-1,-9.077377915E-1,1.300154328E0
2.390383138E0,-4.450138807E-1,-9.247819781E-1,1.308676362E0
2.392871003E0,-4.567317963E-1,-9.407609701E-1,1.314002752E0
2.395358868E0,-4.695149362E-1,-9.567399025E-1,1.316133261E0
2.397846732E0,-4.876244366E-1,-9.759146571E-1,1.315068007E0
2.400334597E0,-5.078644156E-1,-9.982851744E-1,1.311872125E0
2.402822461E0,-5.291697383E-1,-1.022786260E0,1.307611108E0
2.405310326E0,-5.483444333E-1,-1.049417853E0,1.303350091E0
2.407798190E0,-5.664539337E-1,-1.077114701E0,1.299088955E0
2.410286055E0,-5.824328661E-1,-1.104811549E0,1.294827938E0
2.412773920E0,-5.952160358E-1,-1.130377889E0,1.291632175E0
2.415261784E0,-6.058686972E-1,-1.153813720E0,1.286305904E0
2.417749649E0,-6.122602820E-1,-1.177249432E0,1.278849006E0
2.420237513E0,-6.197171211E-1,-1.203881025E0,1.268196344E0
2.422725378E0,-6.282392144E-1,-1.232643247E0,1.254347920E0
2.425213243E0,-6.378266215E-1,-1.266731620E0,1.237303734E0
2.427701107E0,-6.474139690E-1,-1.304015875E0,1.219194293E0
2.430188972E0,-6.559360623E-1,-1.345561147E0,1.200019479E0
2.432676836E0,-6.612623930E-1,-1.388171673E0,1.181910038E0
2.435164701E0,-6.623276472E-1,-1.428651690E0,1.165931106E0
2.437652565E0,-6.601971388E-1,-1.457413793E0,1.155278444E0
2.440140430E0,-6.538055539E-1,-1.469131708E0,1.148886800E0
2.442628295E0,-6.463487148E-1,-1.463805437E0,1.146756291E0
2.445116159E0,-6.399571300E-1,-1.438239098E0,1.149952054E0
2.447604024E0,-6.356960535E-1,-1.396693826E0,1.158474207E0
2.450091888E0,-6.346307993E-1,-1.339169502E0,1.174453139E0
2.452579753E0,-6.346307993E-1,-1.269927382E0,1.195758462E0
2.455067618E0,-6.367613673E-1,-1.193228483E0,1.224520564E0
2.457555482E0,-6.378266215E-1,-1.117594719E0,1.257543683E0
2.460043347E0,-6.356960535E-1,-1.045156837E0,1.291632175E0
2.462531211E0,-6.325002909E-1,-9.791104198E-1,1.326785922E0
2.465019076E0,-6.250434518E-1,-9.215862155E-1,1.358743787E0
2.467506940E0,-6.197171211E-1,-8.789756894E-1,1.387505889E0
2.469994805E0,-6.143907905E-1,-8.534093499E-1,1.409876466E0
2.472482670E0,-6.122602820E-1,-8.299735188E-1,1.432246923E0
2.474970534E0,-6.048034430E-1,-8.012114167E-1,1.453552246E0
2.477458399E0,-5.909550190E-1,-7.660577297E-1,1.473792195E0
2.479946263E0,-5.739107728E-1,-7.255777121E-1,1.487640619E0
2.482434128E0,-5.558013320E-1,-6.829671264E-1,1.495097518E0
2.484921993E0,-5.398223400E-1,-6.414218545E-1,1.494032264E0
2.487409857E0,-5.259739161E-1,-6.073334217E-1,1.485510111E0
2.489897722E0,-5.131907463E-1,-5.838976502E-1,1.467400670E0
2.492385586E0,-5.025381446E-1,-5.711144805E-1,1.446095347E0
2.494873451E0,-4.929507375E-1,-5.700492263E-1,1.422659636E0
2.497361315E0,-4.801675975E-1,-5.785713196E-1,1.400289059E0
2.499849180E0,-4.631233811E-1,-5.945502520E-1,1.378983736E0
2.502337045E0,-4.439486265E-1,-6.126597524E-1,1.359809041E0
2.504824909E0,-4.226433635E-1,-6.328997612E-1,1.339568973E0
2.507312774E0,-3.992075622E-1,-6.520745158E-1,1.318263769E0
2.509800638E0,-3.779022694E-1,-6.669881940E-1,1.291632175E0
2.512288503E0,-3.576622605E-1,-6.787061095E-1,1.259674311E0
2.514776368E0,-3.384875357E-1,-6.872282028E-1,1.220259547E0
2.517264232E0,-3.203780353E-1,-6.936197877E-1,1.174453139E0
2.519752097E0,-3.043990731E-1,-7.010766268E-1,1.124385715E0
2.522239961E0,-2.894853950E-1,-7.117292881E-1,1.074318409E0
2.524727826E0,-2.724411786E-1,-7.245124578E-1,1.024250984E0
2.527215690E0,-2.543317080E-1,-7.383608818E-1,9.763141274E-1
2.529703555E0,-2.351569533E-1,-7.522093058E-1,9.315730333E-1
2.532191420E0,-2.159821987E-1,-7.649924755E-1,8.921582699E-1
2.534679284E0,-1.978727281E-1,-7.756450772E-1,8.559393287E-1
2.537167149E0,-1.808284968E-1,-7.831019163E-1,8.218508959E-1
2.539655013E0,-1.648495495E-1,-7.884282470E-1,7.888277173E-1
2.542142878E0,-1.499358565E-1,-7.916240692E-1,7.558045387E-1
2.544630743E0,-1.382179558E-1,-7.926893234E-1,7.217161059E-1
2.547118607E0,-1.275653243E-1,-7.926893234E-1,6.865624189E-1
2.549606472E0,-1.179779470E-1,-7.926893234E-1,6.546044946E-1
2.552094336E0,-1.105211005E-1,-7.905587554E-1,6.237118840E-1
2.554582201E0,-1.041295230E-1,-7.905587554E-1,5.960150361E-1
2.557070065E0,-1.009337306E-1,-7.937545776E-1,5.715139508E-1
2.559557930E0,-9.880319983E-2,-7.937545776E-1,5.523391962E-1
2.562045795E0,-9.347688407E-2,-7.841671705E-1,5.384907722E-1
2.564533659E0,-8.282424510E-2,-7.649924755E-1,5.257076025E-1
2.567021524E0,-6.791055948E-2,-7.415566444E-1,5.129244328E-1
2.569509388E0,-5.299686641E-2,-7.159903049E-1,4.948149621E-1
2.571997253E0,-3.914843872E-2,-6.882934570E-1,4.713791609E-1
2.574485118E0,-2.743053809E-2,-6.616618633E-1,4.447475672E-1
2.576972982E0,-1.890842989E-2,-6.360955238E-1,4.149201810E-1
2.579460847E0,-8.255792782E-3,-6.126597524E-1,3.818970025E-1
2.581948711E0,1.331579522E-3,-5.913544893E-1,3.478085697E-1
2.584436576E0,1.411474310E-2,-5.732449889E-1,3.137201369E-1
2.586924440E0,2.796317078E-2,-5.593965650E-1,2.785664499E-1
2.589412305E0,4.181159660E-2,-5.498092175E-1,2.402169555E-1
2.591900170E0,5.352949724E-2,-5.444828868E-1,1.986716688E-1
2.594388034E0,6.524740160E-2,-5.402218103E-1,1.528653353E-1
2.596875899E0,7.483477145E-2,-5.338302255E-1,1.049284711E-1
2.599363763E0,8.335687965E-2,-5.274386406E-1,5.805686861E-2
2.601851628E0,8.974846452E-2,-5.178512931E-1,1.118526794E-2
2.604339493E0,9.720530361E-2,-5.071986318E-1,-3.036001325E-2
2.606827357E0,1.025316268E-1,-4.965460002E-1,-6.764423847E-2
2.609315222E0,1.078579426E-1,-4.837628603E-1,-9.640636295E-2
2.611803086E0,1.121189967E-1,-4.699144363E-1,-1.187768951E-1
2.614290951E0,1.153147891E-1,-4.539354742E-1,-1.347558498E-1
2.616778815E0,1.185105816E-1,-4.379565120E-1,-1.464737505E-1
2.619266680E0,1.185105816E-1,-4.209122956E-1,-1.581916511E-1
2.621754545E0,1.185105816E-1,-4.038680792E-1,-1.699095517E-1
2.624242409E0,1.185105816E-1,-3.868238628E-1,-1.816274524E-1
2.626730274E0,1.174453199E-1,-3.655185997E-1,-1.922800839E-1
2.629218138E0,1.174453199E-1,-3.420827985E-1,-2.018674612E-1
2.631706003E0,1.185105816E-1,-3.175817132E-1,-2.103895694E-1
2.634193868E0,1.174453199E-1,-2.909501195E-1,-2.178464085E-1
2.636681732E0,1.163800508E-1,-2.653838098E-1,-2.221074700E-1
2.639169597E0,1.174453199E-1,-2.408827394E-1,-2.263685167E-1
2.641657461E0,1.163800508E-1,-2.174469382E-1,-2.295643091E-1
2.644145326E0,1.153147891E-1,-1.961416751E-1,-2.327601016E-1
2.646633190E0,1.131842583E-1,-1.759016514E-1,-2.370211631E-1
2.649121055E0,1.121189967E-1,-1.588574350E-1,-2.434127480E-1
2.651608920E0,1.110537350E-1,-1.439437568E-1,-2.530001104E-1
2.654096784E0,1.089232042E-1,-1.322258562E-1,-2.647180259E-1
2.656584649E0,1.057274193E-1,-1.226384789E-1,-2.775011659E-1
2.659072513E0,1.025316268E-1,-1.151816323E-1,-2.902843356E-1
2.661560378E0,1.004010960E-1,-1.098553166E-1,-3.041327596E-1
2.664048243E0,9.720530361E-2,-1.055942550E-1,-3.147853911E-1
2.666536107E0,9.400951862E-2,-1.023984700E-1,-3.254380524E-1
2.669023972E0,9.081372619E-2,-1.023984700E-1,-3.350254297E-1
2.671511836E0,8.761793375E-2,-1.055942550E-1,-3.435475230E-1
2.673999701E0,8.335687965E-2,-1.109205782E-1,-3.531349003E-1
2.676487565E0,8.122635633E-2,-1.173121557E-1,-3.627222776E-1
2.678975430E0,8.016108721E-2,-1.226384789E-1,-3.733749092E-1
2.681463295E0,7.909582555E-2,-1.268995255E-1,-3.829622865E-1
2.683951159E0,7.803056389E-2,-1.279647946E-1,-3.946801722E-1
2.686439024E0,7.590003312E-2,-1.268995255E-1,-4.053328037E-1
2.688926888E0,7.376950979E-2,-1.226384789E-1,-4.138549268E-1
2.691414753E0,7.163897902E-2,-1.151816323E-1,-4.223770201E-1
2.693902618E0,7.057371736E-2,-1.034637317E-1,-4.287686050E-1
2.696390482E0,6.950845569E-2,-8.748477697E-2,-4.362254739E-1
2.698878347E0,6.844318658E-2,-7.044056058E-2,-4.436823130E-1
2.701366211E0,6.737792492E-2,-5.126581341E-2,-4.500738978E-1
2.703854076E0,6.524740160E-2,-3.102580272E-2,-4.543349445E-1
2.706341940E0,6.418213248E-2,-1.078579482E-2,-4.554001987E-1
2.708829805E0,6.205160543E-2,1.158474199E-2,-4.564654827E-1
2.711317670E0,6.311687082E-2,3.289001435E-2,-4.554001987E-1
2.713805534E0,6.418213248E-2,5.419528857E-2,-4.543349445E-1
2.716293399E0,6.524740160E-2,7.550056279E-2,-4.522044063E-1
2.718781263E0,6.631266326E-2,9.680583328E-2,-4.511391521E-1
2.721269128E0,6.737792492E-2,1.170458421E-1,-4.500738978E-1
2.723756993E0,6.950845569E-2,1.372858584E-1,-4.479433596E-1
2.726244857E0,7.057371736E-2,1.575258672E-1,-4.458128214E-1
2.728732722E0,7.163897902E-2,1.777658761E-1,-4.436823130E-1
2.731220586E0,7.376950979E-2,1.990711391E-1,-4.404865205E-1
2.733708451E0,7.483477145E-2,2.246374637E-1,-4.362254739E-1
2.736196315E0,7.696529478E-2,2.512690723E-1,-4.277033508E-1
2.738684180E0,7.909582555E-2,2.757701278E-1,-4.181159735E-1
2.741172045E0,7.909582555E-2,2.917490900E-1,-4.095938802E-1
2.743659909E0,7.803056389E-2,2.949448824E-1,-4.021370113E-1
2.746147774E0,7.376950979E-2,2.853575051E-1,-3.978759646E-1
2.748635638E0,6.844318658E-2,2.672480047E-1,-3.957454562E-1
2.751123503E0,6.311687082E-2,2.427469492E-1,-3.957454562E-1
2.753611368E0,6.098634377E-2,2.171806246E-1,-3.968107104E-1
2.756099180E0,5.885581672E-2,1.894837767E-1,-4.010717571E-1
2.758586993E0,5.992107838E-2,1.628521830E-1,-4.106591344E-1
2.761074805E0,6.205160543E-2,1.372858584E-1,-4.213117659E-1
2.763562618E0,6.524740160E-2,1.127847880E-1,-4.351601899E-1
2.766050430E0,6.631266326E-2,8.934898674E-2,-4.490086138E-1
2.768538243E0,6.737792492E-2,6.697845459E-2,-4.628570378E-1
2.771026055E0,6.631266326E-2,4.460791498E-2,-4.735096991E-1
2.773513868E0,6.631266326E-2,2.117211558E-2,-4.830970466E-1
2.776001680E0,6.524740160E-2,-1.198421582E-3,-4.926844239E-1
2.778489493E0,4.820318148E-2,-2.783001214E-2,-5.012065172E-1
2.780977305E0,-3.808317333E-2,-7.150582224E-2,-4.948149621E-1
2.783465118E0,-2.138516754E-1,-1.055942550E-1,-4.085285962E-1
2.785952930E0,-3.938812315E-1,-4.913528636E-2,-1.965411454E-1
2.788440743E0,-4.514054656E-1,1.255679578E-1,1.613874435E-1
2.790928555E0,-3.640538454E-1,3.311638236E-1,5.981455445E-1
2.793416368E0,-1.936116666E-1,4.483428299E-1,9.827057123E-1
2.795904180E0,-2.956106514E-2,4.334291518E-1,1.210672140E0
2.798391993E0,5.992107838E-2,3.300985694E-1,1.247956395E0
2.800879805E0,6.631266326E-2,2.193111479E-1,1.131842613E0
2.803367618E0,2.263685316E-2,1.692437679E-1,9.155941010E-1
2.805855430E0,-4.554001987E-2,1.809616536E-1,6.588655710E-1
2.808343243E0,-1.328916401E-1,2.086585164E-1,3.936149180E-1
2.810831055E0,-2.266348451E-1,1.969406158E-1,1.454084814E-1
2.813318868E0,-2.980075181E-1,1.159805804E-1,-6.657897681E-2
2.815806680E0,-3.171822429E-1,-3.528685868E-2,-2.295643091E-1
2.818294545E0,-2.809632719E-1,-2.355564237E-1,-3.265033066E-1
2.820782409E0,-2.149169445E-1,-4.496744275E-1,-3.595264852E-1
2.823270274E0,-1.541969180E-1,-6.339650154E-1,-3.350254297E-1
2.825758138E0,-1.243695319E-1,-7.564703226E-1,-2.785664499E-1
2.828246003E0,-1.265000552E-1,-8.076030016E-1,-2.135853618E-1
2.830733868E0,-1.414137483E-1,-7.980156541E-1,-1.677790284E-1
2.833221732E0,-1.467400640E-1,-7.532745600E-1,-1.475390196E-1
2.835709597E0,-1.328916401E-1,-6.978808641E-1,-1.613874435E-1
2.838197461E0,-1.105211005E-1,-6.446176767E-1,-1.986716688E-1
2.840685326E0,-9.347688407E-2,-5.956155062E-1,-2.487390637E-1
2.843173190E0,-8.815056831E-2,-5.455481410E-1,-2.988064587E-1
2.845661055E0,-9.134636074E-2,-4.954807460E-1,-3.403517306E-1
2.848148920E0,-9.560741484E-2,-4.486091435E-1,-3.659180701E-1
2.850636784E0,-9.560741484E-2,-4.123901725E-1,-3.701791167E-1
2.853124649E0,-9.241162241E-2,-3.878891170E-1,-3.552654386E-1
2.855612513E0,-8.708529919E-2,-3.697796464E-1,-3.222422600E-1
2.858100378E0,-8.175898343E-2,-3.474090993E-1,-2.753706574E-1
2.860588243E0,-7.749792933E-2,-3.165164590E-1,-2.210422009E-1
2.863076107E0,-7.110634446E-2,-2.728406489E-1,-1.709748209E-1
2.865563972E0,-6.364950538E-2,-2.249037921E-1,-1.272990108E-1
2.868051836E0,-5.938844755E-2,-1.790974438E-1,-9.640636295E-2
2.870539701E0,-5.938844755E-2,-1.386174262E-1,-7.190529257E-2
2.873027565E0,-6.364950538E-2,-1.034637317E-1,-5.273054913E-2
2.875515430E0,-7.004108280E-2,-7.044056058E-2,-3.462106735E-2
2.878003295E0,-7.536740601E-2,-3.954791278E-2,-1.331579592E-2
2.880491159E0,-8.069372177E-2,-1.078579482E-2,1.225053146E-2
2.882979024E0,-8.388951421E-2,1.158474199E-2,4.207791388E-2
2.885466888E0,-8.815056831E-2,2.969422378E-2,7.616634667E-2
2.887954753E0,-9.241162241E-2,4.354264960E-2,1.145158410E-1
2.890442618E0,-9.667267650E-2,5.419528857E-2,1.518000662E-1
2.892930482E0,-1.030642539E-1,6.165213138E-2,1.858884990E-1
2.895418347E0,-1.105211005E-1,6.271740049E-2,2.157158852E-1
2.897906211E0,-1.201084778E-1,5.526055023E-2,2.359558940E-1
2.900394076E0,-1.286305785E-1,3.928159550E-2,2.466085255E-1
2.902881940E0,-1.371526867E-1,1.691105962E-2,2.487390637E-1
2.905369805E0,-1.435442716E-1,-1.078579482E-2,2.444780022E-1
2.907857670E0,-1.467400640E-1,-4.274370521E-2,2.348906398E-1
2.910345534E0,-1.478053331E-1,-7.683213800E-2,2.210422009E-1
2.912833399E0,-1.456748098E-1,-1.130511016E-1,2.039979845E-1
2.915321263E0,-1.424790174E-1,-1.535311192E-1,1.837579757E-1
2.917809128E0,-1.382179558E-1,-1.972069293E-1,1.613874435E-1
2.920296993E0,-1.318263710E-1,-2.408827394E-1,1.379516423E-1
2.922784857E0,-1.265000552E-1,-2.834932804E-1,1.123853177E-1
2.925272722E0,-1.211737394E-1,-3.218427896E-1,8.788424730E-2
2.927760586E0,-1.158474237E-1,-3.516701460E-1,6.338318437E-2
2.930248451E0,-1.094558388E-1,-3.740406930E-1,3.994738683E-2
2.932736315E0,-1.041295230E-1,-3.878891170E-1,1.864211448E-2
2.935224180E0,-9.880319983E-2,-3.921501637E-1,5.326318205E-4
2.937712045E0,-9.454214573E-2,-3.868238628E-1,-1.225053146E-2
2.940199909E0,-9.241162241E-2,-3.729754388E-1,-2.077264152E-2
2.942687774E0,-9.028109163E-2,-3.495396376E-1,-2.290316857E-2
2.945175638E0,-8.921582997E-2,-3.197122514E-1,-1.757685095E-2
2.947663503E0,-8.815056831E-2,-2.866890728E-1,-6.924213842E-3
2.950151368E0,-8.815056831E-2,-2.494048476E-1,7.989477366E-3
2.952639232E0,-8.921582997E-2,-2.110553533E-1,2.822948620E-2
2.955127097E0,-8.921582997E-2,-1.705753356E-1,5.060002208E-2
2.957614961E0,-8.815056831E-2,-1.290300637E-1,7.616634667E-2
2.960102826E0,-8.708529919E-2,-8.641951531E-2,1.017326787E-1
2.962590690E0,-8.602003753E-2,-4.380896688E-2,1.283642650E-1
2.965078555E0,-8.602003753E-2,-2.263685223E-3,1.549958587E-1
2.967566420E0,-8.708529919E-2,3.608580679E-2,1.794969290E-1
2.970054284E0,-8.815056831E-2,7.017423958E-2,2.039979845E-1
2.972542149E0,-8.921582997E-2,1.000016257E-1,2.263685167E-1
2.975030013E0,-9.028109163E-2,1.223721579E-1,2.455432713E-1
2.977517878E0,-9.028109163E-2,1.383511126E-1,2.593916953E-1
2.980005743E0,-8.921582997E-2,1.500690132E-1,2.689790726E-1
2.982493607E0,-8.495477587E-2,1.564605981E-1,2.721748650E-1
2.984981472E0,-7.962846011E-2,1.585911214E-1,2.721748650E-1
2.987469336E0,-7.430213690E-2,1.575258672E-1,2.657832801E-1
2.989957201E0,-6.897582114E-2,1.532648057E-1,2.561959028E-1
2.992445065E0,-6.258423626E-2,1.436774284E-1,2.412822098E-1
2.994932930E0,-5.725792050E-2,1.298290044E-1,2.221074700E-1
2.997420795E0,-4.980107397E-2,1.149153188E-1,2.008021921E-1
2.999908659E0,-4.234423116E-2,9.680583328E-2,1.763011366E-1
3.002396524E0,-3.382211924E-2,8.082687855E-2,1.496695429E-1
3.004884388E0,-2.423474751E-2,6.484792382E-2,1.198421568E-1
3.007372253E0,-1.251684781E-2,5.206476152E-2,8.788424730E-2
3.009860118E0,2.663159103E-4,4.034686089E-2,5.273054913E-2
3.012347982E0,1.304947957E-2,3.075948730E-2,1.438105945E-2
3.014835847E0,2.583264373E-2,2.117211558E-2,-2.609895915E-2
3.017323711E0,3.755054250E-2,1.051947847E-2,-6.657897681E-2
3.019811576E0,5.033370852E-2,9.321057005E-4,-1.070589945E-1
3.022299440E0,6.311687082E-2,-7.590003312E-3,-1.475390196E-1
3.024787305E0,7.483477145E-2,-1.291632187E-2,-1.837579757E-1
3.027275170E0,8.761793375E-2,-1.611211337E-2,-2.178464085E-1
3.029763034E0,1.004010960E-1,-1.291632187E-2,-2.487390637E-1
3.032250899E0,1.142495275E-1,-6.524739787E-3,-2.764359117E-1
3.034738763E0,1.280979514E-1,4.127896391E-3,-3.030675054E-1
3.037226628E0,1.398158520E-1,1.904158667E-2,-3.275685608E-1
3.039714493E0,1.483379602E-1,3.395527974E-2,-3.488738537E-1
3.042202357E0,1.536642760E-1,4.780370742E-2,-3.659180701E-1
3.044690222E0,1.589905918E-1,6.165213138E-2,-3.787012100E-1
3.047178086E0,1.611211300E-1,7.337003201E-2,-3.850927949E-1
3.049665951E0,1.632516533E-1,8.295740932E-2,-3.840275407E-1
3.052153815E0,1.664474458E-1,8.934898674E-2,-3.787012100E-1
3.054641680E0,1.696432382E-1,9.254477918E-2,-3.669833243E-1
3.057129545E0,1.739042848E-1,9.467530251E-2,-3.520696461E-1
3.059617409E0,1.781653464E-1,9.893636405E-2,-3.339601457E-1
3.062105274E0,1.834916621E-1,1.063932031E-1,-3.147853911E-1
3.064593138E0,1.898832470E-1,1.181111038E-1,-2.956106663E-1
3.067081003E0,1.973400861E-1,1.340900660E-1,-2.764359117E-1
3.069568868E0,2.026664019E-1,1.500690132E-1,-2.593916953E-1
3.072056732E0,2.069274634E-1,1.649827063E-1,-2.455432713E-1
3.074544597E0,2.101232558E-1,1.777658761E-1,-2.348906398E-1
3.077032461E0,2.133190483E-1,1.873532385E-1,-2.263685167E-1
3.079520326E0,2.175800949E-1,1.926795542E-1,-2.189116776E-1
3.082008243E0,2.218411565E-1,1.937448233E-1,-2.146506310E-1
3.084496159E0,2.261022031E-1,1.916143000E-1,-2.135853618E-1
3.086984076E0,2.324937880E-1,1.873532385E-1,-2.157158852E-1
3.089471993E0,2.378201038E-1,1.809616536E-1,-2.231727391E-1
3.091959909E0,2.442116886E-1,1.735048145E-1,-2.348906398E-1
3.094447826E0,2.506032586E-1,1.649827063E-1,-2.519348562E-1
3.096935743E0,2.580601275E-1,1.564605981E-1,-2.721748650E-1
3.099423659E0,2.655169666E-1,1.490037590E-1,-2.977411747E-1
3.101911576E0,2.740390599E-1,1.426121742E-1,-3.265033066E-1
3.104399493E0,2.825611830E-1,1.362205893E-1,-3.595264852E-1
3.106887409E0,2.921485603E-1,1.308942735E-1,-3.936149180E-1
3.109375326E0,2.996053994E-1,1.276984811E-1,-4.308991432E-1
3.111863243E0,3.070622385E-1,1.266332120E-1,-4.692486227E-1
3.114351159E0,3.123885691E-1,1.308942735E-1,-5.054675937E-1
3.116839076E0,3.166496158E-1,1.404816359E-1,-5.406212807E-1
3.119326993E0,3.209106624E-1,1.553953290E-1,-5.747097135E-1
3.121814909E0,3.241064548E-1,1.735048145E-1,-6.077328920E-1
3.124302826E0,3.283675313E-1,1.916143000E-1,-6.407560706E-1
3.126790743E0,3.294327855E-1,2.075932473E-1,-6.737792492E-1
3.129278659E0,3.283675313E-1,2.193111479E-1,-7.068024278E-1
3.131766576E0,3.262369931E-1,2.267680019E-1,-7.355645299E-1
3.134254493E0,3.209106624E-1,2.320943177E-1,-7.611308694E-1
3.136742409E0,3.145190775E-1,2.342248410E-1,-7.824361324E-1
3.139230326E0,3.070622385E-1,2.384859025E-1,-7.962845564E-1
3.141718243E0,3.006706536E-1,2.459427416E-1,-8.048067093E-1
3.144206159E0,2.942790687E-1,2.576606572E-1,-8.069372177E-1
3.146694024E0,2.889527678E-1,2.736395895E-1,-8.048067093E-1
3.149181888E0,2.836264372E-1,2.906838059E-1,-8.016108871E-1
3.151669753E0,2.751043439E-1,3.077280223E-1,-7.984151244E-1
3.154157618E0,2.665822208E-1,3.215764761E-1,-7.952193022E-1
3.156645482E0,2.569948435E-1,3.300985694E-1,-7.909582257E-1
3.159133347E0,2.474074811E-1,3.343596160E-1,-7.877624631E-1
3.161621211E0,2.388853729E-1,3.354249001E-1,-7.824361324E-1
3.164109076E0,2.324937880E-1,3.343596160E-1,-7.771098018E-1
3.166596940E0,2.261022031E-1,3.332943618E-1,-7.707182169E-1
3.169084805E0,2.239716798E-1,3.322291076E-1,-7.653919458E-1
3.171572670E0,2.218411565E-1,3.332943618E-1,-7.611308694E-1
3.174060534E0,2.197106332E-1,3.354249001E-1,-7.590003610E-1
3.176548399E0,2.186453640E-1,3.407512009E-1,-7.590003610E-1
3.179036263E0,2.175800949E-1,3.471427858E-1,-7.632613778E-1
3.181524128E0,2.165148407E-1,3.556649089E-1,-7.707182169E-1
3.184011993E0,2.175800949E-1,3.641870022E-1,-7.835013866E-1
3.186499857E0,2.175800949E-1,3.748396337E-1,-7.984151244E-1
3.188987722E0,2.175800949E-1,3.865575492E-1,-8.175898194E-1
3.191475586E0,2.186453640E-1,3.993407190E-1,-8.399603963E-1
3.193963451E0,2.175800949E-1,4.099933505E-1,-8.644614220E-1
3.196451315E0,2.165148407E-1,4.174501896E-1,-8.900277615E-1
3.198939180E0,2.143843025E-1,4.206459820E-1,-9.166593552E-1
3.201427045E0,2.101232558E-1,4.206459820E-1,-9.432909489E-1
3.203914909E0,2.037316710E-1,4.174501896E-1,-9.677920341E-1
3.206402774E0,1.962748319E-1,4.142543972E-1,-9.880320430E-1
3.208890638E0,1.877527237E-1,4.131891429E-1,-1.005076289E0
3.211378503E0,1.792306006E-1,4.174501896E-1,-1.015728831E0
3.213866368E0,1.717737615E-1,4.291680753E-1,-1.021055222E0
3.216354232E0,1.643169224E-1,4.462123215E-1,-1.022120476E0
3.218842097E0,1.589905918E-1,4.685828388E-1,-1.019989967E0
3.221329961E0,1.536642760E-1,4.888228476E-1,-1.016794205E0
3.223817826E0,1.483379602E-1,5.079975724E-1,-1.012533069E0
3.226305690E0,1.398158520E-1,5.218459964E-1,-1.005076289E0
3.228793555E0,1.302284747E-1,5.314334035E-1,-9.954888821E-1
3.231281420E0,1.163800508E-1,5.378249884E-1,-9.827057123E-1
3.233769284E0,1.014663652E-1,5.431513190E-1,-9.645962119E-1
3.236257149E0,8.761793375E-2,5.495429039E-1,-9.422256947E-1
3.238745013E0,7.483477145E-2,5.580649972E-1,-9.155941010E-1
3.241232878E0,6.418213248E-2,5.687175989E-1,-8.868319988E-1
3.243720743E0,5.459476262E-2,5.783050060E-1,-8.570045829E-1
3.246208607E0,4.713791609E-2,5.857618451E-1,-8.271772265E-1
3.248696472E0,4.181159660E-2,5.889576077E-1,-7.994803786E-1
3.251184336E0,3.648528084E-2,5.878923535E-1,-7.739140391E-1
3.253672201E0,3.222422674E-2,5.825660825E-1,-7.536740303E-1
3.256160065E0,2.796317078E-2,5.740439296E-1,-7.376950979E-1
3.258647930E0,2.157158963E-2,5.644565821E-1,-7.259771824E-1
3.261135795E0,1.411474310E-2,5.548691750E-1,-7.195855975E-1
3.263623659E0,6.657897960E-3,5.463470817E-1,-7.185203433E-1
3.266111524E0,2.663159103E-4,5.367597342E-1,-7.238466144E-1
3.268599388E0,-6.125265732E-3,5.261070728E-1,-7.334340215E-1
3.271087253E0,-1.251684781E-2,5.133239031E-1,-7.472824454E-1
3.273575118E0,-1.784316637E-2,4.962796867E-1,-7.632613778E-1
3.276062982E0,-2.316948399E-2,4.771049619E-1,-7.824361324E-1
3.278550847E0,-3.062633052E-2,4.568649530E-1,-8.016108871E-1
3.281038711E0,-3.808317333E-2,4.376901984E-1,-8.207856417E-1
3.283526576E0,-4.767054692E-2,4.270375669E-1,-8.367645741E-1
3.286014440E0,-5.619265884E-2,4.238417745E-1,-8.506129980E-1
3.288502305E0,-6.258423626E-2,4.312986135E-1,-8.633961678E-1
3.290990170E0,-6.471476704E-2,4.462123215E-1,-8.772445917E-1
3.293478034E0,-6.364950538E-2,4.653870463E-1,-8.900277615E-1
3.295965899E0,-6.258423626E-2,4.856270552E-1,-9.006804228E-1
3.298453763E0,-6.258423626E-2,5.026713014E-1,-9.060067534E-1
3.300941628E0,-6.578002870E-2,5.154544711E-1,-9.049414396E-1
3.303429493E0,-7.110634446E-2,5.250418186E-1,-8.953540921E-1
3.305917357E0,-7.749792933E-2,5.282375813E-1,-8.751140833E-1
3.308405222E0,-8.495477587E-2,5.314334035E-1,-8.474172354E-1
3.310893086E0,-9.028109163E-2,5.335639119E-1,-8.111982346E-1
3.313380951E0,-9.454214573E-2,5.367597342E-1,-7.696529627E-1
3.315868815E0,-9.560741484E-2,5.442165732E-1,-7.259771824E-1
3.318356680E0,-9.347688407E-2,5.527386665E-1,-6.823013425E-1
3.320844545E0,-9.028109163E-2,5.655218363E-1,-6.386255622E-1
3.323332409E0,-8.708529919E-2,5.793702602E-1,-5.981455445E-1
3.325820274E0,-8.282424510E-2,5.910881758E-1,-5.608612895E-1
3.328308138E0,-8.069372177E-2,6.006755233E-1,-5.267728567E-1
3.330796003E0,-7.856319100E-2,6.070671082E-1,-4.958802164E-1
3.333283868E0,-7.856319100E-2,6.091976166E-1,-4.681833684E-1
3.335771732E0,-7.856319100E-2,6.081323624E-1,-4.426170290E-1
3.338259597E0,-7.856319100E-2,6.038713455E-1,-4.223770201E-1
3.340747461E0,-7.643266767E-2,5.964145064E-1,-4.074633420E-1
3.343235326E0,-7.323687524E-2,5.836313367E-1,-3.968107104E-1
3.345723190E0,-6.897582114E-2,5.676523447E-1,-3.893538713E-1
3.348211055E0,-6.364950538E-2,5.452818274E-1,-3.850927949E-1
3.350698920E0,-5.938844755E-2,5.175849795E-1,-3.829622865E-1
3.353186784E0,-5.512739345E-2,4.877575934E-1,-3.829622865E-1
3.355674649E0,-5.299686641E-2,4.547344148E-1,-3.872233331E-1
3.358162513E0,-5.193160102E-2,4.206459820E-1,-3.914843798E-1
3.360650378E0,-4.980107397E-2,3.886880577E-1,-3.957454562E-1
3.363138243E0,-4.660528526E-2,3.620564938E-1,-4.021370113E-1
3.365626107E0,-4.021370411E-2,3.418164849E-1,-4.074633420E-1
3.368113972E0,-3.169159219E-2,3.290333152E-1,-4.106591344E-1
3.370601836E0,-2.103895694E-2,3.226417303E-1,-4.138549268E-1
3.373089701E0,-8.255792782E-3,3.215764761E-1,-4.159854650E-1
3.375577565E0,5.592633970E-3,3.215764761E-1,-4.149201810E-1
3.378065430E0,1.837579720E-2,3.205111921E-1,-4.149201810E-1
3.380553295E0,3.009369783E-2,3.183806837E-1,-4.106591344E-1
3.383041159E0,3.755054250E-2,3.130543530E-1,-4.021370113E-1
3.385529024E0,3.861580789E-2,3.077280223E-1,-3.893538713E-1
3.388016888E0,3.861580789E-2,3.024017215E-1,-3.701791167E-1
3.390504753E0,3.542001545E-2,3.024017215E-1,-3.446127772E-1
3.392992618E0,3.328948840E-2,3.066627681E-1,-3.137201369E-1
3.395480482E0,3.009369783E-2,3.173153996E-1,-2.775011659E-1
3.397968347E0,2.796317078E-2,3.332943618E-1,-2.402169555E-1
3.400456211E0,2.583264373E-2,3.545996249E-1,-2.018674612E-1
3.402944076E0,2.476738021E-2,3.791007102E-1,-1.645832360E-1
3.405431940E0,2.263685316E-2,4.057323039E-1,-1.272990108E-1
3.407919805E0,2.157158963E-2,4.334291518E-1,-9.321057051E-2
3.410407670E0,1.731053367E-2,4.589954615E-1,-6.338318437E-2
3.412895534E0,1.304947957E-2,4.813660085E-1,-3.675159439E-2
3.415383399E0,7.723161485E-3,4.994754791E-1,-1.651158556E-2
3.417871263E0,1.331579522E-3,5.111933947E-1,5.326318205E-4
3.420359128E0,-3.994738683E-3,5.175849795E-1,1.118526794E-2
3.422846993E0,-8.255792782E-3,5.165197253E-1,1.651158556E-2
3.425334857E0,-1.038632076E-2,5.079975724E-1,1.544632297E-2
3.427822722E0,-9.321057238E-3,4.920186400E-1,9.054740891E-3
3.430310586E0,-7.190529723E-3,4.707133770E-1,-5.326318205E-4
3.432798451E0,-5.060002208E-3,4.440817833E-1,-1.331579592E-2
3.435286315E0,-3.994738683E-3,4.131891429E-1,-2.716422267E-2
3.437774180E0,-3.994738683E-3,3.769701719E-1,-4.207791388E-2
3.440262045E0,-5.060002208E-3,3.396859467E-1,-5.699160323E-2
3.442749909E0,-6.125265732E-3,2.992059290E-1,-7.084003091E-2
3.445237774E0,-8.255792782E-3,2.587259114E-1,-8.255793154E-2
3.447725638E0,-7.190529723E-3,2.193111479E-1,-9.214530140E-2
3.450213503E0,-5.060002208E-3,1.809616536E-1,-9.960214794E-2
3.452701368E0,-7.989477599E-4,1.479384899E-1,-1.070589945E-1
3.455189232E0,2.396843163E-3,1.191763729E-1,-1.134505793E-1
3.457677097E0,3.462106921E-3,9.574057162E-2,-1.198421568E-1
3.460164961E0,2.396843163E-3,8.082687855E-2,-1.251684725E-1
3.462652826E0,-3.994738683E-3,7.230477035E-2,-1.272990108E-1
3.465140690E0,-1.145158429E-2,7.443529367E-2,-1.262337416E-1
3.467628555E0,-2.103895694E-2,8.615319431E-2,-1.209074259E-1
3.470116420E0,-3.062633052E-2,1.053279415E-1,-1.134505793E-1
3.472604284E0,-3.914843872E-2,1.298290044E-1,-1.049284711E-1
3.475092149E0,-4.554001987E-2,1.564605981E-1,-9.640636295E-2
3.477580013E0,-5.193160102E-2,1.841574460E-1,-8.788424730E-2
3.480067878E0,-5.938844755E-2,2.107890397E-1,-7.829687744E-2
3.482555743E0,-6.897582114E-2,2.352901101E-1,-6.551371515E-2
3.485043607E0,-8.175898343E-2,2.597911656E-1,-5.060002208E-2
3.487531472E0,-9.560741484E-2,2.832269669E-1,-3.355580568E-2
3.490019336E0,-1.115863696E-1,3.066627681E-1,-1.438105945E-2
3.492507201E0,-1.296958476E-1,3.290333152E-1,5.858949851E-3
3.494995065E0,-1.456748098E-1,3.514038324E-1,2.503369562E-2
3.497482930E0,-1.616537571E-1,3.727091253E-1,4.527370632E-2
3.499970795E0,-1.744369268E-1,3.929491341E-1,6.338318437E-2
3.502458659E0,-1.882853508E-1,4.089280665E-1,8.042740822E-2
3.504946524E0,-2.000032514E-1,4.217112362E-1,9.747162461E-2
3.507434388E0,-2.127864063E-1,4.281028211E-1,1.123853177E-1
3.509922253E0,-2.234390527E-1,4.270375669E-1,1.272990108E-1
3.512410118E0,-2.351569533E-1,4.185154438E-1,1.422126889E-1
3.514897982E0,-2.436790615E-1,4.025365114E-1,1.539305896E-1
3.517385847E0,-2.532664239E-1,3.812312186E-1,1.635179669E-1
3.519873711E0,-2.617885470E-1,3.556649089E-1,1.688442826E-1
3.522361576E0,-2.692453861E-1,3.279680312E-1,1.699095517E-1
3.524849440E0,-2.756369710E-1,3.002711833E-1,1.656484902E-1
3.527337305E0,-2.830938101E-1,2.747048736E-1,1.571263820E-1
3.529825170E0,-2.894853950E-1,2.512690723E-1,1.454084814E-1
3.532313034E0,-2.969422340E-1,2.320943177E-1,1.315600574E-1
3.534800899E0,-3.012032807E-1,2.171806246E-1,1.187768951E-1
3.537288763E0,-3.054643571E-1,2.075932473E-1,1.038632020E-1
3.539776628E0,-3.086601496E-1,2.033322006E-1,9.001477808E-2
3.542264493E0,-3.118559420E-1,2.012016773E-1,7.616634667E-2
3.544752357E0,-3.150517344E-1,2.012016773E-1,6.125266105E-2
3.547240222E0,-3.203780353E-1,2.033322006E-1,4.846949503E-2
3.549728086E0,-3.289001584E-1,2.075932473E-1,3.462106735E-2
3.552215951E0,-3.384875357E-1,2.129195631E-1,2.077264152E-2
3.554703815E0,-3.480748832E-1,2.193111479E-1,9.054740891E-3
3.557191680E0,-3.576622605E-1,2.257027328E-1,-1.597895520E-3
3.559679545E0,-3.672496378E-1,2.331595868E-1,-7.989477366E-3
3.562167409E0,-3.768370152E-1,2.416816950E-1,-1.225053146E-2
3.564655274E0,-3.874896467E-1,2.502037883E-1,-1.331579592E-2
3.567143138E0,-3.981422782E-1,2.565953732E-1,-9.054740891E-3
3.569631003E0,-4.119907022E-1,2.629869580E-1,-3.728422802E-3
3.572118868E0,-4.269044101E-1,2.672480047E-1,4.793686327E-3
3.574606732E0,-4.418180883E-1,2.704437971E-1,1.331579592E-2
3.577094597E0,-4.567317963E-1,2.715090811E-1,2.290316857E-2
3.579582461E0,-4.716454744E-1,2.715090811E-1,3.249054030E-2
3.582070326E0,-4.865591824E-1,2.725743353E-1,4.207791388E-2
3.584558190E0,-4.993423223E-1,2.747048736E-1,5.060002208E-2
3.587046055E0,-5.121254921E-1,2.768353820E-1,5.805686861E-2
3.589533920E0,-5.238434076E-1,2.789659202E-1,6.338318437E-2
3.592021784E0,-5.344960093E-1,2.821617126E-1,6.551371515E-2
3.594509649E0,-5.430181623E-1,2.832269669E-1,6.657897681E-2
3.596997513E0,-5.494097471E-1,2.821617126E-1,6.444845349E-2
3.599485378E0,-5.547360182E-1,2.800311744E-1,6.018739566E-2
3.601973243E0,-5.579318404E-1,2.768353820E-1,5.379581451E-2
3.604461107E0,-5.589970946E-1,2.725743353E-1,4.633896798E-2
3.606948972E0,-5.600623488E-1,2.661827505E-1,3.781685978E-2
3.609436836E0,-5.589970946E-1,2.576606572E-1,2.716422267E-2
3.611924701E0,-5.568665862E-1,2.459427416E-1,1.544632297E-2
3.614412565E0,-5.526055098E-1,2.288985252E-1,1.597895520E-3
3.616900430E0,-5.472791791E-1,2.097237855E-1,-1.118526794E-2
3.619388295E0,-5.398223400E-1,1.862879843E-1,-2.503369562E-2
3.621876159E0,-5.323655009E-1,1.639174372E-1,-3.781685978E-2
3.624364024E0,-5.238434076E-1,1.426121742E-1,-4.953476042E-2
3.626851888E0,-5.163865685E-1,1.234374270E-1,-6.125266105E-2
3.629339753E0,-5.110602379E-1,1.085237339E-1,-7.190529257E-2
3.631827618E0,-5.057339072E-1,9.787109494E-2,-8.149266988E-2
3.634315482E0,-5.004075766E-1,9.147951752E-2,-9.001477808E-2
3.636803347E0,-4.950812757E-1,8.934898674E-2,-9.853688627E-2
3.639291211E0,-4.876244366E-1,8.934898674E-2,-1.038632020E-1
3.641779076E0,-4.780370593E-1,9.254477918E-2,-1.081242561E-1
3.644266940E0,-4.705802202E-1,9.467530251E-2,-1.091895252E-1
3.646754805E0,-4.620580971E-1,9.787109494E-2,-1.081242561E-1
3.649242670E0,-4.546012580E-1,1.000016257E-1,-1.049284711E-1
3.651730534E0,-4.471444190E-1,1.042626798E-1,-1.027979404E-1
3.654218399E0,-4.396875799E-1,1.074584723E-1,-9.747162461E-2
3.656706263E0,-4.322307110E-1,1.127847880E-1,-9.214530140E-2
3.659194128E0,-4.247738719E-1,1.191763729E-1,-8.681898564E-2
3.661682045E0,-4.151864946E-1,1.287637353E-1,-8.042740822E-2
3.664169961E0,-4.066644013E-1,1.383511126E-1,-7.297056168E-2
3.666657878E0,-3.970770240E-1,1.490037590E-1,-6.551371515E-2
3.669145795E0,-3.864243925E-1,1.575258672E-1,-5.592634156E-2
3.671633711E0,-3.747064769E-1,1.649827063E-1,-4.633896798E-2
3.674121628E0,-3.608580530E-1,1.692437679E-1,-3.675159439E-2
3.676609545E0,-3.459443748E-1,1.713742912E-1,-2.716422267E-2
3.679097461E0,-3.289001584E-1,1.703090221E-1,-1.864211448E-2
3.681585378E0,-3.129211962E-1,1.681784987E-1,-1.012000442E-2
3.684073295E0,-2.948117256E-1,1.639174372E-1,-1.597895520E-3
3.686561211E0,-2.777675092E-1,1.596563905E-1,5.858949851E-3
3.689049128E0,-2.596580088E-1,1.543300748E-1,1.331579592E-2
3.691537045E0,-2.415485233E-1,1.500690132E-1,1.970737800E-2
3.694024961E0,-2.255695760E-1,1.458079666E-1,2.609895915E-2
3.696512878E0,-2.095906287E-1,1.447426975E-1,3.249054030E-2
3.699000795E0,-1.957421899E-1,1.458079666E-1,3.781685978E-2
3.701488711E0,-1.840242893E-1,1.490037590E-1,4.314317927E-2
3.703976628E0,-1.723063886E-1,1.543300748E-1,4.846949503E-2
3.706464545E0,-1.637842804E-1,1.628521830E-1,5.273054913E-2
3.708952461E0,-1.563274413E-1,1.745700836E-1,5.699160323E-2
3.711440378E0,-1.510011256E-1,1.873532385E-1,6.018739566E-2
3.713928295E0,-1.456748098E-1,2.001364082E-1,6.444845349E-2
3.716416211E0,-1.392832249E-1,2.107890397E-1,6.870950758E-2
3.718904128E0,-1.339569092E-1,2.203764170E-1,7.403582335E-2
3.721392045E0,-1.275653243E-1,2.278332561E-1,8.042740822E-2
3.723879961E0,-1.211737394E-1,2.342248410E-1,8.681898564E-2
3.726367878E0,-1.158474237E-1,2.395511568E-1,9.214530140E-2
3.728855795E0,-1.105211005E-1,2.438122183E-1,9.747162461E-2
3.731343711E0,-1.051947847E-1,2.470080107E-1,1.006674170E-1
3.733831628E0,-1.009337306E-1,2.480732650E-1,1.006674170E-1
3.736319493E0,-9.773793817E-2,2.470080107E-1,9.853688627E-2
3.738807357E0,-9.347688407E-2,2.416816950E-1,9.321057051E-2
3.741295222E0,-9.028109163E-2,2.342248410E-1,8.468846232E-2
3.743783086E0,-8.815056831E-2,2.235722095E-1,7.616634667E-2
3.746270951E0,-8.708529919E-2,2.118543088E-1,6.657897681E-2
3.748758815E0,-8.708529919E-2,1.990711391E-1,5.805686861E-2
3.751246680E0,-8.602003753E-2,1.852227151E-1,4.953476042E-2
3.753734545E0,-8.495477587E-2,1.703090221E-1,4.207791388E-2
3.756222409E0,-8.282424510E-2,1.564605981E-1,3.675159439E-2
3.758710274E0,-7.962846011E-2,1.426121742E-1,3.355580568E-2
3.761198138E0,-7.536740601E-2,1.276984811E-1,3.036001325E-2
3.763686003E0,-7.217161357E-2,1.149153188E-1,3.036001325E-2
3.766173868E0,-7.110634446E-2,1.010668874E-1,3.036001325E-2
3.768661732E0,-7.110634446E-2,8.721846342E-2,3.142527863E-2
3.771149597E0,-7.323687524E-2,7.550056279E-2,3.249054030E-2
3.773637461E0,-7.749792933E-2,6.484792382E-2,3.355580568E-2
3.776125326E0,-8.069372177E-2,5.739107728E-2,3.462106735E-2
3.778613190E0,-8.175898343E-2,5.313002318E-2,3.462106735E-2
3.781101055E0,-8.175898343E-2,5.419528857E-2,3.355580568E-2
3.783588920E0,-7.962846011E-2,6.058686972E-2,3.142527863E-2
3.786076784E0,-7.749792933E-2,7.017423958E-2,2.929474972E-2
3.788564649E0,-7.643266767E-2,8.721846342E-2,2.822948620E-2
3.791052513E0,-7.643266767E-2,1.085237339E-1,2.716422267E-2
3.793540378E0,-7.749792933E-2,1.340900660E-1,2.822948620E-2
3.796028243E0,-7.962846011E-2,1.617869139E-1,2.822948620E-2
3.798516107E0,-8.282424510E-2,1.862879843E-1,2.929474972E-2
3.801003972E0,-8.602003753E-2,2.065279931E-1,3.036001325E-2
3.803491836E0,-9.134636074E-2,2.203764170E-1,3.036001325E-2
3.805979701E0,-9.560741484E-2,2.278332561E-1,2.929474972E-2
3.808467565E0,-1.009337306E-1,2.267680019E-1,2.609895915E-2
3.810955430E0,-1.041295230E-1,2.182458937E-1,2.396843210E-2
3.813443295E0,-1.073253155E-1,2.043974549E-1,2.077264152E-2
3.815931159E0,-1.105211005E-1,1.873532385E-1,1.970737800E-2
3.818419024E0,-1.137168929E-1,1.703090221E-1,1.970737800E-2
3.820906888E0,-1.158474237E-1,1.543300748E-1,2.077264152E-2
3.823394753E0,-1.190432087E-1,1.404816359E-1,2.396843210E-2
3.825882618E0,-1.233042628E-1,1.276984811E-1,2.822948620E-2
3.828370482E0,-1.265000552E-1,1.170458421E-1,3.142527863E-2
3.830858347E0,-1.286305785E-1,1.085237339E-1,3.355580568E-2
3.833346211E0,-1.307611167E-1,9.893636405E-2,3.462106735E-2
3.835834076E0,-1.318263710E-1,9.147951752E-2,3.568633273E-2
3.838321940E0,-1.328916401E-1,8.615319431E-2,3.462106735E-2
3.840809805E0,-1.350221634E-1,8.189214021E-2,3.568633273E-2
3.843297670E0,-1.360874325E-1,8.082687855E-2,3.568633273E-2
3.845785534E0,-1.382179558E-1,8.189214021E-2,3.675159439E-2
3.848273399E0,-1.403484792E-1,8.402267098E-2,3.675159439E-2
3.850761263E0,-1.435442716E-1,8.508793265E-2,3.781685978E-2
3.853249128E0,-1.456748098E-1,8.721846342E-2,3.781685978E-2
3.855736993E0,-1.488705873E-1,8.828372508E-2,3.675159439E-2
3.858224857E0,-1.520663798E-1,8.615319431E-2,3.462106735E-2
3.860712722E0,-1.541969180E-1,8.295740932E-2,3.142527863E-2
3.863200586E0,-1.552621722E-1,7.656582445E-2,2.822948620E-2
3.865688451E0,-1.541969180E-1,6.910897791E-2,2.396843210E-2
3.868176315E0,-1.531316489E-1,5.845634267E-2,2.077264152E-2
3.870664180E0,-1.520663798E-1,4.780370742E-2,1.757685095E-2
3.873152045E0,-1.488705873E-1,3.715106845E-2,1.438105945E-2
3.875639909E0,-1.456748098E-1,2.649843320E-2,1.331579592E-2
3.878127774E0,-1.424790174E-1,1.584579609E-2,1.118526794E-2
3.880615638E0,-1.392832249E-1,7.323687430E-3,7.989477366E-3
3.883103503E0,-1.350221634E-1,1.997369342E-3,5.858949851E-3
3.885591368E0,-1.318263710E-1,-1.198421582E-3,2.663159044E-3
3.888079232E0,-1.286305785E-1,-2.263685223E-3,-1.597895520E-3
3.890567097E0,-1.243695319E-1,-1.198421582E-3,-5.858949851E-3
3.893054961E0,-1.201084778E-1,-1.331579551E-4,-1.118526794E-2
3.895542826E0,-1.158474237E-1,1.997369342E-3,-1.757685095E-2
3.898030690E0,-1.094558388E-1,3.062632866E-3,-2.290316857E-2
3.900518555E0,-1.041295230E-1,3.062632866E-3,-2.929474972E-2
3.903006420E0,-9.773793817E-2,3.062632866E-3,-3.568633273E-2
3.905494284E0,-9.028109163E-2,-1.331579551E-4,-3.994738683E-2
3.907982149E0,-8.388951421E-2,-2.263685223E-3,-4.207791388E-2
3.910470013E0,-7.643266767E-2,-5.459476262E-3,-4.314317927E-2
3.912957878E0,-7.004108280E-2,-9.720530361E-3,-4.207791388E-2
3.915445743E0,-6.151897460E-2,-1.291632187E-2,-3.994738683E-2
3.917933607E0,-5.299686641E-2,-1.611211337E-2,-3.675159439E-2
3.920421472E0,-4.447475821E-2,-1.717737690E-2,-3.355580568E-2
3.922909336E0,-3.595264629E-2,-1.717737690E-2,-2.929474972E-2
3.925397201E0,-2.849580161E-2,-1.824264042E-2,-2.716422267E-2
3.927885065E0,-2.103895694E-2,-1.717737690E-2,-2.396843210E-2
3.930372930E0,-1.358211134E-2,-1.504684892E-2,-2.290316857E-2
3.932860795E0,-6.125265732E-3,-1.291632187E-2,-2.290316857E-2
3.935348659E0,1.331579522E-3,-1.078579482E-2,-2.290316857E-2
3.937836524E0,6.657897960E-3,-9.720530361E-3,-2.503369562E-2
3.940324388E0,1.304947957E-2,-8.655266836E-3,-2.822948620E-2
3.942812253E0,1.944106072E-2,-7.590003312E-3,-3.249054030E-2
3.945300118E0,2.583264373E-2,-8.655266836E-3,-3.568633273E-2
3.947787982E0,3.328948840E-2,-9.720530361E-3,-4.101264849E-2
3.950275847E0,3.968106955E-2,-1.185105834E-2,-4.527370632E-2
3.952763711E0,4.500738904E-2,-1.611211337E-2,-4.953476042E-2
3.955251576E0,5.139897019E-2,-1.930790395E-2,-5.379581451E-2
3.957739440E0,5.566002429E-2,-2.250369452E-2,-5.699160323E-2
3.960227305E0,5.992107838E-2,-2.463422157E-2,-6.018739566E-2
3.962715170E0,6.524740160E-2,-2.463422157E-2,-6.231792271E-2
3.965203034E0,6.844318658E-2,-2.356895804E-2,-6.444845349E-2
3.967690899E0,7.270424068E-2,-2.143843099E-2,-6.657897681E-2
3.970178763E0,7.483477145E-2,-1.717737690E-2,-6.657897681E-2
3.972666628E0,7.590003312E-2,-1.291632187E-2,-6.657897681E-2
3.975154493E0,7.590003312E-2,-6.524739787E-3,-6.444845349E-2
3.977642357E0,7.483477145E-2,9.321057005E-4,-6.018739566E-2
3.980130222E0,7.483477145E-2,8.388951421E-3,-5.592634156E-2
3.982618086E0,7.376950979E-2,1.478053257E-2,-4.953476042E-2
3.985105951E0,7.163897902E-2,2.223737910E-2,-4.420844093E-2
3.987593815E0,7.057371736E-2,2.969422378E-2,-3.781685978E-2
3.990081680E0,6.950845569E-2,3.715106845E-2,-3.249054030E-2
3.992569545E0,6.737792492E-2,4.354264960E-2,-2.716422267E-2
3.995057409E0,6.524740160E-2,5.099949613E-2,-2.183790505E-2
3.997545274E0,6.311687082E-2,5.632581562E-2,-1.757685095E-2
4.000033138E0,5.992107838E-2,6.271740049E-2,-1.331579592E-2
4.002521003E0,5.779055133E-2,6.697845459E-2,-9.054740891E-3
4.005008868E0,5.459476262E-2,7.017423958E-2,-6.924213842E-3
4.007496784E0,5.033370852E-2,7.337003201E-2,-3.728422802E-3
4.009984701E0,4.820318148E-2,7.337003201E-2,-1.597895520E-3
4.012472618E0,4.607265070E-2,7.123950869E-2,5.326318205E-4
4.014960534E0,4.394212365E-2,6.804371625E-2,5.326318205E-4
4.017448451E0,4.181159660E-2,6.165213138E-2,-1.597895520E-3
4.019936368E0,4.074633494E-2,5.313002318E-2,-5.858949851E-3
4.022424284E0,4.074633494E-2,4.354264960E-2,-1.012000442E-2
4.024912201E0,4.074633494E-2,3.289001435E-2,-1.544632297E-2
4.027400118E0,3.861580789E-2,2.330264263E-2,-2.077264152E-2
4.029888034E0,3.755054250E-2,1.584579609E-2,-2.503369562E-2
4.032375951E0,3.755054250E-2,8.388951421E-3,-2.929474972E-2
4.034863868E0,3.542001545E-2,3.062632866E-3,-3.142527863E-2
4.037351784E0,3.542001545E-2,9.321057005E-4,-3.355580568E-2
4.039839701E0,3.435475379E-2,-2.263685223E-3,-3.462106735E-2
4.042327618E0,3.328948840E-2,-3.328948980E-3,-3.568633273E-2
4.044815534E0,3.222422674E-2,-4.394212738E-3,-3.568633273E-2
4.047303451E0,3.115896136E-2,-4.394212738E-3,-3.462106735E-2
4.049791368E0,3.009369783E-2,-5.459476262E-3,-3.462106735E-2
4.052279284E0,2.902843431E-2,-6.524739787E-3,-3.462106735E-2
4.054767201E0,2.796317078E-2,-7.590003312E-3,-3.462106735E-2
4.057255118E0,2.689790726E-2,-7.590003312E-3,-3.355580568E-2
4.059743034E0,2.476738021E-2,-7.590003312E-3,-3.355580568E-2
4.062230951E0,2.263685316E-2,-5.459476262E-3,-3.142527863E-2
4.064718868E0,2.050632425E-2,-2.263685223E-3,-2.822948620E-2
4.067206784E0,1.944106072E-2,1.997369342E-3,-2.609895915E-2
4.069694701E0,1.731053367E-2,8.388951421E-3,-2.290316857E-2
4.072182618E0,1.411474310E-2,1.584579609E-2,-1.970737800E-2
4.074670534E0,1.091895252E-2,2.436790615E-2,-1.651158556E-2
4.077158451E0,7.723161485E-3,3.289001435E-2,-1.331579592E-2
4.079646368E0,4.527370445E-3,4.141212255E-2,-1.118526794E-2
4.082134284E0,2.663159103E-4,4.993423447E-2,-7.989477366E-3
4.084622201E0,-3.994738683E-3,5.739107728E-2,-6.924213842E-3
4.087110118E0,-7.190529723E-3,6.484792382E-2,-6.924213842E-3
4.089597982E0,-1.145158429E-2,7.017423958E-2,-6.924213842E-3
4.092085847E0,-1.571263932E-2,7.443529367E-2,-5.858949851E-3
4.094573711E0,-1.890842989E-2,7.869634777E-2,-7.989477366E-3
4.097061576E0,-2.210422046E-2,8.295740932E-2,-7.989477366E-3
4.099549440E0,-2.636527456E-2,8.615319431E-2,-1.012000442E-2
4.102037305E0,-2.956106514E-2,8.934898674E-2,-1.012000442E-2
4.104525170E0,-3.382211924E-2,9.361004084E-2,-1.225053146E-2
4.107013034E0,-3.701791167E-2,9.680583328E-2,-1.225053146E-2
4.109500899E0,-4.127896577E-2,1.000016257E-1,-1.331579592E-2
4.111988763E0,-4.554001987E-2,1.031974182E-1,-1.544632297E-2
4.114476628E0,-5.086633936E-2,1.053279415E-1,-1.757685095E-2
4.116964493E0,-5.406212807E-2,1.074584723E-1,-1.970737800E-2
4.119452357E0,-5.832318589E-2,1.095889956E-1,-2.077264152E-2
4.121940222E0,-6.364950538E-2,1.117195264E-1,-2.183790505E-2
4.124428086E0,-6.791055948E-2,1.138500497E-1,-2.396843210E-2
4.126915951E0,-7.323687524E-2,1.170458421E-1,-2.503369562E-2
4.129403815E0,-7.749792933E-2,1.191763729E-1,-2.609895915E-2
4.131891680E0,-8.069372177E-2,1.202416345E-1,-2.716422267E-2
4.134379545E0,-8.388951421E-2,1.202416345E-1,-2.716422267E-2
4.136867409E0,-8.708529919E-2,1.191763729E-1,-2.822948620E-2
4.139355274E0,-8.815056831E-2,1.181111038E-1,-2.929474972E-2
4.141843138E0,-9.028109163E-2,1.159805804E-1,-2.929474972E-2
4.144331003E0,-9.134636074E-2,1.138500497E-1,-2.929474972E-2
4.146818868E0,-9.241162241E-2,1.138500497E-1,-2.822948620E-2
4.149306732E0,-9.347688407E-2,1.149153188E-1,-2.716422267E-2
4.151794597E0,-9.560741484E-2,1.170458421E-1,-2.503369562E-2
4.154282461E0,-9.560741484E-2,1.181111038E-1,-2.396843210E-2
4.156770326E0,-9.667267650E-2,1.202416345E-1,-2.396843210E-2
4.159258190E0,-9.560741484E-2,1.213068962E-1,-2.396843210E-2
4.161746055E0,-9.667267650E-2,1.234374270E-1,-2.396843210E-2
4.164233920E0,-9.560741484E-2,1.234374270E-1,-2.396843210E-2
4.166721784E0,-9.560741484E-2,1.255679578E-1,-2.503369562E-2
4.169209649E0,-9.560741484E-2,1.276984811E-1,-2.609895915E-2
4.171697513E0,-9.560741484E-2,1.287637353E-1,-2.503369562E-2
4.174185378E0,-9.454214573E-2,1.298290044E-1,-2.503369562E-2
4.176673243E0,-9.560741484E-2,1.319595277E-1,-2.396843210E-2
4.179161107E0,-9.560741484E-2,1.319595277E-1,-2.290316857E-2
4.181648972E0,-9.454214573E-2,1.330247968E-1,-2.183790505E-2
4.184136836E0,-9.347688407E-2,1.330247968E-1,-2.183790505E-2
4.186624701E0,-9.347688407E-2,1.330247968E-1,-2.183790505E-2
4.189112565E0,-9.454214573E-2,1.340900660E-1,-1.970737800E-2
4.191600430E0,-9.347688407E-2,1.330247968E-1,-1.970737800E-2
4.194088295E0,-9.347688407E-2,1.340900660E-1,-1.970737800E-2
4.196576159E0,-9.241162241E-2,1.340900660E-1,-2.077264152E-2
4.199064024E0,-9.028109163E-2,1.351553202E-1,-2.077264152E-2
4.201551888E0,-8.921582997E-2,1.372858584E-1,-2.183790505E-2
4.204039753E0,-8.708529919E-2,1.394163817E-1,-2.290316857E-2
4.206527618E0,-8.602003753E-2,1.426121742E-1,-2.396843210E-2
4.209015482E0,-8.388951421E-2,1.458079666E-1,-2.503369562E-2
4.211503347E0,-8.282424510E-2,1.490037590E-1,-2.503369562E-2
4.213991211E0,-7.962846011E-2,1.500690132E-1,-2.609895915E-2
4.216479076E0,-7.643266767E-2,1.521995366E-1,-2.503369562E-2
4.218966940E0,-7.323687524E-2,1.521995366E-1,-2.503369562E-2
4.221454805E0,-6.897582114E-2,1.511342824E-1,-2.290316857E-2
4.223942670E0,-6.578002870E-2,1.500690132E-1,-2.077264152E-2
4.226430534E0,-6.258423626E-2,1.479384899E-1,-1.864211448E-2
4.228918399E0,-5.725792050E-2,1.479384899E-1,-1.651158556E-2
4.231406263E0,-5.299686641E-2,1.490037590E-1,-1.438105945E-2
4.233894128E0,-4.767054692E-2,1.490037590E-1,-1.118526794E-2
4.236381993E0,-4.127896577E-2,1.511342824E-1,-1.012000442E-2
4.238869857E0,-3.595264629E-2,1.532648057E-1,-9.054740891E-3
4.241357722E0,-3.062633052E-2,1.553953290E-1,-7.989477366E-3
4.243845586E0,-2.636527456E-2,1.575258672E-1,-7.989477366E-3
4.246333451E0,-2.103895694E-2,1.585911214E-1,-7.989477366E-3
4.248821315E0,-1.571263932E-2,1.607216448E-1,-9.054740891E-3
4.251309180E0,-1.145158429E-2,1.617869139E-1,-1.012000442E-2
4.253797045E0,-5.060002208E-3,1.617869139E-1,-1.225053146E-2
4.256284909E0,1.331579522E-3,1.617869139E-1,-1.544632297E-2
4.258772774E0,7.723161485E-3,1.617869139E-1,-1.864211448E-2
4.261260638E0,1.411474310E-2,1.617869139E-1,-2.183790505E-2
4.263748503E0,2.050632425E-2,1.617869139E-1,-2.822948620E-2
4.266236368E0,2.689790726E-2,1.607216448E-1,-3.355580568E-2
4.268724232E0,3.328948840E-2,1.596563905E-1,-4.207791388E-2
4.271212097E0,3.861580789E-2,1.607216448E-1,-4.953476042E-2
4.273699961E0,4.607265070E-2,1.617869139E-1,-5.912213027E-2
4.276187826E0,5.139897019E-2,1.639174372E-1,-6.764423847E-2
4.278675690E0,5.566002429E-2,1.671132296E-1,-7.616634667E-2
4.281163555E0,5.992107838E-2,1.713742912E-1,-8.575372398E-2
4.283651420E0,6.418213248E-2,1.745700836E-1,-9.640636295E-2
4.286139284E0,6.631266326E-2,1.767006069E-1,-1.059937328E-1
4.288627149E0,6.950845569E-2,1.777658761E-1,-1.155811027E-1
4.291115013E0,7.163897902E-2,1.777658761E-1,-1.251684725E-1
4.293602878E0,7.376950979E-2,1.767006069E-1,-1.336905807E-1
4.296090743E0,7.483477145E-2,1.735048145E-1,-1.422126889E-1
4.298578659E0,7.696529478E-2,1.681784987E-1,-1.486042738E-1
4.301066576E0,7.803056389E-2,1.628521830E-1,-1.560611278E-1
4.303554493E0,8.016108721E-2,1.543300748E-1,-1.613874435E-1
4.306042409E0,8.229161799E-2,1.447426975E-1,-1.667137593E-1
4.308530326E0,8.761793375E-2,1.340900660E-1,-1.720400751E-1
4.311018243E0,9.187898785E-2,1.213068962E-1,-1.773663908E-1
4.313506159E0,9.720530361E-2,1.085237339E-1,-1.805621833E-1
4.315994076E0,1.025316268E-1,9.254477918E-2,-1.826927215E-1
4.318481993E0,1.078579426E-1,7.656582445E-2,-1.848232448E-1
4.320969909E0,1.153147891E-1,6.058686972E-2,-1.869537681E-1
4.323457826E0,1.238368973E-1,4.673844203E-2,-1.869537681E-1
4.325945743E0,1.344895363E-1,3.715106845E-2,-1.880190372E-1
4.328433659E0,1.462074369E-1,3.075948730E-2,-1.890842915E-1
4.330921576E0,1.600558609E-1,2.969422378E-2,-1.922800839E-1
4.333409493E0,1.728390306E-1,3.289001435E-2,-1.954758763E-1
4.335897409E0,1.856221855E-1,3.821633384E-2,-1.997369379E-1
4.338385326E0,1.984053552E-1,4.567318037E-2,-2.050632536E-1
4.340873243E0,2.111885101E-1,5.526055023E-2,-2.114548385E-1
4.343361159E0,2.250369489E-1,6.484792382E-2,-2.189116776E-1
4.345849076E0,2.388853729E-1,7.443529367E-2,-2.263685167E-1
4.348336993E0,2.537990510E-1,8.295740932E-2,-2.338253707E-1
4.350824909E0,2.687127590E-1,9.361004084E-2,-2.423474789E-1
4.353312826E0,2.825611830E-1,1.042626798E-1,-2.508696020E-1
4.355800743E0,2.953443527E-1,1.159805804E-1,-2.583264410E-1
4.358288659E0,3.059969842E-1,1.287637353E-1,-2.657832801E-1
4.360776576E0,3.145190775E-1,1.415469050E-1,-2.743053734E-1
4.363264493E0,3.219759464E-1,1.532648057E-1,-2.806969583E-1
4.365752409E0,3.273022473E-1,1.628521830E-1,-2.881538272E-1
4.368240326E0,3.326285779E-1,1.713742912E-1,-2.934801280E-1
4.370728243E0,3.368896246E-1,1.756353378E-1,-2.977411747E-1
4.373216159E0,3.411506712E-1,1.777658761E-1,-2.988064587E-1
4.375704076E0,3.443464637E-1,1.767006069E-1,-2.988064587E-1
4.378191993E0,3.486075401E-1,1.713742912E-1,-2.956106663E-1
4.380679909E0,3.539338410E-1,1.628521830E-1,-2.902843356E-1
4.383167826E0,3.581948876E-1,1.521995366E-1,-2.828274965E-1
4.385655743E0,3.624559641E-1,1.394163817E-1,-2.732401192E-1
4.388143607E0,3.677822649E-1,1.266332120E-1,-2.625874877E-1
4.390631472E0,3.731085956E-1,1.138500497E-1,-2.508696020E-1
4.393119336E0,3.795001805E-1,1.021321490E-1,-2.391516864E-1
4.395607201E0,3.869570196E-1,9.361004084E-2,-2.263685167E-1
4.398095065E0,3.954791129E-1,8.721846342E-2,-2.135853618E-1
4.400582930E0,4.040012360E-1,8.402267098E-2,-2.018674612E-1
4.403070795E0,4.135886133E-1,8.508793265E-2,-1.912148297E-1
4.405558659E0,4.231759906E-1,9.147951752E-2,-1.816274524E-1
4.408046524E0,4.327633679E-1,1.031974182E-1,-1.741705984E-1
4.410534388E0,4.412854612E-1,1.181111038E-1,-1.688442826E-1
4.413022253E0,4.508728385E-1,1.362205893E-1,-1.656484902E-1
4.415510118E0,4.593949318E-1,1.564605981E-1,-1.635179669E-1
4.417997982E0,4.679170549E-1,1.767006069E-1,-1.645832360E-1
4.420485847E0,4.753738940E-1,1.969406158E-1,-1.656484902E-1
4.422973711E0,4.828307331E-1,2.150501013E-1,-1.688442826E-1
4.425461576E0,4.913528562E-1,2.320943177E-1,-1.720400751E-1
4.427949440E0,4.988096952E-1,2.459427416E-1,-1.763011366E-1
4.430437305E0,5.073317885E-1,2.555301189E-1,-1.805621833E-1
4.432925170E0,5.147886276E-1,2.619217038E-1,-1.848232448E-1
4.435413034E0,5.222455263E-1,2.629869580E-1,-1.890842915E-1
4.437900899E0,5.307676196E-1,2.608564198E-1,-1.933453530E-1
4.440388763E0,5.392897129E-1,2.565953732E-1,-1.965411454E-1
4.442876628E0,5.467465520E-1,2.502037883E-1,-2.008021921E-1
4.445364493E0,5.542033911E-1,2.438122183E-1,-2.039979845E-1
4.447852357E0,5.595297217E-1,2.384859025E-1,-2.082590461E-1
4.450340222E0,5.637907982E-1,2.342248410E-1,-2.114548385E-1
4.452828086E0,5.669865608E-1,2.299637944E-1,-2.157158852E-1
4.455315951E0,5.701823831E-1,2.267680019E-1,-2.199769467E-1
4.457803815E0,5.733781457E-1,2.225069404E-1,-2.242379934E-1
4.460291680E0,5.765739679E-1,2.182458937E-1,-2.274337858E-1
4.462779545E0,5.787044764E-1,2.150501013E-1,-2.284990549E-1
4.465267409E0,5.808349848E-1,2.097237855E-1,-2.306295782E-1
4.467755274E0,5.808349848E-1,2.033322006E-1,-2.295643091E-1
4.470243138E0,5.808349848E-1,1.958753467E-1,-2.295643091E-1
4.472731003E0,5.787044764E-1,1.862879843E-1,-2.274337858E-1
4.475218868E0,5.765739679E-1,1.756353378E-1,-2.242379934E-1
4.477706732E0,5.744433999E-1,1.639174372E-1,-2.221074700E-1
4.480194597E0,5.733781457E-1,1.511342824E-1,-2.189116776E-1
4.482682461E0,5.712476373E-1,1.383511126E-1,-2.189116776E-1
4.485170326E0,5.701823831E-1,1.266332120E-1,-2.178464085E-1
4.487658190E0,5.701823831E-1,1.170458421E-1,-2.199769467E-1
4.490146055E0,5.701823831E-1,1.085237339E-1,-2.231727391E-1
4.492633920E0,5.712476373E-1,1.021321490E-1,-2.274337858E-1
4.495121784E0,5.723128915E-1,9.680583328E-2,-2.338253707E-1
4.497609649E0,5.723128915E-1,9.147951752E-2,-2.402169555E-1
4.500097513E0,5.723128915E-1,8.615319431E-2,-2.466085255E-1
4.502585378E0,5.712476373E-1,7.763108611E-2,-2.540653646E-1
4.505073243E0,5.723128915E-1,6.591318548E-2,-2.615222335E-1
4.507561107E0,5.712476373E-1,5.313002318E-2,-2.700443268E-1
4.510048972E0,5.712476373E-1,3.715106845E-2,-2.764359117E-1
4.512536836E0,5.712476373E-1,2.010685205E-2,-2.828274965E-1
4.515024701E0,5.723128915E-1,3.062632866E-3,-2.892190814E-1
4.517512565E0,5.723128915E-1,-1.398158539E-2,-2.934801280E-1
4.520000430E0,5.733781457E-1,-3.102580272E-2,-2.966759205E-1
4.522488295E0,5.744433999E-1,-4.700475931E-2,-2.998717129E-1
4.524976159E0,5.744433999E-1,-6.191844866E-2,-3.009369671E-1
4.527464024E0,5.712476373E-1,-7.470161468E-2,-2.998717129E-1
4.529951888E0,5.669865608E-1,-8.641951531E-2,-2.977411747E-1
4.532439753E0,5.627255440E-1,-9.813741595E-2,-2.934801280E-1
4.534927618E0,5.563339591E-1,-1.066595241E-1,-2.892190814E-1
4.537415482E0,5.488771200E-1,-1.151816323E-1,-2.828274965E-1
4.539903347E0,5.424855351E-1,-1.205079481E-1,-2.753706574E-1
4.542391211E0,5.339633822E-1,-1.258342713E-1,-2.657832801E-1
4.544879076E0,5.233107805E-1,-1.290300637E-1,-2.572611570E-1
4.547366940E0,5.126581192E-1,-1.332911104E-1,-2.476737946E-1
4.549854805E0,4.998749495E-1,-1.364869028E-1,-2.380864173E-1
4.552342670E0,4.881570637E-1,-1.418132186E-1,-2.284990549E-1
4.554830534E0,4.764391780E-1,-1.482048035E-1,-2.178464085E-1
4.557318399E0,4.668518007E-1,-1.545963883E-1,-2.071937770E-1
4.559806263E0,4.583296776E-1,-1.620532274E-1,-1.976063997E-1
4.562294180E0,4.498075843E-1,-1.684448123E-1,-1.880190372E-1
4.564782097E0,4.423507154E-1,-1.748363972E-1,-1.784316599E-1
4.567270013E0,4.359591305E-1,-1.780321896E-1,-1.709748209E-1
4.569757930E0,4.285022914E-1,-1.790974438E-1,-1.635179669E-1
4.572245847E0,4.210454524E-1,-1.790974438E-1,-1.571263820E-1
4.574733763E0,4.125233591E-1,-1.769669205E-1,-1.507348120E-1
4.577221680E0,4.018706977E-1,-1.737711281E-1,-1.464737505E-1
4.579709597E0,3.922833502E-1,-1.705753356E-1,-1.422126889E-1
4.582197513E0,3.805654347E-1,-1.684448123E-1,-1.390169114E-1
4.584685430E0,3.677822649E-1,-1.673795432E-1,-1.368863732E-1
4.587173347E0,3.549990952E-1,-1.695100814E-1,-1.326253265E-1
4.589661263E0,3.411506712E-1,-1.727058738E-1,-1.283642650E-1
4.592149180E0,3.273022473E-1,-1.790974438E-1,-1.230379492E-1
4.594637097E0,3.145190775E-1,-1.844237745E-1,-1.155811027E-1
4.597125013E0,3.017359376E-1,-1.929458827E-1,-1.070589945E-1
4.599612930E0,2.878875136E-1,-2.014679909E-1,-9.747162461E-2
4.602100847E0,2.740390599E-1,-2.121206224E-1,-8.575372398E-2
4.604588763E0,2.601906359E-1,-2.227732539E-1,-7.403582335E-2
4.607076680E0,2.442116886E-1,-2.344911546E-1,-6.018739566E-2
4.609564597E0,2.282327414E-1,-2.483395934E-1,-4.527370632E-2
4.612052513E0,2.111885101E-1,-2.600574791E-1,-2.929474972E-2
4.614540430E0,1.941442937E-1,-2.717753947E-1,-1.438105945E-2
4.617028347E0,1.760348231E-1,-2.834932804E-1,2.663159044E-3
4.619516263E0,1.589905918E-1,-2.952111959E-1,1.970737800E-2
4.622004180E0,1.419463754E-1,-3.069290817E-1,3.568633273E-2
4.624492097E0,1.259674281E-1,-3.186469972E-1,5.273054913E-2
4.626980013E0,1.121189967E-1,-3.292996287E-1,6.764423847E-2
4.629467930E0,9.933583438E-2,-3.388870060E-1,8.149266988E-2
4.631955847E0,8.761793375E-2,-3.452785909E-1,9.534109384E-2
4.634443763E0,7.803056389E-2,-3.474090993E-1,1.059937328E-1
4.636931680E0,6.737792492E-2,-3.452785909E-1,1.177116334E-1
4.639419597E0,5.779055133E-2,-3.388870060E-1,1.294295341E-1
4.641907513E0,4.607265070E-2,-3.292996287E-1,1.390169114E-1
4.644395430E0,3.328948840E-2,-3.175817132E-1,1.486042738E-1
4.646883347E0,1.837579720E-2,-3.047985733E-1,1.592569202E-1
4.649371263E0,3.462106921E-3,-2.930806577E-1,1.699095517E-1
4.651859180E0,-1.358211134E-2,-2.834932804E-1,1.837579757E-1
4.654347097E0,-3.062633052E-2,-2.760364413E-1,1.976063997E-1
4.656835013E0,-4.660528526E-2,-2.707101107E-1,2.125200927E-1
4.659322930E0,-6.258423626E-2,-2.696448565E-1,2.295643091E-1
4.661810795E0,-7.749792933E-2,-2.728406489E-1,2.487390637E-1
4.664298659E0,-9.347688407E-2,-2.781669796E-1,2.679138184E-1
4.666786524E0,-1.083905771E-1,-2.856238186E-1,2.881538272E-1
4.669274388E0,-1.233042628E-1,-2.952111959E-1,3.083938360E-1
4.671762253E0,-1.392832249E-1,-3.047985733E-1,3.265033066E-1
4.674250118E0,-1.541969180E-1,-3.154512048E-1,3.424822688E-1
4.676737982E0,-1.691105962E-1,-3.271690905E-1,3.584612012E-1
4.679225847E0,-1.850895584E-1,-3.388870060E-1,3.723096550E-1
4.681713711E0,-2.000032514E-1,-3.506048918E-1,3.861580789E-1
4.684201576E0,-2.149169445E-1,-3.601922691E-1,3.989412189E-1
4.686689440E0,-2.277000993E-1,-3.665838540E-1,4.106591344E-1
4.689177305E0,-2.394180000E-1,-3.687143922E-1,4.202465117E-1
4.691665170E0,-2.490053773E-1,-3.655185997E-1,4.277033508E-1
4.694153034E0,-2.564622164E-1,-3.591270149E-1,4.330296814E-1
4.696640899E0,-2.617885470E-1,-3.495396376E-1,4.362254739E-1
4.699128763E0,-2.681801319E-1,-3.388870060E-1,4.383559823E-1
4.701616628E0,-2.798980176E-1,-3.292996287E-1,4.404865205E-1
4.704104493E0,-2.958769798E-1,-3.229080439E-1,4.436823130E-1
4.706592357E0,-3.182475269E-1,-3.197122514E-1,4.490086138E-1
4.709080222E0,-3.470096290E-1,-3.186469972E-1,4.564654827E-1
4.711568086E0,-3.800328076E-1,-3.197122514E-1,4.681833684E-1
4.714055951E0,-4.119907022E-1,-3.197122514E-1,4.809665382E-1
4.716543815E0,-4.418180883E-1,-3.186469972E-1,4.969455004E-1
4.719031680E0,-4.684496820E-1,-3.175817132E-1,5.129244328E-1
4.721519545E0,-4.908202291E-1,-3.165164590E-1,5.299686790E-1
4.724007409E0,-5.099949837E-1,-3.154512048E-1,5.480781198E-1
4.726495274E0,-5.291697383E-1,-3.197122514E-1,5.672528744E-1
4.728983138E0,-5.504750013E-1,-3.303648829E-1,5.864276290E-1
4.731471003E0,-5.728455186E-1,-3.474090993E-1,6.077328920E-1
4.733958868E0,-5.973466039E-1,-3.719101548E-1,6.301034689E-1
4.736446732E0,-6.218476295E-1,-4.017375410E-1,6.524739861E-1
4.738934597E0,-6.452834606E-1,-4.336954653E-1,6.748445034E-1
4.741422461E0,-6.644582152E-1,-4.667186439E-1,6.961497664E-1
4.743910326E0,-6.793718934E-1,-4.986765385E-1,7.142592669E-1
4.746398190E0,-6.910898089E-1,-5.285038948E-1,7.270424366E-1
4.748886055E0,-7.017424107E-1,-5.572660565E-1,7.344992757E-1
4.751373920E0,-7.113298178E-1,-5.870934129E-1,7.355645299E-1
4.753861784E0,-7.198519111E-1,-6.179860830E-1,7.313035131E-1
4.756349649E0,-7.283740044E-1,-6.499440074E-1,7.227813601E-1
4.758837513E0,-7.358308434E-1,-6.819018722E-1,7.153245211E-1
4.761325378E0,-7.432876825E-1,-7.095987201E-1,7.099981904E-1
4.763813243E0,-7.518098354E-1,-7.309040427E-1,7.068024278E-1
4.766301107E0,-7.603319287E-1,-7.447524667E-1,7.089329362E-1
4.768788972E0,-7.677887678E-1,-7.479482293E-1,7.131940126E-1
4.771276836E0,-7.752456069E-1,-7.426218987E-1,7.185203433E-1
4.773764701E0,-7.795066833E-1,-7.309040427E-1,7.249119282E-1
4.776252565E0,-7.816371918E-1,-7.159903049E-1,7.313035131E-1
4.778740430E0,-7.827024460E-1,-7.021418810E-1,7.387603521E-1
4.781228295E0,-7.827024460E-1,-6.914892793E-1,7.494129539E-1
4.783716159E0,-7.827024460E-1,-6.861629486E-1,7.632613778E-1
4.786204024E0,-7.858982682E-1,-6.861629486E-1,7.835013866E-1
4.788691888E0,-7.912245989E-1,-6.925545335E-1,8.090677261E-1
4.791179753E0,-7.997466922E-1,-7.032071352E-1,8.399603963E-1
4.793667618E0,-8.103992939E-1,-7.181208730E-1,8.751140833E-1
4.796155482E0,-8.199867010E-1,-7.340998054E-1,9.134635925E-1
4.798643347E0,-8.274435401E-1,-7.500787377E-1,9.518130422E-1
4.801131211E0,-8.338351250E-1,-7.649924755E-1,9.901625514E-1
4.803619076E0,-8.380961418E-1,-7.777756453E-1,1.029577255E0
4.806106993E0,-8.380961418E-1,-7.873629928E-1,1.067926764E0
4.808594909E0,-8.370308876E-1,-7.948198318E-1,1.105211020E0
4.811082826E0,-8.359656334E-1,-7.980156541E-1,1.140364766E0
4.813570743E0,-8.338351250E-1,-7.980156541E-1,1.173387885E0
4.816058659E0,-8.317046165E-1,-7.948198318E-1,1.202149987E0
4.818546576E0,-8.295740485E-1,-7.873629928E-1,1.227716327E0
4.821034493E0,-8.253130317E-1,-7.788408995E-1,1.247956395E0
4.823522409E0,-8.210519552E-1,-7.671229839E-1,1.262870073E0
4.826010326E0,-8.157256246E-1,-7.532745600E-1,1.272457361E0
4.828498243E0,-8.103992939E-1,-7.383608818E-1,1.277783751E0
4.830986159E0,-8.050730228E-1,-7.223818898E-1,1.279914260E0
4.833474076E0,-7.997466922E-1,-7.064029574E-1,1.282044768E0
4.835961993E0,-7.965508699E-1,-6.904240251E-1,1.284175277E0
4.838449909E0,-7.912245989E-1,-6.744450331E-1,1.287371159E0
4.840937826E0,-7.858982682E-1,-6.595313549E-1,1.291632175E0
4.843425743E0,-7.795066833E-1,-6.456829309E-1,1.296958447E0
4.845913659E0,-7.720498443E-1,-6.307692528E-1,1.303350091E0
4.848401576E0,-7.656582594E-1,-6.169208288E-1,1.310806870E0
4.850889493E0,-7.592666745E-1,-6.083986759E-1,1.317198515E0
4.853377409E0,-7.539403439E-1,-6.115944982E-1,1.321459532E0
4.855865326E0,-7.539403439E-1,-6.105292439E-1,1.328916430E0
4.858353243E0,-7.507445216E-1,-6.020070910E-1,1.338503718E0
4.860841159E0,-7.432876825E-1,-5.838976502E-1,1.350221634E0
4.863329076E0,-7.337003350E-1,-5.583313107E-1,1.363004804E0
4.865816993E0,-7.209171653E-1,-5.274386406E-1,1.378983736E0
4.868304909E0,-7.081339955E-1,-4.933502376E-1,1.392832160E0
4.870792826E0,-6.942855716E-1,-4.571312666E-1,1.405615330E0
4.873280743E0,-6.825676560E-1,-4.241080880E-1,1.415202737E0
4.875768659E0,-6.708498001E-1,-3.953459561E-1,1.419463754E0
4.878256576E0,-6.601971388E-1,-3.740406930E-1,1.418398499E0
4.880744493E0,-6.495444775E-1,-3.569964767E-1,1.415202737E0
4.883232409E0,-6.399571300E-1,-3.431480527E-1,1.413072228E0
4.885720326E0,-6.303697824E-1,-3.292996287E-1,1.412006974E0
4.888208243E0,-6.186518669E-1,-3.101248741E-1,1.415202737E0
4.890696159E0,-6.048034430E-1,-2.866890728E-1,1.419463754E0
4.893184076E0,-5.898897648E-1,-2.568616867E-1,1.423724890E0
4.895671993E0,-5.739107728E-1,-2.270343155E-1,1.426920652E0
4.898159909E0,-5.589970946E-1,-2.025332451E-1,1.425855398E0
4.900647826E0,-5.472791791E-1,-1.886848211E-1,1.419463754E0
4.903135743E0,-5.355613232E-1,-1.886848211E-1,1.407745957E0
4.905623659E0,-5.270391703E-1,-2.014679909E-1,1.390701652E0
4.908111576E0,-5.174518228E-1,-2.217079997E-1,1.370461702E0
4.910599493E0,-5.046686530E-1,-2.462090552E-1,1.351286888E0
4.913087409E0,-4.918854833E-1,-2.760364413E-1,1.332112193E0
4.915575326E0,-4.780370593E-1,-3.197122514E-1,1.312937379E0
4.918063243E0,-4.684496820E-1,-3.591270149E-1,1.295893192E0
4.920551107E0,-4.567317963E-1,-3.857586086E-1,1.280979514E0
4.923038972E0,-4.386222959E-1,-4.017375410E-1,1.262870073E0
4.925526836E0,-4.183822870E-1,-4.113249183E-1,1.240499496E0
4.928014701E0,-3.992075622E-1,-4.155859649E-1,1.213867903E0
4.930502565E0,-3.800328076E-1,-4.177165031E-1,1.184040546E0
4.932990430E0,-3.619233072E-1,-4.187817574E-1,1.151017308E0
4.935478295E0,-3.448790908E-1,-4.187817574E-1,1.116928935E0
4.937966159E0,-3.257043660E-1,-4.177165031E-1,1.080709934E0
4.940454024E0,-3.054643571E-1,-4.145207107E-1,1.046621561E0
4.942941888E0,-2.841590643E-1,-4.123901725E-1,1.011467814E0
4.945429753E0,-2.596580088E-1,-4.113249183E-1,9.752488732E-1
4.947917618E0,-2.330264151E-1,-4.123901725E-1,9.358341098E-1
4.950405482E0,-2.085253596E-1,-4.166512489E-1,8.921582699E-1
4.952893347E0,-1.840242893E-1,-4.230428338E-1,8.420909047E-1
4.955381211E0,-1.605884880E-1,-4.304996729E-1,7.866972089E-1
4.957869076E0,-1.382179558E-1,-4.411523044E-1,7.291729450E-1
4.960356940E0,-1.169126853E-1,-4.507396817E-1,6.695181727E-1
4.962844805E0,-9.667267650E-2,-4.592617750E-1,6.098634601E-1
4.965332670E0,-7.749792933E-2,-4.667186439E-1,5.544697046E-1
4.967820534E0,-6.045371294E-2,-4.699144363E-1,5.033370852E-1
4.970308399E0,-4.660528526E-2,-4.709796906E-1,4.564654827E-1
4.972796263E0,-3.595264629E-2,-4.677838981E-1,4.159854650E-1
4.975284128E0,-2.849580161E-2,-4.603270590E-1,3.808317482E-1
4.977771993E0,-2.423474751E-2,-4.486091435E-1,3.552654386E-1
4.980259857E0,-2.210422046E-2,-4.326302111E-1,3.371559381E-1
4.982747722E0,-2.423474751E-2,-4.123901725E-1,3.286338449E-1
4.985235586E0,-2.743053809E-2,-3.889544010E-1,3.286338449E-1
4.987723451E0,-3.382211924E-2,-3.623228073E-1,3.382211924E-1
4.990211315E0,-4.021370411E-2,-3.292996287E-1,3.520696461E-1
4.992699180E0,-4.767054692E-2,-2.920154035E-1,3.701791167E-1
4.995187045E0,-5.619265884E-2,-2.483395934E-1,3.904191256E-1
4.997674909E0,-6.471476704E-2,-2.025332451E-1,4.095938802E-1
5.000162774E0,-7.430213690E-2,-1.556616426E-1,4.298338890E-1
5.002650638E0,-8.282424510E-2,-1.087900475E-1,4.511391521E-1
5.005138503E0,-8.921582997E-2,-6.298371404E-2,4.724444151E-1
5.007626368E0,-9.134636074E-2,-2.356895804E-2,4.926844239E-1
5.010114232E0,-9.028109163E-2,8.388951421E-3,5.107939243E-1
5.012602097E0,-8.602003753E-2,3.075948730E-2,5.235770941E-1
5.015089961E0,-7.856319100E-2,4.354264960E-2,5.278381109E-1
5.017577826E0,-6.897582114E-2,4.993423447E-2,5.214465261E-1
5.020065690E0,-5.619265884E-2,5.206476152E-2,5.054675937E-1
5.022553555E0,-4.127896577E-2,5.419528857E-2,4.799012840E-1
