"Time (s)","Gyroscope x (rad/s)","Gyroscope y (rad/s)","Gyroscope z (rad/s)"
1.048593260E-1,-8.575372398E-2,-2.502037883E-1,-5.206476152E-2
1.074093260E-1,-1.017326787E-1,-2.533995807E-1,-4.886896908E-2
1.099593260E-1,-1.198421568E-1,-2.565953732E-1,-4.780370742E-2
1.125093260E-1,-1.390169114E-1,-2.608564198E-1,-4.673844203E-2
1.150593260E-1,-1.581916511E-1,-2.640522122E-1,-4.460791498E-2
1.176093260E-1,-1.784316599E-1,-2.683132887E-1,-4.247738793E-2
1.201593260E-1,-1.965411454E-1,-2.704437971E-1,-4.141212255E-2
1.227093260E-1,-2.135853618E-1,-2.736395895E-1,-4.034686089E-2
1.252593260E-1,-2.284990549E-1,-2.768353820E-1,-4.034686089E-2
1.278093260E-1,-2.423474789E-1,-2.810964286E-1,-4.034686089E-2
1.303593260E-1,-2.540653646E-1,-2.853575051E-1,-4.141212255E-2
1.329093260E-1,-2.625874877E-1,-2.928143442E-1,-4.247738793E-2
1.354593260E-1,-2.679138184E-1,-3.002711833E-1,-4.247738793E-2
1.380093260E-1,-2.700443268E-1,-3.066627681E-1,-4.460791498E-2
1.405593260E-1,-2.689790726E-1,-3.141196072E-1,-4.567318037E-2
1.431093260E-1,-2.636527419E-1,-3.205111921E-1,-4.673844203E-2
1.456593260E-1,-2.561959028E-1,-3.258375227E-1,-4.673844203E-2
1.482093260E-1,-2.434127480E-1,-3.311638236E-1,-4.673844203E-2
1.507593260E-1,-2.274337858E-1,-3.343596160E-1,-4.673844203E-2
1.533093260E-1,-2.093243003E-1,-3.364901543E-1,-4.673844203E-2
1.558593260E-1,-1.869537681E-1,-3.364901543E-1,-4.460791498E-2
1.584093260E-1,-1.624527127E-1,-3.354249001E-1,-4.354264960E-2
1.609593260E-1,-1.347558498E-1,-3.332943618E-1,-4.141212255E-2
1.635093260E-1,-1.059937328E-1,-3.290333152E-1,-3.821633384E-2
1.660593260E-1,-7.403582335E-2,-3.247722387E-1,-3.608580679E-2
1.686093260E-1,-3.994738683E-2,-3.183806837E-1,-3.289001435E-2
1.711593260E-1,-6.924213842E-3,-3.109238148E-1,-2.862896025E-2
1.737093260E-1,2.609895915E-2,-3.024017215E-1,-2.543316968E-2
1.762593260E-1,5.805686861E-2,-2.928143442E-1,-2.223737910E-2
1.788093260E-1,8.894951642E-2,-2.810964286E-1,-1.797632314E-2
1.813593260E-1,1.187768951E-1,-2.693785429E-1,-1.371526904E-2
1.839093260E-1,1.464737505E-1,-2.565953732E-1,-8.388951421E-3
1.864593260E-1,1.709748209E-1,-2.427469492E-1,-3.062632866E-3
1.890093260E-1,1.944106072E-1,-2.278332561E-1,3.328948980E-3
1.915122950E-1,2.157158852E-1,-2.118543088E-1,9.720530361E-3
1.940000030E-1,2.338253707E-1,-1.958753467E-1,1.717737690E-2
1.964877120E-1,2.487390637E-1,-1.798963994E-1,2.356895804E-2
1.989754200E-1,2.625874877E-1,-1.639174372E-1,3.102580272E-2
2.014631280E-1,2.732401192E-1,-1.500690132E-1,3.848264739E-2
2.039508370E-1,2.828274965E-1,-1.383511126E-1,4.380896688E-2
2.064385450E-1,2.892190814E-1,-1.287637353E-1,5.020054802E-2
2.089262530E-1,2.924148738E-1,-1.213068962E-1,5.339634046E-2
2.114139620E-1,2.945453823E-1,-1.181111038E-1,5.659212917E-2
2.139016700E-1,2.924148738E-1,-1.181111038E-1,5.978792161E-2
2.163893780E-1,2.860232890E-1,-1.213068962E-1,6.085318699E-2
2.188770870E-1,2.775011659E-1,-1.287637353E-1,6.298371404E-2
2.213647950E-1,2.636527419E-1,-1.394163817E-1,6.298371404E-2
2.238525030E-1,2.455432713E-1,-1.543300748E-1,6.298371404E-2
2.263402120E-1,2.242379934E-1,-1.724395454E-1,6.191844866E-2
2.288279200E-1,1.986716688E-1,-1.948100924E-1,6.085318699E-2
2.313156280E-1,1.699095517E-1,-2.193111479E-1,5.978792161E-2
2.338033370E-1,1.368863732E-1,-2.459427416E-1,5.978792161E-2
2.362910450E-1,1.017326787E-1,-2.715090811E-1,5.978792161E-2
2.387787530E-1,6.551371515E-2,-2.981406748E-1,5.978792161E-2
2.412664620E-1,2.929474972E-2,-3.226417303E-1,6.085318699E-2
2.437541700E-1,-7.989477366E-3,-3.460775316E-1,6.298371404E-2
2.462418780E-1,-4.420844093E-2,-3.673827946E-1,6.724476814E-2
2.487295870E-1,-7.936213911E-2,-3.854922652E-1,7.150582224E-2
2.512172950E-1,-1.123853177E-1,-4.004059732E-1,7.683213800E-2
2.537050030E-1,-1.400821656E-1,-4.131891429E-1,8.215846121E-2
2.561927120E-1,-1.645832360E-1,-4.238417745E-1,8.748477697E-2
2.586804200E-1,-1.837579757E-1,-4.302333593E-1,9.174583107E-2
2.611681280E-1,-1.976063997E-1,-4.334291518E-1,9.494162351E-2
2.636558370E-1,-2.071937770E-1,-4.334291518E-1,9.920267761E-2
2.661435450E-1,-2.103895694E-1,-4.312986135E-1,1.013332009E-1
2.686312530E-1,-2.082590461E-1,-4.270375669E-1,1.034637317E-1
2.711189620E-1,-1.997369379E-1,-4.217112362E-1,1.066595241E-1
2.736066700E-1,-1.858884990E-1,-4.142543972E-1,1.098553166E-1
2.760943780E-1,-1.677790284E-1,-4.078628123E-1,1.141163707E-1
2.785820870E-1,-1.475390196E-1,-4.004059732E-1,1.183774248E-1
2.810697950E-1,-1.230379492E-1,-3.918838501E-1,1.237037405E-1
2.835575030E-1,-9.747162461E-2,-3.865575492E-1,1.279647946E-1
2.860452120E-1,-6.870950758E-2,-3.801659644E-1,1.332911104E-1
2.885329200E-1,-3.781685978E-2,-3.759049177E-1,1.386174262E-1
2.910206280E-1,-6.924213842E-3,-3.716438413E-1,1.450090110E-1
2.935083370E-1,2.609895915E-2,-3.695133328E-1,1.492700726E-1
2.959960450E-1,5.912213027E-2,-3.663175404E-1,1.524658650E-1
2.984837530E-1,9.321057051E-2,-3.631217480E-1,1.545963883E-1
3.009714620E-1,1.262337416E-1,-3.599259555E-1,1.567269117E-1
3.034591700E-1,1.592569202E-1,-3.567301631E-1,1.545963883E-1
3.059468780E-1,1.901495606E-1,-3.535343707E-1,1.514005959E-1
3.084345870E-1,2.167811543E-1,-3.492733240E-1,1.471395344E-1
3.109222950E-1,2.402169555E-1,-3.450122476E-1,1.407479644E-1
3.134100030E-1,2.604569495E-1,-3.396859467E-1,1.332911104E-1
3.158977120E-1,2.764359117E-1,-3.364901543E-1,1.247690022E-1
3.183854200E-1,2.870885432E-1,-3.322291076E-1,1.141163707E-1
3.208731280E-1,2.934801280E-1,-3.300985694E-1,1.034637317E-1
3.233608370E-1,2.956106663E-1,-3.279680312E-1,9.281109273E-2
3.258485450E-1,2.945453823E-1,-3.279680312E-1,8.322372288E-2
3.283362530E-1,2.892190814E-1,-3.290333152E-1,7.257108390E-2
3.308239620E-1,2.817622423E-1,-3.311638236E-1,6.298371404E-2
3.333116700E-1,2.711096108E-1,-3.354249001E-1,5.659212917E-2
3.357993780E-1,2.604569495E-1,-3.396859467E-1,5.126581341E-2
3.382870870E-1,2.476737946E-1,-3.450122476E-1,4.913528636E-2
3.407747950E-1,2.338253707E-1,-3.535343707E-1,5.020054802E-2
3.432625030E-1,2.189116776E-1,-3.631217480E-1,5.339634046E-2
3.457502120E-1,2.039979845E-1,-3.748396337E-1,5.978792161E-2
3.482379200E-1,1.880190372E-1,-3.886880577E-1,6.724476814E-2
3.507256280E-1,1.731053442E-1,-4.025365114E-1,7.789740711E-2
3.532133370E-1,1.581916511E-1,-4.163849354E-1,9.068056941E-2
3.557010450E-1,1.454084814E-1,-4.291680753E-1,1.034637317E-1
3.581887530E-1,1.336905807E-1,-4.398207366E-1,1.194426864E-1
3.606764620E-1,1.230379492E-1,-4.494080842E-1,1.343563795E-1
3.631641700E-1,1.123853177E-1,-4.568649530E-1,1.514005959E-1
3.656518780E-1,1.038632020E-1,-4.621912539E-1,1.673795432E-1
3.681395870E-1,9.640636295E-2,-4.653870463E-1,1.833585054E-1
3.706272950E-1,9.108003974E-2,-4.685828388E-1,1.972069293E-1
3.731150030E-1,8.681898564E-2,-4.685828388E-1,2.099900991E-1
3.756027120E-1,8.575372398E-2,-4.664523304E-1,2.206427306E-1
3.780904200E-1,8.681898564E-2,-4.621912539E-1,2.280995846E-1
3.805781280E-1,9.001477808E-2,-4.547344148E-1,2.334259003E-1
3.830658370E-1,9.534109384E-2,-4.440817833E-1,2.366216928E-1
3.855535450E-1,1.017326787E-1,-4.291680753E-1,2.387522161E-1
3.880412530E-1,1.081242561E-1,-4.121238589E-1,2.376869470E-1
3.905289620E-1,1.166463718E-1,-3.918838501E-1,2.366216928E-1
3.930166700E-1,1.251684725E-1,-3.684480488E-1,2.302301079E-1
3.955043780E-1,1.336905807E-1,-3.460775316E-1,2.217079997E-1
3.979920870E-1,1.422126889E-1,-3.226417303E-1,2.110553533E-1
4.004797950E-1,1.507348120E-1,-3.002711833E-1,1.993374527E-1
4.029675030E-1,1.592569202E-1,-2.789659202E-1,1.854890287E-1
4.054552120E-1,1.677790284E-1,-2.587259114E-1,1.705753356E-1
4.079429200E-1,1.752358675E-1,-2.427469492E-1,1.535311192E-1
4.104306280E-1,1.826927215E-1,-2.299637944E-1,1.364869028E-1
4.129183370E-1,1.890842915E-1,-2.214416862E-1,1.183774248E-1
4.154060450E-1,1.944106072E-1,-2.171806246E-1,1.013332009E-1
4.178937530E-1,1.976063997E-1,-2.182458937E-1,8.535424620E-2
4.203814620E-1,1.997369379E-1,-2.235722095E-1,7.150582224E-2
4.228691700E-1,2.018674612E-1,-2.320943177E-1,6.085318699E-2
4.253568780E-1,2.018674612E-1,-2.427469492E-1,5.339634046E-2
4.278445870E-1,2.018674612E-1,-2.544648647E-1,5.020054802E-2
4.303322950E-1,2.018674612E-1,-2.683132887E-1,5.020054802E-2
4.328200030E-1,1.997369379E-1,-2.832269669E-1,5.552686751E-2
4.353077120E-1,1.976063997E-1,-3.002711833E-1,6.191844866E-2
4.377954200E-1,1.933453530E-1,-3.173153996E-1,7.044056058E-2
4.402831280E-1,1.890842915E-1,-3.354249001E-1,8.215846121E-2
4.427708370E-1,1.826927215E-1,-3.535343707E-1,9.707214683E-2
4.452585450E-1,1.763011366E-1,-3.727091253E-1,1.141163707E-1
4.477462530E-1,1.699095517E-1,-3.897533417E-1,1.343563795E-1
4.502339620E-1,1.613874435E-1,-4.067975581E-1,1.588574350E-1
4.527216700E-1,1.549958587E-1,-4.206459820E-1,1.865542978E-1
4.552093780E-1,1.496695429E-1,-4.312986135E-1,2.163816839E-1
4.576970870E-1,1.454084814E-1,-4.398207366E-1,2.472743243E-1
4.601847950E-1,1.443432271E-1,-4.451470375E-1,2.781669796E-1
4.626725030E-1,1.464737505E-1,-4.483428299E-1,3.090596199E-1
4.651602120E-1,1.496695429E-1,-4.483428299E-1,3.378217220E-1
4.676479200E-1,1.560611278E-1,-4.483428299E-1,3.655185997E-1
4.701356280E-1,1.656484902E-1,-4.483428299E-1,3.900196552E-1
4.726233370E-1,1.784316599E-1,-4.494080842E-1,4.113249183E-1
4.751110450E-1,1.933453530E-1,-4.483428299E-1,4.273038805E-1
4.775987530E-1,2.114548385E-1,-4.462123215E-1,4.390217662E-1
4.800864620E-1,2.295643091E-1,-4.451470375E-1,4.454133511E-1
4.825741700E-1,2.487390637E-1,-4.451470375E-1,4.464786351E-1
4.850618780E-1,2.689790726E-1,-4.504733682E-1,4.411523044E-1
4.875495870E-1,2.902843356E-1,-4.611259997E-1,4.294344187E-1
4.900372950E-1,3.126548827E-1,-4.792354703E-1,4.102596641E-1
4.925250030E-1,3.371559381E-1,-5.026713014E-1,3.836280704E-1
4.950127120E-1,3.637875319E-1,-5.303681493E-1,3.516701460E-1
4.975004200E-1,3.914843798E-1,-5.601955056E-1,3.133206666E-1
4.999881280E-1,4.223770201E-1,-5.900229216E-1,2.707101107E-1
5.024758370E-1,4.532696903E-1,-6.198502779E-1,2.227732539E-1
5.049635450E-1,4.862928391E-1,-6.507429481E-1,1.695100814E-1
5.074512530E-1,5.182507634E-1,-6.795050502E-1,1.130511016E-1
5.099389620E-1,5.491434336E-1,-7.050713897E-1,5.446160212E-2
5.124266700E-1,5.789707899E-1,-7.295724154E-1,-3.062632866E-3
5.149143780E-1,6.077328920E-1,-7.519429922E-1,-5.632581562E-2
5.174020870E-1,6.375603080E-1,-7.700524330E-1,-9.893636405E-2
5.198897950E-1,6.663224101E-1,-7.828356028E-1,-1.276984811E-1
5.223775030E-1,6.972150803E-1,-7.881619334E-1,-1.404816359E-1
5.248652120E-1,7.281076908E-1,-7.849661708E-1,-1.372858584E-1
5.273529200E-1,7.600656152E-1,-7.721830010E-1,-1.181111038E-1
5.298406280E-1,7.930887938E-1,-7.508777380E-1,-8.615319431E-2
5.323283370E-1,8.250467181E-1,-7.199850678E-1,-4.460791498E-2
5.348160450E-1,8.538088202E-1,-6.827008128E-1,4.394212738E-3
5.373037530E-1,8.783098459E-1,-6.400902867E-1,5.552686751E-2
5.397914620E-1,8.996151686E-1,-5.932186842E-1,1.077247858E-1
5.422791700E-1,9.155941010E-1,-5.452818274E-1,1.588574350E-1
5.447668780E-1,9.251814485E-1,-4.973449707E-1,2.078595608E-1
5.472545870E-1,9.273120165E-1,-4.472775757E-1,2.536658943E-1
5.497422950E-1,9.198551774E-1,-3.993407190E-1,2.952111959E-1
5.522300030E-1,9.028109312E-1,-3.535343707E-1,3.324954212E-1
5.547177120E-1,8.783098459E-1,-3.119890988E-1,3.665838540E-1
5.572054200E-1,8.442214131E-1,-2.768353820E-1,3.964112401E-1
5.596931280E-1,8.037413955E-1,-2.480732650E-1,4.209122956E-1
5.621808370E-1,7.568697929E-1,-2.278332561E-1,4.400870502E-1
5.646685450E-1,7.057371736E-1,-2.150501013E-1,4.539354742E-1
5.671562530E-1,6.514087319E-1,-2.107890397E-1,4.613923132E-1
5.696439620E-1,5.928192139E-1,-2.150501013E-1,4.603270590E-1
5.721316700E-1,5.331644416E-1,-2.257027328E-1,4.528702199E-1
5.746193780E-1,4.692486227E-1,-2.459427416E-1,4.390217662E-1
5.771070870E-1,4.063980877E-1,-2.725743353E-1,4.198470414E-1
5.795947950E-1,3.446127772E-1,-3.045322299E-1,3.942807019E-1
5.820825030E-1,2.860232890E-1,-3.428817391E-1,3.633880615E-1
5.845702120E-1,2.338253707E-1,-3.833617568E-1,3.250385821E-1
5.870579200E-1,1.880190372E-1,-4.249070287E-1,2.813627720E-1
5.895456280E-1,1.507348120E-1,-4.632565379E-1,2.344911546E-1
5.920333370E-1,1.230379492E-1,-4.994754791E-1,1.833585054E-1
5.945210450E-1,1.038632020E-1,-5.293028951E-1,1.300953180E-1
5.970087530E-1,9.427583218E-2,-5.548691750E-1,7.896266878E-2
5.994964620E-1,9.321057051E-2,-5.729786754E-1,3.315633163E-2
6.019841700E-1,1.017326787E-1,-5.857618451E-1,-8.388951421E-3
6.044718780E-1,1.187768951E-1,-5.910881758E-1,-4.034686089E-2
6.069595870E-1,1.432779580E-1,-5.910881758E-1,-6.271740049E-2
6.094472950E-1,1.763011366E-1,-5.836313367E-1,-7.230477035E-2
6.119350030E-1,2.157158852E-1,-5.708481669E-1,-7.337003201E-2
6.144227120E-1,2.615222335E-1,-5.538039207E-1,-6.484792382E-2
6.169104200E-1,3.115896285E-1,-5.303681493E-1,-4.780370742E-2
6.193981280E-1,3.627222776E-1,-5.026713014E-1,-2.117211558E-2
6.218858370E-1,4.127896726E-1,-4.696480930E-1,1.398158539E-2
6.243735450E-1,4.617917836E-1,-4.334291518E-1,5.872265995E-2
6.268612530E-1,5.065328479E-1,-3.940143883E-1,1.119858399E-1
6.293489620E-1,5.438171029E-1,-3.514038324E-1,1.748363972E-1
6.318366700E-1,5.757750273E-1,-3.087933064E-1,2.440785319E-1
6.343243780E-1,6.002760530E-1,-2.683132887E-1,3.154512048E-1
6.368120870E-1,6.183855534E-1,-2.310290486E-1,3.868238628E-1
6.392997950E-1,6.301034689E-1,-2.001364082E-1,4.518049359E-1
6.417875030E-1,6.375603080E-1,-1.777658761E-1,5.114597082E-1
6.442752120E-1,6.428865790E-1,-1.639174372E-1,5.636576414E-1
6.467629200E-1,6.450171471E-1,-1.553953290E-1,6.041376591E-1
6.492506280E-1,6.428865790E-1,-1.500690132E-1,6.350302696E-1
6.517383370E-1,6.354297400E-1,-1.490037590E-1,6.542050242E-1
6.542260450E-1,6.215813160E-1,-1.511342824E-1,6.637924314E-1
6.567137530E-1,6.034718752E-1,-1.596563905E-1,6.637924314E-1
6.592014620E-1,5.800360441E-1,-1.724395454E-1,6.563355327E-1
6.616891700E-1,5.523391962E-1,-1.916143000E-1,6.424871087E-1
6.641768780E-1,5.193160176E-1,-2.139848322E-1,6.201165915E-1
6.666645870E-1,4.809665382E-1,-2.395511568E-1,5.934849977E-1
6.691522950E-1,4.394212663E-1,-2.661827505E-1,5.604618192E-1
6.716400030E-1,3.957454562E-1,-2.938795984E-1,5.231776237E-1
6.741277120E-1,3.478085697E-1,-3.237069845E-1,4.826975763E-1
6.766154200E-1,2.988064587E-1,-3.514038324E-1,4.390217662E-1
6.791031280E-1,2.466085255E-1,-3.769701719E-1,3.932154477E-1
6.815908370E-1,1.933453530E-1,-4.004059732E-1,3.463438451E-1
6.840785450E-1,1.411474347E-1,-4.206459820E-1,2.984069884E-1
6.865662530E-1,9.001477808E-2,-4.366249442E-1,2.494048476E-1
6.890539620E-1,4.101264849E-2,-4.472775757E-1,2.004027218E-1
6.915416700E-1,-3.728422802E-3,-4.547344148E-1,1.545963883E-1
6.940293780E-1,-4.420844093E-2,-4.568649530E-1,1.130511016E-1
6.965170870E-1,-7.936213911E-2,-4.547344148E-1,7.789740711E-2
6.990047950E-1,-1.091895252E-1,-4.472775757E-1,4.913528636E-2
7.014925030E-1,-1.315600574E-1,-4.355596602E-1,2.996053919E-2
7.039802120E-1,-1.475390196E-1,-4.163849354E-1,2.250369452E-2
7.064679200E-1,-1.539305896E-1,-3.908185959E-1,3.102580272E-2
7.089556280E-1,-1.507348120E-1,-3.567301631E-1,6.085318699E-2
7.114433370E-1,-1.358211190E-1,-3.141196072E-1,1.098553166E-1
7.139310450E-1,-1.091895252E-1,-2.619217038E-1,1.769669205E-1
7.164187530E-1,-7.190529257E-2,-2.001364082E-1,2.589922249E-1
7.189064620E-1,-2.503369562E-2,-1.319595277E-1,3.474090993E-1
7.213941700E-1,2.716422267E-2,-5.952160433E-2,4.358259737E-1
7.238818780E-1,8.149266988E-2,1.398158539E-2,5.189165473E-1
7.263695870E-1,1.368863732E-1,8.855003864E-2,5.945502520E-1
7.288572950E-1,1.890842915E-1,1.599227041E-1,6.584661007E-1
7.313450030E-1,2.359558940E-1,2.270343155E-1,7.117292881E-1
7.338327120E-1,2.764359117E-1,2.898848653E-1,7.511440516E-1
7.363204200E-1,3.073285520E-1,3.463438451E-1,7.799061537E-1
7.388081280E-1,3.265033066E-1,3.921501637E-1,7.958850861E-1
7.412958370E-1,3.350254297E-1,4.283691347E-1,8.033419251E-1
7.437835450E-1,3.318296373E-1,4.486091435E-1,8.012114167E-1
7.462712530E-1,3.179811835E-1,4.528702199E-1,7.905587554E-1
7.487589620E-1,2.945453823E-1,4.422175586E-1,7.713840604E-1
7.512466700E-1,2.625874877E-1,4.166512489E-1,7.447524667E-1
7.537343780E-1,2.231727391E-1,3.772364855E-1,7.127945423E-1
7.562220870E-1,1.794969290E-1,3.250385821E-1,6.733797789E-1
7.587097950E-1,1.336905807E-1,2.621880174E-1,6.286386847E-1
7.611975030E-1,8.681898564E-2,1.897500902E-1,5.807018280E-1
7.636852120E-1,4.101264849E-2,1.130511016E-1,5.274386406E-1
7.661729200E-1,-1.597895520E-3,3.422159329E-2,4.720449448E-1
7.686606280E-1,-3.994738683E-2,-4.247738793E-2,4.145207107E-1
7.711483370E-1,-7.403582335E-2,-1.138500497E-1,3.569964767E-1
7.736360450E-1,-1.017326787E-1,-1.788311303E-1,2.973417044E-1
7.761237530E-1,-1.251684725E-1,-2.352901101E-1,2.376869470E-1
7.786114620E-1,-1.432779580E-1,-2.832269669E-1,1.780321896E-1
7.810991700E-1,-1.560611278E-1,-3.215764761E-1,1.194426864E-1
7.835868780E-1,-1.645832360E-1,-3.492733240E-1,6.511423737E-2
7.860745870E-1,-1.667137593E-1,-3.641870022E-1,2.250369452E-2
7.885622950E-1,-1.635179669E-1,-3.663175404E-1,-6.258423906E-3
7.910500030E-1,-1.539305896E-1,-3.556649089E-1,-1.158474199E-2
7.935377120E-1,-1.358211190E-1,-3.311638236E-1,8.655266836E-3
7.960254200E-1,-1.102547869E-1,-2.917490900E-1,5.659212917E-2
7.985131280E-1,-7.616634667E-2,-2.384859025E-1,1.300953180E-1
8.010008370E-1,-3.355580568E-2,-1.735048145E-1,2.238385230E-1
8.034885450E-1,1.864211448E-2,-1.000016257E-1,3.292996287E-1
8.059762530E-1,7.723161578E-2,-2.543316968E-2,4.400870502E-1
8.084639620E-1,1.443432271E-1,4.274370521E-2,5.466133952E-1
8.109516700E-1,2.199769467E-1,1.098553166E-1,6.435524225E-1
8.134393780E-1,2.998717129E-1,1.727058738E-1,7.277082205E-1
8.159270870E-1,3.787012100E-1,2.238385230E-1,7.958850861E-1
8.184147950E-1,4.532696903E-1,2.632532716E-1,8.459525108E-1
8.209025030E-1,5.214465261E-1,2.930806577E-1,8.779103756E-1
8.233902120E-1,5.789707899E-1,3.111901283E-1,8.917587996E-1
8.258779200E-1,6.258423924E-1,3.175817132E-1,8.906935453E-1
8.283656280E-1,6.631265879E-1,3.143859208E-1,8.779103756E-1
8.308533370E-1,6.897581816E-1,3.005374968E-1,8.555398583E-1
8.333410450E-1,7.057371736E-1,2.792322338E-1,8.257125020E-1
8.358287530E-1,7.099981904E-1,2.504701018E-1,7.905587554E-1
8.383164620E-1,7.057371736E-1,2.142511457E-1,7.500787377E-1
8.408041700E-1,6.908234954E-1,1.748363972E-1,7.074682117E-1
8.432918780E-1,6.663224101E-1,1.322258562E-1,6.648576856E-1
8.457795870E-1,6.354297400E-1,8.961530030E-2,6.233124137E-1
8.482672950E-1,5.960150361E-1,4.913528636E-2,5.828323960E-1
8.507550030E-1,5.512739420E-1,1.185105834E-2,5.423523784E-1
8.532427120E-1,4.990760088E-1,-2.223737910E-2,5.071986318E-1
8.557304200E-1,4.394212663E-1,-5.099949613E-2,4.731102288E-1
8.582181280E-1,3.723096550E-1,-7.656582445E-2,4.422175586E-1
8.607058370E-1,2.966759205E-1,-9.893636405E-2,4.155859649E-1
8.631935450E-1,2.146506310E-1,-1.213068962E-1,3.964112401E-1
8.656812530E-1,1.262337416E-1,-1.436774284E-1,3.846933246E-1
8.681689620E-1,3.568633273E-2,-1.660479754E-1,3.825628161E-1
8.706566700E-1,-5.379581451E-2,-1.873532385E-1,3.921501637E-1
8.731443780E-1,-1.411474347E-1,-2.054627240E-1,4.134554565E-1
8.756320870E-1,-2.221074700E-1,-2.182458937E-1,4.464786351E-1
8.781197950E-1,-2.956106663E-1,-2.225069404E-1,4.890891612E-1
8.806075030E-1,-3.605917394E-1,-2.182458937E-1,5.380913019E-1
8.830952120E-1,-4.149201810E-1,-2.054627240E-1,5.892239809E-1
8.855829200E-1,-4.607265294E-1,-1.852227151E-1,6.382260919E-1
8.880706280E-1,-4.958802164E-1,-1.596563905E-1,6.819018722E-1
8.905583370E-1,-5.203812718E-1,-1.340900660E-1,7.191861272E-1
8.930460450E-1,-5.352949500E-1,-1.085237339E-1,7.458177209E-1
8.955337530E-1,-5.406212807E-1,-8.721846342E-2,7.628619075E-1
8.980214620E-1,-5.363602638E-1,-7.337003201E-2,7.703187466E-1
9.005091700E-1,-5.214465261E-1,-6.697845459E-2,7.681882381E-1
9.029968780E-1,-4.958802164E-1,-6.484792382E-2,7.564703226E-1
9.054845870E-1,-4.617917836E-1,-7.017423958E-2,7.362303138E-1
9.079722950E-1,-4.213117659E-1,-7.976161689E-2,7.085334659E-1
9.104600030E-1,-3.744401634E-1,-9.361004084E-2,6.733797789E-1
9.129477120E-1,-3.233075142E-1,-1.095889956E-1,6.339650154E-1
9.154354200E-1,-2.689790726E-1,-1.287637353E-1,5.913544893E-1
9.179231280E-1,-2.135853618E-1,-1.490037590E-1,5.476786494E-1
9.204108370E-1,-1.581916511E-1,-1.713742912E-1,5.050681233E-1
9.228985450E-1,-1.038632020E-1,-1.980058849E-1,4.603270590E-1
9.253862530E-1,-5.060002208E-2,-2.235722095E-1,4.155859649E-1
9.278739620E-1,5.326318205E-4,-2.502037883E-1,3.708449006E-1
9.303616700E-1,4.740423337E-2,-2.725743353E-1,3.261038363E-1
9.328493780E-1,9.108003974E-2,-2.906838059E-1,2.845585644E-1
9.353370870E-1,1.283642650E-1,-3.024017215E-1,2.462090552E-1
9.378247950E-1,1.571263820E-1,-3.077280223E-1,2.142511457E-1
9.403125030E-1,1.784316599E-1,-3.066627681E-1,1.886848211E-1
9.428002120E-1,1.912148297E-1,-3.002711833E-1,1.716406047E-1
9.452879200E-1,1.944106072E-1,-2.874880135E-1,1.641837656E-1
9.477756280E-1,1.890842915E-1,-2.715090811E-1,1.663142890E-1
9.502633370E-1,1.794969290E-1,-2.523343265E-1,1.780321896E-1
9.527510450E-1,1.645832360E-1,-2.331595868E-1,1.993374527E-1
9.552387530E-1,1.464737505E-1,-2.107890397E-1,2.270343155E-1
9.577264620E-1,1.262337416E-1,-1.873532385E-1,2.589922249E-1
9.602141700E-1,1.059937328E-1,-1.607216448E-1,2.952111959E-1
9.627018780E-1,8.468846232E-2,-1.319595277E-1,3.324954212E-1
9.651895870E-1,6.338318437E-2,-1.031974182E-1,3.687143922E-1
9.676772950E-1,3.994738683E-2,-7.869634777E-2,4.028028250E-1
9.701650030E-1,1.331579592E-2,-5.952160433E-2,4.304996729E-1
9.726527120E-1,-1.438105945E-2,-4.780370742E-2,4.528702199E-1
9.751404200E-1,-4.207791388E-2,-4.460791498E-2,4.677838981E-1
9.776281280E-1,-7.084003091E-2,-4.993423447E-2,4.752407372E-1
9.801158370E-1,-9.747162461E-2,-6.484792382E-2,4.752407372E-1
9.826035450E-1,-1.198421568E-1,-8.615319431E-2,4.677838981E-1
9.850912530E-1,-1.379516423E-1,-1.117195264E-1,4.518049359E-1
9.875789620E-1,-1.475390196E-1,-1.404816359E-1,4.294344187E-1
9.900666700E-1,-1.475390196E-1,-1.681784987E-1,4.006722867E-1
9.925543780E-1,-1.379516423E-1,-1.926795542E-1,3.655185997E-1
9.950420870E-1,-1.198421568E-1,-2.118543088E-1,3.239732981E-1
9.975297950E-1,-9.001477808E-2,-2.225069404E-1,2.792322338E-1
1.000017503E0,-4.846949503E-2,-2.235722095E-1,2.302301079E-1
1.002505212E0,1.597895520E-3,-2.161153555E-1,1.790974438E-1
1.004992920E0,5.912213027E-2,-1.990711391E-1,1.268995255E-1
1.007480628E0,1.209074259E-1,-1.735048145E-1,7.683213800E-2
1.009968337E0,1.858884990E-1,-1.394163817E-1,2.889527567E-2
1.012456045E0,2.508696020E-1,-9.787109494E-2,-1.265000552E-2
1.014943753E0,3.126548827E-1,-4.993423447E-2,-4.673844203E-2
1.017431462E0,3.712443709E-1,1.198421582E-3,-7.443529367E-2
1.019919170E0,4.234423041E-1,5.552686751E-2,-9.361004084E-2
1.022406878E0,4.671181142E-1,1.119858399E-1,-1.042626798E-1
1.024894587E0,5.022718310E-1,1.695100814E-1,-1.085237339E-1
1.027382295E0,5.278381109E-1,2.259690464E-1,-1.085237339E-1
1.029870003E0,5.395560265E-1,2.813627720E-1,-1.021321490E-1
1.032357712E0,5.406212807E-1,3.314301372E-1,-9.041424841E-2
1.034845420E0,5.310339332E-1,3.751059473E-1,-7.656582445E-2
1.037333128E0,5.097286701E-1,4.102596641E-1,-6.165213138E-2
1.039820837E0,4.799012840E-1,4.336954653E-1,-4.673844203E-2
1.042308545E0,4.426170290E-1,4.443480968E-1,-3.502054140E-2
1.044796253E0,4.000065029E-1,4.411523044E-1,-2.543316968E-2
1.047283962E0,3.520696461E-1,4.273038805E-1,-2.010685205E-2
1.049771670E0,3.020022511E-1,4.038680792E-1,-1.797632314E-2
1.052259378E0,2.498043180E-1,3.740406930E-1,-1.691105962E-2
1.054747087E0,1.965411454E-1,3.388870060E-1,-1.691105962E-2
1.057234795E0,1.443432271E-1,2.994722426E-1,-1.797632314E-2
1.059722503E0,9.534109384E-2,2.568616867E-1,-1.904158667E-2
1.062210212E0,5.273054913E-2,2.110553533E-1,-2.117211558E-2
1.064697920E0,1.864211448E-2,1.631184965E-1,-2.649843320E-2
1.067185628E0,-6.924213842E-3,1.151816323E-1,-3.395527974E-2
1.069673337E0,-2.077264152E-2,6.831002980E-2,-4.460791498E-2
1.072161045E0,-2.609895915E-2,2.569948509E-2,-5.632581562E-2
1.074648753E0,-2.077264152E-2,-1.371526904E-2,-6.804371625E-2
1.077136462E0,-1.012000442E-2,-4.780370742E-2,-8.189214021E-2
1.079624170E0,7.989477366E-3,-7.656582445E-2,-9.467530251E-2
1.082111878E0,3.036001325E-2,-1.000016257E-1,-1.063932031E-1
1.084599587E0,5.592634156E-2,-1.149153188E-1,-1.191763729E-1
1.087087295E0,8.255793154E-2,-1.213068962E-1,-1.319595277E-1
1.089575003E0,1.091895252E-1,-1.202416345E-1,-1.404816359E-1
1.092062712E0,1.368863732E-1,-1.117195264E-1,-1.479384899E-1
1.094550420E0,1.656484902E-1,-9.680583328E-2,-1.532648057E-1
1.097038128E0,1.954758763E-1,-7.763108611E-2,-1.553953290E-1
1.099525837E0,2.253032625E-1,-5.526055023E-2,-1.553953290E-1
1.102013545E0,2.561959028E-1,-2.969422378E-2,-1.553953290E-1
1.104501253E0,2.870885432E-1,-9.321057005E-4,-1.521995366E-1
1.106988962E0,3.169159293E-1,2.889527567E-2,-1.458079666E-1
1.109476670E0,3.446127772E-1,6.085318699E-2,-1.394163817E-1
1.111964378E0,3.712443709E-1,9.387636185E-2,-1.276984811E-1
1.114452087E0,3.946801722E-1,1.258342713E-1,-1.138500497E-1
1.116939795E0,4.159854650E-1,1.588574350E-1,-9.680583328E-2
1.119427503E0,4.340949357E-1,1.897500902E-1,-7.656582445E-2
1.121915212E0,4.479433596E-1,2.163816839E-1,-5.739107728E-2
1.124402920E0,4.564654827E-1,2.366216928E-1,-3.928159550E-2
1.126890628E0,4.596612751E-1,2.504701018E-1,-2.330264263E-2
1.129378337E0,4.554001987E-1,2.600574791E-1,-1.051947847E-2
1.131866045E0,4.447475672E-1,2.664490640E-1,1.198421582E-3
1.134353753E0,4.287686050E-1,2.707101107E-1,1.185105834E-2
1.136841462E0,4.085285962E-1,2.717753947E-1,2.250369452E-2
1.139329170E0,3.850927949E-1,2.707101107E-1,3.102580272E-2
1.141816878E0,3.595264852E-1,2.653838098E-1,3.848264739E-2
1.144304587E0,3.339601457E-1,2.547311783E-1,4.274370521E-2
1.146792295E0,3.094590902E-1,2.387522161E-1,4.487423226E-2
1.149280003E0,2.881538272E-1,2.153164148E-1,4.380896688E-2
1.151767712E0,2.711096108E-1,1.886848211E-1,3.848264739E-2
1.154255420E0,2.583264410E-1,1.588574350E-1,2.996053919E-2
1.156743128E0,2.487390637E-1,1.300953180E-1,1.824264042E-2
1.159230837E0,2.434127480E-1,1.034637317E-1,5.459476262E-3
1.161718545E0,2.444780022E-1,7.896266878E-2,-6.258423906E-3
1.164206253E0,2.498043180E-1,5.978792161E-2,-2.010685205E-2
1.166693962E0,2.572611570E-1,4.807002097E-2,-3.289001435E-2
1.169181670E0,2.700443268E-1,4.593949392E-2,-4.460791498E-2
1.171669378E0,2.860232890E-1,5.339634046E-2,-5.313002318E-2
1.174157087E0,3.041327596E-1,7.044056058E-2,-5.952160433E-2
1.176644795E0,3.233075142E-1,9.707214683E-2,-6.271740049E-2
1.179132503E0,3.446127772E-1,1.332911104E-1,-6.271740049E-2
1.181620212E0,3.659180701E-1,1.737711281E-1,-6.165213138E-2
1.184107920E0,3.861580789E-1,2.195774615E-1,-5.739107728E-2
1.186595628E0,4.053328037E-1,2.653838098E-1,-5.419528857E-2
1.189083337E0,4.191812575E-1,3.122554123E-1,-4.993423447E-2
1.191571045E0,4.277033508E-1,3.569964767E-1,-4.673844203E-2
1.194058753E0,4.298338890E-1,3.974764943E-1,-4.567318037E-2
1.196546462E0,4.234423041E-1,4.283691347E-1,-4.460791498E-2
1.199034170E0,4.095938802E-1,4.486091435E-1,-4.673844203E-2
1.201521878E0,3.893538713E-1,4.550007284E-1,-5.419528857E-2
1.204009587E0,3.659180701E-1,4.464786351E-1,-6.591318548E-2
1.206497295E0,3.414169848E-1,4.262386262E-1,-8.189214021E-2
1.208985003E0,3.190464675E-1,4.006722867E-1,-1.021321490E-1
1.211472712E0,2.988064587E-1,3.687143922E-1,-1.213068962E-1
1.213960420E0,2.817622423E-1,3.346259296E-1,-1.383511126E-1
1.216448128E0,2.679138184E-1,2.952111959E-1,-1.521995366E-1
1.218935837E0,2.583264410E-1,2.504701018E-1,-1.617869139E-1
1.221423545E0,2.530001104E-1,2.004027218E-1,-1.681784987E-1
1.223911253E0,2.540653646E-1,1.482048035E-1,-1.703090221E-1
1.226398962E0,2.604569495E-1,9.494162351E-2,-1.703090221E-1
1.228886670E0,2.732401192E-1,4.487423226E-2,-1.660479754E-1
1.231374378E0,2.913496196E-1,-4.127896391E-3,-1.607216448E-1
1.233862087E0,3.126548827E-1,-4.780370742E-2,-1.521995366E-1
1.236349795E0,3.382211924E-1,-8.508793265E-2,-1.415469050E-1
1.238837503E0,3.648527861E-1,-1.149153188E-1,-1.255679578E-1
1.241325212E0,3.893538713E-1,-1.383511126E-1,-1.053279415E-1
1.243812920E0,4.117243886E-1,-1.521995366E-1,-8.082687855E-2
1.246300628E0,4.266380966E-1,-1.532648057E-1,-5.099949613E-2
1.248788337E0,4.340949357E-1,-1.468732208E-1,-2.010685205E-2
1.251276045E0,4.351601899E-1,-1.426121742E-1,1.398158539E-2
1.253763753E0,4.298338890E-1,-1.362205893E-1,5.126581341E-2
1.256251462E0,4.170507193E-1,-1.191763729E-1,8.855003864E-2
1.258739170E0,3.946801722E-1,-9.361004084E-2,1.247690022E-1
1.261226878E0,3.637875319E-1,-6.484792382E-2,1.577921808E-1
1.263714587E0,3.265033066E-1,-3.608580679E-2,1.886848211E-1
1.266202295E0,2.828274965E-1,-9.454214945E-3,2.163816839E-1
1.268690003E0,2.359558940E-1,1.078579482E-2,2.408827394E-1
1.271177712E0,1.869537681E-1,2.463422157E-2,2.589922249E-1
1.273665420E0,1.390169114E-1,2.996053919E-2,2.707101107E-1
1.276153128E0,9.427583218E-2,2.996053919E-2,2.739059031E-1
1.278640837E0,6.018739566E-2,2.676474862E-2,2.675143182E-1
1.281128545E0,3.568633273E-2,2.037316747E-2,2.515353858E-1
1.283616253E0,2.396843210E-2,1.291632187E-2,2.259690464E-1
1.286103962E0,2.822948620E-2,4.394212738E-3,1.897500902E-1
1.288591670E0,4.953476042E-2,-5.193160381E-3,1.471395344E-1
1.291079378E0,9.001477808E-2,-1.478053257E-2,9.920267761E-2
1.293567087E0,1.486042738E-1,-2.649843320E-2,4.913528636E-2
1.296054795E0,2.210422009E-1,-3.289001435E-2,2.263685223E-3
1.298542503E0,3.051980436E-1,-3.289001435E-2,-3.821633384E-2
1.301030212E0,3.957454562E-1,-2.010685205E-2,-6.804371625E-2
1.303517920E0,4.862928391E-1,2.263685223E-3,-8.189214021E-2
1.306005628E0,5.715139508E-1,3.209106624E-2,-8.189214021E-2
1.308493337E0,6.471476555E-1,6.831002980E-2,-6.910897791E-2
1.310981045E0,7.068024278E-1,1.077247858E-1,-4.567318037E-2
1.313468753E0,7.430213690E-1,1.492700726E-1,-1.371526904E-2
1.315956462E0,7.526087761E-1,1.886848211E-1,2.356895804E-2
1.318444170E0,7.334340215E-1,2.217079997E-1,6.404897571E-2
1.320931878E0,6.865624189E-1,2.462090552E-1,1.045289934E-1
1.323419587E0,6.109287143E-1,2.589922249E-1,1.439437568E-1
1.325907295E0,5.118591785E-1,2.600574791E-1,1.759016514E-1
1.328395003E0,3.936149180E-1,2.515353858E-1,2.004027218E-1
1.330882712E0,2.625874877E-1,2.366216928E-1,2.163816839E-1
1.333370420E0,1.230379492E-1,2.185122073E-1,2.259690464E-1
1.335858128E0,-1.864211448E-2,1.982721984E-1,2.312953621E-1
1.338345837E0,-1.560611278E-1,1.769669205E-1,2.344911546E-1
1.340833545E0,-2.828274965E-1,1.524658650E-1,2.344911546E-1
1.343321253E0,-3.978759646E-1,1.237037405E-1,2.323606312E-1
1.345808962E0,-4.948149621E-1,8.855003864E-2,2.238385230E-1
1.348296670E0,-5.725792050E-1,4.700475931E-2,2.089248300E-1
1.350784378E0,-6.269076467E-1,1.198421582E-3,1.844237745E-1
1.353272087E0,-6.556697488E-1,-4.993423447E-2,1.471395344E-1
1.355759795E0,-6.567350626E-1,-1.010668874E-1,9.707214683E-2
1.358247503E0,-6.279729009E-1,-1.490037590E-1,3.635212034E-2
1.360735212E0,-5.683181286E-1,-1.884185076E-1,-3.395527974E-2
1.363222920E0,-4.767054915E-1,-2.150501013E-1,-1.095889956E-1
1.365710628E0,-3.552654386E-1,-2.278332561E-1,-1.884185076E-1
1.368198337E0,-2.082590461E-1,-2.267680019E-1,-2.672480047E-1
1.370686045E0,-3.888212144E-2,-2.129195631E-1,-3.460775316E-1
1.373173753E0,1.475390196E-1,-1.873532385E-1,-4.195807278E-1
1.375661462E0,3.414169848E-1,-1.500690132E-1,-4.856270552E-1
1.378149170E0,5.384907722E-1,-9.893636405E-2,-5.431513190E-1
1.380636878E0,7.270424366E-1,-3.821633384E-2,-5.857618451E-1
1.383124587E0,9.006804228E-1,3.315633163E-2,-6.123934388E-1
1.385612295E0,1.049817324E0,1.087900475E-1,-6.209155321E-1
1.388100003E0,1.169126868E0,1.876195520E-1,-6.102629304E-1
1.390587712E0,1.252217412E0,2.653838098E-1,-5.815007687E-1
1.393075420E0,1.292697430E0,3.335606754E-1,-5.356944799E-1
1.395563128E0,1.289501667E0,3.889544010E-1,-4.792354703E-1
1.398050837E0,1.238368988E0,4.219775498E-1,-4.142543972E-1
1.400538545E0,1.143560529E0,4.336954653E-1,-3.471427858E-1
1.403026253E0,1.006141543E0,4.230428338E-1,-2.810964286E-1
1.405513962E0,8.325035572E-1,3.942807019E-1,-2.182458937E-1
1.408001670E0,6.311687231E-1,3.516701460E-1,-1.607216448E-1
1.410489378E0,4.127896726E-1,2.984069884E-1,-1.095889956E-1
1.412977087E0,1.869537681E-1,2.430132627E-1,-6.484792382E-2
1.415464795E0,-3.675159439E-2,1.886848211E-1,-2.862896025E-2
1.417952503E0,-2.476737946E-1,1.396826953E-1,-9.321057005E-4
1.420440212E0,-4.404865205E-1,9.707214683E-2,1.824264042E-2
1.422927920E0,-6.077328920E-1,6.085318699E-2,2.996053919E-2
1.425415628E0,-7.451519370E-1,2.889527567E-2,3.528685868E-2
1.427903337E0,-8.484824896E-1,3.328948980E-3,3.528685868E-2
1.430391045E0,-9.134635925E-1,-1.797632314E-2,3.102580272E-2
1.432878753E0,-9.400951862E-1,-3.608580679E-2,2.037316747E-2
1.435366462E0,-9.273120165E-1,-5.206476152E-2,3.328948980E-3
1.437854170E0,-8.772445917E-1,-6.165213138E-2,-1.904158667E-2
1.440341878E0,-7.930887938E-1,-6.378266215E-2,-4.993423447E-2
1.442829587E0,-6.769750714E-1,-5.632581562E-2,-8.615319431E-2
1.445317295E0,-5.363602638E-1,-4.247738793E-2,-1.245026886E-1
1.447805003E0,-3.776359558E-1,-2.117211558E-2,-1.649827063E-1
1.450292712E0,-2.050632536E-1,1.198421582E-3,-2.065279931E-1
1.452780420E0,-2.716422267E-2,2.356895804E-2,-2.480732650E-1
1.455268128E0,1.507348120E-1,4.700475931E-2,-2.885532975E-1
1.457755837E0,3.222422600E-1,6.831002980E-2,-3.269027770E-1
1.460243545E0,4.830970466E-1,9.068056941E-2,-3.609912097E-1
1.462731253E0,6.290381551E-1,1.151816323E-1,-3.886880577E-1
1.465218962E0,7.568697929E-1,1.428784877E-1,-4.078628123E-1
1.467706670E0,8.612656593E-1,1.748363972E-1,-4.163849354E-1
1.470194378E0,9.379646182E-1,2.110553533E-1,-4.131891429E-1
1.472682087E0,9.869667888E-1,2.483395934E-1,-3.993407190E-1
1.475169795E0,1.001880407E0,2.845585644E-1,-3.737743795E-1
1.477657503E0,9.837709665E-1,3.143859208E-1,-3.396859467E-1
1.480145212E0,9.315730333E-1,3.346259296E-1,-2.960101366E-1
1.482632920E0,8.463519812E-1,3.431480527E-1,-2.502037883E-1
1.485120628E0,7.313035131E-1,3.378217220E-1,-2.022669315E-1
1.487608337E0,5.896234512E-1,3.207775056E-1,-1.553953290E-1
1.490096045E0,4.277033508E-1,2.930806577E-1,-1.138500497E-1
1.492583753E0,2.551306486E-1,2.547311783E-1,-7.869634777E-2
1.495071462E0,7.723161578E-2,2.121206224E-1,-5.206476152E-2
1.497559170E0,-9.427583218E-2,1.684448123E-1,-3.289001435E-2
1.500046878E0,-2.530001104E-1,1.279647946E-1,-2.117211558E-2
1.502534587E0,-3.946801722E-1,9.174583107E-2,-1.478053257E-2
1.505022295E0,-5.118591785E-1,5.872265995E-2,-1.265000552E-2
1.507510003E0,-6.002760530E-1,2.996053919E-2,-1.584579609E-2
1.509997712E0,-6.578003168E-1,8.655266836E-3,-2.330264263E-2
1.512485420E0,-6.823013425E-1,-7.323687430E-3,-3.502054140E-2
1.514973128E0,-6.737792492E-1,-2.010685205E-2,-4.993423447E-2
1.517460837E0,-6.322339773E-1,-2.649843320E-2,-6.697845459E-2
1.519948545E0,-5.587307811E-1,-2.543316968E-2,-8.615319431E-2
1.522436253E0,-4.575307369E-1,-1.584579609E-2,-1.074584723E-1
1.524923962E0,-3.328948915E-1,5.459476262E-3,-1.276984811E-1
1.527411670E0,-1.933453530E-1,3.422159329E-2,-1.447426975E-1
1.529899378E0,-4.420844093E-2,6.831002980E-2,-1.596563905E-1
1.532387087E0,1.059937328E-1,1.045289934E-1,-1.692437679E-1
1.534874795E0,2.519348562E-1,1.396826953E-1,-1.735048145E-1
1.537362503E0,3.872233331E-1,1.716406047E-1,-1.735048145E-1
1.539850212E0,5.086634159E-1,1.993374527E-1,-1.703090221E-1
1.542337920E0,6.109287143E-1,2.227732539E-1,-1.639174372E-1
1.544825628E0,6.918887496E-1,2.408827394E-1,-1.553953290E-1
1.547313337E0,7.462171912E-1,2.536658943E-1,-1.458079666E-1
1.549801045E0,7.717835307E-1,2.579269707E-1,-1.319595277E-1
1.552288753E0,7.675224543E-1,2.557964325E-1,-1.170458421E-1
1.554776462E0,7.323687673E-1,2.462090552E-1,-9.893636405E-2
1.557264170E0,6.684529185E-1,2.302301079E-1,-7.656582445E-2
1.559751878E0,5.800360441E-1,2.078595608E-1,-5.206476152E-2
1.562239587E0,4.692486227E-1,1.822932363E-1,-2.436790615E-2
1.564727295E0,3.424822688E-1,1.514005959E-1,5.459476262E-3
1.567215003E0,2.071937770E-1,1.194426864E-1,3.528685868E-2
1.569702712E0,6.764423847E-2,8.428898454E-2,6.724476814E-2
1.572190420E0,-6.870950758E-2,4.807002097E-2,9.813741595E-2
1.574678128E0,-1.976063997E-1,1.185105834E-2,1.258342713E-1
1.577165837E0,-3.147853911E-1,-2.436790615E-2,1.503353268E-1
1.579653545E0,-4.159854650E-1,-5.739107728E-2,1.705753356E-1
1.582141253E0,-4.969455004E-1,-8.934898674E-2,1.833585054E-1
1.584628962E0,-5.544697046E-1,-1.149153188E-1,1.886848211E-1
1.587116670E0,-5.853623748E-1,-1.362205893E-1,1.854890287E-1
1.589604378E0,-5.896234512E-1,-1.490037590E-1,1.759016514E-1
1.592092087E0,-5.672528744E-1,-1.553953290E-1,1.577921808E-1
1.594579795E0,-5.171855092E-1,-1.543300748E-1,1.322258562E-1
1.597067503E0,-4.415517747E-1,-1.500690132E-1,9.813741595E-2
1.599555212E0,-3.414169848E-1,-1.383511126E-1,5.765739456E-2
1.602042920E0,-2.221074700E-1,-1.202416345E-1,1.504684892E-2
1.604530628E0,-8.894951642E-2,-9.467530251E-2,-2.862896025E-2
1.607018337E0,5.379581451E-2,-6.378266215E-2,-6.910897791E-2
1.609506045E0,2.018674612E-1,-2.543316968E-2,-1.042626798E-1
1.611993753E0,3.488738537E-1,1.824264042E-2,-1.308942735E-1
1.614481462E0,4.905539155E-1,6.617950648E-2,-1.490037590E-1
1.616969170E0,6.215813160E-1,1.162468940E-1,-1.585911214E-1
1.619456878E0,7.366297841E-1,1.652490199E-1,-1.607216448E-1
1.621944587E0,8.314382434E-1,2.099900991E-1,-1.564605981E-1
1.624432295E0,9.006804228E-1,2.472743243E-1,-1.458079666E-1
1.626920003E0,9.432909489E-1,2.760364413E-1,-1.308942735E-1
1.629407712E0,9.560741186E-1,2.962764502E-1,-1.117195264E-1
1.631895420E0,9.390298724E-1,3.058638275E-1,-8.934898674E-2
1.634383128E0,8.900277615E-1,3.069290817E-1,-6.378266215E-2
1.636870837E0,8.122635484E-1,2.994722426E-1,-3.608580679E-2
1.639358545E0,7.078676820E-1,2.856238186E-1,-4.127896391E-3
1.641846253E0,5.832318664E-1,2.653838098E-1,2.996053919E-2
1.644333962E0,4.383559823E-1,2.366216928E-1,6.511423737E-2
1.646821670E0,2.849580348E-1,2.025332451E-1,1.002679393E-1
1.649309378E0,1.230379492E-1,1.652490199E-1,1.364869028E-1
1.651797087E0,-3.888212144E-2,1.237037405E-1,1.716406047E-1
1.654284795E0,-1.954758763E-1,8.109319210E-2,2.046637833E-1
1.656772503E0,-3.414169848E-1,3.954791278E-2,2.334259003E-1
1.659260212E0,-4.735096991E-1,1.198421582E-3,2.600574791E-1
1.661747920E0,-5.896234512E-1,-3.395527974E-2,2.813627720E-1
1.664235628E0,-6.854971647E-1,-6.378266215E-2,2.973417044E-1
1.666723337E0,-7.621961236E-1,-8.828372508E-2,3.079943359E-1
1.669211045E0,-8.186551332E-1,-1.085237339E-1,3.133206666E-1
1.671698753E0,-8.527435660E-1,-1.245026886E-1,3.122554123E-1
1.674186462E0,-8.644614220E-1,-1.404816359E-1,3.058638275E-1
1.676674170E0,-8.548740745E-1,-1.575258672E-1,2.920154035E-1
1.679161878E0,-8.218508959E-1,-1.788311303E-1,2.696448565E-1
1.681649587E0,-7.653919458E-1,-2.086585164E-1,2.376869470E-1
1.684137295E0,-6.854971647E-1,-2.438122183E-1,1.972069293E-1
1.686625003E0,-5.811012983E-1,-2.821617126E-1,1.471395344E-1
1.689112712E0,-4.543349445E-1,-3.194459379E-1,8.855003864E-2
1.691600420E0,-3.073285520E-1,-3.482080400E-1,2.569948509E-2
1.694088128E0,-1.443432271E-1,-3.641870022E-1,-4.354264960E-2
1.696575837E0,2.822948620E-2,-3.631217480E-1,-1.127847880E-1
1.699063545E0,2.093243003E-1,-3.428817391E-1,-1.809616536E-1
1.701551253E0,3.914843798E-1,-3.066627681E-1,-2.448774725E-1
1.704038962E0,5.704486966E-1,-2.555301189E-1,-3.024017215E-1
1.706526670E0,7.408908606E-1,-1.948100924E-1,-3.503385782E-1
1.709014378E0,8.985498548E-1,-1.266332120E-1,-3.865575492E-1
1.711502087E0,1.034903646E0,-5.313002318E-2,-4.089280665E-1
1.713989795E0,1.145691037E0,2.463422157E-2,-4.163849354E-1
1.716477503E0,1.224520564E0,1.034637317E-1,-4.067975581E-1
1.718965212E0,1.268196344E0,1.780321896E-1,-3.801659644E-1
1.721452920E0,1.272457361E0,2.494048476E-1,-3.375554085E-1
1.723940628E0,1.236238480E0,3.101248741E-1,-2.821617126E-1
1.726428337E0,1.158474207E0,3.601922691E-1,-2.161153555E-1
1.728916045E0,1.041295171E0,3.942807019E-1,-1.436774284E-1
1.731403753E0,8.878972530E-1,4.091944098E-1,-7.017423958E-2
1.733891462E0,7.036066055E-1,4.081291258E-1,1.198421582E-3
1.736379170E0,4.948149621E-1,3.878891170E-1,6.831002980E-2
1.738866878E0,2.721748650E-1,3.516701460E-1,1.290300637E-1
1.741354587E0,3.994738683E-2,3.026680350E-1,1.812279820E-1
1.743842295E0,-1.890842915E-1,2.451438010E-1,2.249037921E-1
1.746330003E0,-4.085285962E-1,1.844237745E-1,2.600574791E-1
1.748817712E0,-6.109287143E-1,1.247690022E-1,2.856238186E-1
1.751305420E0,-7.898929715E-1,7.044056058E-2,3.047985733E-1
1.753793128E0,-9.411604404E-1,2.143843099E-2,3.175817132E-1
1.756280837E0,-1.059404731E0,-1.904158667E-2,3.261038363E-1
1.758768545E0,-1.142495275E0,-5.419528857E-2,3.292996287E-1
1.761256253E0,-1.190432072E0,-8.082687855E-2,3.282343447E-1
1.763743962E0,-1.200019479E0,-1.053279415E-1,3.197122514E-1
1.766231670E0,-1.171257377E0,-1.266332120E-1,3.026680350E-1
1.768719378E0,-1.105211020E0,-1.458079666E-1,2.739059031E-1
1.771207087E0,-1.002945662E0,-1.628521830E-1,2.344911546E-1
1.773694795E0,-8.676572442E-1,-1.756353378E-1,1.844237745E-1
1.776182503E0,-7.057371736E-1,-1.798963994E-1,1.258342713E-1
1.778670212E0,-5.203812718E-1,-1.713742912E-1,6.191844866E-2
1.781157920E0,-3.190464675E-1,-1.500690132E-1,-1.997369342E-3
1.783645628E0,-1.102547869E-1,-1.170458421E-1,-6.271740049E-2
1.786133337E0,9.960214794E-2,-7.337003201E-2,-1.181111038E-1
1.788621045E0,3.041327596E-1,-2.010685205E-2,-1.649827063E-1
1.791108753E0,4.948149621E-1,4.167843983E-2,-2.012016773E-1
1.793596462E0,6.684529185E-1,1.077247858E-1,-2.257027328E-1
1.796084170E0,8.197203875E-1,1.769669205E-1,-2.384859025E-1
1.798571878E0,9.432909489E-1,2.462090552E-1,-2.406164259E-1
1.801059587E0,1.037034154E0,3.111901283E-1,-2.310290486E-1
1.803547295E0,1.095623612E0,3.708449006E-1,-2.118543088E-1
1.806035003E0,1.117994189E0,4.230428338E-1,-1.841574460E-1
1.808522712E0,1.103080511E0,4.645881057E-1,-1.500690132E-1
1.811010420E0,1.051947832E0,4.944154918E-1,-1.106542572E-1
1.813498128E0,9.645962119E-1,5.135902166E-1,-6.804371625E-2
1.815985837E0,8.474172354E-1,5.199818015E-1,-2.330264263E-2
1.818473545E0,7.025413513E-1,5.135902166E-1,2.250369452E-2
1.820961253E0,5.352949500E-1,4.954807460E-1,6.617950648E-2
1.823448962E0,3.531349003E-1,4.677838981E-1,1.066595241E-1
1.825936670E0,1.613874435E-1,4.294344187E-1,1.439437568E-1
1.828424378E0,-3.249054030E-2,3.857586086E-1,1.759016514E-1
1.830912087E0,-2.221074700E-1,3.388870060E-1,2.035985142E-1
1.833399795E0,-4.021370113E-1,2.888196111E-1,2.259690464E-1
1.835887503E0,-5.661876202E-1,2.419480085E-1,2.440785319E-1
1.838375212E0,-7.131940126E-1,1.972069293E-1,2.579269707E-1
1.840862920E0,-8.388951421E-1,1.567269117E-1,2.675143182E-1
1.843350628E0,-9.422256947E-1,1.194426864E-1,2.728406489E-1
1.845838337E0,-1.023185730E0,8.748477697E-2,2.739059031E-1
1.848326045E0,-1.079644680E0,5.872265995E-2,2.707101107E-1
1.850813753E0,-1.112667918E0,2.783001214E-2,2.621880174E-1
1.853301462E0,-1.119059443E0,-1.051947847E-2,2.462090552E-1
1.855789170E0,-1.099884748E0,-6.271740049E-2,2.185122073E-1
1.858276878E0,-1.049817324E0,-1.319595277E-1,1.769669205E-1
1.860764587E0,-9.688572884E-1,-2.193111479E-1,1.173121557E-1
1.863252295E0,-8.538088202E-1,-3.162501454E-1,4.167843983E-2
1.865740003E0,-7.068024278E-1,-4.099933505E-1,-4.886896908E-2
1.868227712E0,-5.310339332E-1,-4.856270552E-1,-1.468732208E-1
1.870715420E0,-3.328948915E-1,-5.335639119E-1,-2.459427416E-1
1.873203128E0,-1.209074259E-1,-5.516734123E-1,-3.375554085E-1
1.875690837E0,9.960214794E-2,-5.388902426E-1,-4.185154438E-1
1.878178545E0,3.190464675E-1,-4.984102249E-1,-4.845618010E-1
1.880666253E0,5.320991874E-1,-4.355596602E-1,-5.346291661E-1
1.883153962E0,7.323687673E-1,-3.556649089E-1,-5.687175989E-1
1.885641670E0,9.123983383E-1,-2.651174963E-1,-5.846965909E-1
1.888129378E0,1.066861510E0,-1.692437679E-1,-5.846965909E-1
1.890617087E0,1.192562699E0,-7.337003201E-2,-5.697829127E-1
1.893104795E0,1.282044768E0,1.930790395E-2,-5.420860648E-1
1.895592503E0,1.335307956E0,1.023984700E-1,-5.016059875E-1
1.898080212E0,1.348091125E0,1.769669205E-1,-4.515386224E-1
1.900567920E0,1.318263769E0,2.376869470E-1,-3.929491341E-1
1.903055628E0,1.246891141E0,2.866890728E-1,-3.269027770E-1
1.905543337E0,1.138234258E0,3.197122514E-1,-2.576606572E-1
1.908031045E0,9.933583736E-1,3.378217220E-1,-1.873532385E-1
1.910518753E0,8.207856417E-1,3.399522603E-1,-1.181111038E-1
1.913006462E0,6.247771382E-1,3.292996287E-1,-5.419528857E-2
1.915494170E0,4.106591344E-1,3.047985733E-1,4.394212738E-3
1.917981878E0,1.858884990E-1,2.696448565E-1,5.552686751E-2
1.920469587E0,-4.314317927E-2,2.249037921E-1,1.023984700E-1
1.922957295E0,-2.711096108E-1,1.716406047E-1,1.439437568E-1
1.925445003E0,-4.926844239E-1,1.141163707E-1,1.801627129E-1
1.927932712E0,-7.025413513E-1,5.339634046E-2,2.110553533E-1
1.930420420E0,-8.932235837E-1,-1.158474199E-2,2.366216928E-1
1.932908128E0,-1.061535239E0,-8.082687855E-2,2.568616867E-1
1.935395837E0,-1.204280496E0,-1.521995366E-1,2.685796022E-1
1.937883545E0,-1.318263769E0,-2.278332561E-1,2.717753947E-1
1.940371253E0,-1.400289059E0,-3.087933064E-1,2.632532716E-1
1.942858962E0,-1.445030093E0,-4.014712274E-1,2.398174703E-1
1.945346670E0,-1.449291229E0,-5.101281404E-1,1.993374527E-1
1.947834378E0,-1.408811212E0,-6.305029392E-1,1.375521719E-1
1.950322087E0,-1.320394278E0,-7.540735006E-1,5.339634046E-2
1.952809795E0,-1.184040546E0,-8.669914603E-1,-5.099949613E-2
1.955297503E0,-1.002945662E0,-9.575388432E-1,-1.681784987E-1
1.957785212E0,-7.813708782E-1,-1.013997793E0,-2.885532975E-1
1.960272920E0,-5.278381109E-1,-1.034237862E0,-4.046670198E-1
1.962760628E0,-2.519348562E-1,-1.016128302E0,-5.111933947E-1
1.965248337E0,3.675159439E-2,-9.649956822E-1,-6.038713455E-1
1.967736045E0,3.286338449E-1,-8.829703927E-1,-6.795050502E-1
1.970223753E0,6.130592227E-1,-7.775092721E-1,-7.359640002E-1
1.972711462E0,8.804404140E-1,-6.528734565E-1,-7.711177468E-1
1.975199170E0,1.122255206E0,-5.186502337E-1,-7.849661708E-1
1.977686878E0,1.332112193E0,-3.791007102E-1,-7.796398401E-1
1.980174587E0,1.502554417E0,-2.406164259E-1,-7.562040091E-1
1.982662295E0,1.628255486E0,-1.106542572E-1,-7.167892456E-1
1.985150003E0,1.706019759E0,7.590003312E-3,-6.635261178E-1
1.987637712E0,1.733716607E0,1.119858399E-1,-5.996102691E-1
1.990125420E0,1.708150268E0,1.982721984E-1,-5.293028951E-1
1.992613128E0,1.633581758E0,2.653838098E-1,-4.557996690E-1
1.995100837E0,1.512141705E0,3.101248741E-1,-3.812312186E-1
1.997588545E0,1.345960617E0,3.324954212E-1,-3.087933064E-1
2.000076253E0,1.143560529E0,3.324954212E-1,-2.416816950E-1
2.002563962E0,9.102677703E-1,3.133206666E-1,-1.777658761E-1
2.005051670E0,6.535392404E-1,2.739059031E-1,-1.213068962E-1
2.007539378E0,3.797664940E-1,2.185122073E-1,-6.910897791E-2
2.010027087E0,9.640636295E-2,1.492700726E-1,-2.010685205E-2
2.012514795E0,-1.880190372E-1,6.937529147E-2,2.463422157E-2
2.015002503E0,-4.692486227E-1,-1.797632314E-2,6.511423737E-2
2.017490212E0,-7.376950979E-1,-1.106542572E-1,1.034637317E-1
2.019977920E0,-9.890972972E-1,-2.075932473E-1,1.375521719E-1
2.022465628E0,-1.219194293E0,-3.066627681E-1,1.652490199E-1
2.024953337E0,-1.420529008E0,-4.078628123E-1,1.844237745E-1
2.027441045E0,-1.589905977E0,-5.143891573E-1,1.940111369E-1
2.029928753E0,-1.721998692E0,-6.283723712E-1,1.897500902E-1
2.032416462E0,-1.812546134E0,-7.508777380E-1,1.695100814E-1
2.034904170E0,-1.856221914E0,-8.861662149E-1,1.300953180E-1
2.037391878E0,-1.847699761E0,-1.029976726E0,7.150582224E-2
2.039879587E0,-1.788045049E0,-1.178048372E0,-9.454214945E-3
2.042367295E0,-1.671931267E0,-1.320793748E0,-1.095889956E-1
2.044855003E0,-1.502554417E0,-1.443299055E0,-2.267680019E-1
2.047342712E0,-1.283110023E0,-1.540238023E0,-3.514038324E-1
2.049830420E0,-1.019989967E0,-1.605219126E0,-4.781702161E-1
2.052318128E0,-7.217161059E-1,-1.633981228E0,-5.985450149E-1
2.054805837E0,-3.989412189E-1,-1.626524448E0,-7.061366439E-1
2.057293545E0,-6.231792271E-2,-1.581783295E0,-7.977492809E-1
2.059781253E0,2.806969583E-1,-1.502953887E0,-8.691219687E-1
2.062268962E0,6.162550449E-1,-1.395362258E0,-9.191893935E-1
2.064756670E0,9.368993640E-1,-1.262204289E0,-9.447556734E-1
2.067244378E0,1.235173225E0,-1.113067389E0,-9.511472583E-1
2.069732087E0,1.500423789E0,-9.522125125E-1,-9.351683259E-1
2.072219795E0,1.725194454E0,-7.892271876E-1,-9.021451473E-1
2.074707503E0,1.902028203E0,-6.273071170E-1,-8.552735448E-1
2.077195212E0,2.025598764E0,-4.739091694E-1,-7.966840267E-1
2.079682920E0,2.092710495E0,-3.300985694E-1,-7.295724154E-1
2.082170628E0,2.102297783E0,-2.012016773E-1,-6.603302956E-1
2.084658337E0,2.056491375E0,-8.828372508E-2,-5.910881758E-1
2.087146045E0,1.956356645E0,6.524739787E-3,-5.229113102E-1
2.089633753E0,1.809350252E0,8.109319210E-2,-4.600607455E-1
2.092121462E0,1.621863842E0,1.322258562E-1,-4.004059732E-1
2.094609170E0,1.399223804E0,1.588574350E-1,-3.460775316E-1
2.097096878E0,1.149952054E0,1.620532274E-1,-2.960101366E-1
2.099584587E0,8.772445917E-1,1.407479644E-1,-2.502037883E-1
2.102072295E0,5.885581374E-1,9.920267761E-2,-2.054627240E-1
2.104560003E0,2.913496196E-1,4.061317816E-2,-1.628521830E-1
2.107047712E0,-9.054740891E-3,-3.075948730E-2,-1.213068962E-1
2.109535420E0,-3.051980436E-1,-1.106542572E-1,-8.082687855E-2
2.112023128E0,-5.896234512E-1,-1.937448233E-1,-4.141212255E-2
2.114510837E0,-8.580698371E-1,-2.768353820E-1,-4.127896391E-3
2.116998545E0,-1.104145765E0,-3.577954173E-1,2.996053919E-2
2.119486253E0,-1.323590040E0,-4.387554526E-1,5.978792161E-2
2.121973962E0,-1.514272213E0,-5.229113102E-1,8.322372288E-2
2.124461670E0,-1.669800758E0,-6.134586930E-1,9.707214683E-2
2.126949378E0,-1.786979795E0,-7.157239914E-1,9.813741595E-2
2.129437087E0,-1.860482931E0,-8.297072053E-1,8.109319210E-2
2.131924795E0,-1.887114525E0,-9.532778263E-1,4.487423226E-2
2.134412503E0,-1.861548185E0,-1.081109405E0,-1.371526904E-2
2.136900212E0,-1.781653404E0,-1.203614712E0,-8.934898674E-2
2.139387920E0,-1.647430182E0,-1.316532731E0,-1.809616536E-1
2.141875628E0,-1.458878517E0,-1.411341190E0,-2.864227593E-1
2.144363337E0,-1.220259547E0,-1.483779073E0,-3.993407190E-1
2.146851045E0,-9.379646182E-1,-1.529585481E0,-5.154544711E-1
2.149338753E0,-6.173202991E-1,-1.545564413E0,-6.273071170E-1
2.151826462E0,-2.700443268E-1,-1.530650735E0,-7.306377292E-1
2.154314170E0,9.534109384E-2,-1.482713819E0,-8.211851120E-1
2.156801878E0,4.692486227E-1,-1.404949546E0,-8.936230540E-1
2.159289587E0,8.431561589E-1,-1.297357917E0,-9.458209276E-1
2.161777295E0,1.203215241E0,-1.166330576E0,-9.745830894E-1
2.164265003E0,1.540903807E0,-1.016128302E0,-9.809746742E-1
2.166752712E0,1.844503999E0,-8.520777822E-1,-9.639304280E-1
2.169240420E0,2.105493546E0,-6.805703044E-1,-9.266462326E-1
2.171728128E0,2.313220024E0,-5.079975724E-1,-8.691219687E-1
2.174215837E0,2.462356806E0,-3.407512009E-1,-7.966840267E-1
2.176703545E0,2.546512842E0,-1.852227151E-1,-7.125282288E-1
2.179191253E0,2.564622164E0,-4.886896908E-2,-6.198502779E-1
2.181678962E0,2.516685247E0,6.724476814E-2,-5.261070728E-1
2.184166670E0,2.403767347E0,1.609879732E-1,-4.344944060E-1
2.186654378E0,2.231194735E0,2.302301079E-1,-3.460775316E-1
2.189142087E0,2.006423950E0,2.739059031E-1,-2.651174963E-1
2.191629795E0,1.733716607E0,2.941459119E-1,-1.894837767E-1
2.194117503E0,1.422659636E0,2.909501195E-1,-1.213068962E-1
2.196605212E0,1.079644680E0,2.664490640E-1,-5.845634267E-2
2.199092920E0,7.163897753E-1,2.206427306E-1,-1.997369342E-3
2.201580628E0,3.403517306E-1,1.567269117E-1,5.126581341E-2
2.204068337E0,-3.781685978E-2,7.576687634E-2,1.002679393E-1
2.206556045E0,-4.085285962E-1,-1.691105962E-2,1.450090110E-1
2.209043753E0,-7.621961236E-1,-1.181111038E-1,1.822932363E-1
2.211531462E0,-1.088166833E0,-2.257027328E-1,2.142511457E-1
2.214019170E0,-1.377918482E0,-3.343596160E-1,2.355564237E-1
2.216506878E0,-1.622929215E0,-4.376901984E-1,2.483395934E-1
2.218994587E0,-1.814676642E0,-5.324986577E-1,2.504701018E-1
2.221482295E0,-1.948899865E0,-6.177197695E-1,2.408827394E-1
2.223970003E0,-2.017076731E0,-6.901576519E-1,2.206427306E-1
2.226457712E0,-2.021337748E0,-7.476819158E-1,1.876195520E-1
2.228945420E0,-1.958487153E0,-7.881619334E-1,1.439437568E-1
2.231433128E0,-1.830655575E0,-8.073366880E-1,8.961530030E-2
2.233920837E0,-1.643169165E0,-8.041408658E-1,2.996053919E-2
2.236408545E0,-1.403484821E0,-7.743135095E-1,-3.395527974E-2
2.238896253E0,-1.116928935E0,-7.221155763E-1,-9.787109494E-2
2.241383962E0,-7.962845564E-1,-6.454166174E-1,-1.575258672E-1
2.243871670E0,-4.522044063E-1,-5.495429039E-1,-2.118543088E-1
2.246359378E0,-9.640636295E-2,-4.398207366E-1,-2.576606572E-1
2.248847087E0,2.615222335E-1,-3.194459379E-1,-2.917490900E-1
2.251334795E0,6.087981462E-1,-1.969406158E-1,-3.162501454E-1
2.253822503E0,9.358341098E-1,-7.443529367E-2,-3.279680312E-1
2.256310212E0,1.234107971E0,4.061317816E-2,-3.279680312E-1
2.258797920E0,1.494032264E0,1.460742801E-1,-3.183806837E-1
2.261285628E0,1.708150268E0,2.398174703E-1,-2.981406748E-1
2.263773337E0,1.869005084E0,3.186469972E-1,-2.683132887E-1
2.266261045E0,1.973400950E0,3.836280704E-1,-2.310290486E-1
2.268748753E0,2.014946222E0,4.326302111E-1,-1.873532385E-1
2.271236462E0,1.994706154E0,4.635228515E-1,-1.415469050E-1
2.273724170E0,1.914811373E0,4.763059914E-1,-9.467530251E-2
2.276211878E0,1.778457642E0,4.720449448E-1,-4.780370742E-2
2.278699587E0,1.592036486E0,4.518049359E-1,-3.062632866E-3
2.281187295E0,1.365135312E0,4.155859649E-1,3.954791278E-2
2.283675003E0,1.105211020E0,3.665838540E-1,7.896266878E-2
2.286162712E0,8.218508959E-1,3.079943359E-1,1.151816323E-1
2.288650420E0,5.246423483E-1,2.408827394E-1,1.482048035E-1
2.291138128E0,2.231727391E-1,1.705753356E-1,1.780321896E-1
2.293625837E0,-7.510108501E-2,9.920267761E-2,2.046637833E-1
2.296113545E0,-3.627222776E-1,2.569948509E-2,2.280995846E-1
2.298601253E0,-6.354297400E-1,-4.567318037E-2,2.472743243E-1
2.301088962E0,-8.847014308E-1,-1.138500497E-1,2.653838098E-1
2.303576670E0,-1.109472036E0,-1.820269227E-1,2.813627720E-1
2.306064378E0,-1.305480599E0,-2.448774725E-1,2.941459119E-1
2.308552087E0,-1.470596433E0,-3.045322299E-1,3.047985733E-1
2.311039795E0,-1.601623893E0,-3.609912097E-1,3.101248741E-1
2.313527503E0,-1.697497606E0,-4.142543972E-1,3.111901283E-1
2.316015212E0,-1.755021811E0,-4.685828388E-1,3.047985733E-1
2.318502920E0,-1.774196625E0,-5.239765644E-1,2.898848653E-1
2.320990628E0,-1.750760794E0,-5.846965909E-1,2.643185556E-1
2.323478337E0,-1.683649182E0,-6.475471258E-1,2.280995846E-1
2.325966045E0,-1.570731282E0,-7.146587372E-1,1.801627129E-1
2.328453753E0,-1.416267991E0,-7.807050943E-1,1.215732098E-1
2.330941462E0,-1.222390056E0,-8.382292986E-1,5.446160212E-2
2.333429170E0,-9.933583736E-1,-8.819051385E-1,-1.797632314E-2
2.335916878E0,-7.366297841E-1,-9.064062238E-1,-9.041424841E-2
2.338404587E0,-4.585959911E-1,-9.085367322E-1,-1.607216448E-1
2.340892295E0,-1.688442826E-1,-8.851009011E-1,-2.225069404E-1
2.343380003E0,1.283642650E-1,-8.371640444E-1,-2.747048736E-1
2.345867712E0,4.266380966E-1,-7.647261620E-1,-3.151848912E-1
2.348355420E0,7.174550891E-1,-6.688523889E-1,-3.439469934E-1
2.350843128E0,9.965541363E-1,-5.548691750E-1,-3.620564938E-1
2.353330837E0,1.256478429E0,-4.259723127E-1,-3.673827946E-1
2.355818545E0,1.489771247E0,-2.896185517E-1,-3.620564938E-1
2.358306253E0,1.691106081E0,-1.500690132E-1,-3.471427858E-1
2.360793962E0,1.851960897E0,-1.478053257E-2,-3.247722387E-1
2.363281670E0,1.965944052E0,1.151816323E-1,-2.917490900E-1
2.365769378E0,2.030925035E0,2.312953621E-1,-2.523343265E-1
2.368257087E0,2.043708324E0,3.324954212E-1,-2.065279931E-1
2.370744795E0,2.004293442E0,4.113249183E-1,-1.553953290E-1
2.373232503E0,1.913746119E0,4.645881057E-1,-1.010668874E-1
2.375720212E0,1.776327133E0,4.890891612E-1,-4.886896908E-2
2.378207920E0,1.594166994E0,4.858933687E-1,-1.997369342E-3
2.380695628E0,1.373657465E0,4.581965208E-1,3.954791278E-2
2.383183337E0,1.123320460E0,4.081291258E-1,7.470161468E-2
2.385671045E0,8.484824896E-1,3.410175145E-1,1.034637317E-1
2.388158753E0,5.587307811E-1,2.621880174E-1,1.268995255E-1
2.390646462E0,2.657832801E-1,1.769669205E-1,1.450090110E-1
2.393134170E0,-2.716422267E-2,8.961530030E-2,1.599227041E-1
2.395621878E0,-3.083938360E-1,3.328948980E-3,1.705753356E-1
2.398109587E0,-5.747097135E-1,-7.763108611E-2,1.790974438E-1
2.400597295E0,-8.175898194E-1,-1.511342824E-1,1.854890287E-1
2.403085003E0,-1.032773137E0,-2.171806246E-1,1.886848211E-1
2.405572712E0,-1.214933157E0,-2.757701278E-1,1.897500902E-1
2.408060420E0,-1.359809041E0,-3.279680312E-1,1.876195520E-1
2.410548128E0,-1.463139653E0,-3.748396337E-1,1.801627129E-1
2.413035837E0,-1.521729112E0,-4.153196514E-1,1.631184965E-1
2.415523545E0,-1.533447027E0,-4.440817833E-1,1.375521719E-1
2.418011253E0,-1.498293281E0,-4.621912539E-1,1.045289934E-1
2.420498962E0,-1.417333245E0,-4.685828388E-1,6.404897571E-2
2.422986670E0,-1.293762684E0,-4.643217921E-1,1.930790395E-2
2.425474378E0,-1.129712105E0,-4.472775757E-1,-2.756369673E-2
2.427962087E0,-9.326383471E-1,-4.195807278E-1,-7.550056279E-2
2.430449795E0,-7.078676820E-1,-3.791007102E-1,-1.223721579E-1
2.432937503E0,-4.628570378E-1,-3.269027770E-1,-1.649827063E-1
2.435425212E0,-2.061285079E-1,-2.608564198E-1,-2.033322006E-1
2.437912920E0,5.486107618E-2,-1.830921918E-1,-2.352901101E-1
2.440400628E0,3.126548827E-1,-9.574057162E-2,-2.597911656E-1
2.442888337E0,5.640571117E-1,1.198421582E-3,-2.736395895E-1
2.445376045E0,8.005456328E-1,1.055942550E-1,-2.789659202E-1
2.447863753E0,1.017859459E0,2.153164148E-1,-2.736395895E-1
2.450351462E0,1.212802649E0,3.154512048E-1,-2.597911656E-1
2.452839170E0,1.369396448E0,4.294344187E-1,-2.523343265E-1
2.455326878E0,1.457813263E0,6.062681675E-1,-2.470080107E-1
2.457814587E0,1.472726941E0,7.852324843E-1,-2.267680019E-1
2.460302295E0,1.433312178E0,8.960198760E-1,-1.937448233E-1
2.462790003E0,1.359809041E0,9.343693852E-1,-1.564605981E-1
2.465277712E0,1.260739565E0,9.290430546E-1,-1.202416345E-1
2.467765420E0,1.132907867E0,8.992156982E-1,-7.976161689E-2
2.470253128E0,9.784446359E-1,8.534093499E-1,-3.502054140E-2
2.472740837E0,8.005456328E-1,7.894935012E-1,1.291632187E-2
2.475228545E0,6.066676378E-1,7.159903049E-1,5.872265995E-2
2.477716253E0,4.042675495E-1,6.414218545E-1,1.002679393E-1
2.480203962E0,1.986716688E-1,5.732449889E-1,1.364869028E-1
2.482691670E0,5.326318205E-4,5.146554708E-1,1.663142890E-1
2.485179378E0,-1.858884990E-1,4.635228515E-1,1.886848211E-1
2.487667087E0,-3.531349003E-1,4.230428338E-1,2.035985142E-1
2.490154795E0,-4.990760088E-1,3.953459561E-1,2.121206224E-1
2.492642503E0,-6.205160618E-1,3.793670237E-1,2.142511457E-1
2.495130212E0,-7.153245211E-1,3.751059473E-1,2.131858915E-1
2.497617920E0,-7.856319547E-1,3.772364855E-1,2.067943066E-1
2.500105628E0,-8.293077350E-1,3.836280704E-1,1.972069293E-1
2.502593337E0,-8.484824896E-1,3.889544010E-1,1.833585054E-1
2.505081045E0,-8.442214131E-1,3.942807019E-1,1.673795432E-1
2.507568753E0,-8.186551332E-1,3.964112401E-1,1.471395344E-1
2.510056462E0,-7.717835307E-1,3.974764943E-1,1.215732098E-1
2.512544170E0,-7.078676820E-1,3.974764943E-1,9.600688517E-2
2.515031878E0,-6.290381551E-1,3.985417485E-1,6.617950648E-2
2.517519587E0,-5.363602638E-1,4.049333334E-1,3.528685868E-2
2.520007295E0,-4.351601899E-1,4.177165031E-1,5.459476262E-3
2.522495003E0,-3.275685608E-1,4.358259737E-1,-2.436790615E-2
2.524982712E0,-2.157158852E-1,4.603270590E-1,-5.099949613E-2
2.527470420E0,-1.059937328E-1,4.901544452E-1,-7.656582445E-2
2.529958128E0,5.326318205E-4,5.242428780E-1,-9.787109494E-2
2.532445837E0,9.853688627E-2,5.615270734E-1,-1.138500497E-1
2.534933545E0,1.890842915E-1,6.020070910E-1,-1.255679578E-1
2.537421253E0,2.647180259E-1,6.456829309E-1,-1.308942735E-1
2.539908962E0,3.275685608E-1,6.893587112E-1,-1.276984811E-1
2.542396670E0,3.733749092E-1,7.351650596E-1,-1.181111038E-1
2.544884378E0,4.032022953E-1,7.777756453E-1,-1.000016257E-1
2.547372087E0,4.149201810E-1,8.182556629E-1,-7.656582445E-2
2.549859795E0,4.085285962E-1,8.523440957E-1,-4.780370742E-2
2.552347503E0,3.840275407E-1,8.800409436E-1,-1.584579609E-2
2.554835212E0,3.414169848E-1,9.024114609E-1,1.611211337E-2
2.557322920E0,2.828274965E-1,9.162598848E-1,4.487423226E-2
2.559810628E0,2.082590461E-1,9.237167239E-1,7.150582224E-2
2.562298337E0,1.198421568E-1,9.247819781E-1,9.387636185E-2
2.564786045E0,1.970737800E-2,9.183903933E-1,1.109205782E-1
2.567273753E0,-8.788424730E-2,9.077377915E-1,1.237037405E-1
2.569761462E0,-2.029327303E-1,8.896282911E-1,1.311605871E-1
2.572249170E0,-3.233075142E-1,8.683230281E-1,1.375521719E-1
2.574736878E0,-4.447475672E-1,8.406261802E-1,1.418132186E-1
2.577224587E0,-5.672528744E-1,8.118640780E-1,1.460742801E-1
2.579712295E0,-6.897581816E-1,7.809714079E-1,1.524658650E-1
2.582200003E0,-8.090677261E-1,7.511440516E-1,1.599227041E-1
2.584687712E0,-9.219856858E-1,7.223818898E-1,1.673795432E-1
2.587175420E0,-1.028512001E0,6.936197877E-1,1.737711281E-1
2.589663128E0,-1.124385715E0,6.669881940E-1,1.790974438E-1
2.592150837E0,-1.208541632E0,6.403566003E-1,1.812279820E-1
2.594638545E0,-1.279914260E0,6.137250066E-1,1.801627129E-1
2.597126253E0,-1.336373210E0,5.870934129E-1,1.769669205E-1
2.599613962E0,-1.376853228E0,5.604618192E-1,1.705753356E-1
2.602101670E0,-1.402419567E0,5.370260477E-1,1.599227041E-1
2.604589378E0,-1.408811212E0,5.178512931E-1,1.460742801E-1
2.607077087E0,-1.401354313E0,5.040028691E-1,1.300953180E-1
2.609564795E0,-1.375787973E0,4.976112843E-1,1.119858399E-1
2.612052503E0,-1.333177447E0,4.976112843E-1,9.387636185E-2
2.614540212E0,-1.276718497E0,5.029376149E-1,7.683213800E-2
2.617027920E0,-1.207476377E0,5.125249624E-1,6.085318699E-2
2.619515628E0,-1.124385715E0,5.253081322E-1,4.593949392E-2
2.622003337E0,-1.032773137E0,5.402218103E-1,3.102580272E-2
2.624491045E0,-9.358341098E-1,5.551354885E-1,1.717737690E-2
2.626978753E0,-8.346340656E-1,5.711144805E-1,5.459476262E-3
2.629466462E0,-7.313035131E-1,5.913544893E-1,-4.127896391E-3
2.631954170E0,-6.279729009E-1,6.126597524E-1,-1.051947847E-2
2.634441878E0,-5.310339332E-1,6.382260919E-1,-1.158474199E-2
2.636929587E0,-4.404865205E-1,6.659229398E-1,-7.323687430E-3
2.639417295E0,-3.584612012E-1,6.946850419E-1,3.328948980E-3
2.641905003E0,-2.881538272E-1,7.223818898E-1,1.611211337E-2
2.644392712E0,-2.327601016E-1,7.458177209E-1,3.209106624E-2
2.646880420E0,-1.912148297E-1,7.639271617E-1,5.126581341E-2
2.649368128E0,-1.645832360E-1,7.756450772E-1,7.044056058E-2
2.651855837E0,-1.571263820E-1,7.788408995E-1,9.068056941E-2
2.654343545E0,-1.688442826E-1,7.745798230E-1,1.119858399E-1
2.656831253E0,-1.976063997E-1,7.628619075E-1,1.322258562E-1
2.659318962E0,-2.466085255E-1,7.447524667E-1,1.514005959E-1
2.661806670E0,-3.126548827E-1,7.202513814E-1,1.705753356E-1
2.664294378E0,-3.936149180E-1,6.882934570E-1,1.886848211E-1
2.666782087E0,-4.894886315E-1,6.510092616E-1,2.035985142E-1
2.669269795E0,-5.949497223E-1,6.062681675E-1,2.153164148E-1
2.671757503E0,-7.068024278E-1,5.551354885E-1,2.238385230E-1
2.674245212E0,-8.218508959E-1,4.997417927E-1,2.302301079E-1
2.676732920E0,-9.358341098E-1,4.422175586E-1,2.334259003E-1
2.679220628E0,-1.045556307E0,3.825628161E-1,2.334259003E-1
2.681708337E0,-1.145691037E0,3.261038363E-1,2.323606312E-1
2.684196045E0,-1.236238480E0,2.739059031E-1,2.291648388E-1
2.686683753E0,-1.311872125E0,2.280995846E-1,2.238385230E-1
2.689171462E0,-1.370461702E0,1.886848211E-1,2.185122073E-1
2.691659170E0,-1.412006974E0,1.567269117E-1,2.131858915E-1
2.694146878E0,-1.434377551E0,1.322258562E-1,2.067943066E-1
2.696634587E0,-1.435442805E0,1.162468940E-1,2.035985142E-1
2.699122295E0,-1.415202737E0,1.066595241E-1,1.993374527E-1
2.701610003E0,-1.376853228E0,1.034637317E-1,1.972069293E-1
2.704097712E0,-1.318263769E0,1.066595241E-1,1.961416751E-1
2.706585420E0,-1.241564751E0,1.173121557E-1,1.982721984E-1
2.709073128E0,-1.152082682E0,1.322258562E-1,2.025332451E-1
2.711560837E0,-1.049817324E0,1.503353268E-1,2.089248300E-1
2.714048545E0,-9.411604404E-1,1.716406047E-1,2.174469382E-1
2.716536253E0,-8.271772265E-1,1.940111369E-1,2.270343155E-1
2.719023962E0,-7.110635042E-1,2.163816839E-1,2.355564237E-1
2.721511670E0,-5.949497223E-1,2.376869470E-1,2.430132627E-1
2.723999378E0,-4.809665382E-1,2.579269707E-1,2.483395934E-1
2.726487087E0,-3.680485785E-1,2.771016955E-1,2.515353858E-1
2.728974795E0,-2.604569495E-1,2.962764502E-1,2.526006401E-1
2.731462503E0,-1.592569202E-1,3.165164590E-1,2.547311783E-1
2.733950212E0,-6.551371515E-2,3.388870060E-1,2.579269707E-1
2.736437920E0,1.864211448E-2,3.612575233E-1,2.621880174E-1
2.738925628E0,9.321057051E-2,3.836280704E-1,2.675143182E-1
2.741413337E0,1.549958587E-1,4.028028250E-1,2.749711871E-1
2.743901045E0,2.039979845E-1,4.166512489E-1,2.824280262E-1
2.746388753E0,2.380864173E-1,4.241080880E-1,2.898848653E-1
2.748876462E0,2.572611570E-1,4.251733422E-1,2.962764502E-1
2.751364170E0,2.593916953E-1,4.187817574E-1,3.005374968E-1
2.753851878E0,2.455432713E-1,4.070638716E-1,3.026680350E-1
2.756339587E0,2.135853618E-1,3.900196552E-1,3.016027808E-1
2.758827295E0,1.624527127E-1,3.708449006E-1,3.005374968E-1
2.761315003E0,9.427583218E-2,3.527354300E-1,2.984069884E-1
2.763802712E0,1.225053146E-2,3.324954212E-1,2.962764502E-1
2.766290420E0,-8.362319320E-2,3.122554123E-1,2.962764502E-1
2.768778128E0,-1.901495606E-1,2.930806577E-1,2.984069884E-1
2.771265837E0,-3.020022511E-1,2.728406489E-1,3.026680350E-1
2.773753545E0,-4.170507193E-1,2.515353858E-1,3.101248741E-1
2.776241253E0,-5.310339332E-1,2.323606312E-1,3.186469972E-1
2.778728962E0,-6.407560706E-1,2.153164148E-1,3.292996287E-1
2.781216670E0,-7.451519370E-1,1.993374527E-1,3.410175145E-1
2.783704378E0,-8.399603963E-1,1.876195520E-1,3.538006842E-1
2.786192087E0,-9.230509400E-1,1.801627129E-1,3.655185997E-1
2.788679795E0,-9.933583736E-1,1.759016514E-1,3.772364855E-1
2.791167503E0,-1.050882578E0,1.769669205E-1,3.900196552E-1
2.793655212E0,-1.094558358E0,1.833585054E-1,4.028028250E-1
2.796142920E0,-1.125451088E0,1.929458827E-1,4.145207107E-1
2.798630628E0,-1.141430020E0,2.057290375E-1,4.230428338E-1
2.801118337E0,-1.144625783E0,2.195774615E-1,4.304996729E-1
2.803606045E0,-1.135038376E0,2.344911546E-1,4.326302111E-1
2.806093753E0,-1.112667918E0,2.483395934E-1,4.315649271E-1
2.808581462E0,-1.077514172E0,2.611227632E-1,4.262386262E-1
2.811069170E0,-1.032773137E0,2.728406489E-1,4.155859649E-1
2.813556878E0,-9.784446359E-1,2.845585644E-1,4.006722867E-1
2.816044587E0,-9.155941010E-1,2.941459119E-1,3.814975321E-1
2.818532295E0,-8.484824896E-1,3.026680350E-1,3.591270149E-1
2.821020003E0,-7.771098018E-1,3.090596199E-1,3.356912136E-1
2.823507712E0,-7.036066055E-1,3.143859208E-1,3.090596199E-1
2.825995420E0,-6.301034689E-1,3.197122514E-1,2.824280262E-1
2.828483128E0,-5.576655269E-1,3.229080439E-1,2.547311783E-1
2.830970837E0,-4.873581231E-1,3.239732981E-1,2.249037921E-1
2.833458545E0,-4.223770201E-1,3.239732981E-1,1.950764060E-1
2.835946253E0,-3.616569936E-1,3.218427896E-1,1.652490199E-1
2.838433962E0,-3.073285520E-1,3.175817132E-1,1.343563795E-1
2.840921670E0,-2.593916953E-1,3.133206666E-1,1.034637317E-1
2.843409378E0,-2.178464085E-1,3.090596199E-1,7.257108390E-2
2.845897087E0,-1.848232448E-1,3.058638275E-1,4.274370521E-2
2.848384795E0,-1.592569202E-1,3.026680350E-1,1.504684892E-2
2.850872503E0,-1.390169114E-1,3.005374968E-1,-1.051947847E-2
2.853360212E0,-1.251684725E-1,2.984069884E-1,-3.395527974E-2
2.855847920E0,-1.177116334E-1,2.973417044E-1,-5.526055023E-2
2.858335628E0,-1.155811027E-1,2.941459119E-1,-7.443529367E-2
2.860823337E0,-1.198421568E-1,2.898848653E-1,-9.147951752E-2
2.863311045E0,-1.283642650E-1,2.845585644E-1,-1.063932031E-1
2.865798753E0,-1.422126889E-1,2.781669796E-1,-1.191763729E-1
2.868286462E0,-1.603221744E-1,2.717753947E-1,-1.298290044E-1
2.870774170E0,-1.816274524E-1,2.643185556E-1,-1.383511126E-1
2.873261878E0,-2.050632536E-1,2.600574791E-1,-1.426121742E-1
2.875749587E0,-2.306295782E-1,2.568616867E-1,-1.447426975E-1
2.878237295E0,-2.561959028E-1,2.557964325E-1,-1.404816359E-1
2.880725003E0,-2.817622423E-1,2.557964325E-1,-1.330247968E-1
2.883212712E0,-3.073285520E-1,2.589922249E-1,-1.213068962E-1
2.885700420E0,-3.307643533E-1,2.643185556E-1,-1.074584723E-1
2.888188128E0,-3.531349003E-1,2.685796022E-1,-9.147951752E-2
2.890675837E0,-3.755054474E-1,2.707101107E-1,-7.656582445E-2
2.893163545E0,-3.968107104E-1,2.707101107E-1,-6.165213138E-2
2.895651253E0,-4.181159735E-1,2.675143182E-1,-4.673844203E-2
2.898138962E0,-4.383559823E-1,2.621880174E-1,-3.289001435E-2
2.900626670E0,-4.607265294E-1,2.526006401E-1,-2.010685205E-2
2.903114378E0,-4.841623306E-1,2.398174703E-1,-1.051947847E-2
2.905602087E0,-5.075981021E-1,2.238385230E-1,-9.321057005E-4
2.908089795E0,-5.320991874E-1,2.067943066E-1,5.459476262E-3
2.910577503E0,-5.566002727E-1,1.886848211E-1,1.078579482E-2
2.913065212E0,-5.789707899E-1,1.695100814E-1,1.398158539E-2
2.915552920E0,-6.002760530E-1,1.503353268E-1,1.611211337E-2
2.918040628E0,-6.183855534E-1,1.311605871E-1,1.824264042E-2
2.920528337E0,-6.354297400E-1,1.141163707E-1,1.930790395E-2
2.923016045E0,-6.482129097E-1,9.813741595E-2,2.143843099E-2
2.925503753E0,-6.567350626E-1,8.322372288E-2,2.250369452E-2
2.927991462E0,-6.588655710E-1,7.150582224E-2,2.143843099E-2
2.930479170E0,-6.567350626E-1,6.191844866E-2,2.037316747E-2
2.932966878E0,-6.492781639E-1,5.659212917E-2,1.824264042E-2
2.935454587E0,-6.354297400E-1,5.552686751E-2,1.504684892E-2
2.937942295E0,-6.162550449E-1,5.659212917E-2,9.720530361E-3
2.940430003E0,-5.928192139E-1,5.978792161E-2,3.328948980E-3
2.942917712E0,-5.640571117E-1,6.511423737E-2,-6.258423906E-3
2.945405420E0,-5.320991874E-1,7.257108390E-2,-1.584579609E-2
2.947893128E0,-4.969455004E-1,8.428898454E-2,-2.436790615E-2
2.950380837E0,-4.596612751E-1,9.813741595E-2,-3.182475269E-2
2.952868545E0,-4.191812575E-1,1.162468940E-1,-3.608580679E-2
2.955356253E0,-3.787012100E-1,1.364869028E-1,-3.608580679E-2
2.957843962E0,-3.382211924E-1,1.588574350E-1,-3.502054140E-2
2.960331670E0,-3.009369671E-1,1.812279820E-1,-3.502054140E-2
2.962819378E0,-2.657832801E-1,2.004027218E-1,-3.395527974E-2
2.965307087E0,-2.359558940E-1,2.174469382E-1,-3.608580679E-2
2.967794795E0,-2.135853618E-1,2.312953621E-1,-3.821633384E-2
2.970282503E0,-1.986716688E-1,2.419480085E-1,-3.821633384E-2
2.972770212E0,-1.933453530E-1,2.494048476E-1,-3.715106845E-2
2.975257920E0,-1.954758763E-1,2.547311783E-1,-3.289001435E-2
2.977745628E0,-2.061285079E-1,2.547311783E-1,-2.649843320E-2
2.980233337E0,-2.242379934E-1,2.515353858E-1,-1.904158667E-2
2.982721045E0,-2.498043180E-1,2.462090552E-1,-1.265000552E-2
2.985208753E0,-2.796317041E-1,2.376869470E-1,-6.258423906E-3
2.987696462E0,-3.137201369E-1,2.249037921E-1,-1.997369342E-3
2.990184170E0,-3.510043621E-1,2.110553533E-1,1.198421582E-3
2.992671878E0,-3.893538713E-1,1.940111369E-1,3.328948980E-3
2.995159587E0,-4.277033508E-1,1.748363972E-1,4.394212738E-3
2.997647295E0,-4.628570378E-1,1.556616426E-1,4.394212738E-3
3.000135003E0,-4.948149621E-1,1.386174262E-1,3.328948980E-3
3.002622712E0,-5.225118399E-1,1.237037405E-1,1.198421582E-3
3.005110420E0,-5.427518487E-1,1.119858399E-1,-9.321057005E-4
3.007598128E0,-5.566002727E-1,1.034637317E-1,-4.127896391E-3
3.010085837E0,-5.619265437E-1,9.813741595E-2,-8.388951421E-3
3.012573545E0,-5.576655269E-1,9.600688517E-2,-1.265000552E-2
3.015061253E0,-5.459476113E-1,9.813741595E-2,-1.797632314E-2
3.017548962E0,-5.257076025E-1,1.002679393E-1,-2.543316968E-2
3.020036670E0,-4.948149621E-1,1.045289934E-1,-3.289001435E-2
3.022524378E0,-4.575307369E-1,1.087900475E-1,-4.247738793E-2
3.025012087E0,-4.117243886E-1,1.130511016E-1,-5.099949613E-2
3.027499795E0,-3.605917394E-1,1.194426864E-1,-6.058686972E-2
3.029987503E0,-3.051980436E-1,1.268995255E-1,-7.017423958E-2
3.032475212E0,-2.476737946E-1,1.364869028E-1,-7.869634777E-2
3.034962920E0,-1.890842915E-1,1.471395344E-1,-8.721846342E-2
3.037450628E0,-1.315600574E-1,1.577921808E-1,-9.467530251E-2
3.039938337E0,-7.829687744E-2,1.684448123E-1,-1.021321490E-1
3.042426045E0,-2.822948620E-2,1.780321896E-1,-1.095889956E-1
3.044913753E0,1.544632297E-2,1.854890287E-1,-1.170458421E-1
3.047401514E0,5.166528746E-2,1.897500902E-1,-1.255679578E-1
3.049889274E0,7.936213911E-2,1.908153445E-1,-1.330247968E-1
3.052377035E0,9.960214794E-2,1.897500902E-1,-1.404816359E-1
3.054864795E0,1.091895252E-1,1.876195520E-1,-1.468732208E-1
3.057352555E0,1.102547869E-1,1.833585054E-1,-1.521995366E-1
3.059840316E0,1.006674170E-1,1.780321896E-1,-1.543300748E-1
3.062328076E0,8.255793154E-2,1.727058738E-1,-1.564605981E-1
3.064815837E0,5.592634156E-2,1.652490199E-1,-1.564605981E-1
3.067303597E0,2.183790505E-2,1.567269117E-1,-1.543300748E-1
3.069791358E0,-1.864211448E-2,1.450090110E-1,-1.521995366E-1
3.072279118E0,-6.657897681E-2,1.322258562E-1,-1.468732208E-1
3.074766878E0,-1.166463718E-1,1.173121557E-1,-1.415469050E-1
3.077254639E0,-1.688442826E-1,1.034637317E-1,-1.372858584E-1
3.079742399E0,-2.231727391E-1,8.748477697E-2,-1.308942735E-1
3.082230160E0,-2.753706574E-1,7.044056058E-2,-1.266332120E-1
3.084717920E0,-3.265033066E-1,5.446160212E-2,-1.223721579E-1
3.087205680E0,-3.733749092E-1,3.848264739E-2,-1.191763729E-1
3.089693441E0,-4.149201810E-1,2.463422157E-2,-1.170458421E-1
3.092181201E0,-4.500738978E-1,1.185105834E-2,-1.138500497E-1
3.094668962E0,-4.777707458E-1,1.331579551E-4,-1.127847880E-1
3.097156722E0,-4.969455004E-1,-8.388951421E-3,-1.117195264E-1
3.099644483E0,-5.086634159E-1,-1.584579609E-2,-1.117195264E-1
3.102132243E0,-5.097286701E-1,-2.117211558E-2,-1.138500497E-1
3.104620003E0,-5.044023395E-1,-2.330264263E-2,-1.170458421E-1
3.107107764E0,-4.894886315E-1,-2.117211558E-2,-1.202416345E-1
3.109595524E0,-4.681833684E-1,-1.371526904E-2,-1.223721579E-1
3.112083233E0,-4.415517747E-1,-1.997369342E-3,-1.255679578E-1
3.114570941E0,-4.095938802E-1,1.398158539E-2,-1.276984811E-1
3.117058649E0,-3.755054474E-1,3.422159329E-2,-1.330247968E-1
3.119546358E0,-3.392864764E-1,5.446160212E-2,-1.372858584E-1
3.122034066E0,-3.020022511E-1,7.576687634E-2,-1.436774284E-1
3.124521774E0,-2.657832801E-1,9.494162351E-2,-1.511342824E-1
3.127009483E0,-2.306295782E-1,1.130511016E-1,-1.617869139E-1
3.129497191E0,-1.976063997E-1,1.290300637E-1,-1.735048145E-1
3.131984899E0,-1.677790284E-1,1.418132186E-1,-1.862879843E-1
3.134472608E0,-1.432779580E-1,1.524658650E-1,-2.001364082E-1
3.136960316E0,-1.230379492E-1,1.599227041E-1,-2.129195631E-1
3.139448024E0,-1.091895252E-1,1.652490199E-1,-2.235722095E-1
3.141935733E0,-1.017326787E-1,1.652490199E-1,-2.320943177E-1
3.144423441E0,-9.853688627E-2,1.652490199E-1,-2.384859025E-1
3.146911149E0,-1.006674170E-1,1.620532274E-1,-2.427469492E-1
3.149398858E0,-1.070589945E-1,1.567269117E-1,-2.448774725E-1
3.151886566E0,-1.145158410E-1,1.482048035E-1,-2.480732650E-1
3.154374274E0,-1.262337416E-1,1.375521719E-1,-2.502037883E-1
3.156861983E0,-1.379516423E-1,1.247690022E-1,-2.533995807E-1
3.159349691E0,-1.518000662E-1,1.119858399E-1,-2.555301189E-1
3.161837399E0,-1.667137593E-1,9.920267761E-2,-2.565953732E-1
3.164325108E0,-1.848232448E-1,8.855003864E-2,-2.565953732E-1
3.166812816E0,-2.029327303E-1,8.002793044E-2,-2.555301189E-1
3.169300524E0,-2.210422009E-1,7.470161468E-2,-2.512690723E-1
3.171788233E0,-2.380864173E-1,6.937529147E-2,-2.459427416E-1
3.174275941E0,-2.530001104E-1,6.404897571E-2,-2.406164259E-1
3.176763649E0,-2.647180259E-1,5.978792161E-2,-2.374206334E-1
3.179251358E0,-2.732401192E-1,5.659212917E-2,-2.342248410E-1
3.181739066E0,-2.775011659E-1,5.552686751E-2,-2.331595868E-1
3.184226774E0,-2.785664499E-1,5.552686751E-2,-2.331595868E-1
3.186714483E0,-2.753706574E-1,5.978792161E-2,-2.331595868E-1
3.189202191E0,-2.689790726E-1,6.617950648E-2,-2.331595868E-1
3.191689899E0,-2.583264410E-1,7.576687634E-2,-2.352901101E-1
3.194177608E0,-2.455432713E-1,8.748477697E-2,-2.363553643E-1
3.196665316E0,-2.274337858E-1,1.013332009E-1,-2.384859025E-1
3.199153024E0,-2.082590461E-1,1.141163707E-1,-2.406164259E-1
3.201640733E0,-1.869537681E-1,1.268995255E-1,-2.427469492E-1
3.204128441E0,-1.656484902E-1,1.396826953E-1,-2.438122183E-1
3.206616149E0,-1.454084814E-1,1.503353268E-1,-2.448774725E-1
3.209103858E0,-1.262337416E-1,1.577921808E-1,-2.448774725E-1
3.211591566E0,-1.091895252E-1,1.641837656E-1,-2.427469492E-1
3.214079274E0,-9.640636295E-2,1.716406047E-1,-2.395511568E-1
3.216566983E0,-8.681898564E-2,1.790974438E-1,-2.352901101E-1
3.219054691E0,-8.042740822E-2,1.854890287E-1,-2.288985252E-1
3.221542399E0,-7.723161578E-2,1.940111369E-1,-2.225069404E-1
3.224030108E0,-7.829687744E-2,2.004027218E-1,-2.150501013E-1
3.226517816E0,-8.149266988E-2,2.046637833E-1,-2.086585164E-1
3.229005524E0,-8.788424730E-2,2.067943066E-1,-2.022669315E-1
3.231493233E0,-9.747162461E-2,2.067943066E-1,-1.958753467E-1
3.233980941E0,-1.102547869E-1,2.035985142E-1,-1.894837767E-1
3.236468649E0,-1.251684725E-1,1.982721984E-1,-1.841574460E-1
3.238956358E0,-1.432779580E-1,1.908153445E-1,-1.767006069E-1
3.241444066E0,-1.624527127E-1,1.822932363E-1,-1.703090221E-1
3.243931774E0,-1.848232448E-1,1.737711281E-1,-1.628521830E-1
3.246419483E0,-2.071937770E-1,1.641837656E-1,-1.543300748E-1
3.248907191E0,-2.316948473E-1,1.545963883E-1,-1.447426975E-1
3.251394899E0,-2.561959028E-1,1.428784877E-1,-1.362205893E-1
3.253882608E0,-2.775011659E-1,1.300953180E-1,-1.276984811E-1
3.256370316E0,-2.977411747E-1,1.173121557E-1,-1.202416345E-1
3.258858024E0,-3.147853911E-1,1.045289934E-1,-1.159805804E-1
3.261345733E0,-3.275685608E-1,9.174583107E-2,-1.138500497E-1
3.263833441E0,-3.371559381E-1,8.109319210E-2,-1.138500497E-1
3.266321149E0,-3.424822688E-1,7.363634557E-2,-1.170458421E-1
3.268808858E0,-3.446127772E-1,7.150582224E-2,-1.213068962E-1
3.271296566E0,-3.435475230E-1,7.363634557E-2,-1.266332120E-1
3.273784274E0,-3.382211924E-1,8.002793044E-2,-1.319595277E-1
3.276271983E0,-3.296990991E-1,9.068056941E-2,-1.362205893E-1
3.278759691E0,-3.179811835E-1,1.034637317E-1,-1.394163817E-1
3.281247399E0,-3.030675054E-1,1.205079481E-1,-1.415469050E-1
3.283735108E0,-2.849580348E-1,1.375521719E-1,-1.436774284E-1
3.286222816E0,-2.657832801E-1,1.556616426E-1,-1.458079666E-1
3.288710524E0,-2.455432713E-1,1.716406047E-1,-1.458079666E-1
3.291198233E0,-2.242379934E-1,1.844237745E-1,-1.468732208E-1
3.293685941E0,-2.029327303E-1,1.950764060E-1,-1.447426975E-1
3.296173649E0,-1.848232448E-1,2.025332451E-1,-1.415469050E-1
3.298661358E0,-1.699095517E-1,2.067943066E-1,-1.372858584E-1
3.301149066E0,-1.581916511E-1,2.089248300E-1,-1.319595277E-1
3.303636774E0,-1.507348120E-1,2.078595608E-1,-1.245026886E-1
3.306124483E0,-1.475390196E-1,2.057290375E-1,-1.170458421E-1
3.308612191E0,-1.507348120E-1,2.014679909E-1,-1.085237339E-1
3.311099899E0,-1.581916511E-1,1.950764060E-1,-9.893636405E-2
3.313587608E0,-1.709748209E-1,1.876195520E-1,-8.934898674E-2
3.316075316E0,-1.880190372E-1,1.780321896E-1,-7.976161689E-2
3.318563024E0,-2.071937770E-1,1.652490199E-1,-7.017423958E-2
3.321050733E0,-2.295643091E-1,1.482048035E-1,-6.058686972E-2
3.323538441E0,-2.540653646E-1,1.300953180E-1,-5.206476152E-2
3.326026149E0,-2.796317041E-1,1.109205782E-1,-4.141212255E-2
3.328513858E0,-3.051980436E-1,9.174583107E-2,-3.075948730E-2
3.331001566E0,-3.318296373E-1,7.470161468E-2,-2.010685205E-2
3.333489274E0,-3.584612012E-1,6.298371404E-2,-9.454214945E-3
3.335976983E0,-3.840275407E-1,5.659212917E-2,3.328948980E-3
3.338464691E0,-4.074633420E-1,5.659212917E-2,1.398158539E-2
3.340952399E0,-4.287686050E-1,6.191844866E-2,2.463422157E-2
3.343440108E0,-4.479433596E-1,7.150582224E-2,3.422159329E-2
3.345927816E0,-4.639223218E-1,8.428898454E-2,4.167843983E-2
3.348415524E0,-4.767054915E-1,9.813741595E-2,4.913528636E-2
3.350903233E0,-4.852275848E-1,1.130511016E-1,5.446160212E-2
3.353390941E0,-4.905539155E-1,1.258342713E-1,5.872265995E-2
3.355878649E0,-4.905539155E-1,1.375521719E-1,6.191844866E-2
3.358366358E0,-4.884233773E-1,1.482048035E-1,6.298371404E-2
3.360854066E0,-4.820317924E-1,1.588574350E-1,6.191844866E-2
3.363341774E0,-4.745749533E-1,1.695100814E-1,5.978792161E-2
3.365829483E0,-4.639223218E-1,1.812279820E-1,5.659212917E-2
3.368317191E0,-4.532696903E-1,1.929458827E-1,5.233107507E-2
3.370804899E0,-4.404865205E-1,2.057290375E-1,4.593949392E-2
3.373292608E0,-4.277033508E-1,2.185122073E-1,3.741738573E-2
3.375780316E0,-4.149201810E-1,2.323606312E-1,2.889527567E-2
3.378268024E0,-4.010717571E-1,2.462090552E-1,1.717737690E-2
3.380755733E0,-3.893538713E-1,2.568616867E-1,4.394212738E-3
3.383243441E0,-3.787012100E-1,2.653838098E-1,-1.051947847E-2
3.385731149E0,-3.691138625E-1,2.696448565E-1,-2.543316968E-2
3.388218858E0,-3.605917394E-1,2.685796022E-1,-4.247738793E-2
3.390706566E0,-3.542001545E-1,2.643185556E-1,-5.952160433E-2
3.393194274E0,-3.488738537E-1,2.568616867E-1,-7.550056279E-2
3.395681983E0,-3.446127772E-1,2.472743243E-1,-9.041424841E-2
3.398169691E0,-3.424822688E-1,2.355564237E-1,-1.010668874E-1
3.400657399E0,-3.403517306E-1,2.206427306E-1,-1.085237339E-1
3.403145108E0,-3.392864764E-1,2.046637833E-1,-1.149153188E-1
3.405632816E0,-3.392864764E-1,1.865542978E-1,-1.181111038E-1
3.408120524E0,-3.392864764E-1,1.673795432E-1,-1.191763729E-1
3.410608233E0,-3.392864764E-1,1.460742801E-1,-1.191763729E-1
3.413095941E0,-3.382211924E-1,1.247690022E-1,-1.170458421E-1
3.415583649E0,-3.371559381E-1,1.023984700E-1,-1.149153188E-1
3.418071358E0,-3.339601457E-1,8.002793044E-2,-1.117195264E-1
3.420559066E0,-3.286338449E-1,5.872265995E-2,-1.063932031E-1
3.423046774E0,-3.201117218E-1,3.848264739E-2,-1.010668874E-1
3.425534483E0,-3.083938360E-1,2.143843099E-2,-9.361004084E-2
3.428022191E0,-2.945453823E-1,6.524739787E-3,-8.721846342E-2
3.430509899E0,-2.775011659E-1,-4.127896391E-3,-7.869634777E-2
3.432997608E0,-2.593916953E-1,-1.051947847E-2,-7.017423958E-2
3.435485316E0,-2.391516864E-1,-1.371526904E-2,-6.058686972E-2
3.437973024E0,-2.178464085E-1,-1.584579609E-2,-4.993423447E-2
3.440460733E0,-1.944106072E-1,-1.478053257E-2,-4.034686089E-2
3.442948441E0,-1.699095517E-1,-1.265000552E-2,-3.182475269E-2
3.445436149E0,-1.443432271E-1,-1.158474199E-2,-2.223737910E-2
3.447923858E0,-1.187768951E-1,-1.158474199E-2,-1.265000552E-2
3.450411566E0,-9.321057051E-2,-1.478053257E-2,-4.127896391E-3
3.452899274E0,-6.870950758E-2,-2.010685205E-2,4.394212738E-3
3.455386983E0,-4.527370632E-2,-2.756369673E-2,1.291632187E-2
3.457874691E0,-2.396843210E-2,-3.821633384E-2,2.356895804E-2
3.460362399E0,-4.793686327E-3,-4.993423447E-2,3.528685868E-2
3.462850108E0,1.225053146E-2,-6.591318548E-2,4.700475931E-2
3.465337816E0,2.609895915E-2,-8.189214021E-2,5.872265995E-2
3.467825524E0,3.888212144E-2,-1.000016257E-1,7.150582224E-2
3.470313233E0,4.846949503E-2,-1.191763729E-1,8.322372288E-2
3.472800941E0,5.592634156E-2,-1.394163817E-1,9.494162351E-2
3.475288649E0,6.125266105E-2,-1.575258672E-1,1.045289934E-1
3.477776358E0,6.657897681E-2,-1.756353378E-1,1.109205782E-1
3.480264066E0,6.977476925E-2,-1.905490309E-1,1.173121557E-1
3.482751774E0,7.190529257E-2,-2.022669315E-1,1.194426864E-1
3.485239483E0,7.403582335E-2,-2.107890397E-1,1.205079481E-1
3.487727191E0,7.723161578E-2,-2.139848322E-1,1.183774248E-1
3.490214899E0,7.936213911E-2,-2.150501013E-1,1.162468940E-1
3.492702608E0,8.255793154E-2,-2.129195631E-1,1.109205782E-1
3.495190316E0,8.575372398E-2,-2.086585164E-1,1.066595241E-1
3.497678024E0,9.001477808E-2,-2.012016773E-1,1.023984700E-1
3.500165733E0,9.427583218E-2,-1.948100924E-1,9.920267761E-2
3.502653441E0,9.747162461E-2,-1.873532385E-1,9.494162351E-2
3.505141149E0,1.017326787E-1,-1.809616536E-1,9.068056941E-2
3.507628858E0,1.049284711E-1,-1.745700836E-1,8.748477697E-2
3.510116566E0,1.091895252E-1,-1.692437679E-1,8.215846121E-2
3.512604274E0,1.113200486E-1,-1.639174372E-1,7.683213800E-2
3.515091983E0,1.145158410E-1,-1.585911214E-1,7.044056058E-2
3.517579691E0,1.155811027E-1,-1.543300748E-1,6.404897571E-2
3.520067399E0,1.155811027E-1,-1.500690132E-1,5.659212917E-2
3.522555108E0,1.145158410E-1,-1.447426975E-1,5.020054802E-2
3.525042816E0,1.123853177E-1,-1.415469050E-1,4.274370521E-2
3.527530524E0,1.081242561E-1,-1.383511126E-1,3.635212034E-2
3.530018233E0,1.038632020E-1,-1.372858584E-1,3.102580272E-2
3.532505941E0,9.853688627E-2,-1.351553202E-1,2.569948509E-2
3.534993649E0,9.108003974E-2,-1.351553202E-1,2.143843099E-2
3.537481358E0,8.362319320E-2,-1.351553202E-1,1.824264042E-2
3.539969066E0,7.510108501E-2,-1.362205893E-1,1.611211337E-2
3.542456774E0,6.657897681E-2,-1.383511126E-1,1.504684892E-2
3.544944483E0,5.805686861E-2,-1.383511126E-1,1.504684892E-2
3.547432191E0,5.060002208E-2,-1.383511126E-1,1.717737690E-2
3.549919899E0,4.314317927E-2,-1.362205893E-1,1.930790395E-2
3.552407608E0,3.675159439E-2,-1.308942735E-1,2.037316747E-2
3.554895316E0,3.142527863E-2,-1.255679578E-1,2.143843099E-2
3.557383024E0,2.822948620E-2,-1.170458421E-1,2.143843099E-2
3.559870733E0,2.503369562E-2,-1.074584723E-1,1.930790395E-2
3.562358441E0,2.396843210E-2,-9.787109494E-2,1.611211337E-2
3.564846149E0,2.396843210E-2,-8.615319431E-2,1.185105834E-2
3.567333858E0,2.396843210E-2,-7.550056279E-2,5.459476262E-3
3.569821566E0,2.503369562E-2,-6.484792382E-2,-1.997369342E-3
3.572309274E0,2.822948620E-2,-5.419528857E-2,-1.158474199E-2
3.574796983E0,3.142527863E-2,-4.354264960E-2,-2.117211558E-2
3.577284691E0,3.355580568E-2,-3.182475269E-2,-3.075948730E-2
3.579772399E0,3.568633273E-2,-2.117211558E-2,-4.247738793E-2
3.582260108E0,3.781685978E-2,-1.051947847E-2,-5.632581562E-2
3.584747816E0,3.994738683E-2,-9.321057005E-4,-7.123950869E-2
3.587235524E0,3.994738683E-2,6.524739787E-3,-8.508793265E-2
3.589723233E0,3.994738683E-2,1.291632187E-2,-9.893636405E-2
3.592210941E0,3.888212144E-2,1.717737690E-2,-1.127847880E-1
3.594698649E0,3.675159439E-2,2.037316747E-2,-1.255679578E-1
3.597186358E0,3.355580568E-2,2.037316747E-2,-1.372858584E-1
3.599674066E0,2.929474972E-2,2.037316747E-2,-1.479384899E-1
3.602161774E0,2.290316857E-2,1.717737690E-2,-1.553953290E-1
3.604649483E0,1.544632297E-2,1.504684892E-2,-1.607216448E-1
3.607137191E0,6.924213842E-3,1.078579482E-2,-1.617869139E-1
3.609624899E0,-4.793686327E-3,6.524739787E-3,-1.596563905E-1
3.612112608E0,-1.651158556E-2,1.198421582E-3,-1.543300748E-1
3.614600316E0,-3.036001325E-2,-4.127896391E-3,-1.447426975E-1
3.617088024E0,-4.527370632E-2,-1.051947847E-2,-1.330247968E-1
3.619575733E0,-5.912213027E-2,-1.797632314E-2,-1.191763729E-1
3.622063441E0,-7.403582335E-2,-2.330264263E-2,-1.042626798E-1
3.624551149E0,-8.894951642E-2,-2.969422378E-2,-8.828372508E-2
3.627038858E0,-1.027979404E-1,-3.395527974E-2,-7.017423958E-2
3.629526566E0,-1.155811027E-1,-3.715106845E-2,-5.313002318E-2
3.632014274E0,-1.283642650E-1,-3.821633384E-2,-3.502054140E-2
3.634501983E0,-1.411474347E-1,-3.715106845E-2,-1.691105962E-2
3.636989691E0,-1.507348120E-1,-3.395527974E-2,2.263685223E-3
3.639477399E0,-1.592569202E-1,-3.075948730E-2,2.143843099E-2
3.641965108E0,-1.656484902E-1,-2.649843320E-2,4.061317816E-2
3.644452816E0,-1.699095517E-1,-2.330264263E-2,5.872265995E-2
3.646940524E0,-1.720400751E-1,-1.904158667E-2,7.470161468E-2
3.649428233E0,-1.720400751E-1,-1.797632314E-2,8.855003864E-2
3.651915941E0,-1.699095517E-1,-1.478053257E-2,1.002679393E-1
3.654403649E0,-1.635179669E-1,-1.265000552E-2,1.087900475E-1
3.656891358E0,-1.581916511E-1,-1.051947847E-2,1.151816323E-1
3.659379066E0,-1.486042738E-1,-6.258423906E-3,1.183774248E-1
3.661866774E0,-1.379516423E-1,-9.321057005E-4,1.194426864E-1
3.664354483E0,-1.262337416E-1,4.394212738E-3,1.173121557E-1
3.666842191E0,-1.123853177E-1,1.185105834E-2,1.130511016E-1
3.669329899E0,-9.853688627E-2,1.930790395E-2,1.077247858E-1
3.671817608E0,-8.362319320E-2,2.676474862E-2,1.013332009E-1
3.674305316E0,-6.870950758E-2,3.422159329E-2,9.494162351E-2
3.676793024E0,-5.273054913E-2,4.061317816E-2,8.641951531E-2
3.679280733E0,-3.781685978E-2,4.700475931E-2,7.896266878E-2
3.681768441E0,-2.290316857E-2,5.126581341E-2,7.150582224E-2
3.684256149E0,-9.054740891E-3,5.446160212E-2,6.404897571E-2
3.686743858E0,2.663159044E-3,5.659212917E-2,5.659212917E-2
3.689231566E0,1.225053146E-2,5.765739456E-2,5.126581341E-2
3.691719274E0,2.077264152E-2,5.659212917E-2,4.700475931E-2
3.694206983E0,2.716422267E-2,5.659212917E-2,4.274370521E-2
3.696694691E0,3.036001325E-2,5.659212917E-2,4.061317816E-2
3.699182399E0,3.249054030E-2,5.659212917E-2,3.954791278E-2
3.701670108E0,3.142527863E-2,5.552686751E-2,3.954791278E-2
3.704157816E0,2.929474972E-2,5.339634046E-2,3.954791278E-2
3.706645524E0,2.503369562E-2,5.126581341E-2,4.061317816E-2
3.709133233E0,1.864211448E-2,4.700475931E-2,4.167843983E-2
3.711620941E0,1.012000442E-2,4.167843983E-2,4.380896688E-2
3.714108649E0,5.326318205E-4,3.422159329E-2,4.593949392E-2
3.716596358E0,-1.225053146E-2,2.463422157E-2,4.807002097E-2
3.719084066E0,-2.396843210E-2,1.291632187E-2,4.913528636E-2
3.721571774E0,-3.675159439E-2,1.331579551E-4,4.913528636E-2
3.724059483E0,-4.740423337E-2,-1.371526904E-2,4.913528636E-2
3.726547191E0,-5.699160323E-2,-2.649843320E-2,4.700475931E-2
3.729034899E0,-6.657897681E-2,-3.928159550E-2,4.487423226E-2
3.731522608E0,-7.403582335E-2,-4.993423447E-2,4.167843983E-2
3.734010316E0,-7.829687744E-2,-5.952160433E-2,3.848264739E-2
3.736498024E0,-8.149266988E-2,-6.697845459E-2,3.528685868E-2
3.738985733E0,-8.149266988E-2,-7.337003201E-2,3.102580272E-2
3.741473441E0,-7.936213911E-2,-7.869634777E-2,2.569948509E-2
3.743961149E0,-7.403582335E-2,-8.295740932E-2,2.037316747E-2
3.746448858E0,-6.657897681E-2,-8.615319431E-2,1.398158539E-2
3.748936566E0,-5.486107618E-2,-8.828372508E-2,6.524739787E-3
3.751424274E0,-4.101264849E-2,-8.721846342E-2,1.331579551E-4
3.753911983E0,-2.716422267E-2,-8.615319431E-2,-7.323687430E-3
3.756399691E0,-1.012000442E-2,-8.295740932E-2,-1.478053257E-2
3.758887399E0,7.989477366E-3,-7.550056279E-2,-2.223737910E-2
3.761375108E0,2.503369562E-2,-6.697845459E-2,-2.862896025E-2
3.763862816E0,4.101264849E-2,-5.632581562E-2,-3.502054140E-2
3.766350524E0,5.592634156E-2,-4.354264960E-2,-4.034686089E-2
3.768838233E0,6.764423847E-2,-3.182475269E-2,-4.567318037E-2
3.771325941E0,7.829687744E-2,-1.904158667E-2,-5.099949613E-2
3.773813649E0,8.575372398E-2,-6.258423906E-3,-5.419528857E-2
3.776301358E0,9.108003974E-2,4.394212738E-3,-5.845634267E-2
3.778789066E0,9.321057051E-2,1.398158539E-2,-6.058686972E-2
3.781276774E0,9.214530140E-2,2.250369452E-2,-6.378266215E-2
3.783764483E0,8.894951642E-2,2.783001214E-2,-6.591318548E-2
3.786252191E0,8.255793154E-2,3.209106624E-2,-6.804371625E-2
3.788739899E0,7.297056168E-2,3.422159329E-2,-7.123950869E-2
3.791227608E0,6.125266105E-2,3.528685868E-2,-7.230477035E-2
3.793715316E0,4.633896798E-2,3.422159329E-2,-7.550056279E-2
3.796203024E0,2.822948620E-2,3.102580272E-2,-7.656582445E-2
3.798690733E0,9.054740891E-3,2.676474862E-2,-7.763108611E-2
3.801178441E0,-1.118526794E-2,2.037316747E-2,-7.869634777E-2
3.803666149E0,-3.142527863E-2,1.291632187E-2,-7.976161689E-2
3.806153858E0,-5.166528746E-2,5.459476262E-3,-8.082687855E-2
3.808641566E0,-7.297056168E-2,-1.997369342E-3,-8.082687855E-2
3.811129274E0,-9.214530140E-2,-9.454214945E-3,-8.082687855E-2
3.813616983E0,-1.091895252E-1,-1.691105962E-2,-7.976161689E-2
3.816104691E0,-1.251684725E-1,-2.330264263E-2,-7.763108611E-2
3.818592399E0,-1.379516423E-1,-2.862896025E-2,-7.550056279E-2
3.821080108E0,-1.496695429E-1,-3.289001435E-2,-7.123950869E-2
3.823567816E0,-1.592569202E-1,-3.821633384E-2,-6.804371625E-2
3.826055524E0,-1.667137593E-1,-4.141212255E-2,-6.484792382E-2
3.828543233E0,-1.709748209E-1,-4.354264960E-2,-5.952160433E-2
3.831030941E0,-1.741705984E-1,-4.673844203E-2,-5.526055023E-2
3.833518649E0,-1.741705984E-1,-4.780370742E-2,-5.206476152E-2
3.836006358E0,-1.720400751E-1,-4.993423447E-2,-4.993423447E-2
3.838494066E0,-1.677790284E-1,-4.993423447E-2,-4.780370742E-2
3.840981774E0,-1.624527127E-1,-4.993423447E-2,-4.567318037E-2
3.843469483E0,-1.549958587E-1,-4.886896908E-2,-4.354264960E-2
3.845957191E0,-1.464737505E-1,-4.567318037E-2,-4.034686089E-2
3.848444899E0,-1.358211190E-1,-4.247738793E-2,-3.928159550E-2
3.850932608E0,-1.241032109E-1,-3.715106845E-2,-3.608580679E-2
3.853420316E0,-1.123853177E-1,-2.969422378E-2,-3.182475269E-2
3.855908024E0,-1.017326787E-1,-2.117211558E-2,-2.756369673E-2
3.858395733E0,-8.894951642E-2,-1.051947847E-2,-2.117211558E-2
3.860883441E0,-7.723161578E-2,1.198421582E-3,-1.371526904E-2
3.863371149E0,-6.444845349E-2,1.291632187E-2,-6.258423906E-3
3.865858858E0,-5.273054913E-2,2.463422157E-2,2.263685223E-3
3.868346566E0,-3.994738683E-2,3.635212034E-2,9.720530361E-3
3.870834274E0,-2.822948620E-2,4.807002097E-2,1.611211337E-2
3.873321983E0,-1.757685095E-2,6.085318699E-2,2.250369452E-2
3.875809691E0,-7.989477366E-3,7.150582224E-2,2.889527567E-2
3.878297399E0,1.597895520E-3,8.322372288E-2,3.422159329E-2
3.880785108E0,9.054740891E-3,9.387636185E-2,3.848264739E-2
3.883272816E0,1.544632297E-2,1.034637317E-1,4.274370521E-2
3.885760524E0,2.077264152E-2,1.141163707E-1,4.700475931E-2
3.888248233E0,2.290316857E-2,1.226384789E-1,5.020054802E-2
3.890735941E0,2.503369562E-2,1.300953180E-1,5.339634046E-2
3.893223649E0,2.396843210E-2,1.364869028E-1,5.552686751E-2
3.895711358E0,2.183790505E-2,1.418132186E-1,5.872265995E-2
3.898199066E0,1.864211448E-2,1.450090110E-1,6.085318699E-2
3.900686774E0,1.331579592E-2,1.471395344E-1,6.404897571E-2
3.903174483E0,5.858949851E-3,1.482048035E-1,6.617950648E-2
3.905662191E0,-2.663159044E-3,1.460742801E-1,6.724476814E-2
3.908149899E0,-1.225053146E-2,1.418132186E-1,6.831002980E-2
3.910637608E0,-2.183790505E-2,1.364869028E-1,6.831002980E-2
3.913125316E0,-3.355580568E-2,1.290300637E-1,6.831002980E-2
3.915613024E0,-4.527370632E-2,1.194426864E-1,6.937529147E-2
3.918100733E0,-5.699160323E-2,1.109205782E-1,6.937529147E-2
3.920588441E0,-6.764423847E-2,1.002679393E-1,6.937529147E-2
3.923076149E0,-8.042740822E-2,8.961530030E-2,7.044056058E-2
3.925563858E0,-9.001477808E-2,7.896266878E-2,7.150582224E-2
3.928051566E0,-9.960214794E-2,6.724476814E-2,7.150582224E-2
3.930539326E0,-1.091895252E-1,5.552686751E-2,7.150582224E-2
3.933027087E0,-1.166463718E-1,4.487423226E-2,7.257108390E-2
3.935514847E0,-1.219726875E-1,3.209106624E-2,7.257108390E-2
3.938002608E0,-1.241032109E-1,1.824264042E-2,7.150582224E-2
3.940490368E0,-1.262337416E-1,4.394212738E-3,7.044056058E-2
3.942978128E0,-1.262337416E-1,-9.454214945E-3,6.937529147E-2
3.945465889E0,-1.241032109E-1,-2.223737910E-2,6.617950648E-2
3.947953649E0,-1.209074259E-1,-3.395527974E-2,6.404897571E-2
3.950441410E0,-1.166463718E-1,-4.247738793E-2,6.191844866E-2
3.952929170E0,-1.113200486E-1,-4.886896908E-2,5.978792161E-2
3.955416930E0,-1.049284711E-1,-5.099949613E-2,5.765739456E-2
3.957904691E0,-9.534109384E-2,-5.099949613E-2,5.552686751E-2
3.960392451E0,-8.681898564E-2,-4.886896908E-2,5.339634046E-2
3.962880212E0,-7.510108501E-2,-4.354264960E-2,5.233107507E-2
3.965367972E0,-6.444845349E-2,-3.608580679E-2,5.020054802E-2
3.967855733E0,-5.379581451E-2,-2.649843320E-2,4.913528636E-2
3.970343493E0,-4.207791388E-2,-1.691105962E-2,4.700475931E-2
3.972831253E0,-3.249054030E-2,-6.258423906E-3,4.593949392E-2
3.975319014E0,-2.290316857E-2,4.394212738E-3,4.380896688E-2
3.977806774E0,-1.438105945E-2,1.504684892E-2,4.380896688E-2
3.980294535E0,-5.858949851E-3,2.569948509E-2,4.167843983E-2
3.982782295E0,-5.326318205E-4,3.528685868E-2,3.954791278E-2
3.985270055E0,2.663159044E-3,4.274370521E-2,3.741738573E-2
3.987757816E0,3.728422802E-3,5.020054802E-2,3.209106624E-2
3.990245576E0,2.663159044E-3,5.552686751E-2,2.676474862E-2
3.992733337E0,-5.326318205E-4,6.085318699E-2,2.143843099E-2
3.995221097E0,-5.858949851E-3,6.404897571E-2,1.504684892E-2
3.997708805E0,-1.331579592E-2,6.937529147E-2,8.655266836E-3
4.000196514E0,-2.183790505E-2,7.257108390E-2,2.263685223E-3
4.002684222E0,-3.142527863E-2,7.683213800E-2,-4.127896391E-3
4.005171930E0,-4.207791388E-2,8.002793044E-2,-8.388951421E-3
4.007659639E0,-5.379581451E-2,8.322372288E-2,-1.371526904E-2
4.010147347E0,-6.551371515E-2,8.641951531E-2,-1.797632314E-2
4.012635055E0,-7.616634667E-2,8.748477697E-2,-2.117211558E-2
4.015122764E0,-8.788424730E-2,8.748477697E-2,-2.436790615E-2
4.017610472E0,-9.960214794E-2,8.748477697E-2,-2.756369673E-2
4.020098180E0,-1.113200486E-1,8.535424620E-2,-2.862896025E-2
4.022585889E0,-1.219726875E-1,8.215846121E-2,-2.969422378E-2
4.025073597E0,-1.326253265E-1,7.896266878E-2,-3.075948730E-2
4.027561305E0,-1.422126889E-1,7.363634557E-2,-3.289001435E-2
4.030049014E0,-1.528653353E-1,6.831002980E-2,-3.502054140E-2
4.032536722E0,-1.613874435E-1,6.085318699E-2,-3.821633384E-2
4.035024430E0,-1.688442826E-1,5.339634046E-2,-4.034686089E-2
4.037512139E0,-1.752358675E-1,4.593949392E-2,-4.247738793E-2
4.039999847E0,-1.794969290E-1,3.741738573E-2,-4.567318037E-2
4.042487555E0,-1.837579757E-1,2.996053919E-2,-4.780370742E-2
4.044975264E0,-1.858884990E-1,2.356895804E-2,-4.886896908E-2
4.047462972E0,-1.858884990E-1,1.824264042E-2,-4.993423447E-2
4.049950680E0,-1.837579757E-1,1.398158539E-2,-4.886896908E-2
4.052438389E0,-1.794969290E-1,1.185105834E-2,-4.673844203E-2
4.054926097E0,-1.731053442E-1,1.078579482E-2,-4.354264960E-2
4.057413805E0,-1.645832360E-1,1.185105834E-2,-4.034686089E-2
4.059901514E0,-1.528653353E-1,1.504684892E-2,-3.502054140E-2
4.062389222E0,-1.400821656E-1,1.930790395E-2,-3.075948730E-2
4.064876930E0,-1.241032109E-1,2.569948509E-2,-2.543316968E-2
4.067364639E0,-1.059937328E-1,3.315633163E-2,-1.904158667E-2
4.069852347E0,-8.681898564E-2,4.167843983E-2,-1.265000552E-2
4.072340055E0,-6.657897681E-2,5.126581341E-2,-7.323687430E-3
4.074827764E0,-4.527370632E-2,6.085318699E-2,1.331579551E-4
4.077315472E0,-2.503369562E-2,6.937529147E-2,7.590003312E-3
4.079803180E0,-5.858949851E-3,7.683213800E-2,1.504684892E-2
4.082290889E0,1.331579592E-2,8.322372288E-2,2.143843099E-2
4.084778597E0,3.036001325E-2,8.748477697E-2,2.783001214E-2
4.087266305E0,4.633896798E-2,9.174583107E-2,3.422159329E-2
4.089754014E0,6.125266105E-2,9.387636185E-2,3.954791278E-2
4.092241722E0,7.190529257E-2,9.387636185E-2,4.380896688E-2
4.094729430E0,7.936213911E-2,9.387636185E-2,4.913528636E-2
4.097217139E0,8.575372398E-2,9.174583107E-2,5.339634046E-2
4.099704847E0,9.001477808E-2,8.748477697E-2,5.765739456E-2
4.102192555E0,9.001477808E-2,8.535424620E-2,6.191844866E-2
4.104680264E0,8.788424730E-2,8.109319210E-2,6.617950648E-2
4.107167972E0,8.255793154E-2,7.576687634E-2,6.937529147E-2
4.109655680E0,7.510108501E-2,6.937529147E-2,7.257108390E-2
4.112143389E0,6.551371515E-2,6.191844866E-2,7.576687634E-2
4.114631097E0,5.486107618E-2,5.446160212E-2,7.789740711E-2
4.117118805E0,4.314317927E-2,4.487423226E-2,8.002793044E-2
4.119606514E0,3.036001325E-2,3.741738573E-2,8.215846121E-2
4.122094222E0,1.864211448E-2,2.996053919E-2,8.428898454E-2
4.124581930E0,6.924213842E-3,2.356895804E-2,8.535424620E-2
4.127069639E0,-3.728422802E-3,1.717737690E-2,8.748477697E-2
4.129557347E0,-1.331579592E-2,1.078579482E-2,8.961530030E-2
4.132045055E0,-1.970737800E-2,4.394212738E-3,8.961530030E-2
4.134532764E0,-2.503369562E-2,-1.997369342E-3,8.961530030E-2
4.137020472E0,-2.609895915E-2,-7.323687430E-3,8.855003864E-2
4.139508180E0,-2.609895915E-2,-1.478053257E-2,8.748477697E-2
4.141995889E0,-2.503369562E-2,-2.223737910E-2,8.535424620E-2
4.144483597E0,-2.077264152E-2,-2.969422378E-2,8.322372288E-2
4.146971305E0,-1.544632297E-2,-3.608580679E-2,7.896266878E-2
4.149459014E0,-7.989477366E-3,-4.247738793E-2,7.363634557E-2
4.151946722E0,1.597895520E-3,-4.780370742E-2,6.831002980E-2
4.154434430E0,1.331579592E-2,-5.099949613E-2,6.191844866E-2
4.156922139E0,2.716422267E-2,-5.313002318E-2,5.552686751E-2
4.159409847E0,4.207791388E-2,-5.419528857E-2,5.020054802E-2
4.161897555E0,5.805686861E-2,-5.419528857E-2,4.487423226E-2
4.164385264E0,7.510108501E-2,-5.206476152E-2,4.061317816E-2
4.166872972E0,9.108003974E-2,-5.099949613E-2,3.848264739E-2
4.169360680E0,1.059937328E-1,-4.993423447E-2,3.741738573E-2
4.171848389E0,1.209074259E-1,-4.886896908E-2,3.741738573E-2
4.174336097E0,1.336905807E-1,-4.886896908E-2,3.848264739E-2
4.176823805E0,1.443432271E-1,-4.780370742E-2,4.061317816E-2
4.179311514E0,1.528653353E-1,-4.673844203E-2,4.487423226E-2
4.181799222E0,1.581916511E-1,-4.460791498E-2,5.020054802E-2
4.184286930E0,1.581916511E-1,-4.141212255E-2,5.659212917E-2
4.186774639E0,1.560611278E-1,-3.928159550E-2,6.511423737E-2
4.189262347E0,1.475390196E-1,-3.715106845E-2,7.683213800E-2
4.191750055E0,1.347558498E-1,-3.715106845E-2,8.855003864E-2
4.194237764E0,1.177116334E-1,-4.034686089E-2,1.013332009E-1
4.196725472E0,9.640636295E-2,-4.460791498E-2,1.141163707E-1
4.199213180E0,7.190529257E-2,-5.313002318E-2,1.279647946E-1
4.201700889E0,4.420844093E-2,-6.484792382E-2,1.407479644E-1
4.204188597E0,1.438105945E-2,-7.763108611E-2,1.535311192E-1
4.206676305E0,-1.651158556E-2,-9.147951752E-2,1.652490199E-1
4.209164014E0,-4.846949503E-2,-1.053279415E-1,1.769669205E-1
4.211651722E0,-8.042740822E-2,-1.213068962E-1,1.876195520E-1
4.214139430E0,-1.123853177E-1,-1.383511126E-1,1.950764060E-1
4.216627139E0,-1.411474347E-1,-1.553953290E-1,2.014679909E-1
4.219114847E0,-1.677790284E-1,-1.724395454E-1,2.057290375E-1
4.221602555E0,-1.912148297E-1,-1.894837767E-1,2.078595608E-1
4.224090264E0,-2.114548385E-1,-2.075932473E-1,2.099900991E-1
4.226577972E0,-2.274337858E-1,-2.257027328E-1,2.099900991E-1
4.229065680E0,-2.402169555E-1,-2.416816950E-1,2.099900991E-1
4.231553389E0,-2.476737946E-1,-2.587259114E-1,2.078595608E-1
4.234041097E0,-2.519348562E-1,-2.757701278E-1,2.067943066E-1
4.236528805E0,-2.530001104E-1,-2.928143442E-1,2.025332451E-1
4.239016514E0,-2.487390637E-1,-3.109238148E-1,1.972069293E-1
4.241504222E0,-2.412822098E-1,-3.279680312E-1,1.918806136E-1
4.243991930E0,-2.295643091E-1,-3.439469934E-1,1.844237745E-1
4.246479639E0,-2.146506310E-1,-3.577954173E-1,1.769669205E-1
4.248967347E0,-1.954758763E-1,-3.705785871E-1,1.695100814E-1
4.251455055E0,-1.752358675E-1,-3.801659644E-1,1.599227041E-1
4.253942764E0,-1.528653353E-1,-3.865575492E-1,1.524658650E-1
4.256430472E0,-1.304948032E-1,-3.886880577E-1,1.450090110E-1
4.258918180E0,-1.070589945E-1,-3.865575492E-1,1.396826953E-1
4.261405889E0,-8.255793154E-2,-3.812312186E-1,1.354216337E-1
4.263893597E0,-5.912213027E-2,-3.727091253E-1,1.343563795E-1
4.266381305E0,-3.675159439E-2,-3.599259555E-1,1.332911104E-1
4.268869014E0,-1.651158556E-2,-3.460775316E-1,1.343563795E-1
4.271356722E0,1.597895520E-3,-3.311638236E-1,1.354216337E-1
4.273844430E0,1.651158556E-2,-3.162501454E-1,1.364869028E-1
4.276332139E0,2.822948620E-2,-3.024017215E-1,1.396826953E-1
4.278819847E0,3.568633273E-2,-2.917490900E-1,1.428784877E-1
4.281307555E0,3.994738683E-2,-2.832269669E-1,1.460742801E-1
4.283795264E0,4.207791388E-2,-2.779006660E-1,1.482048035E-1
4.286282972E0,3.994738683E-2,-2.757701278E-1,1.492700726E-1
4.288770680E0,3.675159439E-2,-2.779006660E-1,1.514005959E-1
4.291258389E0,3.036001325E-2,-2.821617126E-1,1.524658650E-1
4.293746097E0,2.290316857E-2,-2.896185517E-1,1.524658650E-1
4.296233805E0,1.438105945E-2,-2.992059290E-1,1.524658650E-1
4.298721514E0,5.858949851E-3,-3.109238148E-1,1.503353268E-1
4.301209222E0,-3.728422802E-3,-3.215764761E-1,1.492700726E-1
4.303696930E0,-1.438105945E-2,-3.322291076E-1,1.492700726E-1
4.306184639E0,-2.396843210E-2,-3.407512009E-1,1.492700726E-1
4.308672347E0,-3.355580568E-2,-3.482080400E-1,1.503353268E-1
4.311160055E0,-4.314317927E-2,-3.567301631E-1,1.524658650E-1
4.313647764E0,-5.379581451E-2,-3.641870022E-1,1.545963883E-1
4.316135472E0,-6.444845349E-2,-3.737743795E-1,1.577921808E-1
4.318623180E0,-7.616634667E-2,-3.833617568E-1,1.599227041E-1
4.321110889E0,-8.788424730E-2,-3.940143883E-1,1.641837656E-1
4.323598597E0,-1.006674170E-1,-4.046670198E-1,1.695100814E-1
4.326086305E0,-1.145158410E-1,-4.142543972E-1,1.769669205E-1
4.328574014E0,-1.283642650E-1,-4.227765203E-1,1.844237745E-1
4.331061722E0,-1.411474347E-1,-4.291680753E-1,1.929458827E-1
4.333549430E0,-1.539305896E-1,-4.323638678E-1,2.025332451E-1
4.336037139E0,-1.656484902E-1,-4.334291518E-1,2.121206224E-1
4.338524847E0,-1.752358675E-1,-4.312986135E-1,2.206427306E-1
4.341012555E0,-1.837579757E-1,-4.270375669E-1,2.302301079E-1
4.343500264E0,-1.912148297E-1,-4.217112362E-1,2.376869470E-1
4.345987972E0,-1.965411454E-1,-4.142543972E-1,2.440785319E-1
4.348475680E0,-1.986716688E-1,-4.078628123E-1,2.472743243E-1
4.350963389E0,-1.986716688E-1,-4.014712274E-1,2.494048476E-1
4.353451097E0,-1.965411454E-1,-3.950796425E-1,2.483395934E-1
4.355938805E0,-1.933453530E-1,-3.897533417E-1,2.440785319E-1
4.358426514E0,-1.869537681E-1,-3.854922652E-1,2.376869470E-1
4.360914222E0,-1.784316599E-1,-3.844270110E-1,2.291648388E-1
4.363401930E0,-1.688442826E-1,-3.844270110E-1,2.185122073E-1
4.365889639E0,-1.571263820E-1,-3.854922652E-1,2.067943066E-1
4.368377347E0,-1.443432271E-1,-3.886880577E-1,1.918806136E-1
4.370865055E0,-1.294295341E-1,-3.918838501E-1,1.759016514E-1
4.373352764E0,-1.134505793E-1,-3.961449265E-1,1.599227041E-1
4.375840472E0,-9.640636295E-2,-3.982754350E-1,1.439437568E-1
4.378328180E0,-7.936213911E-2,-3.982754350E-1,1.290300637E-1
4.380815889E0,-6.231792271E-2,-3.950796425E-1,1.162468940E-1
4.383303597E0,-4.633896798E-2,-3.908185959E-1,1.055942550E-1
4.385791305E0,-3.036001325E-2,-3.844270110E-1,9.600688517E-2
4.388279014E0,-1.651158556E-2,-3.780354261E-1,8.641951531E-2
4.390766722E0,-1.597895520E-3,-3.695133328E-1,7.896266878E-2
4.393254430E0,1.225053146E-2,-3.599259555E-1,7.363634557E-2
4.395742139E0,2.609895915E-2,-3.471427858E-1,7.363634557E-2
4.398229847E0,3.781685978E-2,-3.322291076E-1,8.002793044E-2
4.400717555E0,4.846949503E-2,-3.173153996E-1,9.281109273E-2
4.403205264E0,5.805686861E-2,-3.024017215E-1,1.130511016E-1
4.405692972E0,6.551371515E-2,-2.864227593E-1,1.396826953E-1
4.408180680E0,6.977476925E-2,-2.704437971E-1,1.705753356E-1
4.410668389E0,7.297056168E-2,-2.565953732E-1,2.057290375E-1
4.413156097E0,7.403582335E-2,-2.438122183E-1,2.430132627E-1
4.415643805E0,7.403582335E-2,-2.320943177E-1,2.802974880E-1
4.418131514E0,7.084003091E-2,-2.214416862E-1,3.143859208E-1
4.420619222E0,6.657897681E-2,-2.118543088E-1,3.452785909E-1
4.423106930E0,6.018739566E-2,-2.043974549E-1,3.708449006E-1
4.425594639E0,5.273054913E-2,-1.980058849E-1,3.900196552E-1
4.428082347E0,4.314317927E-2,-1.926795542E-1,4.038680792E-1
4.430570055E0,3.462106735E-2,-1.884185076E-1,4.113249183E-1
4.433057764E0,2.609895915E-2,-1.852227151E-1,4.123901725E-1
4.435545472E0,1.757685095E-2,-1.841574460E-1,4.070638716E-1
4.438033180E0,1.012000442E-2,-1.852227151E-1,3.964112401E-1
4.440520889E0,3.728422802E-3,-1.862879843E-1,3.814975321E-1
4.443008597E0,5.326318205E-4,-1.873532385E-1,3.623228073E-1
4.445496305E0,-5.326318205E-4,-1.884185076E-1,3.399522603E-1
4.447984014E0,5.326318205E-4,-1.884185076E-1,3.165164590E-1
4.450471722E0,3.728422802E-3,-1.894837767E-1,2.909501195E-1
4.452959430E0,9.054740891E-3,-1.905490309E-1,2.632532716E-1
4.455447139E0,1.544632297E-2,-1.916143000E-1,2.355564237E-1
4.457934847E0,2.290316857E-2,-1.937448233E-1,2.057290375E-1
4.460422555E0,3.142527863E-2,-1.980058849E-1,1.748363972E-1
4.462910264E0,3.888212144E-2,-2.022669315E-1,1.439437568E-1
4.465397972E0,4.633896798E-2,-2.086585164E-1,1.109205782E-1
4.467885680E0,5.166528746E-2,-2.161153555E-1,7.576687634E-2
4.470373389E0,5.486107618E-2,-2.246374637E-1,4.061317816E-2
4.472861097E0,5.592634156E-2,-2.352901101E-1,4.394212738E-3
4.475348805E0,5.273054913E-2,-2.470080107E-1,-2.969422378E-2
4.477836514E0,4.633896798E-2,-2.629869580E-1,-6.378266215E-2
4.480324222E0,3.568633273E-2,-2.821617126E-1,-9.361004084E-2
4.482811930E0,2.290316857E-2,-3.024017215E-1,-1.181111038E-1
4.485299639E0,7.989477366E-3,-3.247722387E-1,-1.340900660E-1
4.487787347E0,-7.989477366E-3,-3.471427858E-1,-1.415469050E-1
4.490275055E0,-2.183790505E-2,-3.684480488E-1,-1.383511126E-1
4.492762764E0,-3.568633273E-2,-3.865575492E-1,-1.255679578E-1
4.495250472E0,-4.633896798E-2,-3.982754350E-1,-1.053279415E-1
4.497738180E0,-5.486107618E-2,-4.046670198E-1,-7.869634777E-2
4.500225889E0,-6.125266105E-2,-4.057323039E-1,-4.673844203E-2
4.502713597E0,-6.657897681E-2,-4.025365114E-1,-1.051947847E-2
4.505201305E0,-6.870950758E-2,-3.940143883E-1,2.676474862E-2
4.507689014E0,-6.977476925E-2,-3.833617568E-1,6.298371404E-2
4.510176722E0,-7.084003091E-2,-3.705785871E-1,9.707214683E-2
4.512664430E0,-6.977476925E-2,-3.567301631E-1,1.268995255E-1
4.515152139E0,-6.870950758E-2,-3.428817391E-1,1.514005959E-1
4.517639847E0,-6.657897681E-2,-3.300985694E-1,1.705753356E-1
4.520127555E0,-6.338318437E-2,-3.183806837E-1,1.844237745E-1
4.522615264E0,-5.805686861E-2,-3.098585606E-1,1.908153445E-1
4.525102972E0,-5.060002208E-2,-3.024017215E-1,1.918806136E-1
4.527590680E0,-4.314317927E-2,-2.970753908E-1,1.865542978E-1
4.530078389E0,-3.568633273E-2,-2.938795984E-1,1.780321896E-1
4.532566097E0,-2.716422267E-2,-2.917490900E-1,1.652490199E-1
4.535053805E0,-1.757685095E-2,-2.928143442E-1,1.482048035E-1
4.537541514E0,-7.989477366E-3,-2.949448824E-1,1.279647946E-1
4.540029222E0,3.728422802E-3,-2.992059290E-1,1.045289934E-1
4.542516930E0,1.544632297E-2,-3.055975139E-1,7.683213800E-2
4.545004639E0,2.929474972E-2,-3.141196072E-1,4.380896688E-2
4.547492347E0,4.740423337E-2,-3.247722387E-1,6.524739787E-3
4.549980055E0,6.657897681E-2,-3.354249001E-1,-3.502054140E-2
4.552467764E0,9.001477808E-2,-3.460775316E-1,-8.082687855E-2
4.554955472E0,1.166463718E-1,-3.567301631E-1,-1.298290044E-1
4.557443180E0,1.464737505E-1,-3.652522564E-1,-1.798963994E-1
4.559930889E0,1.773663908E-1,-3.727091253E-1,-2.288985252E-1
4.562418597E0,2.071937770E-1,-3.780354261E-1,-2.757701278E-1
4.564906305E0,2.370211631E-1,-3.822965026E-1,-3.162501454E-1
4.567394014E0,2.625874877E-1,-3.854922652E-1,-3.471427858E-1
4.569881722E0,2.838927507E-1,-3.876228034E-1,-3.673827946E-1
4.572369430E0,2.998717129E-1,-3.876228034E-1,-3.748396337E-1
4.574857139E0,3.094590902E-1,-3.854922652E-1,-3.695133328E-1
4.577344847E0,3.126548827E-1,-3.822965026E-1,-3.524691164E-1
4.579832555E0,3.094590902E-1,-3.769701719E-1,-3.279680312E-1
4.582320264E0,3.009369671E-1,-3.695133328E-1,-2.960101366E-1
4.584807972E0,2.860232890E-1,-3.599259555E-1,-2.629869580E-1
4.587295680E0,2.668485343E-1,-3.492733240E-1,-2.267680019E-1
4.589783389E0,2.412822098E-1,-3.375554085E-1,-1.905490309E-1
4.592271097E0,2.114548385E-1,-3.247722387E-1,-1.564605981E-1
4.594758805E0,1.773663908E-1,-3.098585606E-1,-1.234374270E-1
4.597246514E0,1.400821656E-1,-2.928143442E-1,-9.147951752E-2
4.599734222E0,1.017326787E-1,-2.768353820E-1,-6.165213138E-2
4.602221930E0,6.231792271E-2,-2.608564198E-1,-3.289001435E-2
4.604709639E0,2.609895915E-2,-2.438122183E-1,-7.323687430E-3
4.607197347E0,-9.054740891E-3,-2.257027328E-1,1.611211337E-2
4.609685055E0,-4.101264849E-2,-2.065279931E-1,3.528685868E-2
4.612172764E0,-7.190529257E-2,-1.852227151E-1,4.913528636E-2
4.614660472E0,-9.747162461E-2,-1.649827063E-1,5.978792161E-2
4.617148180E0,-1.198421568E-1,-1.479384899E-1,6.617950648E-2
4.619635889E0,-1.390169114E-1,-1.351553202E-1,6.511423737E-2
4.622123597E0,-1.518000662E-1,-1.245026886E-1,5.978792161E-2
4.624611305E0,-1.603221744E-1,-1.213068962E-1,4.807002097E-2
4.627099014E0,-1.645832360E-1,-1.255679578E-1,2.889527567E-2
4.629586722E0,-1.613874435E-1,-1.351553202E-1,4.394212738E-3
4.632074430E0,-1.549958587E-1,-1.490037590E-1,-2.543316968E-2
4.634562139E0,-1.422126889E-1,-1.649827063E-1,-5.845634267E-2
4.637049847E0,-1.262337416E-1,-1.820269227E-1,-9.467530251E-2
4.639537555E0,-1.091895252E-1,-2.012016773E-1,-1.319595277E-1
4.642025264E0,-9.001477808E-2,-2.214416862E-1,-1.692437679E-1
4.644512972E0,-6.977476925E-2,-2.438122183E-1,-2.075932473E-1
4.647000680E0,-5.060002208E-2,-2.651174963E-1,-2.448774725E-1
4.649488389E0,-3.249054030E-2,-2.874880135E-1,-2.800311744E-1
4.651976097E0,-1.651158556E-2,-3.109238148E-1,-3.098585606E-1
4.654463805E0,-1.597895520E-3,-3.343596160E-1,-3.354249001E-1
4.656951514E0,1.118526794E-2,-3.567301631E-1,-3.535343707E-1
4.659439222E0,2.290316857E-2,-3.769701719E-1,-3.609912097E-1
4.661926930E0,3.142527863E-2,-3.918838501E-1,-3.588607013E-1
4.664414639E0,3.781685978E-2,-4.025365114E-1,-3.450122476E-1
4.666902347E0,4.207791388E-2,-4.046670198E-1,-3.205111921E-1
4.669390055E0,4.314317927E-2,-4.004059732E-1,-2.864227593E-1
4.671877764E0,4.207791388E-2,-3.897533417E-1,-2.448774725E-1
4.674365472E0,3.888212144E-2,-3.705785871E-1,-1.958753467E-1
4.676853180E0,3.249054030E-2,-3.482080400E-1,-1.426121742E-1
4.679340889E0,2.503369562E-2,-3.215764761E-1,-8.828372508E-2
4.681828597E0,1.544632297E-2,-2.938795984E-1,-3.395527974E-2
4.684316305E0,6.924213842E-3,-2.629869580E-1,1.717737690E-2
4.686804014E0,-2.663159044E-3,-2.342248410E-1,6.191844866E-2
4.689291722E0,-1.225053146E-2,-2.054627240E-1,9.920267761E-2
4.691779430E0,-2.077264152E-2,-1.809616536E-1,1.290300637E-1
4.694267139E0,-2.929474972E-2,-1.596563905E-1,1.482048035E-1
4.696754847E0,-3.994738683E-2,-1.447426975E-1,1.588574350E-1
4.699242555E0,-5.060002208E-2,-1.362205893E-1,1.620532274E-1
4.701730264E0,-6.231792271E-2,-1.362205893E-1,1.545963883E-1
4.704217972E0,-7.510108501E-2,-1.436774284E-1,1.407479644E-1
4.706705680E0,-8.575372398E-2,-1.553953290E-1,1.194426864E-1
4.709193389E0,-9.640636295E-2,-1.724395454E-1,9.281109273E-2
4.711681097E0,-1.038632020E-1,-1.916143000E-1,6.085318699E-2
4.714168805E0,-1.091895252E-1,-2.118543088E-1,2.463422157E-2
4.716656514E0,-1.102547869E-1,-2.320943177E-1,-1.584579609E-2
4.719144222E0,-1.081242561E-1,-2.512690723E-1,-5.845634267E-2
4.721631930E0,-1.006674170E-1,-2.693785429E-1,-1.042626798E-1
4.724119639E0,-9.001477808E-2,-2.842922211E-1,-1.521995366E-1
4.726607347E0,-7.403582335E-2,-2.992059290E-1,-2.022669315E-1
4.729095055E0,-5.273054913E-2,-3.130543530E-1,-2.533995807E-1
4.731582764E0,-2.822948620E-2,-3.247722387E-1,-3.077280223E-1
4.734070472E0,5.326318205E-4,-3.364901543E-1,-3.631217480E-1
4.736558180E0,3.036001325E-2,-3.492733240E-1,-4.206459820E-1
4.739045889E0,6.125266105E-2,-3.631217480E-1,-4.771049619E-1
4.741533597E0,9.108003974E-2,-3.780354261E-1,-5.293028951E-1
4.744021305E0,1.209074259E-1,-3.908185959E-1,-5.729786754E-1
4.746509014E0,1.496695429E-1,-4.025365114E-1,-6.038713455E-1
4.748996722E0,1.784316599E-1,-4.099933505E-1,-6.198502779E-1
4.751484430E0,2.061285079E-1,-4.142543972E-1,-6.187850237E-1
4.753972139E0,2.327601016E-1,-4.131891429E-1,-5.985450149E-1
4.756459847E0,2.593916953E-1,-4.057323039E-1,-5.601955056E-1
4.758947555E0,2.881538272E-1,-3.929491341E-1,-5.058670640E-1
4.761435264E0,3.190464675E-1,-3.727091253E-1,-4.376901984E-1
4.763922972E0,3.520696461E-1,-3.450122476E-1,-3.599259555E-1
4.766410680E0,3.861580789E-1,-3.077280223E-1,-2.779006660E-1
4.768898389E0,4.223770201E-1,-2.640522122E-1,-1.958753467E-1
4.771386097E0,4.617917836E-1,-2.161153555E-1,-1.191763729E-1
4.773873805E0,5.033370852E-1,-1.660479754E-1,-4.886896908E-2
4.776361514E0,5.459476113E-1,-1.170458421E-1,1.078579482E-2
4.778849222E0,5.906887054E-1,-7.230477035E-2,5.872265995E-2
4.781336930E0,6.354297400E-1,-3.289001435E-2,9.600688517E-2
4.783824639E0,6.791055799E-1,1.331579551E-4,1.205079481E-1
4.786312347E0,7.163897753E-1,2.569948509E-2,1.354216337E-1
4.788800055E0,7.494129539E-1,4.380896688E-2,1.396826953E-1
4.791287764E0,7.760445476E-1,5.552686751E-2,1.354216337E-1
4.793775472E0,7.962845564E-1,5.872265995E-2,1.215732098E-1
4.796263180E0,8.080024719E-1,5.446160212E-2,1.023984700E-1
4.798750889E0,8.133288026E-1,4.274370521E-2,7.789740711E-2
4.801238597E0,8.101329803E-1,2.463422157E-2,4.807002097E-2
4.803726305E0,8.005456328E-1,1.331579551E-4,1.398158539E-2
4.806214014E0,7.856319547E-1,-2.862896025E-2,-2.436790615E-2
4.808701722E0,7.632613778E-1,-5.952160433E-2,-6.484792382E-2
4.811189430E0,7.366297841E-1,-9.254477918E-2,-1.085237339E-1
4.813677139E0,7.046719193E-1,-1.255679578E-1,-1.543300748E-1
4.816164847E0,6.684529185E-1,-1.607216448E-1,-2.001364082E-1
4.818652608E0,6.279729009E-1,-1.969406158E-1,-2.470080107E-1
4.821140368E0,5.832318664E-1,-2.331595868E-1,-2.949448824E-1
4.823628128E0,5.374255180E-1,-2.693785429E-1,-3.428817391E-1
4.826115889E0,4.905539155E-1,-3.034669757E-1,-3.886880577E-1
4.828603649E0,4.426170290E-1,-3.364901543E-1,-4.291680753E-1
4.831091410E0,3.968107104E-1,-3.652522564E-1,-4.621912539E-1
4.833579170E0,3.542001545E-1,-3.918838501E-1,-4.856270552E-1
4.836066930E0,3.158506751E-1,-4.110586047E-1,-4.962796867E-1
4.838554691E0,2.817622423E-1,-4.249070287E-1,-4.952144325E-1
4.841042451E0,2.530001104E-1,-4.291680753E-1,-4.813660085E-1
4.843530212E0,2.316948473E-1,-4.249070287E-1,-4.536691606E-1
4.846017972E0,2.157158852E-1,-4.089280665E-1,-4.163849354E-1
4.848505733E0,2.071937770E-1,-3.833617568E-1,-3.695133328E-1
4.850993493E0,2.071937770E-1,-3.460775316E-1,-3.173153996E-1
4.853481253E0,2.135853618E-1,-3.013364673E-1,-2.629869580E-1
4.855969014E0,2.274337858E-1,-2.491385341E-1,-2.097237855E-1
4.858456774E0,2.487390637E-1,-1.916143000E-1,-1.607216448E-1
4.860944535E0,2.764359117E-1,-1.319595277E-1,-1.181111038E-1
4.863432295E0,3.105243444E-1,-7.230477035E-2,-8.508793265E-2
4.865920055E0,3.467433155E-1,-1.158474199E-2,-5.845634267E-2
4.868407816E0,3.829622865E-1,4.487423226E-2,-4.141212255E-2
4.870895576E0,4.170507193E-1,9.600688517E-2,-3.182475269E-2
4.873383337E0,4.479433596E-1,1.407479644E-1,-2.862896025E-2
4.875871097E0,4.724444151E-1,1.769669205E-1,-3.075948730E-2
4.878358858E0,4.916191697E-1,2.046637833E-1,-3.821633384E-2
4.880846618E0,5.022718310E-1,2.249037921E-1,-4.993423447E-2
4.883334326E0,5.044023395E-1,2.387522161E-1,-6.591318548E-2
4.885822035E0,4.990760088E-1,2.451438010E-1,-8.402267098E-2
4.888309743E0,4.841623306E-1,2.483395934E-1,-1.053279415E-1
4.890797451E0,4.585959911E-1,2.472743243E-1,-1.276984811E-1
4.893285160E0,4.213117659E-1,2.451438010E-1,-1.490037590E-1
4.895772868E0,3.733749092E-1,2.408827394E-1,-1.692437679E-1
4.898260576E0,3.137201369E-1,2.366216928E-1,-1.841574460E-1
4.900748285E0,2.444780022E-1,2.334259003E-1,-1.948100924E-1
4.903235993E0,1.677790284E-1,2.291648388E-1,-1.958753467E-1
4.905723701E0,8.362319320E-2,2.270343155E-1,-1.894837767E-1
4.908211410E0,-1.597895520E-3,2.270343155E-1,-1.724395454E-1
4.910699118E0,-8.788424730E-2,2.302301079E-1,-1.458079666E-1
4.913186826E0,-1.720400751E-1,2.344911546E-1,-1.085237339E-1
4.915674535E0,-2.519348562E-1,2.366216928E-1,-6.271740049E-2
4.918162243E0,-3.243727684E-1,2.355564237E-1,-1.051947847E-2
4.920649951E0,-3.882885873E-1,2.291648388E-1,4.380896688E-2
4.923137660E0,-4.404865205E-1,2.185122073E-1,9.813741595E-2
4.925625368E0,-4.767054915E-1,2.067943066E-1,1.460742801E-1
4.928113076E0,-4.980107546E-1,1.961416751E-1,1.897500902E-1
4.930600785E0,-5.033370852E-1,1.908153445E-1,2.249037921E-1
4.933088493E0,-4.916191697E-1,1.897500902E-1,2.504701018E-1
4.935576201E0,-4.639223218E-1,1.929458827E-1,2.664490640E-1
4.938063910E0,-4.223770201E-1,2.004027218E-1,2.739059031E-1
4.940551618E0,-3.680485785E-1,2.110553533E-1,2.717753947E-1
4.943039326E0,-3.009369671E-1,2.227732539E-1,2.611227632E-1
4.945527035E0,-2.221074700E-1,2.366216928E-1,2.430132627E-1
4.948014743E0,-1.336905807E-1,2.504701018E-1,2.206427306E-1
4.950502451E0,-3.888212144E-2,2.653838098E-1,1.918806136E-1
4.952990160E0,6.125266105E-2,2.792322338E-1,1.588574350E-1
4.955477868E0,1.613874435E-1,2.930806577E-1,1.237037405E-1
4.957965576E0,2.604569495E-1,3.079943359E-1,8.535424620E-2
4.960453285E0,3.552654386E-1,3.250385821E-1,4.700475931E-2
4.962940993E0,4.426170290E-1,3.431480527E-1,7.590003312E-3
4.965428701E0,5.214465261E-1,3.633880615E-1,-3.075948730E-2
4.967916410E0,5.885581374E-1,3.868238628E-1,-6.910897791E-2
4.970404118E0,6.418213248E-1,4.102596641E-1,-1.031974182E-1
4.972891826E0,6.823013425E-1,4.347607195E-1,-1.319595277E-1
4.975379535E0,7.078676820E-1,4.571312666E-1,-1.543300748E-1
4.977867243E0,7.195855975E-1,4.752407372E-1,-1.703090221E-1
4.980354951E0,7.185203433E-1,4.912196994E-1,-1.777658761E-1
4.982842660E0,7.036066055E-1,5.040028691E-1,-1.756353378E-1
4.985330368E0,6.748445034E-1,5.125249624E-1,-1.660479754E-1
4.987818076E0,6.332992315E-1,5.167860389E-1,-1.458079666E-1
4.990305785E0,5.811012983E-1,5.157207847E-1,-1.170458421E-1
4.992793493E0,5.182507634E-1,5.114597082E-1,-7.763108611E-2
4.995281201E0,4.479433596E-1,5.029376149E-1,-2.969422378E-2
4.997768910E0,3.712443709E-1,4.922849536E-1,2.569948509E-2
5.000256618E0,2.924148738E-1,4.773712754E-1,8.535424620E-2
5.002744326E0,2.125200927E-1,4.603270590E-1,1.460742801E-1
5.005232035E0,1.358211190E-1,4.411523044E-1,2.067943066E-1
5.007719743E0,6.231792271E-2,4.187817574E-1,2.632532716E-1
5.010207451E0,-6.924213842E-3,3.942807019E-1,3.143859208E-1
5.012695160E0,-6.657897681E-2,3.697796464E-1,3.580617309E-1
5.015182868E0,-1.187768951E-1,3.442133069E-1,3.921501637E-1
5.017670576E0,-1.592569202E-1,3.186469972E-1,4.166512489E-1
5.020158285E0,-1.880190372E-1,2.930806577E-1,4.336954653E-1
5.022645993E0,-2.008021921E-1,2.632532716E-1,4.432828426E-1
5.025133701E0,-1.986716688E-1,2.302301079E-1,4.432828426E-1
5.027621410E0,-1.794969290E-1,1.940111369E-1,4.358259737E-1
5.030109118E0,-1.422126889E-1,1.567269117E-1,4.187817574E-1
5.032596826E0,-8.681898564E-2,1.226384789E-1,3.964112401E-1
