"Time (s)","Acceleration x (m/s^2)","Acceleration y (m/s^2)","Acceleration z (m/s^2)"
4.955776400E-2,9.228450775E0,4.976946831E0,-7.918822169E-1
5.204729500E-2,9.166201591E0,5.005677223E0,-8.637082577E-1
5.453734700E-2,9.094375610E0,5.020042419E0,-9.020155072E-1
5.702812800E-2,9.012971878E0,5.082291603E0,-9.594763517E-1
5.951984700E-2,8.921992302E0,5.130175591E0,-1.016937137E0
6.201271200E-2,8.826224327E0,5.192424774E0,-1.036090732E0
6.450682600E-2,8.735244751E0,5.273828030E0,-1.060032845E0
6.700224300E-2,8.653841972E0,5.355230808E0,-1.055244446E0
6.950151400E-2,8.543708801E0,5.431845188E0,-1.069609642E0
7.200078500E-2,8.433575630E0,5.518036366E0,-1.093551636E0
7.445078500E-2,8.256404877E0,5.623381138E0,-1.107916832E0
7.690078500E-2,8.203732491E0,5.671265125E0,-1.117493629E0
7.940505500E-2,8.170213699E0,5.752667904E0,-1.141435623E0
8.190932600E-2,8.141483307E0,5.838859558E0,-1.179742932E0
8.445932600E-2,8.107964516E0,5.915473938E0,-1.222838521E0
8.700932600E-2,8.107964516E0,5.934627533E0,-1.270722508E0
8.955932600E-2,8.117541313E0,5.963357925E0,-1.332971811E0
9.210932600E-2,8.141483307E0,6.001665115E0,-1.385644197E0
9.465932600E-2,8.189367294E0,6.035183907E0,-1.423951507E0
9.720932600E-2,8.218097687E0,6.063914299E0,-1.462258697E0
9.975932600E-2,8.265981674E0,6.097433090E0,-1.443105102E0
1.023093260E-1,8.333019257E0,6.130951881E0,-1.428739905E0
1.048593260E-1,8.342596054E0,6.164470673E0,-1.366490602E0
1.074093260E-1,8.356961250E0,6.226719856E0,-1.280299306E0
1.099593260E-1,8.356961250E0,6.303334713E0,-1.222838521E0
1.125093260E-1,8.361749649E0,6.365583897E0,-1.155800819E0
1.150593260E-1,8.323442459E0,6.399102688E0,-1.064821243E0
1.176093260E-1,8.309077263E0,6.456563473E0,-1.016937137E0
1.201593260E-1,8.270770073E0,6.485293865E0,-9.403226972E-1
1.227093260E-1,8.242039680E0,6.499659061E0,-8.301894665E-1
1.252593260E-1,8.237251282E0,6.480505466E0,-7.009025216E-1
1.278093260E-1,8.198944092E0,6.461351871E0,-6.003460884E-1
1.303593260E-1,8.146271706E0,6.432621479E0,-4.997895956E-1
1.329093260E-1,8.107964516E0,6.437409878E0,-4.040215313E-1
1.354593260E-1,8.060079575E0,6.418256283E0,-2.986766696E-1
1.380093260E-1,8.002618790E0,6.423044682E0,-1.789665818E-1
1.405593260E-1,7.964312077E0,6.408679485E0,-1.071405262E-1
1.431093260E-1,7.926004887E0,6.399102688E0,-3.052607179E-2
1.456593260E-1,7.873332500E0,6.379949093E0,4.608838260E-2
1.482093260E-1,7.844601631E0,6.365583897E0,8.439560980E-2
1.507593260E-1,7.801506042E0,6.360795498E0,1.083376259E-1
1.533093260E-1,7.772775650E0,6.370372295E0,1.322796494E-1
1.558593260E-1,7.753622055E0,6.346430302E0,1.897404790E-1
1.584093260E-1,7.739256859E0,6.336853504E0,2.136825025E-1
1.609593260E-1,7.734468460E0,6.317699909E0,1.993172914E-1
1.635093260E-1,7.744045258E0,6.293757915E0,2.184709013E-1
1.660593260E-1,7.744045258E0,6.265027523E0,1.897404790E-1
1.686093260E-1,7.739256859E0,6.236296654E0,1.418564469E-1
1.711593260E-1,7.729680061E0,6.226719856E0,7.960720360E-2
1.737093260E-1,7.744045258E0,6.207566261E0,-3.052607179E-2
1.762593260E-1,7.753622055E0,6.221931458E0,-1.262941360E-1
1.788093260E-1,7.782352448E0,6.207566261E0,-2.029085904E-1
1.813593260E-1,7.806294441E0,6.202777863E0,-2.795230448E-1
1.839093260E-1,7.815871239E0,6.221931458E0,-3.369838893E-1
1.864593260E-1,7.858967304E0,6.226719856E0,-3.992331326E-1
1.890093260E-1,7.916428089E0,6.217143059E0,-4.710591733E-1
1.915122950E-1,7.973888874E0,6.217143059E0,-5.476736426E-1
1.940000030E-1,8.031349182E0,6.202777863E0,-6.482301354E-1
1.964877120E-1,8.079233170E0,6.183624268E0,-7.009025216E-1
1.989754200E-1,8.127118111E0,6.174047470E0,-7.200561762E-1
2.014631280E-1,8.175002098E0,6.145317078E0,-7.392097712E-1
2.039508370E-1,8.237251282E0,6.140528679E0,-7.392097712E-1
2.064385450E-1,8.299500465E0,6.135740280E0,-7.439981699E-1
2.089262530E-1,8.352172852E0,6.150105476E0,-7.775170207E-1
2.114139620E-1,8.404845238E0,6.150105476E0,-8.301894665E-1
2.139016700E-1,8.447940826E0,6.150105476E0,-8.780734539E-1
2.163893780E-1,8.467094421E0,6.159682274E0,-9.115923047E-1
2.188770870E-1,8.500613213E0,6.178835869E0,-9.882067442E-1
2.213647950E-1,8.491036415E0,6.188412666E0,-1.040879130E0
2.238525030E-1,8.486248016E0,6.217143059E0,-1.122282028E0
2.263402120E-1,8.467094421E0,6.226719856E0,-1.227626920E0
2.288279200E-1,8.419210434E0,6.236296654E0,-1.294664621E0
2.313156280E-1,8.352172852E0,6.241085052E0,-1.361702204E0
2.338033370E-1,8.289923668E0,6.231508255E0,-1.423951507E0
2.362910450E-1,8.237251282E0,6.241085052E0,-1.486200690E0
2.387787530E-1,8.194155693E0,6.226719856E0,-1.519719481E0
2.412664620E-1,8.141483307E0,6.212354660E0,-1.510142684E0
2.437541700E-1,8.079233170E0,6.197989464E0,-1.495777488E0
2.462418780E-1,8.007407188E0,6.174047470E0,-1.462258697E0
2.487295870E-1,7.983465672E0,6.135740280E0,-1.409586191E0
2.512172950E-1,7.983465672E0,6.092644691E0,-1.304241419E0
2.537050030E-1,8.012195587E0,6.049549103E0,-1.184531331E0
2.561927120E-1,8.064867973E0,6.006453514E0,-1.045667648E0
2.586804200E-1,8.122329712E0,5.982511520E0,-9.068039060E-1
2.611681280E-1,8.170213699E0,6.006453514E0,-8.110358119E-1
2.636558370E-1,8.208520889E0,6.035183907E0,-6.817489266E-1
2.661435450E-1,8.232462883E0,6.054337502E0,-5.285200477E-1
2.686312530E-1,8.275558472E0,6.092644691E0,-4.183867574E-1
2.711189620E-1,8.328230858E0,6.140528679E0,-3.178302646E-1
2.736066700E-1,8.385691643E0,6.202777863E0,-2.220622003E-1
2.760943780E-1,8.495824814E0,6.274604321E0,-1.885433793E-1
2.785820870E-1,8.634688377E0,6.346430302E0,-1.741781682E-1
2.810697950E-1,8.778340340E0,6.423044682E0,-1.885433793E-1
2.835575030E-1,8.960299492E0,6.523601055E0,-2.124854028E-1
2.860452120E-1,9.175778389E0,6.609792233E0,-2.316390127E-1
2.885329200E-1,9.400833130E0,6.686406612E0,-2.890998423E-1
2.910206280E-1,9.668983459E0,6.782175064E0,-3.561375141E-1
2.935083370E-1,9.951498985E0,6.868366241E0,-3.992331326E-1
2.959960450E-1,1.025795746E1,6.964134216E0,-5.045779943E-1
2.984837530E-1,1.056920338E1,7.055113792E0,-6.194996834E-1
3.009714620E-1,1.085650730E1,7.146093369E0,-7.439981699E-1
3.034591700E-1,1.112465858E1,7.246650219E0,-9.115923047E-1
3.059468780E-1,1.134013653E1,7.342418194E0,-1.093551636E0
3.084345870E-1,1.150773048E1,7.390302181E0,-1.309029818E0
3.109222950E-1,1.166095924E1,7.452551365E0,-1.471835494E0
3.134100030E-1,1.177109241E1,7.538742542E0,-1.620275974E0
3.158977120E-1,1.185728359E1,7.620145321E0,-1.739986062E0
3.183854200E-1,1.193868637E1,7.715913296E0,-1.816600561E0
3.208731280E-1,1.197220516E1,7.787739754E0,-1.898003340E0
3.233608370E-1,1.198178196E1,7.864354134E0,-1.988983035E0
3.258485450E-1,1.194826317E1,7.955333710E0,-2.065597534E0
3.283362530E-1,1.185728359E1,8.070255280E0,-2.108693123E0
3.308239620E-1,1.172320843E1,8.189965248E0,-2.118269920E0
3.333116700E-1,1.159392166E1,8.319252014E0,-2.108693123E0
3.357993780E-1,1.144069290E1,8.462904930E0,-2.094327927E0
3.382870870E-1,1.127309895E1,8.592191696E0,-2.065597534E0
3.407747950E-1,1.112465858E1,8.692748070E0,-2.070385933E0
3.432625030E-1,1.105283260E1,8.740632057E0,-2.056020737E0
3.457502120E-1,1.100015926E1,8.826823235E0,-2.075174332E0
3.482379200E-1,1.099537086E1,8.903437614E0,-2.075174332E0
3.507256280E-1,1.100973606E1,8.980051994E0,-2.079962730E0
3.532133370E-1,1.103846741E1,9.071031570E0,-2.113481522E0
3.557010450E-1,1.109592819E1,9.147645950E0,-2.156577110E0
3.581887530E-1,1.114860058E1,9.214683533E0,-2.185307503E0
3.606764620E-1,1.123958015E1,9.248202324E0,-2.218826532E0
3.631641700E-1,1.136407852E1,9.252990723E0,-2.233191729E0
3.656518780E-1,1.148857689E1,9.205106735E0,-2.223614931E0
3.681395870E-1,1.165138245E1,9.142857552E0,-2.199672699E0
3.706272950E-1,1.183813000E1,9.066243172E0,-2.142211914E0
3.731150030E-1,1.205360889E1,9.003993988E0,-2.084751129E0
3.756027120E-1,1.227866364E1,8.975263596E0,-2.008136749E0
3.780904200E-1,1.247977638E1,8.970475197E0,-1.984194636E0
3.805781280E-1,1.266173553E1,8.956110001E0,-1.945887446E0
3.830658370E-1,1.282932949E1,8.922591209E0,-1.917157054E0
3.855535450E-1,1.292509747E1,8.855553627E0,-1.898003340E0
3.880412530E-1,1.299213505E1,8.754997253E0,-1.830965757E0
3.905289620E-1,1.303044319E1,8.620922089E0,-1.711255670E0
3.930166700E-1,1.302565479E1,8.477270126E0,-1.591545582E0
3.955043780E-1,1.299213505E1,8.343194008E0,-1.433528304E0
3.979920870E-1,1.293467426E1,8.223484039E0,-1.265934110E0
4.004797950E-1,1.285327148E1,8.127716064E0,-1.098340034E0
4.029675030E-1,1.271440792E1,8.041524887E0,-9.738415480E-1
4.054552120E-1,1.256596756E1,7.940968513E0,-8.206126094E-1
4.079429200E-1,1.237443161E1,7.826046944E0,-6.242880821E-1
4.104306280E-1,1.216853046E1,7.715913296E0,-5.189431906E-1
4.129183370E-1,1.192432117E1,7.624933720E0,-4.040215313E-1
4.154060450E-1,1.161307526E1,7.557896137E0,-3.178302646E-1
4.178937530E-1,1.129704094E1,7.514800549E0,-2.316390127E-1
4.203814620E-1,1.095227528E1,7.500435352E0,-2.029085904E-1
4.228691700E-1,1.061229897E1,7.529165745E0,-1.598129570E-1
4.253568780E-1,1.032020664E1,7.577049732E0,-1.215057373E-1
4.278445870E-1,1.009515190E1,7.605780125E0,-6.404489279E-2
4.303322950E-1,9.865307808E0,7.644087315E0,-4.967968538E-2
4.328200030E-1,9.673771858E0,7.610568523E0,-4.967968538E-2
4.353077120E-1,9.510966301E0,7.548319340E0,-9.277531505E-2
4.377954200E-1,9.295488358E0,7.471704960E0,-1.262941360E-1
4.402831280E-1,9.051279068E0,7.433397770E0,-1.693897694E-1
4.427708370E-1,8.797493935E0,7.395090580E0,-2.268506140E-1
4.452585450E-1,8.553285599E0,7.395090580E0,-2.843114436E-1
4.477462530E-1,8.352172852E0,7.404667377E0,-3.274070919E-1
4.502339620E-1,8.203732491E0,7.428609371E0,-3.657143116E-1
4.527216700E-1,8.093599319E0,7.428609371E0,-3.944447339E-1
4.552093780E-1,8.012195587E0,7.380725384E0,-4.040215313E-1
4.576970870E-1,7.949946880E0,7.280169010E0,-4.088099301E-1
4.601847950E-1,7.930793285E0,7.131728172E0,-3.896563351E-1
4.626725030E-1,7.926004887E0,6.964134216E0,-3.513490856E-1
4.651602120E-1,7.988254070E0,6.786963463E0,-2.603694201E-1
4.676479200E-1,8.136694908E0,6.638522625E0,-1.693897694E-1
4.701356280E-1,8.289923668E0,6.509235859E0,-1.023521200E-1
4.726233370E-1,8.447940826E0,6.394314289E0,-6.883329898E-2
4.751110450E-1,8.610746384E0,6.284181118E0,-7.841010392E-2
4.775987530E-1,8.759186745E0,6.140528679E0,-7.841010392E-2
4.800864620E-1,8.907627106E0,5.934627533E0,-2.573766746E-2
4.825741700E-1,9.075222015E0,5.695207119E0,7.003039867E-2
4.850618780E-1,9.247604370E0,5.417479992E0,1.657984704E-1
4.875495870E-1,9.448717117E0,5.206789970E0,2.519897223E-1
4.900372950E-1,9.654618263E0,5.029619217E0,2.519897223E-1
4.925250030E-1,9.870096207E0,4.929062843E0,2.184709013E-1
4.950127120E-1,1.004247856E1,4.857236862E0,1.370680481E-1
4.975004200E-1,1.018134308E1,4.814141273E0,-1.795651275E-3
4.999881280E-1,1.030105305E1,4.780622005E0,-1.837549806E-1
5.024758370E-1,1.041118622E1,4.742314816E0,-4.327519536E-1
5.049635450E-1,1.044949341E1,4.684854031E0,-7.296329737E-1
5.074512530E-1,1.040639782E1,4.651335239E0,-1.002571940E0
5.099389620E-1,1.022443867E1,4.684854031E0,-1.275510907E0
5.124266700E-1,9.788693428E0,4.842871666E0,-1.505354285E0
5.149143780E-1,9.166201591E0,5.149329185E0,-1.672948480E0
5.174020870E-1,8.400056839E0,5.527613163E0,-1.816600561E0
5.198897950E-1,7.657854080E0,5.925050735E0,-1.988983035E0
5.223775030E-1,7.001842976E0,6.279392719E0,-2.194884300E0
5.248652120E-1,6.513425827E0,6.537966251E0,-2.348113298E0
5.273529200E-1,6.159083843E0,6.662464619E0,-2.501342297E0
5.298406280E-1,5.953182697E0,6.715137005E0,-2.640205860E0
5.323283370E-1,5.862202644E0,6.724713802E0,-2.759916067E0
5.348160450E-1,5.847837448E0,6.705560207E0,-2.855684042E0
5.373037530E-1,5.881356239E0,6.686406612E0,-2.932298422E0
5.397914620E-1,5.957971096E0,6.638522625E0,-2.999336243E0
5.422791700E-1,6.053739071E0,6.542754650E0,-3.056797028E0
5.447668780E-1,6.159083843E0,6.403891087E0,-3.171718597E0
5.472545870E-1,6.274005413E0,6.260239124E0,-3.301005602E0
5.497422950E-1,6.364984989E0,6.111798286E0,-3.358466387E0
5.522300030E-1,6.479907036E0,5.996876717E0,-3.372831583E0
5.547177120E-1,6.590040207E0,5.877166748E0,-3.339312792E0
5.572054200E-1,6.752845764E0,5.709572315E0,-3.219602823E0
5.596931280E-1,6.982689381E0,5.546766758E0,-3.056797028E0
5.621808370E-1,7.222109318E0,5.388749599E0,-2.836530447E0
5.646685450E-1,7.475894928E0,5.225943565E0,-2.644994259E0
5.671562530E-1,7.700949669E0,5.063138008E0,-2.491765499E0
5.696439620E-1,7.897274494E0,4.905120850E0,-2.362478495E0
5.721316700E-1,8.084021568E0,4.751891613E0,-2.228403330E0
5.746193780E-1,8.251616478E0,4.565144062E0,-2.099116325E0
5.771070870E-1,8.404845238E0,4.359242916E0,-1.965041041E0
5.795947950E-1,8.558073997E0,4.201225281E0,-1.811812162E0
5.820825030E-1,8.744821548E0,4.062361717E0,-1.663371682E0
5.845702120E-1,8.912415504E0,3.947440147E0,-1.510142684E0
5.870579200E-1,9.036913872E0,3.866037130E0,-1.423951507E0
5.895456280E-1,9.084798813E0,3.813364744E0,-1.400009394E0
5.920333370E-1,8.984241486E0,3.846883535E0,-1.419163108E0
5.945210450E-1,8.759186745E0,3.885190725E0,-1.457470298E0
5.970087530E-1,8.438364029E0,3.971382141E0,-1.481412292E0
5.994964620E-1,8.031349182E0,4.091092110E0,-1.486200690E0
6.019841700E-1,7.566874504E0,4.253897667E0,-1.481412292E0
6.044718780E-1,7.064092159E0,4.445434093E0,-1.433528304E0
6.069595870E-1,6.628347397E0,4.646546841E0,-1.361702204E0
6.094472950E-1,6.250063419E0,4.828506470E0,-1.337760210E0
6.119350030E-1,5.962759495E0,4.996100426E0,-1.323395014E0
6.144227120E-1,5.708973885E0,5.120598793E0,-1.361702204E0
6.169104200E-1,5.431246758E0,5.235520363E0,-1.433528304E0
6.193981280E-1,5.120000362E0,5.379172802E0,-1.519719481E0
6.218858370E-1,4.780023575E0,5.503671169E0,-1.706467271E0
6.243735450E-1,4.478354454E0,5.623381138E0,-1.878849745E0
6.268612530E-1,4.262876034E0,5.699995518E0,-2.051232338E0
6.293489620E-1,4.205415249E0,5.695207119E0,-2.151788712E0
6.318366700E-1,4.301183224E0,5.580285549E0,-2.199672699E0
6.343243780E-1,4.593276024E0,5.383961201E0,-2.209249735E0
6.368120870E-1,5.029020786E0,5.144540787E0,-2.127846718E0
6.392997950E-1,5.546168327E0,4.943428040E0,-1.969829440E0
6.417875030E-1,6.082469463E0,4.771045208E0,-1.830965757E0
6.442752120E-1,6.532579422E0,4.622604847E0,-1.830965757E0
6.467629200E-1,6.939593792E0,4.435857296E0,-1.926733851E0
6.492506280E-1,7.317877293E0,4.234744072E0,-2.032078743E0
6.517383370E-1,7.648277283E0,4.038419724E0,-2.142211914E0
6.542260450E-1,7.926004887E0,3.856460333E0,-2.276287317E0
6.567137530E-1,8.141483307E0,3.712808371E0,-2.429516077E0
6.592014620E-1,8.328230858E0,3.593098164E0,-2.597110271E0
6.616891700E-1,8.524555206E0,3.506906986E0,-2.735974073E0
6.641768780E-1,8.711302757E0,3.435081005E0,-2.884414434E0
6.666645870E-1,8.883685112E0,3.382408381E0,-3.056797028E0
6.691522950E-1,9.012971878E0,3.368043184E0,-3.253121614E0
6.716400030E-1,9.137471199E0,3.382408381E0,-3.492541790E0
6.741277120E-1,9.204508781E0,3.406350374E0,-3.760692358E0
6.766154200E-1,9.271546364E0,3.401561975E0,-3.976170540E0
6.791031280E-1,9.338583946E0,3.435081005E0,-4.201225281E0
6.815908370E-1,9.415198326E0,3.468599796E0,-4.359242916E0
6.840785450E-1,9.434351921E0,3.540425777E0,-4.455010891E0
6.865662530E-1,9.343372345E0,3.655347347E0,-4.512471676E0
6.890539620E-1,9.118317604E0,3.784634352E0,-4.541202068E0
6.915416700E-1,8.845377922E0,3.942651749E0,-4.536413670E0
6.940293780E-1,8.572439194E0,4.115034103E0,-4.531625271E0
6.965170870E-1,8.323442459E0,4.287416458E0,-4.493318081E0
6.990047950E-1,7.954735279E0,4.440645695E0,-4.421492100E0
7.014925030E-1,7.337030888E0,4.613028049E0,-4.344877720E0
7.039802120E-1,6.503849030E0,4.914697647E0,-4.215590477E0
7.064679200E-1,5.622782707E0,5.283404827E0,-4.033631325E0
7.089556280E-1,4.875791550E0,5.656899929E0,-3.875613928E0
7.114433370E-1,4.382586002E0,5.925050735E0,-3.684077978E0
7.139310450E-1,4.186261654E0,5.992088318E0,-3.535637379E0
7.164187530E-1,4.286818027E0,5.910685539E0,-3.363254786E0
7.189064620E-1,4.641160011E0,5.680841923E0,-3.233968019E0
7.213941700E-1,5.124788761E0,5.336077213E0,-3.152565002E0
7.238818780E-1,5.617994308E0,4.981735229E0,-3.109469414E0
7.263695870E-1,6.077681065E0,4.651335239E0,-3.047220230E0
7.288572950E-1,6.499060631E0,4.354454517E0,-3.047220230E0
7.313450030E-1,6.853402138E0,4.081515312E0,-3.071162224E0
7.338327120E-1,7.174225330E0,3.866037130E0,-3.042431831E0
7.363204200E-1,7.437587738E0,3.660135746E0,-3.028066635E0
7.388081280E-1,7.662642479E0,3.459022999E0,-2.927510023E0
7.412958370E-1,7.844601631E0,3.243544817E0,-2.798223257E0
7.437835450E-1,7.945158482E0,3.013701439E0,-2.601898670E0
7.462712530E-1,8.045714378E0,2.803011656E0,-2.410362482E0
7.487589620E-1,8.117541313E0,2.630629063E0,-2.237980127E0
7.512466700E-1,8.218097687E0,2.477400303E0,-2.060809135E0
7.537343780E-1,8.342596054E0,2.400785685E0,-1.926733851E0
7.562220870E-1,8.471882820E0,2.348113298E0,-1.811812162E0
7.587097950E-1,8.605957985E0,2.290652514E0,-1.754351258E0
7.611975030E-1,8.682572365E0,2.252345324E0,-1.792658567E0
7.636852120E-1,8.744821548E0,2.223614931E0,-1.888426542E0
7.661729200E-1,8.768763542E0,2.223614931E0,-2.017713547E0
7.686606280E-1,8.768763542E0,2.290652514E0,-2.151788712E0
7.711483370E-1,8.797493935E0,2.343324900E0,-2.333748102E0
7.736360450E-1,8.821435928E0,2.386420488E0,-2.472611904E0
7.761237530E-1,8.807070732E0,2.434304476E0,-2.621052265E0
7.786114620E-1,8.658630371E0,2.477400303E0,-2.807800055E0
7.810991700E-1,8.294712067E0,2.611475468E0,-2.956240654E0
7.835868780E-1,7.653065681E0,2.841318846E0,-3.095104218E0
7.860745870E-1,6.748057365E0,3.200449228E0,-3.138199806E0
7.885622950E-1,5.646724701E0,3.645770550E0,-3.128623009E0
7.910500030E-1,4.507084846E0,4.158129692E0,-3.104681015E0
7.935377120E-1,3.511096716E0,4.632181644E0,-3.071162224E0
7.960254200E-1,2.802412987E0,5.015254021E0,-2.975394249E0
7.985131280E-1,2.433706045E0,5.240308762E0,-2.798223257E0
8.010008370E-1,2.428917646E0,5.283404827E0,-2.534861088E0
8.034885450E-1,2.759317398E0,5.168482780E0,-2.209249735E0
8.059762530E-1,3.458424330E0,4.823718071E0,-1.677736878E0
8.084639620E-1,4.133589268E0,4.368819714E0,-1.241992116E0
8.109516700E-1,4.703409195E0,4.162918091E0,-9.451110959E-1
8.134393780E-1,5.503072739E0,3.942651749E0,-8.062474132E-1
8.159270870E-1,6.297947407E0,3.573944569E0,-8.780734539E-1
8.184147950E-1,6.920440197E0,3.162141800E0,-1.103128433E0
8.209025030E-1,7.428010941E0,2.817376852E0,-1.304241419E0
8.233902120E-1,7.787140846E0,2.597110271E0,-1.457470298E0
8.258779200E-1,7.993042469E0,2.448669672E0,-1.620275974E0
8.283656280E-1,8.088809967E0,2.415150881E0,-1.763928056E0
8.308533370E-1,8.131906509E0,2.400785685E0,-1.955464244E0
8.333410450E-1,8.093599319E0,2.357690096E0,-2.199672699E0
8.358287530E-1,8.021772385E0,2.300229311E0,-2.472611904E0
8.383164620E-1,7.926004887E0,2.237980127E0,-2.764704466E0
8.408041700E-1,7.815871239E0,2.233191729E0,-3.061585426E0
8.432918780E-1,7.686584473E0,2.281075716E0,-3.334524393E0
8.457795870E-1,7.566874504E0,2.338536501E0,-3.593098164E0
8.482672950E-1,7.466318130E0,2.410362482E0,-3.880402327E0
8.507550030E-1,7.375338554E0,2.477400303E0,-4.148552895E0
8.532427120E-1,7.274781704E0,2.539649487E0,-4.416703701E0
8.557304200E-1,7.116764545E0,2.582745075E0,-4.646546841E0
8.582181280E-1,6.853402138E0,2.621052265E0,-4.852448463E0
8.607058370E-1,6.542156219E0,2.678513050E0,-4.976946831E0
8.631935450E-1,6.168660641E0,2.731185675E0,-4.991312027E0
8.656812530E-1,5.747281075E0,2.817376852E0,-4.890755653E0
8.681689620E-1,5.311536312E0,2.961029053E0,-4.723161221E0
8.706566700E-1,4.904522419E0,3.104681015E0,-4.531625271E0
8.731443780E-1,4.607641220E0,3.262698412E0,-4.330512524E0
8.756320870E-1,4.487931252E0,3.344101191E0,-4.124610901E0
8.781197950E-1,4.535815239E0,3.358466387E0,-3.923498154E0
8.806075030E-1,4.756081581E0,3.272275209E0,-3.698443174E0
8.830952120E-1,5.115211964E0,3.109469414E0,-3.430292368E0
8.855829200E-1,5.531803131E0,2.870049238E0,-3.133411407E0
8.880706280E-1,5.991489887E0,2.611475468E0,-2.812588453E0
8.905583370E-1,6.432023048E0,2.362478495E0,-2.453458309E0
8.930460450E-1,6.853402138E0,2.151788712E0,-2.065597534E0
8.955337530E-1,7.255628109E0,1.955464244E0,-1.668160081E0
8.980214620E-1,7.600393295E0,1.797446966E0,-1.275510907E0
9.005091700E-1,7.902062893E0,1.672948480E0,-9.546879530E-1
9.029968780E-1,8.141483307E0,1.601122379E0,-7.248445749E-1
9.054845870E-1,8.299500465E0,1.558026791E0,-6.051344872E-1
9.079722950E-1,8.366538048E0,1.534084797E0,-6.003460884E-1
9.104600030E-1,8.385691643E0,1.495777488E0,-6.578069329E-1
9.129477120E-1,8.337807655E0,1.467047095E0,-8.014590144E-1
9.154354200E-1,8.270770073E0,1.467047095E0,-9.594763517E-1
9.179231280E-1,8.251616478E0,1.500565886E0,-1.146224022E0
9.204108370E-1,8.299500465E0,1.553238392E0,-1.347337008E0
9.228985450E-1,8.376114845E0,1.605910778E0,-1.591545582E0
9.253862530E-1,8.447940826E0,1.677736878E0,-1.883638144E0
9.278739620E-1,8.486248016E0,1.778293371E0,-2.204461098E0
9.303616700E-1,8.409633636E0,1.883638144E0,-2.582745075E0
9.328493780E-1,8.227674484E0,1.965041041E0,-2.970605850E0
9.353370870E-1,7.935581684E0,2.051232338E0,-3.353677988E0
9.378247950E-1,7.576451302E0,2.156577110E0,-3.727173567E0
9.403125030E-1,7.188590527E0,2.247556925E0,-4.076726913E0
9.428002120E-1,6.795941353E0,2.309806108E0,-4.340089321E0
9.452879200E-1,6.427234650E0,2.372055292E0,-4.488529682E0
9.477756280E-1,6.154295444E0,2.429516077E0,-4.531625271E0
9.502633370E-1,5.938817501E0,2.486977100E0,-4.517260075E0
9.527510450E-1,5.799953461E0,2.549226284E0,-4.464587688E0
9.552387530E-1,5.752069473E0,2.597110271E0,-4.402338505E0
9.577264620E-1,5.785588264E0,2.587533474E0,-4.325724125E0
9.602141700E-1,5.905298710E0,2.534861088E0,-4.234744072E0
9.627018780E-1,6.106411457E0,2.405574083E0,-4.124610901E0
9.651895870E-1,6.379350662E0,2.228403330E0,-3.985747337E0
9.676772950E-1,6.685808182E0,2.012925148E0,-3.851671934E0
9.701650030E-1,7.035361767E0,1.826177359E0,-3.684077978E0
9.726527120E-1,7.404068947E0,1.629852772E0,-3.540425777E0
9.751404200E-1,7.772775650E0,1.481412292E0,-3.382408381E0
9.776281280E-1,8.103176117E0,1.347337008E0,-3.248333216E0
9.801158370E-1,8.423998833E0,1.194108129E0,-3.138199806E0
9.826035450E-1,8.749609947E0,1.083974838E0,-3.052008629E0
9.850912530E-1,9.075222015E0,9.738415480E-1,-2.994547844E0
9.875789620E-1,9.348160744E0,9.211691022E-1,-2.956240654E0
9.900666700E-1,9.635464668E0,8.828618526E-1,-2.970605850E0
9.925543780E-1,9.894038200E0,8.541314602E-1,-3.013701439E0
9.950420870E-1,1.002811337E1,8.541314602E-1,-3.095104218E0
9.975297950E-1,1.008557510E1,9.163807034E-1,-3.205237627E0
1.000017503E0,1.009036350E1,9.882067442E-1,-3.353677988E0
1.002505212E0,1.003769016E1,1.074398041E0,-3.492541790E0
1.004992920E0,9.937133789E0,1.218050122E0,-3.664924145E0
1.007480628E0,9.712079048E0,1.352125406E0,-3.904344320E0
1.009968337E0,9.343372345E0,1.534084797E0,-4.115034103E0
1.012456045E0,8.893261909E0,1.720832467E0,-4.287416458E0
1.014943753E0,8.443152428E0,1.893214941E0,-4.416703701E0
1.017431462E0,8.093599319E0,2.056020737E0,-4.584297657E0
1.019919170E0,7.806294441E0,2.180519104E0,-4.713584423E0
1.022406878E0,7.557297707E0,2.333748102E0,-4.814141273E0
1.024894587E0,7.341819286E0,2.472611904E0,-4.862025261E0
1.027382295E0,7.174225330E0,2.611475468E0,-4.857236862E0
1.029870003E0,7.030573368E0,2.726397276E0,-4.766256809E0
1.032357712E0,6.963535786E0,2.769492865E0,-4.603451252E0
1.034845420E0,6.987477779E0,2.764704466E0,-4.383184910E0
1.037333128E0,7.092822552E0,2.759916067E0,-4.124610901E0
1.039820837E0,7.241262913E0,2.779069662E0,-3.808576345E0
1.042308545E0,7.375338554E0,2.831742048E0,-3.449446201E0
1.044796253E0,7.442376137E0,2.917933226E0,-3.147776604E0
1.047283962E0,7.456741333E0,3.037643433E0,-2.917933226E0
1.049771670E0,7.394492149E0,3.162141800E0,-2.745550871E0
1.052259378E0,7.341819286E0,3.277063608E0,-2.635417461E0
1.054747087E0,7.289146900E0,3.329735994E0,-2.510919094E0
1.057234795E0,7.293935299E0,3.372831583E0,-2.352901697E0
1.059722503E0,7.360973358E0,3.387196779E0,-2.180519104E0
1.062210212E0,7.480683327E0,3.430292368E0,-2.017713547E0
1.064697920E0,7.657854080E0,3.497330189E0,-1.859696150E0
1.067185628E0,7.863755703E0,3.597886562E0,-1.735197663E0
1.069673337E0,8.021772385E0,3.727173567E0,-1.696890473E0
1.072161045E0,8.093599319E0,3.846883535E0,-1.768716455E0
1.074648753E0,8.093599319E0,3.885190725E0,-1.917157054E0
1.077136462E0,8.055291176E0,3.870825529E0,-2.108693123E0
1.079624170E0,8.012195587E0,3.794211149E0,-2.362478495E0
1.082111878E0,7.973888874E0,3.741538763E0,-2.597110271E0
1.084599587E0,7.940370083E0,3.708019972E0,-2.850895643E0
1.087087295E0,7.882909298E0,3.708019972E0,-3.080739021E0
1.089575003E0,7.815871239E0,3.717596769E0,-3.281852007E0
1.092062712E0,7.763198853E0,3.736750364E0,-3.411138773E0
1.094550420E0,7.777564049E0,3.765480757E0,-3.435081005E0
1.097038128E0,7.830236435E0,3.789422750E0,-3.420715570E0
1.099525837E0,7.815871239E0,3.818153143E0,-3.415927172E0
1.102013545E0,7.753622055E0,3.866037130E0,-3.444657803E0
1.104501253E0,7.638700485E0,3.846883535E0,-3.516483784E0
1.106988962E0,7.518990517E0,3.837306738E0,-3.559579372E0
1.109476670E0,7.394492149E0,3.842095137E0,-3.583521366E0
1.111964378E0,7.255628109E0,3.870825529E0,-3.535637379E0
1.114452087E0,7.135918140E0,3.904344320E0,-3.473388195E0
1.116939795E0,7.078457355E0,3.937863350E0,-3.420715570E0
1.119427503E0,7.159860134E0,3.957016945E0,-3.377619982E0
1.121915212E0,7.332242489E0,3.942651749E0,-3.377619982E0
1.124402920E0,7.509413719E0,3.904344320E0,-3.425503969E0
1.126890628E0,7.624335289E0,3.870825529E0,-3.506906986E0
1.129378337E0,7.667430878E0,3.856460333E0,-3.602674961E0
1.131866045E0,7.672219276E0,3.861248732E0,-3.650558949E0
1.134353753E0,7.691372871E0,3.889979124E0,-3.640982151E0
1.136841462E0,7.734468460E0,3.899555922E0,-3.573944569E0
1.139329170E0,7.753622055E0,3.866037130E0,-3.468599796E0
1.141816878E0,7.787140846E0,3.813364744E0,-3.334524393E0
1.144304587E0,7.882909298E0,3.808576345E0,-3.162141800E0
1.146792295E0,8.055291176E0,3.808576345E0,-3.032855034E0
1.149280003E0,8.237251282E0,3.822941542E0,-2.980182648E0
1.151767712E0,8.371326447E0,3.889979124E0,-2.975394249E0
1.154255420E0,8.428787231E0,3.942651749E0,-3.028066635E0
1.156743128E0,8.462306023E0,3.976170540E0,-3.099892616E0
1.159230837E0,8.462306023E0,3.942651749E0,-3.210026026E0
1.161718545E0,8.400056839E0,3.880402327E0,-3.358466387E0
1.164206253E0,8.323442459E0,3.803787947E0,-3.545214176E0
1.166693962E0,8.256404877E0,3.775057554E0,-3.722385168E0
1.169181670E0,8.184578896E0,3.746327162E0,-3.899555922E0
1.171669378E0,8.079233170E0,3.746327162E0,-4.004900932E0
1.174157087E0,7.997830868E0,3.703231573E0,-4.076726913E0
1.176644795E0,7.921216488E0,3.636193752E0,-4.115034103E0
1.179132503E0,7.887697697E0,3.569156170E0,-4.047996521E0
1.181620212E0,7.892486095E0,3.473388195E0,-3.966593742E0
1.184107920E0,7.911639690E0,3.358466387E0,-3.851671934E0
1.186595628E0,7.959523678E0,3.253121614E0,-3.727173567E0
1.189083337E0,8.021772385E0,3.171718597E0,-3.597886562E0
1.191571045E0,8.084021568E0,3.090315819E0,-3.439869404E0
1.194058753E0,8.131906509E0,3.052008629E0,-3.229179621E0
1.196546462E0,8.198944092E0,3.013701439E0,-2.961029053E0
1.199034170E0,8.328230858E0,2.999336243E0,-2.611475468E0
1.201521878E0,8.481459618E0,3.004124641E0,-2.252345324E0
1.204009587E0,8.596381187E0,3.090315819E0,-1.902791858E0
1.206497295E0,8.567650795E0,3.286640406E0,-1.543661594E0
1.208985003E0,8.376114845E0,3.569156170E0,-1.265934110E0
1.211472712E0,8.050502777E0,3.808576345E0,-1.074398041E0
1.213960420E0,7.715314865E0,3.980958939E0,-9.690531492E-1
1.216448128E0,7.461529732E0,4.081515312E0,-9.163807034E-1
1.218935837E0,7.265204906E0,4.158129692E0,-8.828618526E-1
1.221423545E0,7.145494938E0,4.234744072E0,-8.637082577E-1
1.223911253E0,7.049726963E0,4.335300922E0,-9.259575009E-1
1.226398962E0,6.987477779E0,4.498106480E0,-1.060032845E0
1.228886670E0,6.982689381E0,4.617816448E0,-1.304241419E0
1.231374378E0,7.044938564E0,4.708796024E0,-1.601122379E0
1.233862087E0,7.049726963E0,4.785410881E0,-1.955464244E0
1.236349795E0,6.939593792E0,4.785410881E0,-2.381632090E0
1.238837503E0,6.776787758E0,4.727949619E0,-2.846107244E0
1.241325212E0,6.561309814E0,4.603451252E0,-3.363254786E0
1.243812920E0,6.393715858E0,4.368819714E0,-3.980958939E0
1.246300628E0,6.369773388E0,4.081515312E0,-4.574720860E0
1.248788337E0,6.551733017E0,3.885190725E0,-4.871602058E0
1.251276045E0,6.743268967E0,3.708019972E0,-5.144540787E0
1.253763753E0,6.858190536E0,3.478176594E0,-5.565920353E0
1.256251462E0,6.973112583E0,3.248333216E0,-5.891531944E0
1.258739170E0,7.107187748E0,3.056797028E0,-5.963357925E0
1.261226878E0,7.174225330E0,2.884414434E0,-5.953781128E0
1.263714587E0,7.188590527E0,2.668936253E0,-5.901108742E0
1.266202295E0,7.265204906E0,2.400785685E0,-5.757456303E0
1.268690003E0,7.418434143E0,2.132635117E0,-5.513247967E0
1.271177712E0,7.672219276E0,1.917157054E0,-5.216366768E0
1.273665420E0,7.978677273E0,1.783081770E0,-4.900332451E0
1.276153128E0,8.309077263E0,1.682525277E0,-4.555567265E0
1.278640837E0,8.668207169E0,1.668160081E0,-4.220378876E0
1.281128545E0,8.950722694E0,1.744774461E0,-3.889979124E0
1.283616253E0,9.166201591E0,1.888426542E0,-3.554790974E0
1.286103962E0,9.276334763E0,2.099116325E0,-3.229179621E0
1.288591670E0,9.247604370E0,2.391208887E0,-2.898779631E0
1.291079378E0,9.041702271E0,2.716820478E0,-2.707243681E0
1.293567087E0,8.658630371E0,3.052008629E0,-2.697666883E0
1.296054795E0,8.117541313E0,3.411138773E0,-2.922721624E0
1.298542503E0,7.499836922E0,3.727173567E0,-3.344101191E0
1.301030212E0,6.858190536E0,4.014477730E0,-3.832518339E0
1.303517920E0,6.336254597E0,4.162918091E0,-4.349666119E0
1.306005628E0,5.981913090E0,4.210802078E0,-4.905120850E0
1.308493337E0,5.771223068E0,4.172494888E0,-5.518036366E0
1.310981045E0,5.732915878E0,4.057573318E0,-6.154893875E0
1.313468753E0,5.833472252E0,3.866037130E0,-6.719925404E0
1.315956462E0,6.025008678E0,3.645770550E0,-7.217919350E0
1.318444170E0,6.264428616E0,3.348889589E0,-7.581838131E0
1.320931878E0,6.566098213E0,2.932298422E0,-7.806893349E0
1.323419587E0,6.958747387E0,2.477400303E0,-7.845200539E0
1.325907295E0,7.341819286E0,2.036867142E0,-7.735067368E0
1.328395003E0,7.648277283E0,1.672948480E0,-7.505223751E0
1.330882712E0,7.830236435E0,1.366490602E0,-7.136516571E0
1.333370420E0,7.911639690E0,1.079186440E0,-6.600215435E0
1.335858128E0,7.930793285E0,8.349778652E-1,-5.944204330E0
1.338345837E0,7.969100475E0,6.003460884E-1,-5.158905983E0
1.340833545E0,8.107964516E0,3.130418658E-1,-4.335300922E0
1.343321253E0,8.385691643E0,1.137245819E-2,-3.521272182E0
1.345808962E0,8.826224327E0,-2.663549483E-1,-2.712032080E0
1.348296670E0,9.362525940E0,-4.339490533E-1,-1.993771434E0
1.350784378E0,9.917980194E0,-5.440823436E-1,-1.361702204E0
1.353272087E0,1.042076302E1,-5.919663906E-1,-8.349778652E-1
1.355759795E0,1.078468132E1,-5.728127360E-1,-3.752911091E-1
1.358247503E0,1.097621727E1,-4.626794755E-1,-4.010287672E-2
1.360735212E0,1.097621727E1,-2.424129248E-1,1.466448605E-1
1.363222920E0,1.083256531E1,1.167173311E-1,2.136825025E-1
1.365710628E0,1.067454815E1,5.572504401E-1,1.610100716E-1
1.368198337E0,1.049737740E1,1.045667648E0,2.992752008E-3
1.370686045E0,1.027232265E1,1.629852772E0,-2.890998423E-1
1.373173753E0,9.922768593E0,2.257133722E0,-7.966706157E-1
1.375661462E0,9.439140320E0,2.889202833E0,-1.519719481E0
1.378149170E0,8.816647530E0,3.478176594E0,-2.372055292E0
1.380636878E0,8.098387718E0,3.995324135E0,-3.272275209E0
1.383124587E0,7.356184959E0,4.397550106E0,-4.206013680E0
1.385612295E0,6.685808182E0,4.670488834E0,-5.134963989E0
1.388100003E0,6.125565052E0,4.866813660E0,-6.016030312E0
1.390587712E0,5.699397087E0,5.000888824E0,-6.810905457E0
1.393075420E0,5.464765549E0,5.029619217E0,-7.490858555E0
1.395563128E0,5.479130745E0,4.948216438E0,-8.055890083E0
1.398050837E0,5.718550682E0,4.723161221E0,-8.510788918E0
1.400538545E0,6.072892666E0,4.407126904E0,-8.807669640E0
1.403026253E0,6.446388245E0,4.086303711E0,-9.023147583E0
1.405513962E0,6.757634163E0,3.746327162E0,-9.075819969E0
1.408001670E0,7.097610950E0,3.396773577E0,-8.874707222E0
1.410489378E0,7.475894928E0,3.090315819E0,-8.448538780E0
1.412977087E0,7.839813232E0,2.807800055E0,-7.859565735E0
1.415464795E0,8.136694908E0,2.577956676E0,-7.102997780E0
1.417952503E0,8.337807655E0,2.415150881E0,-6.207566261E0
1.420440212E0,8.447940826E0,2.271498919E0,-5.288193226E0
1.422927920E0,8.534132004E0,2.103904724E0,-4.292205334E0
1.425415628E0,8.634688377E0,1.984194636E0,-3.305794001E0
1.427903337E0,8.730456352E0,1.912368655E0,-2.295440912E0
1.430391045E0,8.888473511E0,1.926733851E0,-1.275510907E0
1.432878753E0,9.127894402E0,1.998559833E0,-3.321954906E-1
1.435366462E0,9.396044731E0,2.113481522E0,4.147954583E-1
1.437854170E0,9.645041466E0,2.233191729E0,9.127894044E-1
1.440341878E0,9.817423820E0,2.381632090E0,1.200093627E0
1.442829587E0,9.894038200E0,2.554014683E0,1.343745708E0
1.445317295E0,9.889249802E0,2.769492865E0,1.358110905E0
1.447805003E0,9.846154213E0,2.970605850E0,1.224035621E0
1.450292712E0,9.817423820E0,3.186083794E0,9.032126069E-1
1.452780420E0,9.740809441E0,3.382408381E0,4.387374520E-1
1.455268128E0,9.582792282E0,3.564367771E0,-1.598129570E-1
1.457755837E0,9.333795547E0,3.731961966E0,-8.924387097E-1
1.460243545E0,9.017760277E0,3.937863350E0,-1.639429569E0
1.462731253E0,8.591592789E0,4.158129692E0,-2.458246708E0
1.465218962E0,8.117541313E0,4.364031315E0,-3.329735994E0
1.467706670E0,7.648277283E0,4.512471676E0,-4.186860085E0
1.470194378E0,7.269993305E0,4.617816448E0,-4.976946831E0
1.472682087E0,6.977900982E0,4.646546841E0,-5.652111530E0
1.475169795E0,6.771999359E0,4.660912037E0,-6.245873451E0
1.477657503E0,6.685808182E0,4.603451252E0,-6.748656273E0
1.480145212E0,6.719326973E0,4.498106480E0,-7.107786179E0
1.482632920E0,6.862978935E0,4.325724125E0,-7.342418194E0
1.485120628E0,7.054515362E0,4.119822502E0,-7.423820972E0
1.487608337E0,7.327454090E0,3.899555922E0,-7.328052998E0
1.490096045E0,7.686584473E0,3.688866377E0,-7.055113792E0
1.492583753E0,8.026560783E0,3.473388195E0,-6.576273441E0
1.495071462E0,8.299500465E0,3.315370798E0,-6.011241913E0
1.497559170E0,8.433575630E0,3.233968019E0,-5.316923618E0
1.500046878E0,8.505401611E0,3.210026026E0,-4.536413670E0
1.502534587E0,8.519766808E0,3.181295395E0,-3.679289579E0
1.505022295E0,8.553285599E0,3.109469414E0,-2.836530447E0
1.507510003E0,8.548497200E0,3.104681015E0,-2.022501945E0
1.509997712E0,8.543708801E0,3.142988205E0,-1.270722508E0
1.512485420E0,8.572439194E0,3.272275209E0,-5.764040351E-1
1.514973128E0,8.620323181E0,3.415927172E0,5.087678507E-2
1.517460837E0,8.653841972E0,3.588309765E0,5.440823436E-1
1.519948545E0,8.649053574E0,3.794211149E0,8.122329116E-1
1.522436253E0,8.543708801E0,4.009689331E0,9.127894044E-1
1.524923962E0,8.404845238E0,4.249109268E0,8.122329116E-1
1.527411670E0,8.275558472E0,4.502894878E0,5.584475398E-1
1.529899378E0,8.170213699E0,4.708796024E0,1.753752679E-1
1.532387087E0,8.107964516E0,4.871602058E0,-2.651578486E-1
1.534874795E0,8.151060104E0,5.005677223E0,-7.392097712E-1
1.537362503E0,8.275558472E0,5.149329185E0,-1.261145711E0
1.539850212E0,8.438364029E0,5.288193226E0,-1.830965757E0
1.542337920E0,8.548497200E0,5.388749599E0,-2.439092875E0
1.544825628E0,8.591592789E0,5.460575581E0,-3.075950623E0
1.547313337E0,8.572439194E0,5.465363979E0,-3.755903959E0
1.549801045E0,8.438364029E0,5.369596004E0,-4.431068897E0
1.552288753E0,8.246828079E0,5.225943565E0,-5.067926407E0
1.554776462E0,8.045714378E0,5.053561211E0,-5.556343555E0
1.557264170E0,7.858967304E0,4.895544052E0,-5.886743546E0
1.559751878E0,7.677007675E0,4.723161221E0,-6.006453514E0
1.562239587E0,7.542932510E0,4.541202068E0,-5.958569527E0
1.564727295E0,7.485471725E0,4.306570530E0,-5.747879505E0
1.567215003E0,7.495048523E0,4.047996521E0,-5.431845188E0
1.569702712E0,7.586028099E0,3.794211149E0,-5.058349609E0
1.572190420E0,7.744045258E0,3.569156170E0,-4.555567265E0
1.574678128E0,7.945158482E0,3.348889589E0,-3.995324135E0
1.577165837E0,8.170213699E0,3.109469414E0,-3.444657803E0
1.579653545E0,8.419210434E0,2.836530447E0,-2.860472441E0
1.582141253E0,8.692149162E0,2.554014683E0,-2.328959703E0
1.584628962E0,8.936357498E0,2.352901697E0,-1.811812162E0
1.587116670E0,9.147047997E0,2.204461098E0,-1.323395014E0
1.589604378E0,9.329007149E0,2.108693123E0,-8.732850552E-1
1.592092087E0,9.506177902E0,2.027290344E0,-4.854243994E-1
1.594579795E0,9.678560257E0,2.027290344E0,-1.885433793E-1
1.597067503E0,9.779116631E0,2.084751129E0,-6.584054790E-3
1.599555212E0,9.716867447E0,2.247556925E0,1.256955881E-2
1.602042920E0,9.530119896E0,2.515707493E0,-1.167173311E-1
1.604530628E0,9.266757965E0,2.817376852E0,-4.135983288E-1
1.607018337E0,9.008183479E0,3.171718597E0,-7.870938182E-1
1.609506045E0,8.797493935E0,3.540425777E0,-1.213261724E0
1.611993753E0,8.644265175E0,3.880402327E0,-1.711255670E0
1.614481462E0,8.553285599E0,4.201225281E0,-2.257133722E0
1.616969170E0,8.543708801E0,4.474164486E0,-2.807800055E0
1.619456878E0,8.620323181E0,4.727949619E0,-3.368043184E0
1.621944587E0,8.696937561E0,4.938639641E0,-3.952228546E0
1.624432295E0,8.735244751E0,5.077503204E0,-4.531625271E0
1.626920003E0,8.725667953E0,5.154117584E0,-5.087080002E0
1.629407712E0,8.644265175E0,5.139752388E0,-5.637746334E0
1.631895420E0,8.500613213E0,5.053561211E0,-6.130951881E0
1.634383128E0,8.285135269E0,4.914697647E0,-6.533177853E0
1.636870837E0,8.084021568E0,4.761468410E0,-6.763021469E0
1.639358545E0,7.906851292E0,4.589086056E0,-6.825270653E0
1.641846253E0,7.753622055E0,4.407126904E0,-6.739078999E0
1.644333962E0,7.643488884E0,4.196436882E0,-6.523601055E0
1.646821670E0,7.633912086E0,3.976170540E0,-6.183624268E0
1.649309378E0,7.686584473E0,3.770269156E0,-5.709572315E0
1.651797087E0,7.787140846E0,3.588309765E0,-5.178059578E0
1.654284795E0,7.935581684E0,3.372831583E0,-4.589086056E0
1.656772503E0,8.074444771E0,3.138199806E0,-3.976170540E0
1.659260212E0,8.179790497E0,2.879626036E0,-3.382408381E0
1.661747920E0,8.289923668E0,2.592321873E0,-2.812588453E0
1.664235628E0,8.376114845E0,2.314594507E0,-2.209249735E0
1.666723337E0,8.476671219E0,2.027290344E0,-1.601122379E0
1.669211045E0,8.562862396E0,1.783081770E0,-9.929951429E-1
1.671698753E0,8.663418770E0,1.553238392E0,-3.944447339E-1
1.674186462E0,8.783128738E0,1.332971811E0,1.610100716E-1
1.676674170E0,9.041702271E0,1.117493629E0,7.260416746E-1
1.679161878E0,9.434351921E0,9.690531492E-1,1.224035621E0
1.681649587E0,9.889249802E0,9.307458997E-1,1.587954283E0
1.684137295E0,1.039682102E1,1.026513934E0,1.750759959E0
1.686625003E0,1.086608410E1,1.222838521E0,1.674145579E0
1.689112712E0,1.123000336E1,1.490989089E0,1.338957310E0
1.691600420E0,1.138802052E1,1.797446966E0,7.404068708E-1
1.694088128E0,1.130182934E1,2.070385933E0,2.992752008E-3
1.696575837E0,1.103846741E1,2.295440912E0,-7.966706157E-1
1.699063545E0,1.067933655E1,2.544437885E0,-1.605910778E0
1.701551253E0,1.022922707E1,2.846107244E0,-2.333748102E0
1.704038962E0,9.697713852E0,3.186083794E0,-3.042431831E0
1.706526670E0,9.118317604E0,3.573944569E0,-3.803787947E0
1.709014378E0,8.467094421E0,3.980958939E0,-4.651335239E0
1.711502087E0,7.787140846E0,4.349666119E0,-5.561131954E0
1.713989795E0,7.145494938E0,4.694430828E0,-6.485293865E0
1.716477503E0,6.570886612E0,4.976946831E0,-7.328052998E0
1.718965212E0,6.120776653E0,5.206789970E0,-8.075043678E0
1.721452920E0,5.814318657E0,5.321712017E0,-8.702324867E0
1.723940628E0,5.680243492E0,5.307346821E0,-9.185953140E0
1.726428337E0,5.713762283E0,5.211578369E0,-9.444527626E0
1.728916045E0,5.847837448E0,5.034407616E0,-9.525930405E0
1.731403753E0,6.068104267E0,4.775833607E0,-9.439739227E0
1.733891462E0,6.364984989E0,4.464587688E0,-9.133280754E0
1.736379170E0,6.728903770E0,4.153341293E0,-8.664017677E0
1.738866878E0,7.078457355E0,3.851671934E0,-8.075043678E0
1.741354587E0,7.404068947E0,3.540425777E0,-7.366360188E0
1.743842295E0,7.696161270E0,3.281852007E0,-6.561908245E0
1.746330003E0,7.930793285E0,3.037643433E0,-5.719149113E0
1.748817712E0,8.060079575E0,2.822165251E0,-4.838083267E0
1.751305420E0,8.122329712E0,2.625840664E0,-3.966593742E0
1.753793128E0,8.203732491E0,2.410362482E0,-3.066373825E0
1.756280837E0,8.342596054E0,2.190095901E0,-2.142211914E0
1.758768545E0,8.548497200E0,1.998559833E0,-1.227626920E0
1.761256253E0,8.831012726E0,1.830965757E0,-3.609259129E-1
1.763743962E0,9.218873978E0,1.663371682E0,4.866214991E-1
1.766231670E0,9.692925453E0,1.553238392E0,1.180940032E0
1.768719378E0,1.014782429E1,1.505354285E0,1.698087573E0
1.771207087E0,1.048780060E1,1.510142684E0,1.956661344E0
1.773694795E0,1.065539455E1,1.610699177E0,1.961449742E0
1.776182503E0,1.065060616E1,1.763928056E0,1.683722377E0
1.778670212E0,1.049258900E1,1.988983035E0,1.214458823E0
1.781157920E0,1.021007347E1,2.247556925E0,6.063315868E-1
1.783645628E0,9.831789017E0,2.549226284E0,-1.262941360E-1
1.786133337E0,9.400833130E0,2.826953650E0,-8.876502514E-1
1.788621045E0,8.979453087E0,3.114257812E0,-1.725620866E0
1.791108753E0,8.601169586E0,3.406350374E0,-2.554014683E0
1.793596462E0,8.261193275E0,3.693654776E0,-3.334524393E0
1.796084170E0,7.964312077E0,3.961805344E0,-4.100668907E0
1.798571878E0,7.744045258E0,4.177283287E0,-4.838083267E0
1.801059587E0,7.571662903E0,4.340089321E0,-5.532401562E0
1.803547295E0,7.423222542E0,4.431068897E0,-6.154893875E0
1.806035003E0,7.293935299E0,4.455010891E0,-6.729502201E0
1.808522712E0,7.222109318E0,4.416703701E0,-7.193977356E0
1.811010420E0,7.217320919E0,4.354454517E0,-7.476493359E0
1.813498128E0,7.279570103E0,4.263474464E0,-7.591414928E0
1.815985837E0,7.380126953E0,4.115034103E0,-7.543530941E0
1.818473545E0,7.518990517E0,3.909132719E0,-7.361571789E0
1.820961253E0,7.677007675E0,3.703231573E0,-6.997653008E0
1.823448962E0,7.839813232E0,3.482964993E0,-6.537966251E0
1.825936670E0,7.988254070E0,3.248333216E0,-5.968146324E0
1.828424378E0,8.141483307E0,2.999336243E0,-5.273828030E0
1.830912087E0,8.289923668E0,2.759916067E0,-4.526836872E0
1.833399795E0,8.414422035E0,2.577956676E0,-3.703231573E0
1.835887503E0,8.553285599E0,2.424727678E0,-2.893991232E0
1.838375212E0,8.720879555E0,2.257133722E0,-2.094327927E0
1.840862920E0,8.864531517E0,2.065597534E0,-1.318606615E0
1.843350628E0,8.950722694E0,1.854907751E0,-5.380968451E-1
1.845838337E0,9.027337074E0,1.625064373E0,2.615665495E-1
1.848326045E0,9.175778389E0,1.390432596E0,1.104325533E0
1.850813753E0,9.419986725E0,1.122282028E0,1.971026540E0
1.853301462E0,9.831789017E0,8.876502514E-1,2.832939148E0
1.855789170E0,1.037766743E1,6.625953317E-1,3.690063477E0
1.858276878E0,1.102888966E1,4.902127981E-1,4.456207752E0
1.860764587E0,1.162744045E1,4.471171796E-1,4.896740913E0
1.863252295E0,1.200093555E1,5.764040351E-1,4.844068527E0
1.865740003E0,1.200093555E1,8.780734539E-1,4.264671803E0
1.868227712E0,1.168490124E1,1.299453020E0,3.321356297E0
1.870715420E0,1.113902378E1,1.739986062E0,2.263119221E0
1.873203128E0,1.047343540E1,2.113481522E0,1.099537134E0
1.875690837E0,9.740809441E0,2.463035107E0,-2.573766746E-2
1.878178545E0,9.041702271E0,2.846107244E0,-1.069609642E0
1.880666253E0,8.395268440E0,3.286640406E0,-2.012925148E0
1.883153962E0,7.806294441E0,3.722385168E0,-2.922721624E0
1.885641670E0,7.332242489E0,4.143764496E0,-3.813364744E0
1.888129378E0,6.930016994E0,4.502894878E0,-4.680065632E0
1.890617087E0,6.609193802E0,4.823718071E0,-5.455787182E0
1.893104795E0,6.331466198E0,5.072714806E0,-6.212354660E0
1.895592503E0,6.063315868E0,5.264250755E0,-6.940192223E0
1.898080212E0,5.843049049E0,5.388749599E0,-7.572261333E0
1.900567920E0,5.785588264E0,5.450998783E0,-8.060678482E0
1.903055628E0,5.852625847E0,5.450998783E0,-8.328828812E0
1.905543337E0,6.053739071E0,5.393537998E0,-8.381501198E0
1.908031045E0,6.317101002E0,5.259462357E0,-8.209118843E0
1.910518753E0,6.604405403E0,5.063138008E0,-7.864354134E0
1.913006462E0,6.872556210E0,4.818929672E0,-7.409455776E0
1.915494170E0,7.068880558E0,4.569932461E0,-6.815693855E0
1.917981878E0,7.241262913E0,4.306570530E0,-6.087856293E0
1.920469587E0,7.356184959E0,4.004900932E0,-5.321712017E0
1.922957295E0,7.442376137E0,3.684077978E0,-4.455010891E0
1.925445003E0,7.533355713E0,3.353677988E0,-3.530848980E0
1.927932712E0,7.662642479E0,2.989759445E0,-2.506130695E0
1.930420420E0,7.882909298E0,2.587533474E0,-1.414374709E0
1.932908128E0,8.170213699E0,2.218826532E0,-3.417722881E-1
1.935395837E0,8.495824814E0,1.830965757E0,6.781576276E-1
1.937883545E0,8.936357498E0,1.428739905E0,1.688510776E0
1.940371253E0,9.544485092E0,9.834183455E-1,2.756324768E0
1.942858962E0,1.035851383E1,5.572504401E-1,3.814561844E0
1.945346670E0,1.132098293E1,2.172738016E-1,4.733935356E0
1.947834378E0,1.218289566E1,5.925649032E-2,5.342062473E0
1.950322087E0,1.277186871E1,1.262941360E-1,5.514444828E0
1.952809795E0,1.295861626E1,3.848679364E-1,5.193622112E0
1.955297503E0,1.277665710E1,7.823054194E-1,4.470572948E0
1.957785212E0,1.231697083E1,1.275510907E0,3.594295263E0
1.960272920E0,1.166095924E1,1.725620866E0,2.545634985E0
1.962760628E0,1.087566090E1,2.127846718E0,1.425148606E0
1.965248337E0,1.007120991E1,2.501342297E0,2.615665495E-1
1.967736045E0,9.257181168E0,2.913144827E0,-9.068039060E-1
1.970223753E0,8.514978409E0,3.391985178E0,-2.051232338E0
1.972711462E0,7.863755703E0,3.889979124E0,-3.166930199E0
1.975199170E0,7.293935299E0,4.364031315E0,-4.244320869E0
1.977686878E0,6.839036942E0,4.732738018E0,-5.216366768E0
1.980174587E0,6.479907036E0,5.010465622E0,-6.126163483E0
1.982662295E0,6.216544628E0,5.192424774E0,-6.992864609E0
1.985150003E0,6.025008678E0,5.288193226E0,-7.749432564E0
1.987637712E0,5.934029102E0,5.350442410E0,-8.352770805E0
1.990125420E0,5.919663906E0,5.321712017E0,-8.774150848E0
1.992613128E0,5.991489887E0,5.206789970E0,-8.946533203E0
1.995100837E0,6.096834660E0,5.087080002E0,-8.908226013E0
1.997588545E0,6.202179432E0,4.924274445E0,-8.687959671E0
2.000076253E0,6.302735806E0,4.689642429E0,-8.309675217E0
2.002563962E0,6.326677799E0,4.440645695E0,-7.792528152E0
2.005051670E0,6.297947407E0,4.220378876E0,-7.126939774E0
2.007539378E0,6.274005413E0,4.000112534E0,-6.360795498E0
2.010027087E0,6.230909824E0,3.794211149E0,-5.541978359E0
2.012514795E0,6.206967831E0,3.554790974E0,-4.646546841E0
2.015002503E0,6.254851818E0,3.267486811E0,-3.693654776E0
2.017490212E0,6.403292656E0,2.956240654E0,-2.611475468E0
2.019977920E0,6.642712593E0,2.621052265E0,-1.481412292E0
2.022465628E0,6.968324184E0,2.242768526E0,-3.034650683E-1
2.024953337E0,7.423222542E0,1.821388960E0,8.888474107E-1
2.027441045E0,8.016983986E0,1.395220995E0,2.085948229E0
2.029928753E0,8.706514359E0,9.977835417E-1,3.287837505E0
2.032416462E0,9.487024307E0,6.290764809E-1,4.465784550E0
2.034904170E0,1.032020664E1,2.986766696E-1,5.543175697E0
2.037391878E0,1.113423538E1,1.215057373E-1,6.342838764E0
2.039879587E0,1.177588081E1,9.756372124E-2,6.769006729E0
2.042367295E0,1.208712769E1,2.172738016E-1,6.740276337E0
2.044855003E0,1.208233929E1,4.758476019E-1,6.309319973E0
2.047342712E0,1.178066921E1,8.493430614E-1,5.605424881E0
2.049830420E0,1.128746414E1,1.280299306E0,4.662109375E0
2.052318128E0,1.059314537E1,1.744774461E0,3.512892485E0
2.054805837E0,9.764751434E0,2.185307503E0,2.220023632E0
2.057293545E0,8.878896713E0,2.606687069E0,7.835025191E-1
2.059781253E0,8.055291176E0,3.061585426E0,-6.721721292E-1
2.062268962E0,7.356184959E0,3.511695385E0,-2.113481522E0
2.064756670E0,6.800729752E0,3.928286552E0,-3.573944569E0
2.067244378E0,6.408081055E0,4.292205334E0,-4.976946831E0
2.069732087E0,6.125565052E0,4.574720860E0,-6.322488308E0
2.072219795E0,5.914875507E0,4.790199280E0,-7.668029308E0
2.074707503E0,5.814318657E0,4.909909248E0,-8.956110001E0
2.077195212E0,5.823895454E0,4.929062843E0,-1.011490345E1
2.079682920E0,5.910087109E0,4.862025261E0,-1.110131454E1
2.082170628E0,6.034585476E0,4.742314816E0,-1.177647972E1
2.084658337E0,6.106411457E0,4.584297657E0,-1.214518642E1
2.087146045E0,6.159083843E0,4.426280499E0,-1.217391682E1
2.089633753E0,6.130353451E0,4.306570530E0,-1.189140129E1
2.092121462E0,6.048950672E0,4.244320869E0,-1.139340687E1
2.094609170E0,5.886145115E0,4.167706490E0,-1.079964542E1
2.097096878E0,5.617994308E0,4.057573318E0,-1.014363384E1
2.099584587E0,5.335478306E0,3.880402327E0,-9.439739227E0
2.102072295E0,5.019443989E0,3.684077978E0,-8.687959671E0
2.104560003E0,4.722562790E0,3.468599796E0,-7.854777336E0
2.107047712E0,4.502296448E0,3.224391222E0,-6.925827026E0
2.109535420E0,4.325125217E0,2.961029053E0,-5.910685539E0
2.112023128E0,4.224568844E0,2.688089848E0,-4.847660065E0
2.114510837E0,4.210203648E0,2.419939280E0,-3.688866377E0
2.116998545E0,4.325125217E0,2.123058319E0,-2.477400303E0
2.119486253E0,4.645948410E0,1.783081770E0,-1.265934110E0
2.121973962E0,5.172672749E0,1.376067400E0,-7.362170517E-2
2.124461670E0,5.914875507E0,9.403226972E-1,1.224035621E0
2.126949378E0,6.824671745E0,5.237316489E-1,2.469020605E0
2.129437087E0,7.820659637E0,1.933317930E-1,3.603872061E0
2.131924795E0,8.720879555E0,4.489128292E-2,4.575918198E0
2.134412503E0,9.453505516E0,7.362170517E-2,5.294178486E0
2.136900212E0,1.002811337E1,2.172738016E-1,5.682039261E0
2.139387920E0,1.037287903E1,4.710591733E-1,5.744288445E0
2.141875628E0,1.052610779E1,8.206126094E-1,5.480926037E0
2.144363337E0,1.044949341E1,1.213261724E0,4.944624901E0
2.146851045E0,1.009994030E1,1.634641171E0,4.144961834E0
2.149338753E0,9.496601105E0,2.094327927E0,3.110666513E0
2.151826462E0,8.692149162E0,2.544437885E0,1.913565755E0
2.154314170E0,7.839813232E0,3.037643433E0,5.632359385E-1
2.156801878E0,6.987477779E0,3.573944569E0,-8.828618526E-1
2.159289587E0,6.173449039E0,4.129399300E0,-2.434304476E0
2.161777295E0,5.426458359E0,4.636970043E0,-4.057573318E0
2.164265003E0,4.756081581E0,5.082291603E0,-5.690418720E0
2.166752712E0,4.162319660E0,5.446210384E0,-7.337629795E0
2.169240420E0,3.697844505E0,5.699995518E0,-8.970475197E0
2.171728128E0,3.429693937E0,5.872378349E0,-1.049797630E1
2.174215837E0,3.372233152E0,5.925050735E0,-1.185788250E1
2.176703545E0,3.477577925E0,5.848436356E0,-1.300231075E1
2.179191253E0,3.693056107E0,5.757456303E0,-1.385943508E1
2.181678962E0,3.889380693E0,5.656899929E0,-1.445798588E1
2.184166670E0,4.071340084E0,5.551555157E0,-1.483148098E1
2.186654378E0,4.229357243E0,5.431845188E0,-1.491288376E1
2.189142087E0,4.310760021E0,5.283404827E0,-1.476444340E1
2.191629795E0,4.305971622E0,5.096656799E0,-1.446277428E1
2.194117503E0,4.262876034E0,4.885967255E0,-1.393604946E1
2.196605212E0,4.186261654E0,4.670488834E0,-1.316511631E1
2.199092920E0,4.109647274E0,4.459799290E0,-1.226010799E1
2.201580628E0,4.080916882E0,4.229955673E0,-1.125933170E1
2.204068337E0,4.152742863E0,3.961805344E0,-1.015799904E1
2.206556045E0,4.411316395E0,3.621828556E0,-8.965686798E0
2.209043753E0,4.818330765E0,3.262698412E0,-7.644087315E0
2.211531462E0,5.287594318E0,2.932298422E0,-6.269815922E0
2.214019170E0,5.766434669E0,2.630629063E0,-4.890755653E0
2.216506878E0,6.240486622E0,2.348113298E0,-3.516483784E0
2.218994587E0,6.786364555E0,2.123058319E0,-2.185307503E0
2.221482295E0,7.399280548E0,1.960252643E0,-9.068039060E-1
2.223970003E0,7.959523678E0,1.869272947E0,2.950853705E-1
2.226457712E0,8.361749649E0,1.850119352E0,1.305438519E0
2.228945420E0,8.620323181E0,1.893214941E0,2.042852640E0
2.231433128E0,8.701725960E0,2.008136749E0,2.507327795E0
2.233920837E0,8.625111580E0,2.204461098E0,2.670133352E0
2.236408545E0,8.400056839E0,2.419939280E0,2.531269789E0
2.238896253E0,8.079233170E0,2.649782658E0,2.191293001E0
2.241383962E0,7.662642479E0,2.922721624E0,1.669357181E0
2.243871670E0,7.222109318E0,3.214814425E0,1.032499433E0
2.246359378E0,6.714538574E0,3.502118587E0,2.807201445E-1
2.248847087E0,6.245275021E0,3.803787947E0,-5.811924338E-1
2.251334795E0,5.780799866E0,4.086303711E0,-1.524507880E0
2.253822503E0,5.378573895E0,4.354454517E0,-2.544437885E0
2.256310212E0,5.048174381E0,4.632181644E0,-3.660135746E0
2.258797920E0,4.789600372E0,4.885967255E0,-4.866813660E0
2.261285628E0,4.569334030E0,5.091868401E0,-6.107009888E0
2.263773337E0,4.392162800E0,5.249885559E0,-7.366360188E0
2.266261045E0,4.277241230E0,5.307346821E0,-8.558672905E0
2.268748753E0,4.210203648E0,5.278616428E0,-9.592967987E0
2.271236462E0,4.214992046E0,5.197213173E0,-1.043093872E1
2.273724170E0,4.272452831E0,5.063138008E0,-1.103427696E1
2.276211878E0,4.325125217E0,4.938639641E0,-1.135509968E1
2.278699587E0,4.406527996E0,4.838083267E0,-1.144129181E1
2.281187295E0,4.502296448E0,4.756680012E0,-1.130242729E1
2.283675003E0,4.598064423E0,4.689642429E0,-1.093850899E1
2.286162712E0,4.689043999E0,4.598662853E0,-1.040699577E1
2.288650420E0,4.741716385E0,4.469376087E0,-9.717466354E0
2.291138128E0,4.751293182E0,4.277839661E0,-8.927379608E0
2.293625837E0,4.746504784E0,4.033631325E0,-8.003217697E0
2.296113545E0,4.751293182E0,3.746327162E0,-7.012018204E0
2.298601253E0,4.813542366E0,3.468599796E0,-6.011241913E0
2.301088962E0,4.914099216E0,3.210026026E0,-5.010465622E0
2.303576670E0,5.096058369E0,2.956240654E0,-4.014477730E0
2.306064378E0,5.345055103E0,2.716820478E0,-3.008913040E0
2.308552087E0,5.613205910E0,2.496553898E0,-1.969829440E0
2.311039795E0,5.996278286E0,2.261922121E0,-9.403226972E-1
2.313527503E0,6.470330238E0,1.998559833E0,1.179144308E-1
2.316015212E0,6.987477779E0,1.749562860E0,1.185728431E0
2.318502920E0,7.499836922E0,1.553238392E0,2.210446835E0
2.320990628E0,7.997830868E0,1.419163108E0,3.125031710E0
2.323478337E0,8.447940826E0,1.356913805E0,3.828927040E0
2.325966045E0,8.869319916E0,1.347337008E0,4.264671803E0
2.328453753E0,9.108740807E0,1.447893500E0,4.331709385E0
2.330941462E0,9.127894402E0,1.672948480E0,4.015674591E0
2.333429170E0,8.969876289E0,1.917157054E0,3.330933094E0
2.335916878E0,8.663418770E0,2.194884300E0,2.368463993E0
2.338404587E0,8.309077263E0,2.506130695E0,1.295861721E0
2.340892295E0,7.882909298E0,2.822165251E0,1.179144308E-1
2.343380003E0,7.485471725E0,3.142988205E0,-1.060032845E0
2.345867712E0,7.107187748E0,3.430292368E0,-2.233191729E0
2.348355420E0,6.695384979E0,3.717596769E0,-3.415927172E0
2.350843128E0,6.355408192E0,3.980958939E0,-4.526836872E0
2.353330837E0,6.068104267E0,4.210802078E0,-5.575497150E0
2.355818545E0,5.785588264E0,4.416703701E0,-6.609792233E0
2.358306253E0,5.469553947E0,4.565144062E0,-7.610568523E0
2.360793962E0,5.096058369E0,4.675277233E0,-8.601768494E0
2.363281670E0,4.751293182E0,4.747103214E0,-9.482834816E0
2.365769378E0,4.487931252E0,4.742314816E0,-1.019630623E1
2.368257087E0,4.339490414E0,4.727949619E0,-1.069908905E1
2.370744795E0,4.382586002E0,4.646546841E0,-1.094329739E1
2.373232503E0,4.598064423E0,4.536413670E0,-1.111567974E1
2.375720212E0,4.923676014E0,4.435857296E0,-1.118271732E1
2.378207920E0,5.244498730E0,4.354454517E0,-1.112046814E1
2.380695628E0,5.598840714E0,4.292205334E0,-1.096723938E1
2.383183337E0,5.972336292E0,4.225167274E0,-1.073260784E1
2.385671045E0,6.297947407E0,4.124610901E0,-1.043572712E1
2.388158753E0,6.542156219E0,4.004900932E0,-1.004307747E1
2.390646462E0,6.728903770E0,3.880402327E0,-9.549872398E0
2.393134170E0,6.901286602E0,3.698443174E0,-8.936956406E0
2.395621878E0,7.107187748E0,3.502118587E0,-8.285733223E0
2.398109587E0,7.317877293E0,3.291428804E0,-7.567472935E0
2.400597295E0,7.547720909E0,3.061585426E0,-6.786963463E0
2.403085003E0,7.811082840E0,2.836530447E0,-5.929839134E0
2.405572712E0,8.122329712E0,2.582745075E0,-4.976946831E0
2.408060420E0,8.553285599E0,2.309806108E0,-3.971382141E0
2.410548128E0,9.022548676E0,2.046443939E0,-3.013701439E0
2.413035837E0,9.482235909E0,1.888426542E0,-2.132635117E0
2.415523545E0,9.841365814E0,1.826177359E0,-1.376067400E0
2.418011253E0,1.002332497E1,1.840542555E0,-7.966706157E-1
2.420498962E0,1.004726696E1,1.907580256E0,-4.279635549E-1
2.422986670E0,9.999382973E0,1.993771434E0,-2.124854028E-1
2.425474378E0,9.846154213E0,2.094327927E0,-2.172738016E-1
2.427962087E0,9.606734276E0,2.228403330E0,-4.950011969E-1
2.430449795E0,9.367314339E0,2.381632090E0,-9.546879530E-1
2.432937503E0,9.080010414E0,2.568379879E0,-1.572391987E0
2.435425212E0,8.802282333E0,2.803011656E0,-2.348113298E0
2.437912920E0,8.438364029E0,3.056797028E0,-3.186083794E0
2.440400628E0,8.026560783E0,3.358466387E0,-4.024054527E0
2.442888337E0,7.600393295E0,3.688866377E0,-4.876390457E0
2.445376045E0,7.188590527E0,4.028842926E0,-5.743091106E0
2.447863753E0,6.819883347E0,4.306570530E0,-6.590638638E0
2.450351462E0,7.174225330E0,4.292205334E0,-7.059902191E0
2.452839170E0,7.437587738E0,4.253897667E0,-1.051234150E1
2.455326878E0,6.714538574E0,4.833294868E0,-1.149875259E1
2.457814587E0,6.384139061E0,5.470152378E0,-1.038305378E1
2.460302295E0,6.048950672E0,5.216366768E0,-9.248202324E0
2.462790003E0,5.517437935E0,4.680065632E0,-8.654440880E0
2.465277712E0,5.043385983E0,4.469376087E0,-8.300098419E0
2.467765420E0,5.000290394E0,4.766256809E0,-8.352770805E0
2.470253128E0,5.517437935E0,5.225943565E0,-8.501212120E0
2.472740837E0,6.240486622E0,5.450998783E0,-8.630498886E0
2.475228545E0,6.819883347E0,5.269039154E0,-8.778939247E0
2.477716253E0,7.183802128E0,4.804564476E0,-8.731055260E0
2.480203962E0,7.495048523E0,4.282628059E0,-8.333617210E0
2.482691670E0,7.835024834E0,3.894767523E0,-7.711124897E0
2.485179378E0,8.179790497E0,3.679289579E0,-7.079055786E0
2.487667087E0,8.514978409E0,3.550002575E0,-6.475717068E0
2.490154795E0,8.821435928E0,3.420715570E0,-5.877166748E0
2.492642503E0,9.094375610E0,3.262698412E0,-5.221155167E0
2.495130212E0,9.285911560E0,3.075950623E0,-4.565144062E0
2.497617920E0,9.458293915E0,2.850895643E0,-3.904344320E0
2.500105628E0,9.621099472E0,2.616263866E0,-3.272275209E0
2.502593337E0,9.798270226E0,2.391208887E0,-2.673724651E0
2.505081045E0,9.980229378E0,2.247556925E0,-2.180519104E0
2.507568753E0,1.013345909E1,2.161365509E0,-1.840542555E0
2.510056462E0,1.020049667E1,2.127846718E0,-1.644217968E0
2.512544170E0,1.019570827E1,2.147000313E0,-1.610699177E0
2.515031878E0,1.013345909E1,2.233191729E0,-1.701678872E0
2.517519587E0,1.003290176E1,2.338536501E0,-1.898003340E0
2.520007295E0,9.870096207E0,2.472611904E0,-2.199672699E0
2.522495003E0,9.664195061E0,2.621052265E0,-2.558803082E0
2.524982712E0,9.429563522E0,2.779069662E0,-2.984971046E0
2.527470420E0,9.132682800E0,2.941875219E0,-3.468599796E0
2.529958128E0,8.807070732E0,3.157353401E0,-3.966593742E0
2.532445837E0,8.481459618E0,3.391985178E0,-4.464587688E0
2.534933545E0,8.103176117E0,3.597886562E0,-4.967370033E0
2.537421253E0,7.700949669E0,3.822941542E0,-5.474940777E0
2.539908962E0,7.274781704E0,4.043208122E0,-5.901108742E0
2.542396670E0,6.953958988E0,4.253897667E0,-6.274604321E0
2.544884378E0,6.690596581E0,4.397550106E0,-6.566696644E0
2.547372087E0,6.570886612E0,4.483741283E0,-6.777386665E0
2.549859795E0,6.575675011E0,4.493318081E0,-6.954557419E0
2.552347503E0,6.671442986E0,4.459799290E0,-7.059902191E0
2.554835212E0,6.862978935E0,4.378396511E0,-7.126939774E0
2.557322920E0,7.088034153E0,4.311358929E0,-7.126939774E0
2.559810628E0,7.327454090E0,4.215590477E0,-7.083844185E0
2.562298337E0,7.533355713E0,4.110245705E0,-6.959345818E0
2.564786045E0,7.724891663E0,3.980958939E0,-6.767809868E0
2.567273753E0,7.873332500E0,3.889979124E0,-6.528389454E0
2.569761462E0,7.949946880E0,3.851671934E0,-6.250661850E0
2.572249170E0,7.988254070E0,3.875613928E0,-6.020818710E0
2.574736878E0,8.050502777E0,3.928286552E0,-5.776610374E0
2.577224587E0,8.160636902E0,3.990535736E0,-5.527613163E0
2.579712295E0,8.342596054E0,4.019266129E0,-5.254673958E0
2.582200003E0,8.553285599E0,4.000112534E0,-4.924274445E0
2.584687712E0,8.797493935E0,3.904344320E0,-4.512471676E0
2.587175420E0,9.041702271E0,3.794211149E0,-4.028842926E0
2.589663128E0,9.261969566E0,3.674500942E0,-3.516483784E0
2.592150837E0,9.477447510E0,3.559579372E0,-3.028066635E0
2.594638545E0,9.664195061E0,3.454234600E0,-2.601898670E0
2.597126253E0,9.855731010E0,3.377619982E0,-2.247556925E0
2.599613962E0,1.006163311E1,3.344101191E0,-1.902791858E0
2.602101670E0,1.024359226E1,3.324947596E0,-1.634641171E0
2.604589378E0,1.032499504E1,3.329735994E0,-1.395220995E0
2.607077087E0,1.027711105E1,3.353677988E0,-1.170166135E0
2.609564795E0,1.012388229E1,3.411138773E0,-9.882067442E-1
2.612052503E0,9.980229378E0,3.468599796E0,-8.301894665E-1
2.614540212E0,9.793481827E0,3.502118587E0,-7.152677774E-1
2.617027920E0,9.635464668E0,3.516483784E0,-6.434416771E-1
2.619515628E0,9.501389503E0,3.521272182E0,-6.051344872E-1
2.622003337E0,9.348160744E0,3.550002575E0,-6.386532784E-1
2.624491045E0,9.156624794E0,3.636193752E0,-7.392097712E-1
2.626978753E0,8.869319916E0,3.775057554E0,-9.403226972E-1
2.629466462E0,8.586804390E0,3.971382141E0,-1.237203717E0
2.631954170E0,8.299500465E0,4.153341293E0,-1.562815189E0
2.634441878E0,8.016983986E0,4.330512524E0,-1.874061346E0
2.636929587E0,7.806294441E0,4.483741283E0,-2.180519104E0
2.639417295E0,7.657854080E0,4.651335239E0,-2.439092875E0
2.641905003E0,7.576451302E0,4.780622005E0,-2.673724651E0
2.644392712E0,7.542932510E0,4.866813660E0,-2.889202833E0
2.646880420E0,7.562086105E0,4.943428040E0,-3.075950623E0
2.649368128E0,7.638700485E0,4.981735229E0,-3.281852007E0
2.651855837E0,7.748833656E0,5.020042419E0,-3.516483784E0
2.654343545E0,7.930793285E0,5.077503204E0,-3.755903959E0
2.656831253E0,8.146271706E0,5.154117584E0,-3.966593742E0
2.659318962E0,8.404845238E0,5.225943565E0,-4.134187698E0
2.661806670E0,8.677783966E0,5.254673958E0,-4.182071686E0
2.664294378E0,8.974664688E0,5.259462357E0,-4.138976097E0
2.666782087E0,9.233239174E0,5.225943565E0,-4.004900932E0
2.669269795E0,9.520543098E0,5.154117584E0,-3.822941542E0
2.671757503E0,9.779116631E0,5.034407616E0,-3.583521366E0
2.674245212E0,1.001374817E1,4.938639641E0,-3.286640406E0
2.676732920E0,1.020049667E1,4.857236862E0,-2.994547844E0
2.679220628E0,1.035851383E1,4.814141273E0,-2.692878246E0
2.681708337E0,1.050216579E1,4.794987679E0,-2.400785685E0
2.684196045E0,1.062187576E1,4.766256809E0,-2.084751129E0
2.686683753E0,1.068891335E1,4.756680012E0,-1.759139657E0
2.689171462E0,1.067933655E1,4.751891613E0,-1.419163108E0
2.691659170E0,1.062187576E1,4.790199280E0,-1.088763237E0
2.694146878E0,1.056920338E1,4.809352875E0,-7.727286220E-1
2.696634587E0,1.052131939E1,4.823718071E0,-5.045779943E-1
2.699122295E0,1.040160942E1,4.838083267E0,-2.507926226E-1
2.701610003E0,1.021007347E1,4.881178856E0,-1.616086066E-2
2.704097712E0,9.965864182E0,4.967370033E0,1.083376259E-1
2.706585420E0,9.759963036E0,5.072714806E0,1.610100716E-1
2.709073128E0,9.616311073E0,5.144540787E0,1.705868691E-1
2.711560837E0,9.520543098E0,5.187636375E0,9.876082093E-2
2.714048545E0,9.448717117E0,5.197213173E0,-2.573766746E-2
2.716536253E0,9.439140320E0,5.182847977E0,-1.789665818E-1
2.719023962E0,9.482235909E0,5.163694382E0,-3.417722881E-1
2.721511670E0,9.568427086E0,5.154117584E0,-5.428852439E-1
2.723999378E0,9.621099472E0,5.144540787E0,-7.870938182E-1
2.726487087E0,9.601945877E0,5.182847977E0,-1.103128433E0
2.728974795E0,9.525331497E0,5.230731964E0,-1.462258697E0
2.731462503E0,9.424775124E0,5.321712017E0,-1.821388960E0
2.733950212E0,9.362525940E0,5.422268391E0,-2.137423515E0
2.736437920E0,9.362525940E0,5.489305973E0,-2.443881273E0
2.738925628E0,9.396044731E0,5.541978359E0,-2.726397276E0
2.741413337E0,9.453505516E0,5.575497150E0,-3.032855034E0
2.743901045E0,9.539696693E0,5.546766758E0,-3.310582399E0
2.746388753E0,9.645041466E0,5.508459568E0,-3.655347347E0
2.748876462E0,9.803058624E0,5.460575581E0,-4.043208122E0
2.751364170E0,9.965864182E0,5.369596004E0,-4.469376087E0
2.753851878E0,1.008078671E1,5.302558422E0,-4.929062843E0
2.756339587E0,1.016218948E1,5.206789970E0,-5.403114796E0
2.758827295E0,1.016218948E1,5.154117584E0,-5.838859558E0
2.761315003E0,1.011430550E1,5.096656799E0,-6.183624268E0
2.763802712E0,1.004726696E1,5.034407616E0,-6.408679485E0
2.766290420E0,9.956287384E0,4.981735229E0,-6.514024258E0
2.768778128E0,9.894038200E0,4.929062843E0,-6.466140270E0
2.771265837E0,9.865307808E0,4.885967255E0,-6.303334713E0
2.773753545E0,9.783905029E0,4.818929672E0,-6.087856293E0
2.776241253E0,9.759963036E0,4.756680012E0,-5.824494362E0
2.778728962E0,9.759963036E0,4.665700436E0,-5.508459568E0
2.781216670E0,9.793481827E0,4.550778866E0,-5.154117584E0
2.783704378E0,9.764751434E0,4.416703701E0,-4.790199280E0
2.786192087E0,9.726444244E0,4.330512524E0,-4.464587688E0
2.788679795E0,9.678560257E0,4.263474464E0,-4.134187698E0
2.791167503E0,9.668983459E0,4.182071686E0,-3.789422750E0
2.793655212E0,9.716867447E0,4.105457306E0,-3.391985178E0
2.796142920E0,9.788693428E0,3.995324135E0,-2.980182648E0
2.798630628E0,9.894038200E0,3.856460333E0,-2.549226284E0
2.801118337E0,1.002332497E1,3.722385168E0,-2.123058319E0
2.803606045E0,1.017176628E1,3.583521366E0,-1.716044068E0
2.806093753E0,1.031062984E1,3.454234600E0,-1.337760210E0
2.808581462E0,1.047822380E1,3.348889589E0,-9.882067442E-1
2.811069170E0,1.062187576E1,3.262698412E0,-7.296329737E-1
2.813556878E0,1.075116253E1,3.190872431E0,-5.141547918E-1
2.816044587E0,1.085171890E1,3.133411407E0,-3.896563351E-1
2.818532295E0,1.095227528E1,3.104681015E0,-3.369838893E-1
2.821020003E0,1.104804420E1,3.099892616E0,-3.082534671E-1
2.823507712E0,1.110550499E1,3.109469414E0,-3.226186931E-1
2.825995420E0,1.117254257E1,3.123834610E0,-3.705027103E-1
2.828483128E0,1.122042656E1,3.138199806E0,-4.710591733E-1
2.830970837E0,1.125873375E1,3.138199806E0,-6.051344872E-1
2.833458545E0,1.129704094E1,3.142988205E0,-7.918822169E-1
2.835946253E0,1.130182934E1,3.128623009E0,-9.882067442E-1
2.838433962E0,1.128267574E1,3.147776604E0,-1.208473325E0
2.840921670E0,1.127788734E1,3.162141800E0,-1.462258697E0
2.843409378E0,1.122042656E1,3.219602823E0,-1.701678872E0
2.845897087E0,1.111029339E1,3.291428804E0,-1.912368655E0
2.848384795E0,1.098100567E1,3.353677988E0,-2.099116325E0
2.850872503E0,1.084693050E1,3.425503969E0,-2.271498919E0
2.853360212E0,1.071285534E1,3.492541790E0,-2.376843691E0
2.855847920E0,1.058356857E1,3.545214176E0,-2.491765499E0
2.858335628E0,1.045428181E1,3.578732967E0,-2.601898670E0
2.860823337E0,1.030584145E1,3.626616955E0,-2.697666883E0
2.863311045E0,1.015740108E1,3.655347347E0,-2.764704466E0
2.865798753E0,1.003769016E1,3.717596769E0,-2.870049238E0
2.868286462E0,9.937133789E0,3.803787947E0,-2.951452255E0
2.870774170E0,9.812635422E0,3.909132719E0,-3.032855034E0
2.873261878E0,9.664195061E0,4.043208122E0,-3.109469414E0
2.875749587E0,9.520543098E0,4.215590477E0,-3.133411407E0
2.878237295E0,9.434351921E0,4.368819714E0,-3.123834610E0
2.880725003E0,9.429563522E0,4.507683277E0,-3.085527420E0
2.883212712E0,9.458293915E0,4.565144062E0,-2.999336243E0
2.885700420E0,9.491812706E0,4.584297657E0,-2.913144827E0
2.888188128E0,9.525331497E0,4.560355663E0,-2.783858061E0
2.890675837E0,9.587580681E0,4.526836872E0,-2.668936253E0
2.893163545E0,9.683348656E0,4.498106480E0,-2.568379879E0
2.895651253E0,9.793481827E0,4.493318081E0,-2.491765499E0
2.898138962E0,9.903614998E0,4.502894878E0,-2.453458309E0
2.900626670E0,1.002332497E1,4.478952885E0,-2.448669672E0
2.903114378E0,1.012867069E1,4.426280499E0,-2.458246708E0
2.905602087E0,1.021007347E1,4.387973309E0,-2.443881273E0
2.908089795E0,1.026274586E1,4.330512524E0,-2.434304476E0
2.910577503E0,1.027711105E1,4.296993732E0,-2.400785685E0
2.913065212E0,1.025316906E1,4.244320869E0,-2.362478495E0
2.915552920E0,1.020528507E1,4.191648483E0,-2.352901697E0
2.918040628E0,1.017176628E1,4.148552895E0,-2.333748102E0
2.920528337E0,1.011430550E1,4.091092110E0,-2.305017710E0
2.923016045E0,1.010951710E1,4.028842926E0,-2.276287317E0
2.925503753E0,1.009994030E1,4.000112534E0,-2.223614931E0
2.927991462E0,1.010951710E1,4.000112534E0,-2.180519104E0
2.930479170E0,1.009036350E1,4.000112534E0,-2.170942307E0
2.932966878E0,1.006163311E1,3.985747337E0,-2.147000313E0
2.935454587E0,1.004726696E1,3.942651749E0,-2.118269920E0
2.937942295E0,9.999382973E0,3.870825529E0,-2.132635117E0
2.940430003E0,9.941922188E0,3.822941542E0,-2.142211914E0
2.942917712E0,9.822212219E0,3.818153143E0,-2.175730705E0
2.945405420E0,9.611522675E0,3.904344320E0,-2.209249735E0
2.947893128E0,9.410409927E0,4.047996521E0,-2.271498919E0
2.950380837E0,9.257181168E0,4.215590477E0,-2.333748102E0
2.952868545E0,9.209297180E0,4.359242916E0,-2.357690096E0
2.955356253E0,9.209297180E0,4.450222492E0,-2.357690096E0
2.957843962E0,9.257181168E0,4.517260075E0,-2.357690096E0
2.960331670E0,9.295488358E0,4.526836872E0,-2.372055292E0
2.962819378E0,9.305065155E0,4.545990467E0,-2.419939280E0
2.965307087E0,9.242815971E0,4.574720860E0,-2.510919094E0
2.967794795E0,9.127894402E0,4.632181644E0,-2.630629063E0
2.970282503E0,9.022548676E0,4.704007626E0,-2.750339270E0
2.972770212E0,8.974664688E0,4.780622005E0,-2.846107244E0
2.975257920E0,8.998606682E0,4.862025261E0,-2.884414434E0
2.977745628E0,9.113529205E0,4.933851242E0,-2.893991232E0
2.980233337E0,9.242815971E0,4.957793236E0,-2.855684042E0
2.982721045E0,9.362525940E0,4.938639641E0,-2.793434858E0
2.985208753E0,9.453505516E0,4.871602058E0,-2.707243681E0
2.987696462E0,9.544485092E0,4.794987679E0,-2.611475468E0
2.990184170E0,9.601945877E0,4.704007626E0,-2.486977100E0
2.992671878E0,9.640253067E0,4.589086056E0,-2.386420488E0
2.995159587E0,9.668983459E0,4.478952885E0,-2.290652514E0
2.997647295E0,9.664195061E0,4.378396511E0,-2.161365509E0
3.000135003E0,9.659406662E0,4.344877720E0,-2.036867142E0
3.002622712E0,9.664195061E0,4.344877720E0,-1.888426542E0
3.005110420E0,9.678560257E0,4.349666119E0,-1.720832467E0
3.007598128E0,9.697713852E0,4.354454517E0,-1.562815189E0
3.010085837E0,9.707290649E0,4.330512524E0,-1.404797792E0
3.012573545E0,9.688137054E0,4.287416458E0,-1.241992116E0
3.015061253E0,9.621099472E0,4.220378876E0,-1.060032845E0
3.017548962E0,9.539696693E0,4.148552895E0,-8.780734539E-1
3.020036670E0,9.439140320E0,4.105457306E0,-7.392097712E-1
3.022524378E0,9.343372345E0,4.071938515E0,-6.099228859E-1
3.025012087E0,9.242815971E0,4.081515312E0,-5.620388389E-1
3.027499795E0,9.175778389E0,4.148552895E0,-5.572504401E-1
3.029987503E0,9.161413193E0,4.239532471E0,-5.811924338E-1
3.032475212E0,9.142259598E0,4.349666119E0,-6.865373254E-1
3.034962920E0,9.142259598E0,4.440645695E0,-8.110358119E-1
3.037450628E0,9.127894402E0,4.488529682E0,-9.546879530E-1
3.039938337E0,9.113529205E0,4.536413670E0,-1.074398041E0
3.042426045E0,9.113529205E0,4.555567265E0,-1.198896527E0
3.044913753E0,9.099164009E0,4.593874454E0,-1.356913805E0
3.047401514E0,9.089587212E0,4.646546841E0,-1.500565886E0
3.049889274E0,9.056067467E0,4.727949619E0,-1.682525277E0
3.052377035E0,9.022548676E0,4.799776077E0,-1.898003340E0
3.054864795E0,8.984241486E0,4.838083267E0,-2.075174332E0
3.057352555E0,8.960299492E0,4.890755653E0,-2.233191729E0
3.059840316E0,8.898050308E0,4.953004837E0,-2.367266893E0
3.062328076E0,8.869319916E0,5.034407616E0,-2.486977100E0
3.064815837E0,8.850166321E0,5.120598793E0,-2.577956676E0
3.067303597E0,8.835801125E0,5.144540787E0,-2.644994259E0
3.069791358E0,8.826224327E0,5.154117584E0,-2.673724651E0
3.072279118E0,8.821435928E0,5.115810394E0,-2.654571056E0
3.074766878E0,8.816647530E0,5.048772812E0,-2.606687069E0
3.077254639E0,8.802282333E0,4.981735229E0,-2.525284290E0
3.079742399E0,8.778340340E0,4.938639641E0,-2.439092875E0
3.082230160E0,8.768763542E0,4.900332451E0,-2.328959703E0
3.084717920E0,8.749609947E0,4.842871666E0,-2.190095901E0
3.087205680E0,8.744821548E0,4.790199280E0,-2.041655540E0
3.089693441E0,8.725667953E0,4.718372822E0,-1.936310649E0
3.092181201E0,8.711302757E0,4.636970043E0,-1.773504853E0
3.094668962E0,8.725667953E0,4.579509258E0,-1.615487576E0
3.097156722E0,8.701725960E0,4.502894878E0,-1.452681899E0
3.099644483E0,8.696937561E0,4.440645695E0,-1.337760210E0
3.102132243E0,8.663418770E0,4.387973309E0,-1.270722508E0
3.104620003E0,8.620323181E0,4.354454517E0,-1.213261724E0
3.107107764E0,8.591592789E0,4.311358929E0,-1.179742932E0
3.109595524E0,8.601169586E0,4.277839661E0,-1.189319730E0
3.112083233E0,8.605957985E0,4.268262863E0,-1.198896527E0
3.114570941E0,8.620323181E0,4.244320869E0,-1.203684926E0
3.117058649E0,8.658630371E0,4.225167274E0,-1.189319730E0
3.119546358E0,8.725667953E0,4.182071686E0,-1.179742932E0
3.122034066E0,8.783128738E0,4.153341293E0,-1.160589218E0
3.124521774E0,8.821435928E0,4.100668907E0,-1.170166135E0
3.127009483E0,8.816647530E0,4.071938515E0,-1.174954534E0
3.129497191E0,8.797493935E0,4.076726913E0,-1.208473325E0
3.131984899E0,8.754398346E0,4.086303711E0,-1.289876223E0
3.134472608E0,8.672995567E0,4.129399300E0,-1.404797792E0
3.136960316E0,8.605957985E0,4.201225281E0,-1.505354285E0
3.139448024E0,8.562862396E0,4.316147327E0,-1.577180386E0
3.141935733E0,8.548497200E0,4.431068897E0,-1.649006367E0
3.144423441E0,8.543708801E0,4.522048473E0,-1.672948480E0
3.146911149E0,8.558073997E0,4.579509258E0,-1.672948480E0
3.149398858E0,8.591592789E0,4.603451252E0,-1.620275974E0
3.151886566E0,8.620323181E0,4.608239651E0,-1.572391987E0
3.154374274E0,8.605957985E0,4.589086056E0,-1.567603588E0
3.156861983E0,8.567650795E0,4.569932461E0,-1.591545582E0
3.159349691E0,8.519766808E0,4.603451252E0,-1.677736878E0
3.161837399E0,8.447940826E0,4.660912037E0,-1.759139657E0
3.164325108E0,8.366538048E0,4.732738018E0,-1.807023764E0
3.166812816E0,8.318654060E0,4.780622005E0,-1.768716455E0
3.169300524E0,8.313865662E0,4.785410881E0,-1.687313676E0
3.171788233E0,8.333019257E0,4.771045208E0,-1.567603588E0
3.174275941E0,8.328230858E0,4.732738018E0,-1.462258697E0
3.176763649E0,8.342596054E0,4.704007626E0,-1.404797792E0
3.179251358E0,8.380903244E0,4.694430828E0,-1.328183413E0
3.181739066E0,8.400056839E0,4.713584423E0,-1.318606615E0
3.184226774E0,8.438364029E0,4.771045208E0,-1.309029818E0
3.186714483E0,8.452729225E0,4.818929672E0,-1.299453020E0
3.189202191E0,8.481459618E0,4.871602058E0,-1.256357312E0
3.191689899E0,8.462306023E0,4.905120850E0,-1.194108129E0
3.194177608E0,8.419210434E0,4.938639641E0,-1.122282028E0
3.196665316E0,8.356961250E0,4.962581635E0,-1.064821243E0
3.199153024E0,8.304288864E0,5.000888824E0,-1.045667648E0
3.201640733E0,8.242039680E0,5.015254021E0,-1.064821243E0
3.204128441E0,8.213309288E0,5.043984413E0,-1.117493629E0
3.206616149E0,8.218097687E0,5.067926407E0,-1.189319730E0
3.209103858E0,8.232462883E0,5.139752388E0,-1.285087705E0
3.211591566E0,8.275558472E0,5.235520363E0,-1.423951507E0
3.214079274E0,8.333019257E0,5.326500416E0,-1.591545582E0
3.216566983E0,8.423998833E0,5.398326397E0,-1.730409265E0
3.219054691E0,8.514978409E0,5.455787182E0,-1.830965757E0
3.221542399E0,8.591592789E0,5.436633587E0,-1.874061346E0
3.224030108E0,8.658630371E0,5.393537998E0,-1.898003340E0
3.226517816E0,8.711302757E0,5.321712017E0,-1.912368655E0
3.229005524E0,8.749609947E0,5.264250755E0,-1.941099048E0
3.231493233E0,8.778340340E0,5.206789970E0,-1.993771434E0
3.233980941E0,8.807070732E0,5.149329185E0,-2.051232338E0
3.236468649E0,8.802282333E0,5.120598793E0,-2.118269920E0
3.238956358E0,8.811859131E0,5.115810394E0,-2.185307503E0
3.241444066E0,8.850166321E0,5.106233597E0,-2.228403330E0
3.243931774E0,8.874108315E0,5.091868401E0,-2.242768526E0
3.246419483E0,8.893261909E0,5.063138008E0,-2.223614931E0
3.248907191E0,8.893261909E0,5.010465622E0,-2.185307503E0
3.251394899E0,8.907627106E0,4.929062843E0,-2.147000313E0
3.253882608E0,8.974664688E0,4.828506470E0,-2.099116325E0
3.256370316E0,9.075222015E0,4.684854031E0,-2.051232338E0
3.258858024E0,9.194931984E0,4.579509258E0,-2.022501945E0
3.261345733E0,9.305065155E0,4.498106480E0,-2.022501945E0
3.263833441E0,9.348160744E0,4.435857296E0,-2.075174332E0
3.266321149E0,9.362525940E0,4.411915302E0,-2.118269920E0
3.268808858E0,9.362525940E0,4.445434093E0,-2.156577110E0
3.271296566E0,9.338583946E0,4.517260075E0,-2.142211914E0
3.273784274E0,9.314641953E0,4.589086056E0,-2.132635117E0
3.276271983E0,9.281123161E0,4.675277233E0,-2.089539528E0
3.278759691E0,9.252392769E0,4.751891613E0,-2.008136749E0
3.281247399E0,9.252392769E0,4.828506470E0,-1.926733851E0
3.283735108E0,9.199720383E0,4.876390457E0,-1.835754156E0
3.286222816E0,9.127894402E0,4.909909248E0,-1.739986062E0
3.288710524E0,9.065644264E0,4.924274445E0,-1.682525277E0
3.291198233E0,8.979453087E0,4.924274445E0,-1.639429569E0
3.293685941E0,8.898050308E0,4.929062843E0,-1.610699177E0
3.296173649E0,8.835801125E0,4.938639641E0,-1.653794765E0
3.298661358E0,8.816647530E0,4.962581635E0,-1.744774461E0
3.301149066E0,8.854954720E0,4.981735229E0,-1.840542555E0
3.303636774E0,8.921992302E0,5.029619217E0,-1.945887446E0
3.306124483E0,9.003395081E0,5.053561211E0,-2.036867142E0
3.308612191E0,9.065644264E0,5.048772812E0,-2.127846718E0
3.311099899E0,9.108740807E0,5.005677223E0,-2.180519104E0
3.313587608E0,9.118317604E0,4.924274445E0,-2.237980127E0
3.316075316E0,9.094375610E0,4.814141273E0,-2.285864115E0
3.318563024E0,9.051279068E0,4.694430828E0,-2.338536501E0
3.321050733E0,9.017760277E0,4.569932461E0,-2.395997286E0
3.323538441E0,8.974664688E0,4.459799290E0,-2.491765499E0
3.326026149E0,8.936357498E0,4.411915302E0,-2.601898670E0
3.328513858E0,8.955511093E0,4.402338505E0,-2.755127668E0
3.331001566E0,8.989029884E0,4.411915302E0,-2.884414434E0
3.333489274E0,9.070432663E0,4.431068897E0,-3.004124641E0
3.335976983E0,9.132682800E0,4.440645695E0,-3.056797028E0
3.338464691E0,9.185355186E0,4.435857296E0,-3.047220230E0
3.340952399E0,9.204508781E0,4.440645695E0,-2.975394249E0
3.343440108E0,9.228450775E0,4.450222492E0,-2.850895643E0
3.345927816E0,9.218873978E0,4.450222492E0,-2.659359455E0
3.348415524E0,9.199720383E0,4.464587688E0,-2.429516077E0
3.350903233E0,9.180566788E0,4.488529682E0,-2.180519104E0
3.353390941E0,9.156624794E0,4.522048473E0,-1.936310649E0
3.355878649E0,9.137471199E0,4.565144062E0,-1.749562860E0
3.358366358E0,9.151836395E0,4.613028049E0,-1.591545582E0
3.360854066E0,9.166201591E0,4.675277233E0,-1.486200690E0
3.363341774E0,9.180566788E0,4.751891613E0,-1.395220995E0
3.365829483E0,9.194931984E0,4.852448463E0,-1.328183413E0
3.368317191E0,9.218873978E0,4.948216438E0,-1.232415318E0
3.370804899E0,9.242815971E0,5.067926407E0,-1.112705231E0
3.373292608E0,9.242815971E0,5.139752388E0,-9.882067442E-1
3.375780316E0,9.252392769E0,5.192424774E0,-8.445546627E-1
3.378268024E0,9.242815971E0,5.245097160E0,-7.009025216E-1
3.380755733E0,9.194931984E0,5.283404827E0,-5.668272376E-1
3.383243441E0,9.142259598E0,5.307346821E0,-4.375403523E-1
3.385731149E0,9.065644264E0,5.316923618E0,-3.369838893E-1
3.388218858E0,8.993818283E0,5.355230808E0,-2.507926226E-1
3.390706566E0,8.869319916E0,5.455787182E0,-1.837549806E-1
3.393194274E0,8.735244751E0,5.561131954E0,-8.798690885E-2
3.395681983E0,8.605957985E0,5.704783916E0,-1.616086066E-2
3.398169691E0,8.553285599E0,5.829282761E0,7.960720360E-2
3.400657399E0,8.548497200E0,5.948992729E0,1.562216580E-1
3.403145108E0,8.572439194E0,6.016030312E0,2.424129248E-1
3.405632816E0,8.615534782E0,6.083067894E0,3.286041915E-1
3.408120524E0,8.668207169E0,6.145317078E0,3.908534348E-1
3.410608233E0,8.735244751E0,6.202777863E0,4.818331003E-1
3.413095941E0,8.778340340E0,6.255450726E0,5.728127360E-1
3.415583649E0,8.816647530E0,6.260239124E0,6.206967831E-1
3.418071358E0,8.826224327E0,6.250661850E0,6.637924314E-1
3.420559066E0,8.826224327E0,6.236296654E0,6.829460263E-1
3.423046774E0,8.840589523E0,6.212354660E0,7.116764784E-1
3.425534483E0,8.826224327E0,6.241085052E0,7.356184721E-1
3.428022191E0,8.845377922E0,6.260239124E0,6.829460263E-1
3.430509899E0,8.845377922E0,6.269815922E0,6.302735806E-1
3.432997608E0,8.864531517E0,6.260239124E0,6.063315868E-1
3.435485316E0,8.835801125E0,6.217143059E0,6.398503780E-1
3.437973024E0,8.797493935E0,6.150105476E0,6.925228238E-1
3.440460733E0,8.754398346E0,6.078279495E0,7.356184721E-1
3.442948441E0,8.677783966E0,5.992088318E0,8.122329116E-1
3.445436149E0,8.591592789E0,5.905897141E0,8.840589523E-1
3.447923858E0,8.514978409E0,5.810129166E0,9.463081956E-1
3.450411566E0,8.404845238E0,5.723937511E0,9.319429994E-1
3.452899274E0,8.289923668E0,5.637746334E0,9.032126069E-1
3.455386983E0,8.213309288E0,5.580285549E0,8.696937561E-1
3.457874691E0,8.151060104E0,5.541978359E0,8.170213103E-1
3.460362399E0,8.136694908E0,5.484517574E0,7.308300734E-1
3.462850108E0,8.127118111E0,5.412691593E0,6.494272351E-1
3.465337816E0,8.151060104E0,5.336077213E0,5.249287486E-1
3.467825524E0,8.203732491E0,5.225943565E0,3.908534348E-1
3.470313233E0,8.304288864E0,5.115810394E0,2.232593149E-1
3.472800941E0,8.404845238E0,4.996100426E0,7.781155407E-3
3.475288649E0,8.524555206E0,4.876390457E0,-1.837549806E-1
3.477776358E0,8.658630371E0,4.771045208E0,-3.561375141E-1
3.480264066E0,8.783128738E0,4.694430828E0,-5.237316489E-1
3.482751774E0,8.902838707E0,4.627393246E0,-6.961141229E-1
3.485239483E0,8.998606682E0,4.593874454E0,-8.541314602E-1
3.487727191E0,9.099164009E0,4.589086056E0,-9.690531492E-1
3.490214899E0,9.142259598E0,4.603451252E0,-1.083974838E0
3.492702608E0,9.151836395E0,4.613028049E0,-1.146224022E0
3.495190316E0,9.118317604E0,4.632181644E0,-1.232415318E0
3.497678024E0,9.060855865E0,4.646546841E0,-1.275510907E0
3.500165733E0,9.012971878E0,4.680065632E0,-1.318606615E0
3.502653441E0,8.941145897E0,4.699219227E0,-1.332971811E0
3.505141149E0,8.874108315E0,4.694430828E0,-1.347337008E0
3.507628858E0,8.831012726E0,4.675277233E0,-1.361702204E0
3.510116566E0,8.811859131E0,4.651335239E0,-1.376067400E0
3.512604274E0,8.768763542E0,4.598662853E0,-1.414374709E0
3.515091983E0,8.711302757E0,4.579509258E0,-1.476623893E0
3.517579691E0,8.663418770E0,4.536413670E0,-1.543661594E0
3.520067399E0,8.567650795E0,4.498106480E0,-1.577180386E0
3.522555108E0,8.510190010E0,4.445434093E0,-1.601122379E0
3.525042816E0,8.433575630E0,4.411915302E0,-1.615487576E0
3.527530524E0,8.366538048E0,4.320935726E0,-1.639429569E0
3.530018233E0,8.318654060E0,4.210802078E0,-1.653794765E0
3.532505941E0,8.289923668E0,4.091092110E0,-1.668160081E0
3.534993649E0,8.256404877E0,3.971382141E0,-1.696890473E0
3.537481358E0,8.242039680E0,3.875613928E0,-1.716044068E0
3.539969066E0,8.213309288E0,3.822941542E0,-1.749562860E0
3.542456774E0,8.242039680E0,3.794211149E0,-1.759139657E0
3.544944483E0,8.289923668E0,3.808576345E0,-1.768716455E0
3.547432191E0,8.380903244E0,3.808576345E0,-1.792658567E0
3.549919899E0,8.500613213E0,3.798999548E0,-1.816600561E0
3.552407608E0,8.601169586E0,3.760692358E0,-1.826177359E0
3.554895316E0,8.682572365E0,3.736750364E0,-1.830965757E0
3.557383024E0,8.735244751E0,3.731961966E0,-1.845330954E0
3.559870733E0,8.759186745E0,3.727173567E0,-1.807023764E0
3.562358441E0,8.749609947E0,3.722385168E0,-1.783081770E0
3.564846149E0,8.763975143E0,3.731961966E0,-1.744774461E0
3.567333858E0,8.773551941E0,3.803787947E0,-1.701678872E0
3.569821566E0,8.768763542E0,3.899555922E0,-1.682525277E0
3.572309274E0,8.759186745E0,3.995324135E0,-1.663371682E0
3.574796983E0,8.754398346E0,4.110245705E0,-1.672948480E0
3.577284691E0,8.696937561E0,4.220378876E0,-1.668160081E0
3.579772399E0,8.653841972E0,4.340089321E0,-1.625064373E0
3.582260108E0,8.567650795E0,4.455010891E0,-1.586757183E0
3.584747816E0,8.476671219E0,4.574720860E0,-1.548449993E0
3.587235524E0,8.380903244E0,4.680065632E0,-1.514931083E0
3.589723233E0,8.261193275E0,4.814141273E0,-1.481412292E0
3.592210941E0,8.155848503E0,4.938639641E0,-1.452681899E0
3.594698649E0,8.050502777E0,5.048772812E0,-1.462258697E0
3.597186358E0,7.945158482E0,5.134963989E0,-1.467047095E0
3.599674066E0,7.830236435E0,5.245097160E0,-1.471835494E0
3.602161774E0,7.739256859E0,5.340865612E0,-1.505354285E0
3.604649483E0,7.643488884E0,5.393537998E0,-1.553238392E0
3.607137191E0,7.557297707E0,5.479729176E0,-1.562815189E0
3.609624899E0,7.480683327E0,5.532401562E0,-1.572391987E0
3.612112608E0,7.447164536E0,5.580285549E0,-1.581968784E0
3.614600316E0,7.466318130E0,5.604227543E0,-1.567603588E0
3.617088024E0,7.509413719E0,5.628169537E0,-1.577180386E0
3.619575733E0,7.595604897E0,5.628169537E0,-1.572391987E0
3.622063441E0,7.681796074E0,5.623381138E0,-1.567603588E0
3.624551149E0,7.763198853E0,5.594650745E0,-1.567603588E0
3.627038858E0,7.830236435E0,5.570708752E0,-1.562815189E0
3.629526566E0,7.887697697E0,5.570708752E0,-1.567603588E0
3.632014274E0,7.964312077E0,5.575497150E0,-1.543661594E0
3.634501983E0,8.045714378E0,5.551555157E0,-1.500565886E0
3.636989691E0,8.103176117E0,5.508459568E0,-1.428739905E0
3.639477399E0,8.155848503E0,5.450998783E0,-1.332971811E0
3.641965108E0,8.203732491E0,5.393537998E0,-1.265934110E0
3.644452816E0,8.256404877E0,5.336077213E0,-1.174954534E0
3.646940524E0,8.333019257E0,5.249885559E0,-1.103128433E0
3.649428233E0,8.414422035E0,5.168482780E0,-1.055244446E0
3.651915941E0,8.524555206E0,5.101445198E0,-1.021725535E0
3.654403649E0,8.625111580E0,5.024830818E0,-9.977835417E-1
3.656891358E0,8.716091156E0,4.972158432E0,-9.882067442E-1
3.659379066E0,8.773551941E0,4.914697647E0,-9.834183455E-1
3.661866774E0,8.763975143E0,4.866813660E0,-9.786299467E-1
3.664354483E0,8.744821548E0,4.823718071E0,-9.882067442E-1
3.666842191E0,8.730456352E0,4.790199280E0,-9.977835417E-1
3.669329899E0,8.725667953E0,4.775833607E0,-1.002571940E0
3.671817608E0,8.687360764E0,4.766256809E0,-9.882067442E-1
3.674305316E0,8.649053574E0,4.775833607E0,-9.690531492E-1
3.676793024E0,8.634688377E0,4.747103214E0,-9.451110959E-1
3.679280733E0,8.610746384E0,4.718372822E0,-9.355342984E-1
3.681768441E0,8.601169586E0,4.718372822E0,-9.451110959E-1
3.684256149E0,8.572439194E0,4.718372822E0,-9.786299467E-1
3.686743858E0,8.553285599E0,4.718372822E0,-1.021725535E0
3.689231566E0,8.558073997E0,4.742314816E0,-1.064821243E0
3.691719274E0,8.591592789E0,4.761468410E0,-1.103128433E0
3.694206983E0,8.620323181E0,4.766256809E0,-1.151012421E0
3.696694691E0,8.649053574E0,4.775833607E0,-1.179742932E0
3.699182399E0,8.677783966E0,4.780622005E0,-1.179742932E0
3.701670108E0,8.692149162E0,4.771045208E0,-1.155800819E0
3.704157816E0,8.744821548E0,4.751891613E0,-1.136647224E0
3.706645524E0,8.783128738E0,4.737526417E0,-1.098340034E0
3.709133233E0,8.816647530E0,4.704007626E0,-1.064821243E0
3.711620941E0,8.835801125E0,4.651335239E0,-1.036090732E0
3.714108649E0,8.878896713E0,4.565144062E0,-9.929951429E-1
3.716596358E0,8.907627106E0,4.522048473E0,-9.355342984E-1
3.719084066E0,8.945934296E0,4.469376087E0,-8.589198589E-1
3.721571774E0,9.012971878E0,4.431068897E0,-8.254010081E-1
3.724059483E0,9.070432663E0,4.392761707E0,-7.727286220E-1
3.726547191E0,9.147047997E0,4.364031315E0,-7.487865686E-1
3.729034899E0,9.194931984E0,4.359242916E0,-7.439981699E-1
3.731522608E0,9.209297180E0,4.335300922E0,-7.439981699E-1
3.734010316E0,9.194931984E0,4.301782131E0,-7.344213724E-1
3.736498024E0,9.166201591E0,4.273051262E0,-7.056909800E-1
3.738985733E0,9.123106003E0,4.229955673E0,-6.913257241E-1
3.741473441E0,9.094375610E0,4.172494888E0,-6.625953317E-1
3.743961149E0,9.080010414E0,4.124610901E0,-6.721721292E-1
3.746448858E0,9.027337074E0,4.100668907E0,-6.913257241E-1
3.748936566E0,8.984241486E0,4.067150116E0,-7.535749674E-1
3.751424274E0,8.941145897E0,4.057573318E0,-8.301894665E-1
3.753911983E0,8.907627106E0,4.062361717E0,-9.211691022E-1
3.756399691E0,8.854954720E0,4.095880508E0,-1.026513934E0
3.758887399E0,8.797493935E0,4.119822502E0,-1.127070427E0
3.761375108E0,8.744821548E0,4.172494888E0,-1.232415318E0
3.763862816E0,8.701725960E0,4.220378876E0,-1.323395014E0
3.766350524E0,8.658630371E0,4.253897667E0,-1.395220995E0
3.768838233E0,8.596381187E0,4.311358929E0,-1.457470298E0
3.771325941E0,8.553285599E0,4.349666119E0,-1.495777488E0
3.773813649E0,8.510190010E0,4.383184910E0,-1.524507880E0
3.776301358E0,8.452729225E0,4.421492100E0,-1.553238392E0
3.778789066E0,8.395268440E0,4.469376087E0,-1.553238392E0
3.781276774E0,8.380903244E0,4.502894878E0,-1.553238392E0
3.783764483E0,8.395268440E0,4.536413670E0,-1.558026791E0
3.786252191E0,8.395268440E0,4.555567265E0,-1.567603588E0
3.788739899E0,8.404845238E0,4.589086056E0,-1.605910778E0
3.791227608E0,8.400056839E0,4.622604847E0,-1.615487576E0
3.793715316E0,8.404845238E0,4.660912037E0,-1.615487576E0
3.796203024E0,8.404845238E0,4.689642429E0,-1.596333981E0
3.798690733E0,8.419210434E0,4.713584423E0,-1.567603588E0
3.801178441E0,8.428787231E0,4.742314816E0,-1.510142684E0
3.803666149E0,8.404845238E0,4.785410881E0,-1.462258697E0
3.806153858E0,8.361749649E0,4.833294868E0,-1.419163108E0
3.808641566E0,8.337807655E0,4.900332451E0,-1.347337008E0
3.811129274E0,8.309077263E0,4.943428040E0,-1.304241419E0
3.813616983E0,8.275558472E0,4.967370033E0,-1.251568913E0
3.816104691E0,8.246828079E0,4.981735229E0,-1.218050122E0
3.818592399E0,8.218097687E0,4.986523628E0,-1.203684926E0
3.821080108E0,8.184578896E0,5.024830818E0,-1.155800819E0
3.823567816E0,8.170213699E0,5.053561211E0,-1.160589218E0
3.826055524E0,8.146271706E0,5.063138008E0,-1.127070427E0
3.828543233E0,8.141483307E0,5.072714806E0,-1.098340034E0
3.831030941E0,8.151060104E0,5.072714806E0,-1.098340034E0
3.833518649E0,8.155848503E0,5.048772812E0,-1.079186440E0
3.836006358E0,8.151060104E0,5.048772812E0,-1.098340034E0
3.838494066E0,8.127118111E0,5.029619217E0,-1.127070427E0
3.840981774E0,8.103176117E0,4.991312027E0,-1.141435623E0
3.843469483E0,8.088809967E0,5.010465622E0,-1.184531331E0
3.845957191E0,8.060079575E0,5.039196014E0,-1.237203717E0
3.848444899E0,8.055291176E0,5.048772812E0,-1.275510907E0
3.850932608E0,8.036137581E0,5.067926407E0,-1.313818216E0
3.853420316E0,8.002618790E0,5.130175591E0,-1.356913805E0
3.855908024E0,7.993042469E0,5.163694382E0,-1.380855799E0
3.858395733E0,7.978677273E0,5.178059578E0,-1.390432596E0
3.860883441E0,7.993042469E0,5.192424774E0,-1.390432596E0
3.863371149E0,8.031349182E0,5.182847977E0,-1.395220995E0
3.865858858E0,8.098387718E0,5.158905983E0,-1.400009394E0
3.868346566E0,8.141483307E0,5.139752388E0,-1.400009394E0
3.870834274E0,8.194155693E0,5.120598793E0,-1.433528304E0
3.873321983E0,8.218097687E0,5.101445198E0,-1.423951507E0
3.875809691E0,8.256404877E0,5.101445198E0,-1.404797792E0
3.878297399E0,8.294712067E0,5.115810394E0,-1.409586191E0
3.880785108E0,8.333019257E0,5.130175591E0,-1.395220995E0
3.883272816E0,8.352172852E0,5.130175591E0,-1.400009394E0
3.885760524E0,8.390480042E0,5.139752388E0,-1.380855799E0
3.888248233E0,8.404845238E0,5.154117584E0,-1.361702204E0
3.890735941E0,8.423998833E0,5.158905983E0,-1.328183413E0
3.893223649E0,8.428787231E0,5.158905983E0,-1.285087705E0
3.895711358E0,8.433575630E0,5.149329185E0,-1.227626920E0
3.898199066E0,8.423998833E0,5.125387192E0,-1.170166135E0
3.900686774E0,8.447940826E0,5.120598793E0,-1.117493629E0
3.903174483E0,8.471882820E0,5.091868401E0,-1.055244446E0
3.905662191E0,8.457517624E0,5.048772812E0,-1.012148738E0
3.908149899E0,8.476671219E0,5.029619217E0,-9.738415480E-1
3.910637608E0,8.486248016E0,5.000888824E0,-9.451110959E-1
3.913125316E0,8.447940826E0,4.972158432E0,-9.211691022E-1
3.915613024E0,8.414422035E0,4.948216438E0,-8.684966564E-1
3.918100733E0,8.380903244E0,4.957793236E0,-8.397662640E-1
3.920588441E0,8.356961250E0,4.953004837E0,-8.014590144E-1
3.923076149E0,8.352172852E0,4.953004837E0,-7.487865686E-1
3.925563858E0,8.356961250E0,4.948216438E0,-7.056909800E-1
3.928051566E0,8.376114845E0,4.924274445E0,-6.434416771E-1
3.930539326E0,8.376114845E0,4.862025261E0,-5.811924338E-1
3.933027087E0,8.390480042E0,4.775833607E0,-5.333084464E-1
3.935514847E0,8.390480042E0,4.699219227E0,-4.902127981E-1
3.938002608E0,8.404845238E0,4.622604847E0,-4.566939771E-1
3.940490368E0,8.467094421E0,4.569932461E0,-4.519055784E-1
3.942978128E0,8.510190010E0,4.526836872E0,-4.854243994E-1
3.945465889E0,8.548497200E0,4.488529682E0,-5.572504401E-1
3.947953649E0,8.567650795E0,4.469376087E0,-6.338648796E-1
3.950441410E0,8.625111580E0,4.450222492E0,-7.248445749E-1
3.952929170E0,8.682572365E0,4.421492100E0,-8.014590144E-1
3.955416930E0,8.725667953E0,4.378396511E0,-8.637082577E-1
3.957904691E0,8.759186745E0,4.349666119E0,-9.163807034E-1
3.960392451E0,8.802282333E0,4.335300922E0,-9.738415480E-1
3.962880212E0,8.831012726E0,4.316147327E0,-1.040879130E0
3.965367972E0,8.869319916E0,4.306570530E0,-1.103128433E0
3.967855733E0,8.888473511E0,4.306570530E0,-1.146224022E0
3.970343493E0,8.912415504E0,4.273051262E0,-1.208473325E0
3.972831253E0,8.917203903E0,4.273051262E0,-1.261145711E0
3.975319014E0,8.941145897E0,4.263474464E0,-1.299453020E0
3.977806774E0,8.960299492E0,4.249109268E0,-1.347337008E0
3.980294535E0,8.989029884E0,4.239532471E0,-1.390432596E0
3.982782295E0,9.027337074E0,4.229955673E0,-1.438316703E0
3.985270055E0,9.051279068E0,4.229955673E0,-1.476623893E0
3.987757816E0,9.080010414E0,4.249109268E0,-1.524507880E0
3.990245576E0,9.099164009E0,4.263474464E0,-1.567603588E0
3.992733337E0,9.099164009E0,4.325724125E0,-1.610699177E0
3.995221097E0,9.046490669E0,4.368819714E0,-1.644217968E0
3.997708805E0,9.032125473E0,4.426280499E0,-1.672948480E0
4.000196514E0,9.017760277E0,4.459799290E0,-1.672948480E0
4.002684222E0,8.965087891E0,4.526836872E0,-1.663371682E0
4.005171930E0,8.898050308E0,4.598662853E0,-1.610699177E0
4.007659639E0,8.850166321E0,4.651335239E0,-1.572391987E0
4.010147347E0,8.792705536E0,4.704007626E0,-1.514931083E0
4.012635055E0,8.744821548E0,4.775833607E0,-1.443105102E0
4.015122764E0,8.716091156E0,4.847660065E0,-1.366490602E0
4.017610472E0,8.711302757E0,4.895544052E0,-1.285087705E0
4.020098180E0,8.711302757E0,4.943428040E0,-1.194108129E0
4.022585889E0,8.696937561E0,4.957793236E0,-1.117493629E0
4.025073597E0,8.677783966E0,4.948216438E0,-1.050456047E0
4.027561305E0,8.663418770E0,4.933851242E0,-9.498994946E-1
4.030049014E0,8.639476776E0,4.948216438E0,-8.828618526E-1
4.032536722E0,8.639476776E0,4.981735229E0,-8.110358119E-1
4.035024430E0,8.629899979E0,5.010465622E0,-7.392097712E-1
4.037512139E0,8.605957985E0,5.043984413E0,-7.104793787E-1
4.039999847E0,8.601169586E0,5.082291603E0,-6.434416771E-1
4.042487555E0,8.591592789E0,5.115810394E0,-6.242880821E-1
4.044975264E0,8.548497200E0,5.134963989E0,-6.434416771E-1
4.047462972E0,8.500613213E0,5.158905983E0,-6.242880821E-1
4.049950680E0,8.476671219E0,5.178059578E0,-6.051344872E-1
4.052438389E0,8.467094421E0,5.192424774E0,-5.955576897E-1
4.054926097E0,8.467094421E0,5.206789970E0,-5.716156363E-1
4.057413805E0,8.495824814E0,5.216366768E0,-5.668272376E-1
4.059901514E0,8.500613213E0,5.230731964E0,-5.380968451E-1
4.062389222E0,8.510190010E0,5.259462357E0,-5.428852439E-1
4.064876930E0,8.519766808E0,5.278616428E0,-5.620388389E-1
4.067364639E0,8.529343605E0,5.307346821E0,-6.051344872E-1
4.069852347E0,8.538920403E0,5.336077213E0,-6.099228859E-1
4.072340055E0,8.548497200E0,5.364807606E0,-6.194996834E-1
4.074827764E0,8.558073997E0,5.388749599E0,-6.290764809E-1
4.077315472E0,8.577227592E0,5.407903194E0,-6.290764809E-1
4.079803180E0,8.596381187E0,5.417479992E0,-6.434416771E-1
4.082290889E0,8.649053574E0,5.436633587E0,-6.865373254E-1
4.084778597E0,8.701725960E0,5.465363979E0,-7.104793787E-1
4.087266305E0,8.763975143E0,5.503671169E0,-7.631517649E-1
4.089754014E0,8.792705536E0,5.551555157E0,-7.918822169E-1
4.092241722E0,8.811859131E0,5.570708752E0,-8.254010081E-1
4.094729430E0,8.859743118E0,5.580285549E0,-8.828618526E-1
4.097217139E0,8.902838707E0,5.594650745E0,-9.594763517E-1
4.099704847E0,8.974664688E0,5.623381138E0,-1.007360339E0
4.102192555E0,9.022548676E0,5.632957935E0,-1.045667648E0
4.104680264E0,9.056067467E0,5.623381138E0,-1.074398041E0
4.107167972E0,9.113529205E0,5.599439144E0,-1.098340034E0
4.109655680E0,9.166201591E0,5.575497150E0,-1.093551636E0
4.112143389E0,9.252392769E0,5.570708752E0,-1.088763237E0
4.114631097E0,9.314641953E0,5.551555157E0,-1.112705231E0
4.117118805E0,9.372102737E0,5.527613163E0,-1.117493629E0
4.119606514E0,9.419986725E0,5.537189960E0,-1.107916832E0
4.122094222E0,9.477447510E0,5.527613163E0,-1.083974838E0
4.124581930E0,9.520543098E0,5.489305973E0,-1.055244446E0
4.127069639E0,9.549273491E0,5.460575581E0,-9.929951429E-1
4.129557347E0,9.582792282E0,5.427056789E0,-9.355342984E-1
4.132045055E0,9.621099472E0,5.403114796E0,-8.637082577E-1
4.134532764E0,9.659406662E0,5.369596004E0,-8.110358119E-1
4.137020472E0,9.712079048E0,5.360019207E0,-7.583633661E-1
4.139508180E0,9.764751434E0,5.374384403E0,-7.152677774E-1
4.141995889E0,9.812635422E0,5.388749599E0,-6.913257241E-1
4.144483597E0,9.865307808E0,5.398326397E0,-6.961141229E-1
4.146971305E0,9.922768593E0,5.412691593E0,-7.152677774E-1
4.149459014E0,9.937133789E0,5.436633587E0,-7.392097712E-1
4.151946722E0,9.951498985E0,5.484517574E0,-7.535749674E-1
4.154434430E0,9.946710587E0,5.527613163E0,-8.014590144E-1
4.156922139E0,9.922768593E0,5.589862347E0,-8.301894665E-1
4.159409847E0,9.894038200E0,5.613804340E0,-8.780734539E-1
4.161897555E0,9.860519409E0,5.661688328E0,-9.211691022E-1
4.164385264E0,9.831789017E0,5.699995518E0,-9.594763517E-1
4.166872972E0,9.788693428E0,5.743091106E0,-1.002571940E0
4.169360680E0,9.750386238E0,5.781398773E0,-1.074398041E0
4.171848389E0,9.731232643E0,5.805340767E0,-1.174954534E0
4.174336097E0,9.726444244E0,5.848436356E0,-1.270722508E0
4.176823805E0,9.721655846E0,5.891531944E0,-1.380855799E0
4.179311514E0,9.678560257E0,5.920262337E0,-1.481412292E0
4.181799222E0,9.640253067E0,5.929839134E0,-1.591545582E0
4.184286930E0,9.592369080E0,5.925050735E0,-1.644217968E0
4.186774639E0,9.539696693E0,5.891531944E0,-1.701678872E0
4.189262347E0,9.467870712E0,5.867589951E0,-1.744774461E0
4.191750055E0,9.448717117E0,5.814917564E0,-1.749562860E0
4.194237764E0,9.448717117E0,5.762245178E0,-1.696890473E0
4.196725472E0,9.463082314E0,5.728725910E0,-1.658583283E0
4.199213180E0,9.487024307E0,5.709572315E0,-1.620275974E0
4.201700889E0,9.544485092E0,5.676053524E0,-1.577180386E0
4.204188597E0,9.630676270E0,5.632957935E0,-1.548449993E0
4.206676305E0,9.716867447E0,5.551555157E0,-1.495777488E0
4.209164014E0,9.793481827E0,5.460575581E0,-1.428739905E0
4.211651722E0,9.865307808E0,5.369596004E0,-1.323395014E0
4.214139430E0,9.932345390E0,5.273828030E0,-1.218050122E0
4.216627139E0,9.970652580E0,5.202001572E0,-1.112705231E0
4.219114847E0,1.001853657E1,5.149329185E0,-1.012148738E0
4.221602555E0,1.007599831E1,5.120598793E0,-8.972271085E-1
4.224090264E0,1.011909389E1,5.072714806E0,-7.775170207E-1
4.226577972E0,1.014782429E1,5.024830818E0,-6.578069329E-1
4.229065680E0,1.018134308E1,5.000888824E0,-5.716156363E-1
4.231553389E0,1.021007347E1,4.967370033E0,-4.758476019E-1
4.234041097E0,1.026753426E1,4.924274445E0,-4.135983288E-1
4.236528805E0,1.030105305E1,4.885967255E0,-3.657143116E-1
4.239016514E0,1.033457184E1,4.828506470E0,-3.513490856E-1
4.241504222E0,1.039203262E1,4.790199280E0,-3.609259129E-1
4.243991930E0,1.042555141E1,4.794987679E0,-4.040215313E-1
4.246479639E0,1.046864700E1,4.833294868E0,-4.710591733E-1
4.248967347E0,1.048301220E1,4.890755653E0,-5.333084464E-1
4.251455055E0,1.049737740E1,4.962581635E0,-6.482301354E-1
4.253942764E0,1.050216579E1,5.039196014E0,-7.631517649E-1
4.256430472E0,1.047822380E1,5.120598793E0,-8.924387097E-1
4.258918180E0,1.043512821E1,5.211578369E0,-1.016937137E0
4.261405889E0,1.040160942E1,5.283404827E0,-1.141435623E0
4.263893597E0,1.037287903E1,5.331288815E0,-1.261145711E0
4.266381305E0,1.033936024E1,5.369596004E0,-1.342548609E0
4.268869014E0,1.030105305E1,5.388749599E0,-1.419163108E0
4.271356722E0,1.023880386E1,5.403114796E0,-1.481412292E0
4.273844430E0,1.018134308E1,5.388749599E0,-1.529296279E0
4.276332139E0,1.013345909E1,5.388749599E0,-1.562815189E0
4.278819847E0,1.009515190E1,5.398326397E0,-1.548449993E0
4.281307555E0,1.007120991E1,5.422268391E0,-1.524507880E0
4.283795264E0,1.006163311E1,5.436633587E0,-1.481412292E0
4.286282972E0,1.004726696E1,5.455787182E0,-1.433528304E0
4.288770680E0,1.005205631E1,5.441421986E0,-1.414374709E0
4.291258389E0,1.006163311E1,5.427056789E0,-1.395220995E0
4.293746097E0,1.005684471E1,5.446210384E0,-1.385644197E0
4.296233805E0,1.003769016E1,5.441421986E0,-1.395220995E0
4.298721514E0,1.000895977E1,5.484517574E0,-1.409586191E0
4.301209222E0,9.989806175E0,5.551555157E0,-1.447893500E0
4.303696930E0,9.975440979E0,5.618592739E0,-1.486200690E0
4.306184639E0,9.937133789E0,5.671265125E0,-1.519719481E0
4.308672347E0,9.917980194E0,5.719149113E0,-1.534084797E0
4.311160055E0,9.898826599E0,5.733514309E0,-1.514931083E0
4.313647764E0,9.917980194E0,5.747879505E0,-1.490989089E0
4.316135472E0,9.941922188E0,5.771821976E0,-1.505354285E0
4.318623180E0,9.975440979E0,5.814917564E0,-1.538873196E0
4.321110889E0,1.004247856E1,5.867589951E0,-1.562815189E0
4.323598597E0,1.008078671E1,5.939415932E0,-1.605910778E0
4.326086305E0,1.014303589E1,6.020818710E0,-1.653794765E0
4.328574014E0,1.022443867E1,6.087856293E0,-1.706467271E0
4.331061722E0,1.030584145E1,6.135740280E0,-1.749562860E0
4.333549430E0,1.041118622E1,6.135740280E0,-1.768716455E0
4.336037139E0,1.051653099E1,6.135740280E0,-1.802235365E0
4.338524847E0,1.061229897E1,6.107009888E0,-1.821388960E0
4.341012555E0,1.071764374E1,6.068702698E0,-1.787870169E0
4.343500264E0,1.083256531E1,6.020818710E0,-1.720832467E0
4.345987972E0,1.095706367E1,5.987299919E0,-1.668160081E0
4.348475680E0,1.107677460E1,5.929839134E0,-1.625064373E0
4.350963389E0,1.117733097E1,5.886743546E0,-1.581968784E0
4.353451097E0,1.124436855E1,5.834071159E0,-1.543661594E0
4.355938805E0,1.127788734E1,5.795763969E0,-1.548449993E0
4.358426514E0,1.127788734E1,5.762245178E0,-1.538873196E0
4.360914222E0,1.126831055E1,5.714360714E0,-1.519719481E0
4.363401930E0,1.125394535E1,5.666476727E0,-1.524507880E0
4.365889639E0,1.122521496E1,5.632957935E0,-1.572391987E0
4.368377347E0,1.118690777E1,5.604227543E0,-1.672948480E0
4.370865055E0,1.112465858E1,5.618592739E0,-1.792658567E0
4.373352764E0,1.105283260E1,5.671265125E0,-1.941099048E0
4.375840472E0,1.095706367E1,5.719149113E0,-2.113481522E0
4.378328180E0,1.088523769E1,5.747879505E0,-2.281075716E0
4.380815889E0,1.080383492E1,5.757456303E0,-2.400785685E0
4.383303597E0,1.072243214E1,5.743091106E0,-2.520495892E0
4.385791305E0,1.064581776E1,5.723937511E0,-2.601898670E0
4.388279014E0,1.053568459E1,5.695207119E0,-2.644994259E0
4.390766722E0,1.034893703E1,5.642534733E0,-2.678513050E0
4.393254430E0,1.010472870E1,5.647323132E0,-2.697666883E0
4.395742139E0,9.774328232E0,5.695207119E0,-2.716820478E0
4.398229847E0,9.439140320E0,5.762245178E0,-2.688089848E0
4.400717555E0,9.161413193E0,5.814917564E0,-2.702455282E0
4.403205264E0,8.950722694E0,5.829282761E0,-2.673724651E0
4.405692972E0,8.807070732E0,5.757456303E0,-2.563591480E0
4.408180680E0,8.735244751E0,5.642534733E0,-2.439092875E0
4.410668389E0,8.725667953E0,5.503671169E0,-2.295440912E0
4.413156097E0,8.807070732E0,5.326500416E0,-2.151788712E0
4.415643805E0,8.950722694E0,5.158905983E0,-2.032078743E0
4.418131514E0,9.156624794E0,4.957793236E0,-1.936310649E0
4.420619222E0,9.381679535E0,4.780622005E0,-1.835754156E0
4.423106930E0,9.592369080E0,4.593874454E0,-1.730409265E0
4.425594639E0,9.774328232E0,4.402338505E0,-1.596333981E0
4.428082347E0,9.927556992E0,4.234744072E0,-1.443105102E0
4.430570055E0,1.005684471E1,4.100668907E0,-1.318606615E0
4.433057764E0,1.019091988E1,3.957016945E0,-1.170166135E0
4.435545472E0,1.028189945E1,3.842095137E0,-1.040879130E0
4.438033180E0,1.034893703E1,3.751115561E0,-9.307458997E-1
4.440520889E0,1.037766743E1,3.703231573E0,-8.445546627E-1
4.443008597E0,1.040639782E1,3.674500942E0,-7.439981699E-1
4.445496305E0,1.039682102E1,3.645770550E0,-7.152677774E-1
4.447984014E0,1.039682102E1,3.621828556E0,-6.817489266E-1
4.450471722E0,1.041118622E1,3.612251759E0,-6.625953317E-1
4.452959430E0,1.044949341E1,3.612251759E0,-6.434416771E-1
4.455447139E0,1.048780060E1,3.602674961E0,-6.578069329E-1
4.457934847E0,1.055004978E1,3.593098164E0,-6.913257241E-1
4.460422555E0,1.058835697E1,3.578732967E0,-7.248445749E-1
4.462910264E0,1.063624096E1,3.564367771E0,-7.918822169E-1
4.465397972E0,1.066497135E1,3.569156170E0,-9.068039060E-1
4.467885680E0,1.068891335E1,3.573944569E0,-1.007360339E0
4.470373389E0,1.066975975E1,3.617040157E0,-1.112705231E0
4.472861097E0,1.062666416E1,3.650558949E0,-1.194108129E0
4.475348805E0,1.049258900E1,3.674500942E0,-1.203684926E0
4.477836514E0,1.028189945E1,3.717596769E0,-1.227626920E0
4.480324222E0,9.965864182E0,3.827729940E0,-1.237203717E0
4.482811930E0,9.563638687E0,3.957016945E0,-1.232415318E0
4.485299639E0,9.151836395E0,4.138976097E0,-1.251568913E0
4.487787347E0,8.807070732E0,4.320935726E0,-1.251568913E0
4.490275055E0,8.534132004E0,4.469376087E0,-1.241992116E0
4.492762764E0,8.313865662E0,4.593874454E0,-1.289876223E0
4.495250472E0,8.179790497E0,4.684854031E0,-1.313818216E0
4.497738180E0,8.122329712E0,4.718372822E0,-1.361702204E0
4.500225889E0,8.131906509E0,4.684854031E0,-1.390432596E0
4.502713597E0,8.189367294E0,4.632181644E0,-1.423951507E0
4.505201305E0,8.328230858E0,4.536413670E0,-1.443105102E0
4.507689014E0,8.529343605E0,4.416703701E0,-1.404797792E0
4.510176722E0,8.735244751E0,4.277839661E0,-1.328183413E0
4.512664430E0,8.941145897E0,4.148552895E0,-1.227626920E0
4.515152139E0,9.123106003E0,4.019266129E0,-1.136647224E0
4.517639847E0,9.309853554E0,3.894767523E0,-1.040879130E0
4.520127555E0,9.496601105E0,3.794211149E0,-9.594763517E-1
4.522615264E0,9.630676270E0,3.708019972E0,-8.972271085E-1
4.525102972E0,9.755174637E0,3.626616955E0,-8.589198589E-1
4.527590680E0,9.860519409E0,3.564367771E0,-8.589198589E-1
4.530078389E0,9.975440979E0,3.540425777E0,-8.589198589E-1
4.532566097E0,1.009036350E1,3.530848980E0,-8.589198589E-1
4.535053805E0,1.021007347E1,3.487753391E0,-8.684966564E-1
4.537541514E0,1.035851383E1,3.449446201E0,-8.637082577E-1
4.540029222E0,1.053089619E1,3.391985178E0,-8.014590144E-1
4.542516930E0,1.071285534E1,3.339312792E0,-7.487865686E-1
4.545004639E0,1.088523769E1,3.291428804E0,-6.913257241E-1
4.547492347E0,1.100973606E1,3.272275209E0,-6.961141229E-1
4.549980055E0,1.109592819E1,3.281852007E0,-7.104793787E-1
4.552467764E0,1.112944698E1,3.305794001E0,-8.014590144E-1
4.554955472E0,1.108635139E1,3.363254786E0,-9.163807034E-1
4.557443180E0,1.091875648E1,3.463811398E0,-1.060032845E0
4.559930889E0,1.060272217E1,3.612251759E0,-1.227626920E0
4.562418597E0,1.016218948E1,3.818153143E0,-1.414374709E0
4.564906305E0,9.649829865E0,4.071938515E0,-1.634641171E0
4.567394014E0,9.094375610E0,4.325724125E0,-1.869272947E0
4.569881722E0,8.553285599E0,4.555567265E0,-2.113481522E0
4.572369430E0,8.084021568E0,4.771045208E0,-2.372055292E0
4.574857139E0,7.753622055E0,4.929062843E0,-2.587533474E0
4.577344847E0,7.566874504E0,4.986523628E0,-2.783858061E0
4.579832555E0,7.514202118E0,5.000888824E0,-2.941875219E0
4.582320264E0,7.557297707E0,4.986523628E0,-3.066373825E0
4.584807972E0,7.648277283E0,4.962581635E0,-3.181295395E0
4.587295680E0,7.734468460E0,4.938639641E0,-3.253121614E0
4.589783389E0,7.787140846E0,4.881178856E0,-3.305794001E0
4.592271097E0,7.825448036E0,4.818929672E0,-3.334524393E0
4.594758805E0,7.849390507E0,4.727949619E0,-3.315370798E0
4.597246514E0,7.906851292E0,4.646546841E0,-3.262698412E0
4.599734222E0,7.978677273E0,4.579509258E0,-3.157353401E0
4.602221930E0,8.127118111E0,4.531625271E0,-3.018489838E0
4.604709639E0,8.299500465E0,4.459799290E0,-2.893991232E0
4.607197347E0,8.495824814E0,4.426280499E0,-2.759916067E0
4.609685055E0,8.692149162E0,4.373608112E0,-2.587533474E0
4.612172764E0,8.921992302E0,4.320935726E0,-2.381632090E0
4.614660472E0,9.156624794E0,4.229955673E0,-2.175730705E0
4.617148180E0,9.396044731E0,4.100668907E0,-1.907580256E0
4.619635889E0,9.621099472E0,3.990535736E0,-1.601122379E0
4.622123597E0,9.850942612E0,3.870825529E0,-1.323395014E0
4.624611305E0,1.005205631E1,3.798999548E0,-1.031302333E0
4.627099014E0,1.022443867E1,3.736750364E0,-7.823054194E-1
4.629586722E0,1.036330223E1,3.722385168E0,-6.051344872E-1
4.632074430E0,1.042076302E1,3.746327162E0,-4.806360006E-1
4.634562139E0,1.042555141E1,3.818153143E0,-4.135983288E-1
4.637049847E0,1.038724422E1,3.942651749E0,-4.519055784E-1
4.639537555E0,1.035372543E1,4.019266129E0,-5.333084464E-1
4.642025264E0,1.027232265E1,4.081515312E0,-6.817489266E-1
4.644512972E0,1.013345909E1,4.091092110E0,-8.349778652E-1
4.647000680E0,9.913191795E0,4.119822502E0,-9.546879530E-1
4.649488389E0,9.616311073E0,4.201225281E0,-1.083974838E0
4.651976097E0,9.233239174E0,4.359242916E0,-1.203684926E0
4.654463805E0,8.797493935E0,4.579509258E0,-1.328183413E0
4.656951514E0,8.376114845E0,4.838083267E0,-1.486200690E0
4.659439222E0,7.954735279E0,5.067926407E0,-1.658583283E0
4.661926930E0,7.552509308E0,5.269039154E0,-1.850119352E0
4.664414639E0,7.231686115E0,5.441421986E0,-2.051232338E0
4.666902347E0,6.968324184E0,5.570708752E0,-2.218826532E0
4.669390055E0,6.781576157E0,5.685630322E0,-2.372055292E0
4.671877764E0,6.714538574E0,5.728725910E0,-2.486977100E0
4.674365472E0,6.767210960E0,5.704783916E0,-2.534861088E0
4.676853180E0,6.930016994E0,5.647323132E0,-2.486977100E0
4.679340889E0,7.169436932E0,5.532401562E0,-2.391208887E0
4.681828597E0,7.490260124E0,5.388749599E0,-2.233191729E0
4.684316305E0,7.863755703E0,5.211578369E0,-2.046443939E0
4.686804014E0,8.237251282E0,5.034407616E0,-1.850119352E0
4.689291722E0,8.577227592E0,4.842871666E0,-1.644217968E0
4.691779430E0,8.878896713E0,4.670488834E0,-1.462258697E0
4.694267139E0,9.147047997E0,4.507683277E0,-1.285087705E0
4.696754847E0,9.391256332E0,4.344877720E0,-1.155800819E0
4.699242555E0,9.573215485E0,4.186860085E0,-1.021725535E0
4.701730264E0,9.764751434E0,4.014477730E0,-9.163807034E-1
4.704217972E0,9.860519409E0,3.861248732E0,-8.110358119E-1
4.706705680E0,9.965864182E0,3.775057554E0,-7.727286220E-1
4.709193389E0,1.005684471E1,3.703231573E0,-7.009025216E-1
4.711681097E0,1.015261269E1,3.664924145E0,-6.530185342E-1
4.714168805E0,1.024359226E1,3.621828556E0,-6.625953317E-1
4.716656514E0,1.032499504E1,3.593098164E0,-6.865373254E-1
4.719144222E0,1.037766743E1,3.540425777E0,-7.056909800E-1
4.721631930E0,1.041118622E1,3.473388195E0,-6.961141229E-1
4.724119639E0,1.045428181E1,3.439869404E0,-6.913257241E-1
4.726607347E0,1.052610779E1,3.401561975E0,-6.482301354E-1
4.729095055E0,1.059314537E1,3.353677988E0,-6.338648796E-1
4.731582764E0,1.064581776E1,3.305794001E0,-6.482301354E-1
4.734070472E0,1.060272217E1,3.277063608E0,-7.248445749E-1
4.736558180E0,1.043991661E1,3.301005602E0,-8.014590144E-1
4.739045889E0,1.007120991E1,3.387196779E0,-9.211691022E-1
4.741533597E0,9.467870712E0,3.593098164E0,-1.127070427E0
4.744021305E0,8.763975143E0,3.889979124E0,-1.332971811E0
4.746509014E0,8.045714378E0,4.210802078E0,-1.543661594E0
4.748996722E0,7.303512096E0,4.545990467E0,-1.749562860E0
4.751484430E0,6.623558998E0,4.818929672E0,-1.912368655E0
4.753972139E0,5.967547894E0,5.039196014E0,-2.046443939E0
4.756459847E0,5.455188751E0,5.245097160E0,-2.161365509E0
4.758947555E0,5.172672749E0,5.360019207E0,-2.247556925E0
4.761435264E0,5.148730755E0,5.412691593E0,-2.328959703E0
4.763922972E0,5.373785496E0,5.374384403E0,-2.400785685E0
4.766410680E0,5.771223068E0,5.230731964E0,-2.415150881E0
4.768898389E0,6.221333027E0,5.020042419E0,-2.314594507E0
4.771386097E0,6.647500992E0,4.775833607E0,-2.113481522E0
4.773873805E0,7.059303761E0,4.541202068E0,-1.883638144E0
4.776361514E0,7.471106529E0,4.316147327E0,-1.649006367E0
4.778849222E0,7.878120899E0,4.095880508E0,-1.476623893E0
4.781336930E0,8.242039680E0,3.909132719E0,-1.400009394E0
4.783824639E0,8.519766808E0,3.741538763E0,-1.404797792E0
4.786312347E0,8.696937561E0,3.588309765E0,-1.433528304E0
4.788800055E0,8.869319916E0,3.449446201E0,-1.505354285E0
4.791287764E0,8.989029884E0,3.348889589E0,-1.591545582E0
4.793775472E0,9.099164009E0,3.267486811E0,-1.663371682E0
4.796263180E0,9.199720383E0,3.190872431E0,-1.759139657E0
4.798750889E0,9.295488358E0,3.133411407E0,-1.854907751E0
4.801238597E0,9.367314339E0,3.085527420E0,-1.979406238E0
4.803726305E0,9.405621529E0,3.047220230E0,-2.147000313E0
4.806214014E0,9.434351921E0,3.032855034E0,-2.319382906E0
4.808701722E0,9.439140320E0,3.013701439E0,-2.510919094E0
4.811189430E0,9.434351921E0,2.999336243E0,-2.707243681E0
4.813677139E0,9.424775124E0,2.989759445E0,-2.898779631E0
4.816164847E0,9.424775124E0,2.984971046E0,-3.047220230E0
4.818652608E0,9.419986725E0,2.994547844E0,-3.200449228E0
4.821140368E0,9.338583946E0,3.008913040E0,-3.353677988E0
4.823628128E0,9.127894402E0,3.075950623E0,-3.463811398E0
4.826115889E0,8.792705536E0,3.186083794E0,-3.550002575E0
4.828603649E0,8.371326447E0,3.368043184E0,-3.631405354E0
4.831091410E0,7.945158482E0,3.645770550E0,-3.727173567E0
4.833579170E0,7.552509308E0,3.933074951E0,-3.827729940E0
4.836066930E0,7.183802128E0,4.172494888E0,-3.942651749E0
4.838554691E0,6.805518150E0,4.421492100E0,-4.038419724E0
4.841042451E0,6.503849030E0,4.656123638E0,-4.124610901E0
4.843530212E0,6.269217014E0,4.814141273E0,-4.225167274E0
4.846017972E0,6.197391033E0,4.890755653E0,-4.320935726E0
4.848505733E0,6.307524204E0,4.929062843E0,-4.373608112E0
4.850993493E0,6.570886612E0,4.895544052E0,-4.378396511E0
4.853481253E0,6.944382191E0,4.818929672E0,-4.301782131E0
4.855969014E0,7.356184959E0,4.718372822E0,-4.206013680E0
4.858456774E0,7.758410454E0,4.622604847E0,-4.095880508E0
4.860944535E0,8.184578896E0,4.526836872E0,-3.995324135E0
4.863432295E0,8.529343605E0,4.450222492E0,-3.947440147E0
4.865920055E0,8.797493935E0,4.364031315E0,-3.961805344E0
4.868407816E0,8.979453087E0,4.287416458E0,-4.000112534E0
4.870895576E0,9.099164009E0,4.206013680E0,-4.062361717E0
4.873383337E0,9.161413193E0,4.158129692E0,-4.172494888E0
4.875871097E0,9.209297180E0,4.134187698E0,-4.320935726E0
4.878358858E0,9.242815971E0,4.138976097E0,-4.431068897E0
4.880846618E0,9.247604370E0,4.177283287E0,-4.560355663E0
4.883334326E0,9.242815971E0,4.201225281E0,-4.704007626E0
4.885822035E0,9.151836395E0,4.196436882E0,-4.885967255E0
4.888309743E0,8.993818283E0,4.220378876E0,-5.101445198E0
4.890797451E0,8.759186745E0,4.244320869E0,-5.336077213E0
4.893285160E0,8.443152428E0,4.253897667E0,-5.546766758E0
4.895772868E0,8.040925980E0,4.277839661E0,-5.714360714E0
4.898260576E0,7.595604897E0,4.330512524E0,-5.805340767E0
4.900748285E0,7.135918140E0,4.383184910E0,-5.781398773E0
4.903235993E0,6.657077789E0,4.450222492E0,-5.637746334E0
4.905723701E0,6.168660641E0,4.526836872E0,-5.422268391E0
4.908211410E0,5.665878296E0,4.593874454E0,-5.115810394E0
4.910699118E0,5.254075527E0,4.598662853E0,-4.699219227E0
4.913186826E0,4.942829609E0,4.536413670E0,-4.186860085E0
4.915674535E0,4.780023575E0,4.397550106E0,-3.578732967E0
4.918162243E0,4.842272758E0,4.162918091E0,-2.941875219E0
4.920649951E0,5.134365559E0,3.918709517E0,-2.324171305E0
4.923137660E0,5.531803131E0,3.674500942E0,-1.735197663E0
4.925625368E0,6.001066685E0,3.487753391E0,-1.261145711E0
4.928113076E0,6.470330238E0,3.353677988E0,-8.780734539E-1
4.930600785E0,6.934805393E0,3.238756418E0,-5.428852439E-1
4.933088493E0,7.356184959E0,3.142988205E0,-2.938882709E-1
4.935576201E0,7.720103264E0,3.047220230E0,-7.841010392E-2
4.938063910E0,8.036137581E0,2.932298422E0,7.481880486E-2
4.940551618E0,8.280346870E0,2.846107244E0,2.184709013E-1
4.943039326E0,8.447940826E0,2.807800055E0,3.286041915E-1
4.945527035E0,8.577227592E0,2.855684042E0,4.004302323E-1
4.948014743E0,8.668207169E0,2.946663857E0,3.956418335E-1
4.950502451E0,8.730456352E0,3.080739021E0,2.519897223E-1
4.952990160E0,8.763975143E0,3.214814425E0,7.781155407E-3
4.955477868E0,8.763975143E0,3.348889589E0,-3.561375141E-1
4.957965576E0,8.696937561E0,3.468599796E0,-7.775170207E-1
4.960453285E0,8.591592789E0,3.583521366E0,-1.241992116E0
4.962940993E0,8.447940826E0,3.731961966E0,-1.687313676E0
4.965428701E0,8.237251282E0,3.846883535E0,-2.089539528E0
4.967916410E0,7.978677273E0,3.952228546E0,-2.501342297E0
4.970404118E0,7.672219276E0,4.076726913E0,-2.898779631E0
4.972891826E0,7.351396084E0,4.177283287E0,-3.176506996E0
4.975379535E0,7.030573368E0,4.234744072E0,-3.368043184E0
4.977867243E0,6.657077789E0,4.340089321E0,-3.482964993E0
4.980354951E0,6.230909824E0,4.478952885E0,-3.554790974E0
4.982842660E0,5.752069473E0,4.613028049E0,-3.626616955E0
4.985330368E0,5.292382717E0,4.684854031E0,-3.669712543E0
4.987818076E0,4.827907562E0,4.713584423E0,-3.684077978E0
4.990305785E0,4.425682068E0,4.694430828E0,-3.636193752E0
4.992793493E0,4.133589268E0,4.617816448E0,-3.478176594E0
4.995281201E0,3.965995073E0,4.526836872E0,-3.224391222E0
4.997768910E0,3.942053080E0,4.426280499E0,-2.874837637E0
5.000256618E0,4.095282078E0,4.320935726E0,-2.530072689E0
5.002744326E0,4.401739597E0,4.186860085E0,-2.161365509E0
5.005232035E0,4.799177170E0,4.024054527E0,-1.845330954E0
5.007719743E0,5.225345135E0,3.808576345E0,-1.514931083E0
5.010207451E0,5.617994308E0,3.597886562E0,-1.160589218E0
5.012695160E0,6.020220280E0,3.406350374E0,-7.918822169E-1
5.015182868E0,6.398504257E0,3.262698412E0,-4.423287511E-1
5.017670576E0,6.724115372E0,3.166930199E0,-6.883329898E-2
5.020158285E0,7.073668957E0,3.066373825E0,3.333925903E-1
5.022645993E0,7.466318130E0,2.965817451E0,7.260416746E-1
5.025133701E0,7.844601631E0,2.879626036E0,1.070806742E0
5.027621410E0,8.203732491E0,2.879626036E0,1.300650120E0
5.030109118E0,8.524555206E0,2.965817451E0,1.396418095E0
5.032596826E0,8.778340340E0,3.075950623E0,1.315015316E0
5.035084535E0,8.936357498E0,3.229179621E0,1.099537134E0
5.037572243E0,9.022548676E0,3.363254786E0,8.026561141E-1
5.040059951E0,9.041702271E0,3.473388195E0,4.770447016E-1
5.042547660E0,8.979453087E0,3.554790974E0,1.274912357E-1
5.045035368E0,8.845377922E0,3.645770550E0,-2.507926226E-1
5.047523076E0,8.682572365E0,3.755903959E0,-5.811924338E-1
5.050010785E0,8.514978409E0,3.870825529E0,-9.020155072E-1
5.052498493E0,8.361749649E0,4.024054527E0,-1.198896527E0
5.054986201E0,8.179790497E0,4.201225281E0,-1.476623893E0
5.057473910E0,8.026560783E0,4.392761707E0,-1.739986062E0
5.059961618E0,7.791929245E0,4.584297657E0,-1.993771434E0
5.062449326E0,7.471106529E0,4.799776077E0,-2.209249735E0
5.064937035E0,7.135918140E0,5.024830818E0,-2.467823505E0
5.067424743E0,6.853402138E0,5.192424774E0,-2.745550871E0
5.069912451E0,6.594828606E0,5.283404827E0,-3.071162224E0
5.072400160E0,6.388927460E0,5.288193226E0,-3.401561975E0
5.074887868E0,6.206967831E0,5.259462357E0,-3.746327162E0
5.077375576E0,6.034585476E0,5.178059578E0,-4.076726913E0
5.079863285E0,5.914875507E0,5.111021996E0,-4.354454517E0
5.082350993E0,5.833472252E0,5.020042419E0,-4.593874454E0
5.084838701E0,5.819107056E0,4.885967255E0,-4.790199280E0
5.087326410E0,5.852625847E0,4.699219227E0,-4.866813660E0
5.089814118E0,5.938817501E0,4.455010891E0,-4.833294868E0
5.092301826E0,6.063315868E0,4.201225281E0,-4.670488834E0
5.094789535E0,6.264428616E0,3.976170540E0,-4.421492100E0
5.097277243E0,6.475118637E0,3.708019972E0,-4.153341293E0
5.099764951E0,6.724115372E0,3.435081005E0,-3.798999548E0
5.102252660E0,7.054515362E0,3.133411407E0,-3.435081005E0
5.104740368E0,7.399280548E0,2.836530447E0,-3.032855034E0
5.107228076E0,7.772775650E0,2.573168278E0,-2.601898670E0
5.109715785E0,8.160636902E0,2.376843691E0,-2.147000313E0
5.112203493E0,8.562862396E0,2.199672699E0,-1.677736878E0
5.114691201E0,8.965087891E0,2.012925148E0,-1.256357312E0
5.117178910E0,9.333795547E0,1.830965757E0,-8.876502514E-1
5.119666618E0,9.621099472E0,1.639429569E0,-6.099228859E-1
5.122154326E0,9.879673004E0,1.505354285E0,-3.896563351E-1
5.124642035E0,1.009994030E1,1.438316703E0,-2.460042238E-1
5.127129743E0,1.028189945E1,1.395220995E0,-1.981201917E-1
5.129617451E0,1.040639782E1,1.400009394E0,-2.172738016E-1
5.132105160E0,1.046385860E1,1.481412292E0,-3.274070919E-1
5.134592868E0,1.042076302E1,1.610699177E0,-4.902127981E-1
5.137080576E0,1.025316906E1,1.797446966E0,-7.296329737E-1
5.139568285E0,9.908403397E0,2.003348351E0,-1.050456047E0
5.142055993E0,9.487024307E0,2.242768526E0,-1.443105102E0
5.144543701E0,9.036913872E0,2.458246708E0,-1.816600561E0
5.147031410E0,8.605957985E0,2.702455282E0,-2.113481522E0
5.149519118E0,8.184578896E0,2.975394249E0,-2.319382906E0
5.152006826E0,7.806294441E0,3.190872431E0,-2.486977100E0
5.154494535E0,7.461529732E0,3.411138773E0,-2.697666883E0
5.156982243E0,7.135918140E0,3.645770550E0,-3.018489838E0
5.159469951E0,6.824671745E0,3.832518339E0,-3.420715570E0
5.161957660E0,6.527791023E0,3.957016945E0,-3.889979124E0
5.164445368E0,6.283582211E0,4.067150116E0,-4.445434093E0
5.166933076E0,6.015431881E0,4.143764496E0,-5.067926407E0
5.169420785E0,5.795165062E0,4.201225281E0,-5.781398773E0
5.171908493E0,5.608417511E0,4.215590477E0,-6.475717068E0
5.174396201E0,5.431246758E0,4.268262863E0,-7.059902191E0
5.176883910E0,5.258863926E0,4.373608112E0,-7.533954144E0
5.179371618E0,5.081693172E0,4.450222492E0,-7.883507729E0
5.181859326E0,4.933252811E0,4.488529682E0,-8.041524887E0
5.184347035E0,4.818330765E0,4.493318081E0,-7.979275703E0
5.186834743E0,4.669890404E0,4.459799290E0,-7.682394505E0
5.189322451E0,4.554968834E0,4.411915302E0,-7.146093369E0
5.191810160E0,4.473566055E0,4.354454517E0,-6.403891087E0
5.194297868E0,4.483142853E0,4.301782131E0,-5.489305973E0
5.196785576E0,4.578910828E0,4.191648483E0,-4.469376087E0
5.199273285E0,4.746504784E0,4.024054527E0,-3.358466387E0
5.201760993E0,5.019443989E0,3.808576345E0,-2.257133722E0
5.204248701E0,5.354631901E0,3.569156170E0,-1.174954534E0
5.206736410E0,5.723339081E0,3.363254786E0,-1.215057373E-1
5.209224118E0,6.063315868E0,3.200449228E0,9.032126069E-1
5.211711826E0,6.341042995E0,3.080739021E0,1.889623642E0
5.214199535E0,6.542156219E0,2.989759445E0,2.804208755E0
5.216687243E0,6.700173378E0,2.913144827E0,3.551199675E0
5.219174951E0,6.853402138E0,2.836530447E0,4.159327030E0
5.221662660E0,6.992266178E0,2.735974073E0,4.633378983E0
5.224150368E0,7.092822552E0,2.668936253E0,4.906317711E0
5.226638076E0,7.150283337E0,2.601898670E0,5.011662483E0
5.229125785E0,7.155071735E0,2.539649487E0,4.920682907E0
5.231613493E0,7.111976147E0,2.554014683E0,4.623802185E0
5.234101201E0,6.992266178E0,2.601898670E0,4.197634220E0
5.236588910E0,6.829460144E0,2.673724651E0,3.661332846E0
5.239076618E0,6.661866188E0,2.702455282E0,3.081936121E0
5.241564326E0,6.580463409E0,2.697666883E0,2.507327795E0
5.244052035E0,6.537367821E0,2.654571056E0,1.966238141E0
5.246539743E0,6.580463409E0,2.563591480E0,1.444302201E0
5.249027451E0,6.771999359E0,2.429516077E0,9.080010056E-1
5.251515160E0,7.049726963E0,2.276287317E0,3.573346138E-1
