"Time (s)","Gyroscope x (rad/s)","Gyroscope y (rad/s)","Gyroscope z (rad/s)"
1.021791140E-1,1.366200596E-1,1.229047924E-1,-1.771000773E-1
1.047291140E-1,1.312937438E-1,1.314269006E-1,-1.760348231E-1
1.072791140E-1,1.217063740E-1,1.420795321E-1,-1.760348231E-1
1.098291140E-1,1.121189967E-1,1.537974328E-1,-1.760348231E-1
1.123791140E-1,1.014663652E-1,1.687111259E-1,-1.760348231E-1
1.149291140E-1,9.081372619E-2,1.836248189E-1,-1.749695539E-1
1.174791140E-1,8.016108721E-2,1.985385120E-1,-1.739042848E-1
1.200291140E-1,6.950845569E-2,2.134522051E-1,-1.717737615E-1
1.225791140E-1,5.885581672E-2,2.283658981E-1,-1.707084924E-1
1.251291140E-1,4.820318148E-2,2.411490530E-1,-1.685779691E-1
1.276791140E-1,3.755054250E-2,2.528669536E-1,-1.653821766E-1
1.302291140E-1,2.583264373E-2,2.624543309E-1,-1.632516533E-1
1.327791140E-1,1.518000662E-2,2.688459158E-1,-1.600558609E-1
1.353291140E-1,5.592633970E-3,2.720417082E-1,-1.579253376E-1
1.378791140E-1,-2.929474926E-3,2.731069624E-1,-1.557948142E-1
1.404291140E-1,-1.145158429E-2,2.720417082E-1,-1.536642760E-1
1.429791140E-1,-1.784316637E-2,2.688459158E-1,-1.525990218E-1
1.455291140E-1,-2.210422046E-2,2.656501234E-1,-1.504684836E-1
1.480791140E-1,-2.530001104E-2,2.603237927E-1,-1.494032294E-1
1.506291140E-1,-2.743053809E-2,2.560627460E-1,-1.472726911E-1
1.531791140E-1,-2.530001104E-2,2.507364154E-1,-1.440769136E-1
1.557291140E-1,-2.423474751E-2,2.443448454E-1,-1.419463754E-1
1.582791140E-1,-2.103895694E-2,2.368880063E-1,-1.398158520E-1
1.608291140E-1,-1.784316637E-2,2.304964215E-1,-1.387505829E-1
1.633791140E-1,-1.358211134E-2,2.230395675E-1,-1.376853287E-1
1.659291140E-1,-8.255792782E-3,2.155827284E-1,-1.355548054E-1
1.684791140E-1,-2.929474926E-3,2.091911435E-1,-1.344895363E-1
1.710291140E-1,1.331579522E-3,2.027995586E-1,-1.334242672E-1
1.735791140E-1,7.723161485E-3,1.974732429E-1,-1.323590130E-1
1.761291140E-1,1.411474310E-2,1.932121962E-1,-1.312937438E-1
1.786791140E-1,1.944106072E-2,1.910816729E-1,-1.291632205E-1
1.812291140E-1,2.476738021E-2,1.900164038E-1,-1.280979514E-1
1.837791140E-1,2.796317078E-2,1.889511347E-1,-1.270326823E-1
1.863034370E-1,3.115896136E-2,1.900164038E-1,-1.259674281E-1
1.887910410E-1,3.328948840E-2,1.921469271E-1,-1.259674281E-1
1.912785930E-1,3.328948840E-2,1.921469271E-1,-1.270326823E-1
1.937661450E-1,3.328948840E-2,1.942774504E-1,-1.259674281E-1
1.962536970E-1,3.328948840E-2,1.953427196E-1,-1.249021590E-1
1.987412490E-1,3.435475379E-2,1.953427196E-1,-1.238368973E-1
2.012288020E-1,3.542001545E-2,1.942774504E-1,-1.227716357E-1
2.037163540E-1,3.542001545E-2,1.932121962E-1,-1.217063740E-1
2.062039060E-1,3.542001545E-2,1.900164038E-1,-1.206411049E-1
2.086914580E-1,3.648528084E-2,1.878858805E-1,-1.195758432E-1
2.111790100E-1,3.755054250E-2,1.846900880E-1,-1.185105816E-1
2.136665620E-1,3.861580789E-2,1.804290265E-1,-1.174453199E-1
2.161541140E-1,3.861580789E-2,1.740374416E-1,-1.153147891E-1
2.186416660E-1,3.861580789E-2,1.665806025E-1,-1.142495275E-1
2.211292180E-1,3.861580789E-2,1.559279710E-1,-1.131842583E-1
2.236167700E-1,3.861580789E-2,1.431448013E-1,-1.131842583E-1
2.261043220E-1,3.861580789E-2,1.303616315E-1,-1.121189967E-1
2.285918740E-1,3.755054250E-2,1.175784767E-1,-1.121189967E-1
2.310794270E-1,3.755054250E-2,1.047953144E-1,-1.099884734E-1
2.335669790E-1,3.755054250E-2,9.307741374E-2,-1.099884734E-1
2.360545310E-1,3.755054250E-2,8.349003643E-2,-1.089232042E-1
2.385420830E-1,3.542001545E-2,7.390266657E-2,-1.078579426E-1
2.410296350E-1,3.328948840E-2,6.538055837E-2,-1.078579426E-1
2.435171870E-1,3.009369783E-2,5.685844645E-2,-1.067926809E-1
2.460047390E-1,2.583264373E-2,4.940159991E-2,-1.046621501E-1
2.484922910E-1,2.157158963E-2,3.874896467E-2,-1.025316268E-1
2.509798430E-1,1.731053367E-2,2.916159295E-2,-1.004010960E-1
2.534673950E-1,1.411474310E-2,1.744369231E-2,-9.720530361E-2
2.559549470E-1,1.198421605E-2,6.791055668E-3,-9.294424951E-2
2.584424990E-1,1.198421605E-2,-2.796316985E-3,-8.761793375E-2
2.609300520E-1,1.411474310E-2,-9.187898599E-3,-8.229161799E-2
2.634176040E-1,1.624527015E-2,-1.238369010E-2,-7.696529478E-2
2.659051560E-1,2.157158963E-2,-1.238369010E-2,-7.057371736E-2
2.683927080E-1,2.796317078E-2,-9.187898599E-3,-6.524740160E-2
2.708802600E-1,3.542001545E-2,-1.731053460E-3,-6.098634377E-2
2.733678120E-1,4.287686199E-2,9.986846708E-3,-5.779055133E-2
2.758553640E-1,5.246423557E-2,2.383527346E-2,-5.566002429E-2
2.783429160E-1,6.098634377E-2,3.981423005E-2,-5.352949724E-2
2.808304680E-1,7.163897902E-2,5.792371184E-2,-5.352949724E-2
2.833180200E-1,8.229161799E-2,7.709845901E-2,-5.352949724E-2
2.858055720E-1,9.294424951E-2,9.733846784E-2,-5.459476262E-2
2.882931240E-1,1.046621501E-1,1.197090000E-1,-5.672528967E-2
2.907806770E-1,1.142495275E-1,1.410142779E-1,-5.992107838E-2
2.932682290E-1,1.217063740E-1,1.633848101E-1,-6.311687082E-2
2.957557810E-1,1.291632205E-1,1.846900880E-1,-6.737792492E-2
2.982433330E-1,1.355548054E-1,2.038648278E-1,-7.376950979E-2
3.007308850E-1,1.398158520E-1,2.209090441E-1,-7.909582555E-2
3.032184370E-1,1.419463754E-1,2.347574681E-1,-8.442214131E-2
3.057059890E-1,1.430116445E-1,2.443448454E-1,-9.187898785E-2
3.081935410E-1,1.430116445E-1,2.507364154E-1,-9.720530361E-2
3.106810930E-1,1.419463754E-1,2.539322078E-1,-1.025316268E-1
3.131686450E-1,1.387505829E-1,2.549974918E-1,-1.089232042E-1
3.156561970E-1,1.344895363E-1,2.528669536E-1,-1.131842583E-1
3.181437490E-1,1.280979514E-1,2.486059070E-1,-1.174453199E-1
3.206313020E-1,1.217063740E-1,2.432795912E-1,-1.206411049E-1
3.231188540E-1,1.142495275E-1,2.358227372E-1,-1.238368973E-1
3.256064580E-1,1.057274193E-1,2.273006290E-1,-1.270326823E-1
3.280940620E-1,9.614004195E-2,2.177132517E-1,-1.312937438E-1
3.305816660E-1,8.548741043E-2,2.081258893E-1,-1.355548054E-1
3.330692700E-1,7.696529478E-2,1.964079887E-1,-1.387505829E-1
3.355568740E-1,6.844318658E-2,1.846900880E-1,-1.419463754E-1
3.380444790E-1,5.992107838E-2,1.729721874E-1,-1.440769136E-1
3.405320830E-1,5.246423557E-2,1.601890177E-1,-1.451421678E-1
3.430196870E-1,4.607265070E-2,1.484711170E-1,-1.472726911E-1
3.455072910E-1,4.181159660E-2,1.367532164E-1,-1.472726911E-1
3.479948950E-1,3.968106955E-2,1.250353158E-1,-1.494032294E-1
3.504824990E-1,3.755054250E-2,1.154479459E-1,-1.504684836E-1
3.529701040E-1,3.648528084E-2,1.069258377E-1,-1.494032294E-1
3.554577080E-1,3.542001545E-2,9.733846784E-2,-1.483379602E-1
3.579453120E-1,3.328948840E-2,8.881635964E-2,-1.462074369E-1
3.604329160E-1,3.009369783E-2,7.922898233E-2,-1.419463754E-1
3.629205200E-1,2.476738021E-2,6.857634336E-2,-1.366200596E-1
3.654081240E-1,1.837579720E-2,5.579318479E-2,-1.312937438E-1
3.678957290E-1,9.853689000E-3,4.407528415E-2,-1.238368973E-1
3.703833330E-1,-7.989477599E-4,3.129211813E-2,-1.163800508E-1
3.728709370E-1,-1.145158429E-2,1.850895584E-2,-1.089232042E-1
3.753585410E-1,-2.103895694E-2,7.856319658E-3,-1.014663652E-1
3.778461450E-1,-3.169159219E-2,3.994738800E-4,-9.400951862E-2
3.803337490E-1,-4.127896577E-2,-3.861580743E-3,-8.655267209E-2
3.828213540E-1,-4.980107397E-2,-5.992108025E-3,-8.016108721E-2
3.853089580E-1,-5.725792050E-2,-3.861580743E-3,-7.590003312E-2
3.877965620E-1,-6.258423626E-2,-6.657897611E-4,-7.163897902E-2
3.902841660E-1,-6.684529036E-2,3.595264861E-3,-6.737792492E-2
3.927717700E-1,-6.897582114E-2,9.986846708E-3,-6.524740160E-2
3.952593740E-1,-7.110634446E-2,1.637842879E-2,-6.205160543E-2
3.977469790E-1,-7.217161357E-2,2.277000993E-2,-6.098634377E-2
4.002345830E-1,-7.217161357E-2,2.916159295E-2,-6.098634377E-2
4.027221870E-1,-7.323687524E-2,3.555317223E-2,-6.205160543E-2
4.052097910E-1,-7.323687524E-2,4.087949172E-2,-6.311687082E-2
4.076973950E-1,-7.217161357E-2,4.514054582E-2,-6.418213248E-2
4.101849990E-1,-7.110634446E-2,4.727107286E-2,-6.418213248E-2
4.126726040E-1,-7.217161357E-2,4.940159991E-2,-6.524740160E-2
4.151602080E-1,-7.110634446E-2,4.940159991E-2,-6.631266326E-2
4.176478120E-1,-7.110634446E-2,4.833633825E-2,-6.631266326E-2
4.201354160E-1,-7.004108280E-2,4.727107286E-2,-6.631266326E-2
4.226230200E-1,-6.897582114E-2,4.514054582E-2,-6.737792492E-2
4.251106240E-1,-6.578002870E-2,4.194475710E-2,-6.844318658E-2
4.275982290E-1,-6.151897460E-2,3.874896467E-2,-7.057371736E-2
4.300858330E-1,-5.725792050E-2,3.555317223E-2,-7.270424068E-2
4.325734370E-1,-5.086633936E-2,3.235738352E-2,-7.483477145E-2
4.350609890E-1,-4.340949282E-2,2.809632942E-2,-7.803056389E-2
4.375485410E-1,-3.488738462E-2,2.383527346E-2,-8.122635633E-2
4.400360930E-1,-2.530001104E-2,1.957421936E-2,-8.335687965E-2
4.425236450E-1,-1.358211134E-2,1.424790081E-2,-8.548741043E-2
4.450111970E-1,-1.864211401E-3,6.791055668E-3,-8.655267209E-2
4.474987490E-1,9.853689000E-3,-1.731053460E-3,-8.655267209E-2
4.499863020E-1,2.157158963E-2,-1.131842658E-2,-8.761793375E-2
4.524738540E-1,3.222422674E-2,-2.303632535E-2,-8.868319541E-2
4.549614060E-1,4.287686199E-2,-3.688475490E-2,-8.761793375E-2
4.574489580E-1,5.246423557E-2,-5.073318258E-2,-8.655267209E-2
4.599365100E-1,6.311687082E-2,-6.671213359E-2,-8.335687965E-2
4.624240620E-1,7.376950979E-2,-8.375635743E-2,-8.016108721E-2
4.649116140E-1,8.335687965E-2,-9.973530471E-2,-7.590003312E-2
4.673991660E-1,9.294424951E-2,-1.146489978E-1,-7.163897902E-2
4.698867180E-1,1.014663652E-1,-1.284974217E-1,-6.737792492E-2
4.723742700E-1,1.089232042E-1,-1.402153224E-1,-6.205160543E-2
4.748618220E-1,1.153147891E-1,-1.487374306E-1,-5.672528967E-2
4.773493740E-1,1.206411049E-1,-1.519332230E-1,-5.139897019E-2
4.798369270E-1,1.249021590E-1,-1.519332230E-1,-4.500738904E-2
4.823244790E-1,1.270326823E-1,-1.466069072E-1,-3.968106955E-2
4.848120310E-1,1.270326823E-1,-1.370195299E-1,-3.435475379E-2
4.872995830E-1,1.259674281E-1,-1.221058443E-1,-3.115896136E-2
4.897871350E-1,1.206411049E-1,-1.050616279E-1,-2.796317078E-2
4.922746870E-1,1.142495275E-1,-8.482161909E-2,-2.476738021E-2
4.947622390E-1,1.057274193E-1,-6.245107949E-2,-2.263685316E-2
4.972497910E-1,9.507478029E-2,-3.795001656E-2,-2.050632425E-2
4.997373430E-1,8.335687965E-2,-1.238369010E-2,-1.944106072E-2
5.022248950E-1,7.163897902E-2,1.318263728E-2,-2.050632425E-2
5.047124470E-1,5.885581672E-2,3.874896467E-2,-2.050632425E-2
5.071999990E-1,4.500738904E-2,6.431528926E-2,-2.263685316E-2
5.096875520E-1,3.115896136E-2,8.775109053E-2,-2.476738021E-2
5.121751040E-1,1.837579720E-2,1.111868918E-1,-2.796317078E-2
5.146626560E-1,6.657897960E-3,1.324921697E-1,-3.009369783E-2
5.171502080E-1,-3.994738683E-3,1.516669095E-1,-3.328948840E-2
5.196377600E-1,-1.358211134E-2,1.687111259E-1,-3.648528084E-2
5.221253120E-1,-1.997369342E-2,1.836248189E-1,-3.861580789E-2
5.246128640E-1,-2.423474751E-2,1.953427196E-1,-4.074633494E-2
5.271004160E-1,-2.743053809E-2,2.027995586E-1,-4.181159660E-2
5.295879680E-1,-2.849580161E-2,2.081258893E-1,-4.181159660E-2
5.320755200E-1,-2.849580161E-2,2.091911435E-1,-4.181159660E-2
5.345630720E-1,-2.743053809E-2,2.070606202E-1,-4.074633494E-2
5.370506240E-1,-2.636527456E-2,2.027995586E-1,-3.968106955E-2
5.395381770E-1,-2.423474751E-2,1.953427196E-1,-3.861580789E-2
5.420257290E-1,-2.210422046E-2,1.857553422E-1,-3.755054250E-2
5.445132810E-1,-1.997369342E-2,1.740374416E-1,-3.542001545E-2
5.470008330E-1,-1.677790284E-2,1.612542868E-1,-3.328948840E-2
5.494883850E-1,-1.358211134E-2,1.463405937E-1,-3.115896136E-2
5.519759370E-1,-9.321057238E-3,1.314269006E-1,-2.902843431E-2
5.544634890E-1,-2.929474926E-3,1.154479459E-1,-2.476738021E-2
5.569510410E-1,4.527370445E-3,9.946899116E-2,-2.157158963E-2
5.594385930E-1,1.198421605E-2,8.455529809E-2,-1.837579720E-2
5.619261450E-1,2.050632425E-2,7.070687413E-2,-1.411474310E-2
5.644136970E-1,3.009369783E-2,5.898897350E-2,-1.198421605E-2
5.669012490E-1,4.074633494E-2,4.940159991E-2,-7.723161485E-3
5.693888020E-1,5.139897019E-2,4.087949172E-2,-4.527370445E-3
5.718763540E-1,6.205160543E-2,3.555317223E-2,-2.663159103E-4
5.743639060E-1,7.163897902E-2,3.022685647E-2,2.929474926E-3
5.768515100E-1,8.122635633E-2,2.703106403E-2,6.125265732E-3
5.793391140E-1,9.081372619E-2,2.383527346E-2,8.255792782E-3
5.818267180E-1,9.933583438E-2,2.170474641E-2,1.145158429E-2
5.843143220E-1,1.067926809E-1,2.063948289E-2,1.464737486E-2
5.868019270E-1,1.131842583E-1,2.063948289E-2,1.784316637E-2
5.892895310E-1,1.174453199E-1,1.957421936E-2,2.103895694E-2
5.917771350E-1,1.206411049E-1,2.063948289E-2,2.423474751E-2
5.942647390E-1,1.227716357E-1,2.063948289E-2,2.849580161E-2
5.967523430E-1,1.227716357E-1,2.063948289E-2,3.062633052E-2
5.992399470E-1,1.217063740E-1,2.170474641E-2,3.382211924E-2
6.017275520E-1,1.185105816E-1,2.383527346E-2,3.701791167E-2
6.042151560E-1,1.153147891E-1,2.596580051E-2,4.021370411E-2
6.067027600E-1,1.099884734E-1,2.916159295E-2,4.127896577E-2
6.091903640E-1,1.046621501E-1,3.129211813E-2,4.340949282E-2
6.116779680E-1,1.004010960E-1,3.448791057E-2,4.447475821E-2
6.141655720E-1,9.720530361E-2,3.874896467E-2,4.554001987E-2
6.166531770E-1,9.400951862E-2,4.514054582E-2,4.447475821E-2
6.191407810E-1,9.187898785E-2,5.153212696E-2,4.447475821E-2
6.216283850E-1,9.081372619E-2,6.005423889E-2,4.554001987E-2
6.241159890E-1,9.081372619E-2,6.964161247E-2,4.447475821E-2
6.266035930E-1,9.081372619E-2,7.922898233E-2,4.234423116E-2
6.290911970E-1,9.081372619E-2,8.668582886E-2,4.021370411E-2
6.315788020E-1,9.187898785E-2,9.414267540E-2,3.914843872E-2
6.340664060E-1,9.081372619E-2,1.005342528E-1,3.701791167E-2
6.365540100E-1,9.081372619E-2,1.047953144E-1,3.488738462E-2
6.390416140E-1,8.974846452E-2,1.069258377E-1,3.275685757E-2
6.415292180E-1,8.868319541E-2,1.069258377E-1,3.169159219E-2
6.440168220E-1,8.761793375E-2,1.047953144E-1,2.956106514E-2
6.465044270E-1,8.548741043E-2,1.015995219E-1,2.849580161E-2
6.489920310E-1,8.548741043E-2,9.733846784E-2,2.849580161E-2
6.514796350E-1,8.442214131E-2,9.201214463E-2,2.849580161E-2
6.539672390E-1,8.335687965E-2,8.668582886E-2,2.849580161E-2
6.564548430E-1,8.229161799E-2,8.135951310E-2,2.849580161E-2
6.589424470E-1,8.229161799E-2,7.496792823E-2,2.849580161E-2
6.614300520E-1,8.016108721E-2,6.964161247E-2,3.062633052E-2
6.639176560E-1,7.909582555E-2,6.325002760E-2,3.169159219E-2
6.664052600E-1,7.803056389E-2,5.792371184E-2,3.488738462E-2
6.688928640E-1,7.696529478E-2,5.046686530E-2,3.701791167E-2
6.713804680E-1,7.483477145E-2,4.301001877E-2,3.914843872E-2
6.738680720E-1,7.163897902E-2,3.555317223E-2,4.127896577E-2
6.763556770E-1,7.057371736E-2,2.809632942E-2,4.447475821E-2
6.788432810E-1,6.844318658E-2,2.063948289E-2,4.660528526E-2
6.813308850E-1,6.844318658E-2,1.531316526E-2,4.980107397E-2
6.838184370E-1,6.844318658E-2,1.105211023E-2,5.299686641E-2
6.863059890E-1,6.844318658E-2,6.791055668E-3,5.619265884E-2
6.887935410E-1,6.844318658E-2,5.725792143E-3,5.832318589E-2
6.912810930E-1,7.057371736E-2,4.660528619E-3,5.938844755E-2
6.937686450E-1,7.057371736E-2,5.725792143E-3,6.045371294E-2
6.962561970E-1,7.057371736E-2,6.791055668E-3,6.151897460E-2
6.987437490E-1,7.163897902E-2,8.921583183E-3,6.045371294E-2
7.012313020E-1,7.163897902E-2,1.211737376E-2,5.938844755E-2
7.037188540E-1,7.270424068E-2,1.531316526E-2,5.832318589E-2
7.062064060E-1,7.270424068E-2,1.957421936E-2,5.619265884E-2
7.086939580E-1,7.270424068E-2,2.596580051E-2,5.406212807E-2
7.111815100E-1,7.270424068E-2,3.342264518E-2,5.299686641E-2
7.136690620E-1,7.376950979E-2,4.087949172E-2,5.086633936E-2
7.161566140E-1,7.376950979E-2,4.940159991E-2,4.980107397E-2
7.186441660E-1,7.270424068E-2,5.579318479E-2,4.873581231E-2
7.211317180E-1,7.057371736E-2,6.218476593E-2,4.660528526E-2
7.236192700E-1,6.631266326E-2,6.538055837E-2,4.554001987E-2
7.261068220E-1,6.098634377E-2,6.751108170E-2,4.234423116E-2
7.285943740E-1,5.459476262E-2,6.751108170E-2,4.021370411E-2
7.310819270E-1,4.713791609E-2,6.644582003E-2,3.808317333E-2
7.335694790E-1,3.968106955E-2,6.431528926E-2,3.488738462E-2
7.360570310E-1,3.009369783E-2,6.325002760E-2,3.275685757E-2
7.385445830E-1,2.263685316E-2,6.325002760E-2,2.956106514E-2
7.410321350E-1,1.624527015E-2,6.218476593E-2,2.743053809E-2
7.435196870E-1,7.723161485E-3,6.325002760E-2,2.423474751E-2
7.460072390E-1,1.331579522E-3,6.218476593E-2,2.316948399E-2
7.484947910E-1,-3.994738683E-3,6.111950055E-2,2.103895694E-2
7.509823430E-1,-9.321057238E-3,5.792371184E-2,1.997369342E-2
7.534698950E-1,-1.464737486E-2,5.579318479E-2,1.997369342E-2
7.559574470E-1,-1.997369342E-2,5.153212696E-2,1.784316637E-2
7.584449990E-1,-2.530001104E-2,4.727107286E-2,1.890842989E-2
7.609325520E-1,-2.956106514E-2,4.301001877E-2,1.784316637E-2
7.634201040E-1,-3.382211924E-2,3.874896467E-2,1.784316637E-2
7.659076560E-1,-3.808317333E-2,3.342264518E-2,1.677790284E-2
7.683952080E-1,-4.127896577E-2,2.916159295E-2,1.677790284E-2
7.708827600E-1,-4.340949282E-2,2.383527346E-2,1.677790284E-2
7.733703120E-1,-4.447475821E-2,1.957421936E-2,1.784316637E-2
7.758578640E-1,-4.554001987E-2,1.744369231E-2,2.103895694E-2
7.783454160E-1,-4.554001987E-2,1.637842879E-2,2.423474751E-2
7.808329680E-1,-4.554001987E-2,1.531316526E-2,2.743053809E-2
7.833205200E-1,-4.447475821E-2,1.744369231E-2,2.956106514E-2
7.858080720E-1,-4.340949282E-2,1.957421936E-2,3.275685757E-2
7.882956240E-1,-4.127896577E-2,2.170474641E-2,3.595264629E-2
7.907831770E-1,-3.914843872E-2,2.490053698E-2,3.914843872E-2
7.932707290E-1,-3.701791167E-2,2.596580051E-2,4.234423116E-2
7.957582810E-1,-3.488738462E-2,2.596580051E-2,4.447475821E-2
7.982458330E-1,-3.275685757E-2,2.596580051E-2,4.660528526E-2
8.007333850E-1,-3.169159219E-2,2.490053698E-2,4.767054692E-2
8.032209370E-1,-3.169159219E-2,2.383527346E-2,4.873581231E-2
8.057084890E-1,-3.275685757E-2,2.383527346E-2,4.980107397E-2
8.081960410E-1,-3.382211924E-2,2.277000993E-2,4.980107397E-2
8.106835930E-1,-3.488738462E-2,2.277000993E-2,5.086633936E-2
8.131711450E-1,-3.701791167E-2,2.170474641E-2,5.086633936E-2
8.156586970E-1,-3.808317333E-2,2.170474641E-2,5.193160102E-2
8.181462490E-1,-4.021370411E-2,2.063948289E-2,5.299686641E-2
8.206338020E-1,-4.234423116E-2,2.063948289E-2,5.406212807E-2
8.231213540E-1,-4.340949282E-2,2.170474641E-2,5.406212807E-2
8.256089060E-1,-4.554001987E-2,2.277000993E-2,5.299686641E-2
8.280964580E-1,-4.873581231E-2,2.490053698E-2,5.299686641E-2
8.305840100E-1,-5.406212807E-2,2.809632942E-2,5.299686641E-2
8.330716140E-1,-5.938844755E-2,3.129211813E-2,5.406212807E-2
8.355592180E-1,-6.471476704E-2,3.555317223E-2,5.406212807E-2
8.380468220E-1,-7.004108280E-2,3.874896467E-2,5.406212807E-2
8.405344270E-1,-7.643266767E-2,4.301001877E-2,5.406212807E-2
8.430220310E-1,-8.282424510E-2,4.727107286E-2,5.299686641E-2
8.455096350E-1,-8.921582997E-2,5.153212696E-2,5.299686641E-2
8.479972390E-1,-9.454214573E-2,5.579318479E-2,5.299686641E-2
8.504848430E-1,-9.880319983E-2,6.111950055E-2,5.193160102E-2
8.529724470E-1,-1.030642539E-1,6.431528926E-2,5.086633936E-2
8.554600520E-1,-1.062600464E-1,6.751108170E-2,4.980107397E-2
8.579476560E-1,-1.094558388E-1,6.964161247E-2,4.873581231E-2
8.604352600E-1,-1.094558388E-1,7.070687413E-2,4.767054692E-2
8.629228640E-1,-1.105211005E-1,7.283740491E-2,4.660528526E-2
8.654104680E-1,-1.115863696E-1,7.177213579E-2,4.447475821E-2
8.678980720E-1,-1.105211005E-1,7.070687413E-2,4.340949282E-2
8.703856770E-1,-1.094558388E-1,6.964161247E-2,4.127896577E-2
8.728732810E-1,-1.083905771E-1,6.857634336E-2,4.021370411E-2
8.753608850E-1,-1.062600464E-1,6.644582003E-2,3.914843872E-2
8.778484890E-1,-1.030642539E-1,6.431528926E-2,3.701791167E-2
8.803360930E-1,-9.880319983E-2,6.218476593E-2,3.595264629E-2
8.828236970E-1,-9.454214573E-2,6.005423889E-2,3.488738462E-2
8.853113020E-1,-8.921582997E-2,5.792371184E-2,3.488738462E-2
8.877989060E-1,-8.388951421E-2,5.579318479E-2,3.382211924E-2
8.902865100E-1,-7.856319100E-2,5.366265774E-2,3.275685757E-2
8.927741140E-1,-7.323687524E-2,5.259739235E-2,3.169159219E-2
8.952617180E-1,-6.791055948E-2,5.046686530E-2,3.062633052E-2
8.977493220E-1,-6.151897460E-2,4.833633825E-2,3.062633052E-2
9.002369270E-1,-5.725792050E-2,4.727107286E-2,3.062633052E-2
9.027245310E-1,-5.193160102E-2,4.407528415E-2,3.062633052E-2
9.052121350E-1,-4.873581231E-2,3.981423005E-2,2.956106514E-2
9.076997390E-1,-4.554001987E-2,3.448791057E-2,2.956106514E-2
9.101873430E-1,-4.234423116E-2,3.022685647E-2,2.743053809E-2
9.126749470E-1,-4.021370411E-2,2.490053698E-2,2.743053809E-2
9.151625520E-1,-3.808317333E-2,2.063948289E-2,2.743053809E-2
9.176501560E-1,-3.595264629E-2,1.637842879E-2,2.636527456E-2
9.201377600E-1,-3.488738462E-2,1.318263728E-2,2.530001104E-2
9.226253640E-1,-3.488738462E-2,1.211737376E-2,2.423474751E-2
9.251129680E-1,-3.382211924E-2,1.211737376E-2,2.316948399E-2
9.276005720E-1,-3.382211924E-2,1.211737376E-2,2.210422046E-2
9.300881770E-1,-3.488738462E-2,1.424790081E-2,1.997369342E-2
9.325757810E-1,-3.595264629E-2,1.531316526E-2,1.890842989E-2
9.350633330E-1,-3.808317333E-2,1.744369231E-2,1.677790284E-2
9.375508850E-1,-4.127896577E-2,1.957421936E-2,1.464737486E-2
9.400384370E-1,-4.554001987E-2,2.170474641E-2,1.358211134E-2
9.425259890E-1,-4.980107397E-2,2.596580051E-2,1.251684781E-2
9.450135410E-1,-5.406212807E-2,2.916159295E-2,1.038632076E-2
9.475010930E-1,-5.938844755E-2,3.235738352E-2,1.038632076E-2
9.499886450E-1,-6.471476704E-2,3.448791057E-2,9.321057238E-3
9.524761970E-1,-7.110634446E-2,3.768370301E-2,8.255792782E-3
9.549637490E-1,-7.749792933E-2,3.981423005E-2,7.190529723E-3
9.574513020E-1,-8.282424510E-2,4.194475710E-2,7.190529723E-3
9.599388540E-1,-8.815056831E-2,4.407528415E-2,6.125265732E-3
9.624264060E-1,-9.347688407E-2,4.620581120E-2,5.060002208E-3
9.649139580E-1,-9.773793817E-2,4.727107286E-2,3.994738683E-3
9.674015100E-1,-1.019989923E-1,4.833633825E-2,2.929474926E-3
9.698890620E-1,-1.030642539E-1,4.940159991E-2,1.864211401E-3
9.723766140E-1,-1.041295230E-1,5.046686530E-2,1.864211401E-3
9.748641660E-1,-1.030642539E-1,5.046686530E-2,7.989477599E-4
9.773517180E-1,-1.009337306E-1,4.940159991E-2,7.989477599E-4
9.798392700E-1,-9.667267650E-2,4.833633825E-2,7.989477599E-4
9.823268220E-1,-9.134636074E-2,4.620581120E-2,7.989477599E-4
9.848143740E-1,-8.495477587E-2,4.407528415E-2,7.989477599E-4
9.873019270E-1,-7.749792933E-2,4.194475710E-2,1.864211401E-3
9.897894790E-1,-6.897582114E-2,3.981423005E-2,2.929474926E-3
9.922770310E-1,-6.045371294E-2,3.661843762E-2,3.994738683E-3
9.947645830E-1,-5.193160102E-2,3.235738352E-2,5.060002208E-3
9.972521350E-1,-4.127896577E-2,2.809632942E-2,7.190529723E-3
9.997396870E-1,-3.275685757E-2,2.383527346E-2,8.255792782E-3
1.002227239E0,-2.530001104E-2,1.957421936E-2,1.038632076E-2
1.004714791E0,-1.890842989E-2,1.531316526E-2,1.358211134E-2
1.007202343E0,-1.464737486E-2,9.986846708E-3,1.571263932E-2
1.009689895E0,-1.145158429E-2,4.660528619E-3,1.890842989E-2
1.012177447E0,-1.038632076E-2,-6.657897611E-4,2.103895694E-2
1.014664999E0,-1.038632076E-2,-7.057371549E-3,2.316948399E-2
1.017152552E0,-1.145158429E-2,-1.238369010E-2,2.423474751E-2
1.019640104E0,-1.251684781E-2,-1.771000773E-2,2.636527456E-2
1.022127656E0,-1.358211134E-2,-2.090579830E-2,2.849580161E-2
1.024615208E0,-1.571263932E-2,-2.303632535E-2,2.956106514E-2
1.027102760E0,-1.997369342E-2,-2.303632535E-2,3.062633052E-2
1.029590312E0,-2.423474751E-2,-1.984053478E-2,3.062633052E-2
1.032077864E0,-2.956106514E-2,-1.557948068E-2,2.956106514E-2
1.034565416E0,-3.488738462E-2,-9.187898599E-3,2.743053809E-2
1.037052968E0,-4.127896577E-2,-1.731053460E-3,2.530001104E-2
1.039540520E0,-4.980107397E-2,6.791055668E-3,2.210422046E-2
1.042028072E0,-5.725792050E-2,1.744369231E-2,1.890842989E-2
1.044515624E0,-6.471476704E-2,2.703106403E-2,1.677790284E-2
1.047003177E0,-7.217161357E-2,3.661843762E-2,1.464737486E-2
1.049490729E0,-7.962846011E-2,4.727107286E-2,1.251684781E-2
1.051978281E0,-8.708529919E-2,5.579318479E-2,1.145158429E-2
1.054465833E0,-9.454214573E-2,6.538055837E-2,9.321057238E-3
1.056953385E0,-1.019989923E-1,7.283740491E-2,8.255792782E-3
1.059440937E0,-1.073253155E-1,8.029424399E-2,6.125265732E-3
1.061928489E0,-1.137168929E-1,8.668582886E-2,5.060002208E-3
1.064416041E0,-1.190432087E-1,9.094688296E-2,2.929474926E-3
1.066903593E0,-1.233042628E-1,9.520793706E-2,2.929474926E-3
1.069391145E0,-1.243695319E-1,9.627319872E-2,2.929474926E-3
1.071878697E0,-1.254348010E-1,9.733846784E-2,2.929474926E-3
1.074366249E0,-1.233042628E-1,9.627319872E-2,2.929474926E-3
1.076853802E0,-1.190432087E-1,9.414267540E-2,2.929474926E-3
1.079341354E0,-1.147821546E-1,9.094688296E-2,3.994738683E-3
1.081828906E0,-1.073253155E-1,8.881635964E-2,5.060002208E-3
1.084316458E0,-9.773793817E-2,8.455529809E-2,7.190529723E-3
1.086804010E0,-8.708529919E-2,8.135951310E-2,8.255792782E-3
1.089291562E0,-7.749792933E-2,7.709845901E-2,9.321057238E-3
1.091779166E0,-6.578002870E-2,7.283740491E-2,9.321057238E-3
1.094266770E0,-5.512739345E-2,6.964161247E-2,1.145158429E-2
1.096754374E0,-4.340949282E-2,6.644582003E-2,1.145158429E-2
1.099241979E0,-3.169159219E-2,6.218476593E-2,1.251684781E-2
1.101729583E0,-2.210422046E-2,5.792371184E-2,1.358211134E-2
1.104217187E0,-1.145158429E-2,5.472791940E-2,1.464737486E-2
1.106704791E0,-1.864211401E-3,5.153212696E-2,1.571263932E-2
1.109192395E0,7.723161485E-3,4.940159991E-2,1.677790284E-2
1.111679999E0,1.518000662E-2,4.940159991E-2,1.890842989E-2
1.114167604E0,2.263685316E-2,4.940159991E-2,1.997369342E-2
1.116655208E0,2.689790726E-2,4.940159991E-2,2.210422046E-2
1.119142812E0,3.115896136E-2,5.046686530E-2,2.423474751E-2
1.121630416E0,3.328948840E-2,5.153212696E-2,2.530001104E-2
1.124118020E0,3.222422674E-2,5.153212696E-2,2.743053809E-2
1.126605624E0,3.009369783E-2,5.153212696E-2,2.849580161E-2
1.129093229E0,2.689790726E-2,4.940159991E-2,2.956106514E-2
1.131580833E0,2.263685316E-2,4.727107286E-2,3.275685757E-2
1.134068437E0,1.731053367E-2,4.407528415E-2,3.382211924E-2
1.136556041E0,1.304947957E-2,4.194475710E-2,3.595264629E-2
1.139043645E0,7.723161485E-3,4.194475710E-2,3.701791167E-2
1.141531249E0,4.527370445E-3,4.194475710E-2,3.808317333E-2
1.144018854E0,2.663159103E-4,4.407528415E-2,3.914843872E-2
1.146506458E0,-1.864211401E-3,4.833633825E-2,3.914843872E-2
1.148994062E0,-3.994738683E-3,5.472791940E-2,3.808317333E-2
1.151481666E0,-5.060002208E-3,6.005423889E-2,3.808317333E-2
1.153969270E0,-5.060002208E-3,6.644582003E-2,3.701791167E-2
1.156456874E0,-3.994738683E-3,7.283740491E-2,3.488738462E-2
1.158944479E0,-3.994738683E-3,8.029424399E-2,3.382211924E-2
1.161432083E0,-1.864211401E-3,8.668582886E-2,3.275685757E-2
1.163919687E0,2.663159103E-4,9.307741374E-2,3.062633052E-2
1.166407291E0,1.331579522E-3,9.946899116E-2,3.062633052E-2
1.168894895E0,3.462106921E-3,1.058605760E-1,2.956106514E-2
1.171382499E0,6.657897960E-3,1.111868918E-1,2.956106514E-2
1.173870104E0,1.091895252E-2,1.165132076E-1,2.956106514E-2
1.176357708E0,1.411474310E-2,1.207742617E-1,3.169159219E-2
1.178845312E0,1.837579720E-2,1.218395308E-1,3.382211924E-2
1.181332916E0,2.370211668E-2,1.218395308E-1,3.595264629E-2
1.183820520E0,2.796317078E-2,1.197090000E-1,3.914843872E-2
1.186308124E0,3.222422674E-2,1.154479459E-1,4.234423116E-2
1.188795729E0,3.542001545E-2,1.101216301E-1,4.660528526E-2
1.191283281E0,3.968106955E-2,1.037300453E-1,5.086633936E-2
1.193770833E0,4.287686199E-2,9.627319872E-2,5.512739345E-2
1.196258385E0,4.713791609E-2,8.668582886E-2,5.938844755E-2
1.198745937E0,5.033370852E-2,7.603318989E-2,6.364950538E-2
1.201233489E0,5.459476262E-2,6.538055837E-2,6.791055948E-2
1.203721041E0,5.779055133E-2,5.366265774E-2,7.110634446E-2
1.206208593E0,6.311687082E-2,4.087949172E-2,7.430213690E-2
1.208696145E0,6.950845569E-2,2.809632942E-2,7.643266767E-2
1.211183697E0,7.590003312E-2,1.531316526E-2,7.856319100E-2
1.213671249E0,8.335687965E-2,2.530001104E-3,7.962846011E-2
1.216158802E0,8.974846452E-2,-9.187898599E-3,8.175898343E-2
1.218646354E0,9.720530361E-2,-2.090579830E-2,7.962846011E-2
1.221133906E0,1.035968885E-1,-3.049317189E-2,7.856319100E-2
1.223621458E0,1.078579426E-1,-3.901528195E-2,7.643266767E-2
1.226109010E0,1.121189967E-1,-4.753739014E-2,7.323687524E-2
1.228596562E0,1.153147891E-1,-5.286370963E-2,7.004108280E-2
1.231084114E0,1.163800508E-1,-5.712476373E-2,6.684529036E-2
1.233571666E0,1.174453199E-1,-6.032055244E-2,6.364950538E-2
1.236059218E0,1.174453199E-1,-6.138581783E-2,5.938844755E-2
1.238546770E0,1.153147891E-1,-6.032055244E-2,5.512739345E-2
1.241034322E0,1.110537350E-1,-5.819002539E-2,5.086633936E-2
1.243521874E0,1.057274193E-1,-5.499423668E-2,4.554001987E-2
1.246009427E0,9.933583438E-2,-5.073318258E-2,4.234423116E-2
1.248496979E0,9.081372619E-2,-4.647212476E-2,3.701791167E-2
1.250984531E0,8.016108721E-2,-4.008054361E-2,3.169159219E-2
1.253472083E0,6.737792492E-2,-3.475422785E-2,2.743053809E-2
1.255959635E0,5.459476262E-2,-2.729738131E-2,2.210422046E-2
1.258447187E0,3.968106955E-2,-1.877527125E-2,1.784316637E-2
1.260934739E0,2.476738021E-2,-8.122635074E-3,1.358211134E-2
1.263422291E0,9.853689000E-3,2.530001104E-3,9.321057238E-3
1.265909843E0,-5.060002208E-3,1.424790081E-2,5.060002208E-3
1.268397395E0,-1.784316637E-2,2.596580051E-2,1.864211401E-3
1.270884947E0,-2.849580161E-2,3.981423005E-2,-1.331579522E-3
1.273372499E0,-3.701791167E-2,5.366265774E-2,-4.527370445E-3
1.275860052E0,-4.340949282E-2,6.751108170E-2,-6.657897960E-3
1.278347604E0,-4.873581231E-2,8.242477477E-2,-8.788425475E-3
1.280835156E0,-5.193160102E-2,9.627319872E-2,-1.198421605E-2
1.283322708E0,-5.299686641E-2,1.090563685E-1,-1.304947957E-2
1.285810260E0,-5.299686641E-2,1.197090000E-1,-1.411474310E-2
1.288297812E0,-4.980107397E-2,1.282311082E-1,-1.518000662E-2
1.290785364E0,-4.554001987E-2,1.346226931E-1,-1.518000662E-2
1.293272916E0,-4.127896577E-2,1.378184855E-1,-1.518000662E-2
1.295760468E0,-3.275685757E-2,1.388837546E-1,-1.518000662E-2
1.298248020E0,-2.530001104E-2,1.388837546E-1,-1.518000662E-2
1.300735572E0,-1.784316637E-2,1.378184855E-1,-1.518000662E-2
1.303223124E0,-9.321057238E-3,1.346226931E-1,-1.624527015E-2
1.305710677E0,-7.989477599E-4,1.314269006E-1,-1.624527015E-2
1.308198229E0,8.788425475E-3,1.271658540E-1,-1.731053367E-2
1.310685781E0,1.731053367E-2,1.207742617E-1,-1.731053367E-2
1.313173333E0,2.583264373E-2,1.143826842E-1,-1.837579720E-2
1.315660885E0,3.222422674E-2,1.090563685E-1,-1.837579720E-2
1.318148437E0,3.861580789E-2,1.026647836E-1,-1.837579720E-2
1.320635989E0,4.394212365E-2,9.733846784E-2,-1.944106072E-2
1.323123541E0,4.926844314E-2,9.094688296E-2,-1.944106072E-2
1.325611093E0,5.459476262E-2,8.562056720E-2,-1.944106072E-2
1.328098645E0,5.885581672E-2,8.029424399E-2,-1.944106072E-2
1.330586197E0,6.098634377E-2,7.603318989E-2,-1.837579720E-2
1.333073749E0,6.311687082E-2,7.070687413E-2,-1.837579720E-2
1.335561302E0,6.524740160E-2,6.644582003E-2,-1.731053367E-2
1.338048854E0,6.524740160E-2,6.111950055E-2,-1.624527015E-2
1.340536406E0,6.524740160E-2,5.685844645E-2,-1.624527015E-2
1.343023958E0,6.418213248E-2,5.259739235E-2,-1.624527015E-2
1.345511510E0,6.311687082E-2,4.940159991E-2,-1.518000662E-2
1.347999114E0,6.205160543E-2,4.514054582E-2,-1.411474310E-2
1.350486718E0,5.885581672E-2,4.194475710E-2,-1.304947957E-2
1.352974322E0,5.672528967E-2,3.981423005E-2,-1.198421605E-2
1.355461927E0,5.246423557E-2,3.768370301E-2,-1.091895252E-2
1.357949531E0,4.926844314E-2,3.555317223E-2,-9.853689000E-3
1.360437135E0,4.394212365E-2,3.448791057E-2,-8.788425475E-3
1.362924739E0,3.861580789E-2,3.448791057E-2,-6.657897960E-3
1.365412343E0,3.435475379E-2,3.448791057E-2,-5.592633970E-3
1.367899947E0,3.009369783E-2,3.448791057E-2,-3.462106921E-3
1.370387552E0,2.476738021E-2,3.661843762E-2,-3.462106921E-3
1.372875156E0,2.157158963E-2,3.981423005E-2,-2.396843163E-3
1.375362760E0,1.944106072E-2,4.301001877E-2,-2.663159103E-4
1.377850364E0,1.731053367E-2,4.620581120E-2,7.989477599E-4
1.380337968E0,1.731053367E-2,4.940159991E-2,1.864211401E-3
1.382825572E0,1.731053367E-2,5.259739235E-2,3.994738683E-3
1.385313177E0,1.624527015E-2,5.472791940E-2,7.190529723E-3
1.387800781E0,1.624527015E-2,5.685844645E-2,8.255792782E-3
1.390288385E0,1.731053367E-2,5.792371184E-2,9.321057238E-3
1.392775989E0,1.731053367E-2,6.005423889E-2,1.038632076E-2
1.395263593E0,1.624527015E-2,5.898897350E-2,1.251684781E-2
1.397751197E0,1.624527015E-2,5.898897350E-2,1.358211134E-2
1.400238802E0,1.624527015E-2,5.898897350E-2,1.571263932E-2
1.402726406E0,1.731053367E-2,5.898897350E-2,1.784316637E-2
1.405214010E0,1.837579720E-2,5.898897350E-2,1.997369342E-2
1.407701614E0,2.050632425E-2,6.005423889E-2,2.210422046E-2
1.410189218E0,2.263685316E-2,6.005423889E-2,2.423474751E-2
1.412676822E0,2.583264373E-2,6.111950055E-2,2.636527456E-2
1.415164427E0,3.009369783E-2,6.005423889E-2,2.956106514E-2
1.417652031E0,3.328948840E-2,6.005423889E-2,3.169159219E-2
1.420139635E0,3.755054250E-2,6.005423889E-2,3.488738462E-2
1.422627239E0,4.074633494E-2,5.792371184E-2,3.701791167E-2
1.425114843E0,4.500738904E-2,5.579318479E-2,4.021370411E-2
1.427602447E0,4.820318148E-2,5.153212696E-2,4.447475821E-2
1.430090052E0,4.926844314E-2,4.514054582E-2,4.767054692E-2
1.432577656E0,5.033370852E-2,3.874896467E-2,5.086633936E-2
1.435065260E0,4.926844314E-2,3.129211813E-2,5.406212807E-2
1.437552864E0,4.713791609E-2,2.277000993E-2,5.619265884E-2
1.440040468E0,4.394212365E-2,1.211737376E-2,5.725792050E-2
1.442528072E0,3.968106955E-2,2.530001104E-3,5.832318589E-2
1.445015677E0,3.435475379E-2,-8.122635074E-3,5.832318589E-2
1.447503229E0,2.902843431E-2,-1.664474420E-2,5.832318589E-2
1.449990781E0,2.263685316E-2,-2.516685426E-2,5.832318589E-2
1.452478333E0,1.624527015E-2,-3.262370080E-2,5.832318589E-2
1.454965885E0,9.853689000E-3,-3.901528195E-2,5.619265884E-2
1.457453437E0,4.527370445E-3,-4.327633604E-2,5.512739345E-2
1.459940989E0,-2.929474926E-3,-4.540686309E-2,5.299686641E-2
1.462428541E0,-9.321057238E-3,-4.540686309E-2,5.086633936E-2
1.464916093E0,-1.571263932E-2,-4.327633604E-2,4.873581231E-2
1.467403645E0,-2.316948399E-2,-4.008054361E-2,4.447475821E-2
1.469891197E0,-2.956106514E-2,-3.475422785E-2,4.127896577E-2
1.472378749E0,-3.701791167E-2,-2.836264484E-2,3.701791167E-2
1.474866302E0,-4.127896577E-2,-2.090579830E-2,3.382211924E-2
1.477353854E0,-4.660528526E-2,-1.238369010E-2,2.956106514E-2
1.479841406E0,-5.193160102E-2,-3.861580743E-3,2.743053809E-2
1.482328958E0,-5.725792050E-2,4.660528619E-3,2.423474751E-2
1.484816510E0,-6.151897460E-2,1.318263728E-2,2.103895694E-2
1.487304062E0,-6.578002870E-2,2.277000993E-2,1.784316637E-2
1.489791614E0,-6.897582114E-2,3.129211813E-2,1.358211134E-2
1.492279166E0,-7.323687524E-2,3.981423005E-2,1.038632076E-2
1.494766718E0,-7.536740601E-2,4.727107286E-2,8.255792782E-3
1.497254270E0,-7.856319100E-2,5.259739235E-2,7.190529723E-3
1.499741822E0,-8.069372177E-2,5.685844645E-2,6.125265732E-3
1.502229374E0,-8.175898343E-2,5.792371184E-2,3.994738683E-3
1.504716927E0,-8.282424510E-2,5.898897350E-2,1.864211401E-3
1.507204479E0,-8.388951421E-2,5.685844645E-2,7.989477599E-4
1.509692031E0,-8.388951421E-2,5.366265774E-2,-1.331579522E-3
1.512179583E0,-8.495477587E-2,4.940159991E-2,-1.331579522E-3
1.514667135E0,-8.495477587E-2,4.514054582E-2,-2.396843163E-3
1.517154687E0,-8.388951421E-2,4.087949172E-2,-2.396843163E-3
1.519642239E0,-8.175898343E-2,3.555317223E-2,-1.331579522E-3
1.522129791E0,-7.962846011E-2,3.022685647E-2,7.989477599E-4
1.524617343E0,-7.749792933E-2,2.703106403E-2,2.929474926E-3
1.527104895E0,-7.536740601E-2,2.277000993E-2,5.060002208E-3
1.529592447E0,-7.323687524E-2,1.850895584E-2,6.125265732E-3
1.532079999E0,-7.110634446E-2,1.318263728E-2,8.255792782E-3
1.534567552E0,-7.004108280E-2,8.921583183E-3,1.038632076E-2
1.537055104E0,-6.791055948E-2,2.530001104E-3,1.038632076E-2
1.539542656E0,-6.578002870E-2,-2.796316985E-3,1.145158429E-2
1.542030208E0,-6.364950538E-2,-9.187898599E-3,1.358211134E-2
1.544517760E0,-6.151897460E-2,-1.451421715E-2,1.464737486E-2
1.547005312E0,-5.832318589E-2,-1.984053478E-2,1.571263932E-2
1.549492864E0,-5.512739345E-2,-2.410159074E-2,1.677790284E-2
1.551980416E0,-5.086633936E-2,-2.836264484E-2,1.784316637E-2
1.554467968E0,-4.767054692E-2,-3.155843541E-2,1.677790284E-2
1.556955520E0,-4.234423116E-2,-3.368896246E-2,1.784316637E-2
1.559443072E0,-3.701791167E-2,-3.688475490E-2,1.890842989E-2
1.561930624E0,-3.275685757E-2,-4.008054361E-2,1.890842989E-2
1.564418177E0,-2.956106514E-2,-4.221107066E-2,1.784316637E-2
1.566905729E0,-2.530001104E-2,-4.434159771E-2,1.784316637E-2
1.569393281E0,-2.210422046E-2,-4.540686309E-2,1.677790284E-2
1.571880833E0,-1.890842989E-2,-4.753739014E-2,1.677790284E-2
1.574368385E0,-1.677790284E-2,-4.753739014E-2,1.464737486E-2
1.576855937E0,-1.464737486E-2,-4.647212476E-2,1.358211134E-2
1.579343489E0,-1.145158429E-2,-4.327633604E-2,1.038632076E-2
1.581831041E0,-9.321057238E-3,-3.901528195E-2,9.321057238E-3
1.584318593E0,-7.190529723E-3,-3.262370080E-2,7.190529723E-3
1.586806145E0,-6.125265732E-3,-2.516685426E-2,6.125265732E-3
1.589293697E0,-5.060002208E-3,-1.664474420E-2,3.994738683E-3
1.591781249E0,-5.060002208E-3,-7.057371549E-3,1.864211401E-3
1.594268802E0,-5.060002208E-3,4.660528619E-3,-1.331579522E-3
1.596756354E0,-6.125265732E-3,1.424790081E-2,-3.462106921E-3
1.599243906E0,-6.125265732E-3,2.383527346E-2,-5.592633970E-3
1.601731458E0,-7.190529723E-3,3.342264518E-2,-8.788425475E-3
1.604219010E0,-1.038632076E-2,3.981423005E-2,-1.091895252E-2
1.606706614E0,-1.358211134E-2,4.727107286E-2,-1.198421605E-2
1.609194218E0,-1.784316637E-2,5.366265774E-2,-1.411474310E-2
1.611681822E0,-2.103895694E-2,5.792371184E-2,-1.518000662E-2
1.614169427E0,-2.530001104E-2,6.218476593E-2,-1.624527015E-2
1.616657031E0,-2.849580161E-2,6.751108170E-2,-1.837579720E-2
1.619144635E0,-3.169159219E-2,7.177213579E-2,-1.837579720E-2
1.621632239E0,-3.382211924E-2,7.496792823E-2,-2.050632425E-2
1.624119843E0,-3.701791167E-2,7.816372067E-2,-2.157158963E-2
1.626607447E0,-3.914843872E-2,8.135951310E-2,-2.157158963E-2
1.629095052E0,-4.127896577E-2,8.242477477E-2,-2.157158963E-2
1.631582656E0,-4.340949282E-2,8.349003643E-2,-2.263685316E-2
1.634070260E0,-4.447475821E-2,8.455529809E-2,-2.263685316E-2
1.636557864E0,-4.660528526E-2,8.349003643E-2,-2.263685316E-2
1.639045468E0,-4.767054692E-2,8.349003643E-2,-2.263685316E-2
1.641533072E0,-4.767054692E-2,8.242477477E-2,-2.157158963E-2
1.644020677E0,-4.767054692E-2,8.135951310E-2,-1.944106072E-2
1.646508281E0,-4.554001987E-2,8.029424399E-2,-1.837579720E-2
1.648995885E0,-4.340949282E-2,7.922898233E-2,-1.624527015E-2
1.651483489E0,-4.021370411E-2,7.922898233E-2,-1.518000662E-2
1.653971093E0,-3.595264629E-2,8.029424399E-2,-1.304947957E-2
1.656458697E0,-3.062633052E-2,8.029424399E-2,-1.091895252E-2
1.658946302E0,-2.743053809E-2,8.029424399E-2,-8.788425475E-3
1.661433906E0,-2.423474751E-2,8.029424399E-2,-5.592633970E-3
1.663921510E0,-2.210422046E-2,7.922898233E-2,-2.396843163E-3
1.666409114E0,-2.103895694E-2,7.496792823E-2,-2.663159103E-4
1.668896718E0,-2.103895694E-2,7.177213579E-2,2.929474926E-3
1.671384322E0,-2.210422046E-2,6.644582003E-2,5.060002208E-3
1.673871927E0,-2.530001104E-2,5.898897350E-2,8.255792782E-3
1.676359531E0,-2.743053809E-2,5.153212696E-2,1.038632076E-2
1.678847135E0,-3.062633052E-2,4.407528415E-2,1.251684781E-2
1.681334739E0,-3.488738462E-2,3.768370301E-2,1.571263932E-2
1.683822343E0,-3.808317333E-2,3.022685647E-2,1.890842989E-2
1.686309947E0,-4.127896577E-2,2.490053698E-2,2.103895694E-2
1.688797552E0,-4.554001987E-2,2.063948289E-2,2.423474751E-2
1.691285156E0,-4.873581231E-2,1.637842879E-2,2.636527456E-2
1.693772760E0,-5.193160102E-2,1.318263728E-2,2.743053809E-2
1.696260364E0,-5.619265884E-2,1.211737376E-2,2.849580161E-2
1.698747968E0,-5.938844755E-2,1.105211023E-2,2.849580161E-2
1.701235572E0,-6.258423626E-2,1.105211023E-2,2.849580161E-2
1.703723124E0,-6.578002870E-2,1.211737376E-2,2.743053809E-2
1.706210677E0,-6.684529036E-2,1.318263728E-2,2.636527456E-2
1.708698229E0,-6.897582114E-2,1.424790081E-2,2.636527456E-2
1.711185781E0,-7.004108280E-2,1.637842879E-2,2.530001104E-2
1.713673333E0,-6.897582114E-2,1.850895584E-2,2.423474751E-2
1.716160885E0,-6.791055948E-2,2.170474641E-2,2.316948399E-2
1.718648437E0,-6.471476704E-2,2.703106403E-2,2.316948399E-2
1.721135989E0,-6.258423626E-2,3.129211813E-2,2.103895694E-2
1.723623541E0,-5.832318589E-2,3.768370301E-2,1.997369342E-2
1.726111093E0,-5.299686641E-2,4.301001877E-2,1.890842989E-2
1.728598645E0,-4.767054692E-2,4.833633825E-2,1.784316637E-2
1.731086197E0,-4.234423116E-2,5.259739235E-2,1.784316637E-2
1.733573749E0,-3.488738462E-2,5.579318479E-2,1.784316637E-2
1.736061302E0,-2.849580161E-2,5.792371184E-2,1.784316637E-2
1.738548854E0,-2.103895694E-2,5.898897350E-2,1.677790284E-2
1.741036406E0,-1.571263932E-2,5.898897350E-2,1.571263932E-2
1.743523958E0,-9.321057238E-3,5.898897350E-2,1.464737486E-2
1.746011510E0,-2.929474926E-3,5.685844645E-2,1.358211134E-2
1.748499062E0,2.396843163E-3,5.472791940E-2,1.145158429E-2
1.750986614E0,8.788425475E-3,5.046686530E-2,9.321057238E-3
1.753474166E0,1.518000662E-2,4.620581120E-2,8.255792782E-3
1.755961718E0,2.157158963E-2,4.301001877E-2,7.190529723E-3
1.758449270E0,2.689790726E-2,4.087949172E-2,6.125265732E-3
1.760936822E0,3.328948840E-2,3.981423005E-2,5.060002208E-3
1.763424374E0,3.755054250E-2,3.874896467E-2,5.060002208E-3
1.765911927E0,4.287686199E-2,3.981423005E-2,3.994738683E-3
1.768399479E0,4.820318148E-2,4.087949172E-2,3.994738683E-3
1.770887031E0,5.246423557E-2,4.301001877E-2,3.994738683E-3
1.773374583E0,5.566002429E-2,4.514054582E-2,3.994738683E-3
1.775862135E0,5.779055133E-2,4.620581120E-2,3.994738683E-3
1.778349687E0,5.992107838E-2,4.727107286E-2,5.060002208E-3
1.780837239E0,6.098634377E-2,4.620581120E-2,5.060002208E-3
1.783324791E0,6.098634377E-2,4.514054582E-2,5.060002208E-3
1.785812343E0,6.098634377E-2,4.301001877E-2,6.125265732E-3
1.788299895E0,5.992107838E-2,4.087949172E-2,7.190529723E-3
1.790787447E0,5.885581672E-2,3.768370301E-2,7.190529723E-3
1.793274999E0,5.779055133E-2,3.555317223E-2,7.190529723E-3
1.795762552E0,5.779055133E-2,3.129211813E-2,7.190529723E-3
1.798250104E0,5.779055133E-2,2.916159295E-2,8.255792782E-3
1.800737656E0,5.779055133E-2,2.809632942E-2,8.255792782E-3
1.803225208E0,5.672528967E-2,2.809632942E-2,8.255792782E-3
1.805712760E0,5.566002429E-2,2.703106403E-2,8.255792782E-3
1.808200312E0,5.246423557E-2,2.809632942E-2,1.038632076E-2
1.810687864E0,5.033370852E-2,2.916159295E-2,1.145158429E-2
1.813175416E0,4.713791609E-2,3.022685647E-2,1.251684781E-2
1.815662968E0,4.181159660E-2,3.235738352E-2,1.251684781E-2
1.818150520E0,3.755054250E-2,3.448791057E-2,1.464737486E-2
1.820638072E0,3.115896136E-2,3.555317223E-2,1.571263932E-2
1.823125624E0,2.370211668E-2,3.661843762E-2,1.677790284E-2
1.825613177E0,1.624527015E-2,3.768370301E-2,1.784316637E-2
1.828100729E0,7.723161485E-3,3.874896467E-2,1.890842989E-2
1.830588281E0,-7.989477599E-4,3.874896467E-2,1.997369342E-2
1.833075833E0,-9.321057238E-3,3.874896467E-2,2.103895694E-2
1.835563385E0,-1.677790284E-2,3.874896467E-2,2.210422046E-2
1.838050937E0,-2.423474751E-2,3.981423005E-2,2.316948399E-2
1.840538489E0,-3.062633052E-2,4.087949172E-2,2.210422046E-2
1.843026041E0,-3.595264629E-2,4.301001877E-2,2.210422046E-2
1.845513593E0,-4.127896577E-2,4.620581120E-2,2.210422046E-2
1.848001145E0,-4.554001987E-2,5.153212696E-2,2.103895694E-2
1.850488697E0,-4.873581231E-2,5.579318479E-2,1.997369342E-2
1.852976249E0,-5.193160102E-2,6.005423889E-2,1.890842989E-2
1.855463802E0,-5.406212807E-2,6.431528926E-2,1.890842989E-2
1.857951354E0,-5.619265884E-2,6.751108170E-2,1.784316637E-2
1.860438906E0,-5.725792050E-2,6.964161247E-2,1.571263932E-2
1.862926510E0,-5.725792050E-2,7.283740491E-2,1.464737486E-2
1.865414114E0,-5.725792050E-2,7.496792823E-2,1.358211134E-2
1.867901718E0,-5.725792050E-2,7.603318989E-2,1.251684781E-2
1.870389322E0,-5.512739345E-2,7.603318989E-2,1.145158429E-2
1.872876927E0,-5.193160102E-2,7.603318989E-2,1.038632076E-2
1.875364531E0,-4.873581231E-2,7.496792823E-2,9.321057238E-3
1.877852135E0,-4.447475821E-2,7.390266657E-2,9.321057238E-3
1.880339739E0,-4.021370411E-2,7.283740491E-2,9.321057238E-3
1.882827343E0,-3.488738462E-2,7.283740491E-2,9.321057238E-3
1.885314947E0,-2.956106514E-2,7.283740491E-2,1.038632076E-2
1.887802552E0,-2.423474751E-2,7.283740491E-2,1.145158429E-2
1.890290156E0,-1.784316637E-2,7.177213579E-2,1.251684781E-2
1.892777760E0,-1.358211134E-2,7.177213579E-2,1.358211134E-2
1.895265364E0,-8.255792782E-3,7.070687413E-2,1.571263932E-2
1.897752968E0,-3.994738683E-3,6.964161247E-2,1.677790284E-2
1.900240572E0,2.663159103E-4,6.751108170E-2,1.784316637E-2
1.902728177E0,4.527370445E-3,6.644582003E-2,1.890842989E-2
1.905215781E0,6.657897960E-3,6.325002760E-2,1.890842989E-2
1.907703385E0,8.788425475E-3,5.898897350E-2,1.890842989E-2
1.910190989E0,9.853689000E-3,5.366265774E-2,1.890842989E-2
1.912678593E0,9.853689000E-3,4.833633825E-2,1.890842989E-2
1.915166197E0,9.853689000E-3,4.301001877E-2,1.784316637E-2
1.917653802E0,9.853689000E-3,3.874896467E-2,1.784316637E-2
1.920141406E0,1.091895252E-2,3.448791057E-2,1.677790284E-2
1.922629010E0,1.091895252E-2,3.022685647E-2,1.571263932E-2
1.925116614E0,9.853689000E-3,2.809632942E-2,1.571263932E-2
1.927604218E0,9.853689000E-3,2.490053698E-2,1.571263932E-2
1.930091822E0,9.853689000E-3,2.383527346E-2,1.464737486E-2
1.932579427E0,8.788425475E-3,2.277000993E-2,1.358211134E-2
1.935067031E0,6.657897960E-3,2.170474641E-2,1.251684781E-2
1.937554635E0,4.527370445E-3,2.063948289E-2,1.038632076E-2
1.940042239E0,2.396843163E-3,1.957421936E-2,9.321057238E-3
1.942529843E0,-7.989477599E-4,1.850895584E-2,8.255792782E-3
1.945017447E0,-2.929474926E-3,1.637842879E-2,8.255792782E-3
1.947505052E0,-6.125265732E-3,1.318263728E-2,7.190529723E-3
1.949992656E0,-8.255792782E-3,9.986846708E-3,6.125265732E-3
1.952480260E0,-1.145158429E-2,7.856319658E-3,5.060002208E-3
1.954967864E0,-1.358211134E-2,5.725792143E-3,3.994738683E-3
1.957455468E0,-1.571263932E-2,3.595264861E-3,3.994738683E-3
1.959943020E0,-1.890842989E-2,2.530001104E-3,3.994738683E-3
1.962430572E0,-2.103895694E-2,1.464737463E-3,2.929474926E-3
1.964918124E0,-2.530001104E-2,3.994738800E-4,7.989477599E-4
1.967405677E0,-3.062633052E-2,-1.731053460E-3,7.989477599E-4
1.969893229E0,-3.701791167E-2,-4.926844500E-3,-2.663159103E-4
1.972380781E0,-4.234423116E-2,-8.122635074E-3,-1.331579522E-3
1.974868333E0,-4.767054692E-2,-1.131842658E-2,-2.396843163E-3
1.977355885E0,-5.299686641E-2,-1.344895363E-2,-2.396843163E-3
1.979843437E0,-5.725792050E-2,-1.451421715E-2,-2.396843163E-3
1.982330989E0,-6.045371294E-2,-1.344895363E-2,-2.396843163E-3
1.984818541E0,-6.364950538E-2,-1.131842658E-2,-4.527370445E-3
1.987306093E0,-6.578002870E-2,-9.187898599E-3,-4.527370445E-3
1.989793645E0,-6.578002870E-2,-5.992108025E-3,-4.527370445E-3
1.992281197E0,-6.684529036E-2,3.994738800E-4,-5.592633970E-3
1.994768749E0,-6.791055948E-2,5.725792143E-3,-5.592633970E-3
1.997256302E0,-6.684529036E-2,1.211737376E-2,-4.527370445E-3
1.999743854E0,-6.578002870E-2,1.637842879E-2,-2.396843163E-3
2.002231406E0,-6.471476704E-2,2.063948289E-2,-1.331579522E-3
2.004718958E0,-6.151897460E-2,2.277000993E-2,-2.663159103E-4
2.007206510E0,-6.045371294E-2,2.490053698E-2,7.989477599E-4
2.009694062E0,-5.832318589E-2,2.596580051E-2,1.864211401E-3
2.012181614E0,-5.725792050E-2,2.596580051E-2,3.994738683E-3
2.014669166E0,-5.512739345E-2,2.490053698E-2,6.125265732E-3
2.017156718E0,-5.193160102E-2,2.277000993E-2,9.321057238E-3
2.019644270E0,-5.086633936E-2,2.063948289E-2,1.038632076E-2
2.022131822E0,-4.980107397E-2,1.637842879E-2,1.251684781E-2
2.024619374E0,-4.767054692E-2,1.211737376E-2,1.464737486E-2
2.027106927E0,-4.660528526E-2,7.856319658E-3,1.677790284E-2
2.029594479E0,-4.554001987E-2,2.530001104E-3,1.890842989E-2
2.032082031E0,-4.340949282E-2,-2.796316985E-3,2.210422046E-2
2.034569583E0,-4.234423116E-2,-7.057371549E-3,2.423474751E-2
2.037057135E0,-4.021370411E-2,-1.131842658E-2,2.530001104E-2
2.039544687E0,-3.808317333E-2,-1.451421715E-2,2.636527456E-2
2.042032239E0,-3.595264629E-2,-1.771000773E-2,2.743053809E-2
2.044519791E0,-3.275685757E-2,-2.090579830E-2,2.849580161E-2
2.047007343E0,-3.062633052E-2,-2.303632535E-2,2.849580161E-2
2.049494895E0,-2.743053809E-2,-2.516685426E-2,2.956106514E-2
2.051982447E0,-2.423474751E-2,-2.623211779E-2,3.062633052E-2
2.054469999E0,-2.103895694E-2,-2.729738131E-2,3.169159219E-2
2.056957552E0,-1.784316637E-2,-2.729738131E-2,3.169159219E-2
2.059445104E0,-1.464737486E-2,-2.729738131E-2,3.062633052E-2
2.061932656E0,-1.251684781E-2,-2.623211779E-2,2.956106514E-2
2.064420208E0,-1.145158429E-2,-2.410159074E-2,2.956106514E-2
2.066907760E0,-1.145158429E-2,-2.197106183E-2,2.743053809E-2
2.069395312E0,-1.145158429E-2,-2.090579830E-2,2.636527456E-2
2.071882864E0,-1.251684781E-2,-1.984053478E-2,2.423474751E-2
2.074370416E0,-1.464737486E-2,-1.771000773E-2,2.210422046E-2
2.076857968E0,-1.784316637E-2,-1.451421715E-2,2.103895694E-2
2.079345520E0,-1.890842989E-2,-1.238369010E-2,1.890842989E-2
2.081833072E0,-2.210422046E-2,-9.187898599E-3,1.677790284E-2
2.084320624E0,-2.530001104E-2,-4.926844500E-3,1.464737486E-2
2.086808177E0,-2.849580161E-2,3.994738800E-4,1.358211134E-2
2.089295729E0,-3.062633052E-2,4.660528619E-3,1.145158429E-2
2.091783281E0,-3.275685757E-2,9.986846708E-3,9.321057238E-3
2.094270833E0,-3.488738462E-2,1.424790081E-2,6.125265732E-3
2.096758385E0,-3.701791167E-2,1.850895584E-2,5.060002208E-3
2.099245937E0,-3.808317333E-2,2.277000993E-2,3.994738683E-3
2.101733489E0,-3.808317333E-2,2.703106403E-2,2.929474926E-3
2.104221041E0,-3.808317333E-2,3.129211813E-2,1.864211401E-3
2.106708593E0,-3.595264629E-2,3.555317223E-2,-2.663159103E-4
2.109196145E0,-3.382211924E-2,4.087949172E-2,-1.331579522E-3
2.111683697E0,-3.062633052E-2,4.727107286E-2,-1.331579522E-3
2.114171249E0,-2.743053809E-2,5.259739235E-2,-1.331579522E-3
2.116658802E0,-2.423474751E-2,5.685844645E-2,-2.663159103E-4
2.119146354E0,-2.103895694E-2,5.792371184E-2,7.989477599E-4
2.121633906E0,-1.890842989E-2,5.898897350E-2,1.864211401E-3
2.124121510E0,-1.677790284E-2,5.898897350E-2,3.994738683E-3
2.126609114E0,-1.464737486E-2,5.685844645E-2,5.060002208E-3
2.129096718E0,-1.145158429E-2,5.366265774E-2,6.125265732E-3
2.131584322E0,-9.321057238E-3,4.940159991E-2,8.255792782E-3
2.134071927E0,-8.255792782E-3,4.407528415E-2,8.255792782E-3
2.136559531E0,-6.125265732E-3,3.874896467E-2,1.038632076E-2
2.139047135E0,-3.994738683E-3,3.448791057E-2,1.251684781E-2
2.141534739E0,-1.864211401E-3,2.916159295E-2,1.358211134E-2
2.144022343E0,1.331579522E-3,2.383527346E-2,1.464737486E-2
2.146509947E0,4.527370445E-3,1.850895584E-2,1.677790284E-2
2.148997552E0,7.723161485E-3,1.424790081E-2,1.784316637E-2
2.151485156E0,1.198421605E-2,8.921583183E-3,1.997369342E-2
2.153972760E0,1.518000662E-2,3.595264861E-3,2.103895694E-2
2.156460364E0,1.731053367E-2,-6.657897611E-4,2.210422046E-2
2.158947968E0,1.944106072E-2,-4.926844500E-3,2.316948399E-2
2.161435572E0,2.050632425E-2,-9.187898599E-3,2.423474751E-2
2.163923177E0,2.263685316E-2,-1.238369010E-2,2.423474751E-2
2.166410781E0,2.476738021E-2,-1.557948068E-2,2.423474751E-2
2.168898385E0,2.583264373E-2,-1.771000773E-2,2.423474751E-2
2.171385989E0,2.689790726E-2,-1.877527125E-2,2.530001104E-2
2.173873593E0,2.689790726E-2,-1.984053478E-2,2.530001104E-2
2.176361197E0,2.689790726E-2,-1.984053478E-2,2.423474751E-2
2.178848802E0,2.476738021E-2,-1.877527125E-2,2.423474751E-2
2.181336406E0,2.263685316E-2,-1.664474420E-2,2.423474751E-2
2.183824010E0,1.944106072E-2,-1.451421715E-2,2.423474751E-2
2.186311614E0,1.518000662E-2,-1.131842658E-2,2.423474751E-2
2.188799218E0,1.091895252E-2,-8.122635074E-3,2.316948399E-2
2.191286822E0,5.592633970E-3,-4.926844500E-3,2.210422046E-2
2.193774427E0,-7.989477599E-4,-2.796316985E-3,2.103895694E-2
2.196262031E0,-7.190529723E-3,1.464737463E-3,1.997369342E-2
2.198749635E0,-1.464737486E-2,5.725792143E-3,1.784316637E-2
2.201237239E0,-2.103895694E-2,8.921583183E-3,1.677790284E-2
2.203724843E0,-2.743053809E-2,1.211737376E-2,1.571263932E-2
2.206212447E0,-3.488738462E-2,1.424790081E-2,1.571263932E-2
2.208700052E0,-4.127896577E-2,1.531316526E-2,1.464737486E-2
2.211187656E0,-4.767054692E-2,1.637842879E-2,1.464737486E-2
2.213675260E0,-5.406212807E-2,1.744369231E-2,1.251684781E-2
2.216162864E0,-5.938844755E-2,1.637842879E-2,1.145158429E-2
2.218650416E0,-6.471476704E-2,1.531316526E-2,1.038632076E-2
2.221137968E0,-7.110634446E-2,1.424790081E-2,8.255792782E-3
2.223625520E0,-7.536740601E-2,1.211737376E-2,7.190529723E-3
2.226113072E0,-8.069372177E-2,9.986846708E-3,6.125265732E-3
2.228600624E0,-8.388951421E-2,7.856319658E-3,3.994738683E-3
2.231088177E0,-8.602003753E-2,6.791055668E-3,1.864211401E-3
2.233575729E0,-8.708529919E-2,5.725792143E-3,7.989477599E-4
2.236063281E0,-8.602003753E-2,6.791055668E-3,7.989477599E-4
2.238550833E0,-8.495477587E-2,7.856319658E-3,-2.663159103E-4
2.241038385E0,-8.282424510E-2,8.921583183E-3,7.989477599E-4
2.243525937E0,-7.962846011E-2,9.986846708E-3,1.864211401E-3
2.246013489E0,-7.643266767E-2,1.105211023E-2,2.929474926E-3
2.248501041E0,-7.430213690E-2,1.211737376E-2,5.060002208E-3
2.250988593E0,-7.110634446E-2,1.318263728E-2,7.190529723E-3
2.253476145E0,-6.897582114E-2,1.318263728E-2,9.321057238E-3
2.255963697E0,-6.684529036E-2,1.211737376E-2,1.038632076E-2
2.258451249E0,-6.578002870E-2,9.986846708E-3,1.145158429E-2
2.260938802E0,-6.471476704E-2,8.921583183E-3,1.251684781E-2
2.263426354E0,-6.364950538E-2,7.856319658E-3,1.464737486E-2
2.265913906E0,-6.364950538E-2,7.856319658E-3,1.571263932E-2
2.268401458E0,-6.151897460E-2,6.791055668E-3,1.677790284E-2
2.270889010E0,-6.045371294E-2,6.791055668E-3,1.784316637E-2
2.273376562E0,-5.938844755E-2,6.791055668E-3,1.784316637E-2
2.275864114E0,-5.725792050E-2,6.791055668E-3,1.890842989E-2
2.278351666E0,-5.725792050E-2,6.791055668E-3,1.890842989E-2
2.280839218E0,-5.512739345E-2,7.856319658E-3,1.890842989E-2
2.283326770E0,-5.299686641E-2,7.856319658E-3,1.890842989E-2
2.285814322E0,-5.193160102E-2,8.921583183E-3,1.890842989E-2
2.288301874E0,-5.086633936E-2,9.986846708E-3,1.890842989E-2
2.290789427E0,-4.873581231E-2,1.105211023E-2,1.890842989E-2
2.293276979E0,-4.873581231E-2,1.211737376E-2,1.784316637E-2
2.295764531E0,-4.767054692E-2,1.211737376E-2,1.890842989E-2
2.298252083E0,-4.767054692E-2,1.211737376E-2,1.890842989E-2
2.300739635E0,-4.660528526E-2,1.318263728E-2,1.890842989E-2
2.303227187E0,-4.554001987E-2,1.318263728E-2,1.890842989E-2
2.305714739E0,-4.447475821E-2,1.424790081E-2,1.890842989E-2
2.308202291E0,-4.340949282E-2,1.531316526E-2,1.890842989E-2
2.310689843E0,-4.234423116E-2,1.637842879E-2,1.784316637E-2
2.313177395E0,-4.234423116E-2,1.744369231E-2,1.784316637E-2
2.315664947E0,-4.021370411E-2,1.957421936E-2,1.677790284E-2
2.318152499E0,-3.914843872E-2,2.170474641E-2,1.571263932E-2
2.320640052E0,-3.808317333E-2,2.383527346E-2,1.571263932E-2
2.323127604E0,-3.595264629E-2,2.490053698E-2,1.464737486E-2
2.325615156E0,-3.488738462E-2,2.703106403E-2,1.464737486E-2
2.328102708E0,-3.382211924E-2,2.809632942E-2,1.358211134E-2
2.330590260E0,-3.382211924E-2,2.916159295E-2,1.251684781E-2
2.333077812E0,-3.382211924E-2,2.916159295E-2,1.251684781E-2
2.335565364E0,-3.382211924E-2,2.809632942E-2,1.145158429E-2
2.338052916E0,-3.382211924E-2,2.809632942E-2,9.321057238E-3
2.340540468E0,-3.382211924E-2,2.809632942E-2,8.255792782E-3
2.343028020E0,-3.382211924E-2,2.809632942E-2,7.190529723E-3
2.345515572E0,-3.382211924E-2,2.916159295E-2,7.190529723E-3
2.348003124E0,-3.382211924E-2,3.022685647E-2,6.125265732E-3
2.350490677E0,-3.382211924E-2,3.022685647E-2,6.125265732E-3
2.352978229E0,-3.382211924E-2,3.022685647E-2,5.060002208E-3
2.355465781E0,-3.382211924E-2,3.022685647E-2,6.125265732E-3
2.357953333E0,-3.382211924E-2,2.916159295E-2,6.125265732E-3
2.360440885E0,-3.488738462E-2,2.809632942E-2,7.190529723E-3
2.362928437E0,-3.595264629E-2,2.490053698E-2,8.255792782E-3
2.365415989E0,-3.595264629E-2,2.063948289E-2,8.255792782E-3
2.367903541E0,-3.701791167E-2,1.637842879E-2,9.321057238E-3
2.370391093E0,-3.701791167E-2,9.986846708E-3,8.255792782E-3
2.372878645E0,-3.701791167E-2,5.725792143E-3,8.255792782E-3
2.375366197E0,-3.701791167E-2,3.994738800E-4,7.190529723E-3
2.377853749E0,-3.595264629E-2,-2.796316985E-3,7.190529723E-3
2.380341302E0,-3.488738462E-2,-5.992108025E-3,6.125265732E-3
2.382828854E0,-3.382211924E-2,-9.187898599E-3,5.060002208E-3
2.385316406E0,-3.062633052E-2,-1.131842658E-2,2.929474926E-3
2.387804010E0,-2.743053809E-2,-1.238369010E-2,1.864211401E-3
2.390291614E0,-2.530001104E-2,-1.238369010E-2,7.989477599E-4
2.392779218E0,-2.210422046E-2,-1.238369010E-2,-2.663159103E-4
2.395266822E0,-1.890842989E-2,-1.025316212E-2,-2.663159103E-4
2.397754427E0,-1.677790284E-2,-9.187898599E-3,-2.663159103E-4
2.400242031E0,-1.571263932E-2,-8.122635074E-3,-2.663159103E-4
2.402729635E0,-1.358211134E-2,-7.057371549E-3,-2.663159103E-4
2.405217239E0,-1.358211134E-2,-5.992108025E-3,-2.663159103E-4
2.407704843E0,-1.464737486E-2,-7.057371549E-3,7.989477599E-4
2.410192447E0,-1.677790284E-2,-9.187898599E-3,1.864211401E-3
2.412680052E0,-1.890842989E-2,-1.131842658E-2,2.929474926E-3
2.415167656E0,-2.210422046E-2,-1.344895363E-2,2.929474926E-3
2.417655260E0,-2.636527456E-2,-1.451421715E-2,2.929474926E-3
2.420142864E0,-2.956106514E-2,-1.557948068E-2,2.929474926E-3
2.422630468E0,-3.275685757E-2,-1.557948068E-2,2.929474926E-3
2.425118072E0,-3.595264629E-2,-1.451421715E-2,2.929474926E-3
2.427605677E0,-3.808317333E-2,-1.344895363E-2,3.994738683E-3
2.430093281E0,-3.914843872E-2,-1.131842658E-2,3.994738683E-3
2.432580885E0,-4.021370411E-2,-9.187898599E-3,5.060002208E-3
2.435068489E0,-4.021370411E-2,-8.122635074E-3,5.060002208E-3
2.437556093E0,-4.021370411E-2,-4.926844500E-3,5.060002208E-3
2.440043697E0,-3.914843872E-2,-2.796316985E-3,5.060002208E-3
2.442531302E0,-3.595264629E-2,3.994738800E-4,3.994738683E-3
2.445018906E0,-3.275685757E-2,3.595264861E-3,1.864211401E-3
2.447506510E0,-2.849580161E-2,6.791055668E-3,-1.331579522E-3
2.449994114E0,-2.423474751E-2,9.986846708E-3,-3.462106921E-3
2.452481718E0,-1.997369342E-2,1.424790081E-2,-6.657897960E-3
2.454969322E0,-1.571263932E-2,1.637842879E-2,-9.853689000E-3
2.457456927E0,-1.251684781E-2,1.850895584E-2,-1.198421605E-2
2.459944531E0,-9.321057238E-3,1.957421936E-2,-1.411474310E-2
2.462432135E0,-5.060002208E-3,2.170474641E-2,-1.624527015E-2
2.464919739E0,-7.989477599E-4,2.170474641E-2,-1.837579720E-2
2.467407343E0,1.331579522E-3,2.277000993E-2,-1.944106072E-2
2.469894947E0,4.527370445E-3,2.383527346E-2,-1.944106072E-2
2.472382552E0,6.657897960E-3,2.490053698E-2,-2.050632425E-2
2.474870156E0,8.788425475E-3,2.596580051E-2,-2.050632425E-2
2.477357760E0,9.853689000E-3,2.596580051E-2,-2.050632425E-2
2.479845312E0,1.091895252E-2,2.596580051E-2,-1.944106072E-2
2.482332864E0,9.853689000E-3,2.596580051E-2,-1.837579720E-2
2.484820416E0,9.853689000E-3,2.490053698E-2,-1.837579720E-2
2.487307968E0,9.853689000E-3,2.170474641E-2,-1.731053367E-2
2.489795520E0,8.788425475E-3,1.957421936E-2,-1.624527015E-2
2.492283072E0,8.788425475E-3,1.637842879E-2,-1.624527015E-2
2.494770624E0,7.723161485E-3,1.318263728E-2,-1.518000662E-2
2.497258177E0,6.657897960E-3,1.105211023E-2,-1.518000662E-2
2.499745729E0,6.657897960E-3,9.986846708E-3,-1.518000662E-2
2.502233281E0,6.657897960E-3,8.921583183E-3,-1.411474310E-2
2.504720833E0,6.657897960E-3,7.856319658E-3,-1.304947957E-2
2.507208385E0,6.657897960E-3,7.856319658E-3,-1.304947957E-2
2.509695937E0,6.657897960E-3,6.791055668E-3,-1.198421605E-2
2.512183489E0,6.657897960E-3,6.791055668E-3,-1.198421605E-2
2.514671041E0,6.657897960E-3,7.856319658E-3,-1.198421605E-2
2.517158593E0,6.657897960E-3,7.856319658E-3,-1.198421605E-2
2.519646145E0,6.657897960E-3,8.921583183E-3,-9.853689000E-3
2.522133697E0,7.723161485E-3,8.921583183E-3,-7.723161485E-3
2.524621249E0,8.788425475E-3,8.921583183E-3,-6.657897960E-3
2.527108802E0,1.091895252E-2,8.921583183E-3,-5.592633970E-3
2.529596354E0,1.411474310E-2,7.856319658E-3,-4.527370445E-3
2.532083906E0,1.624527015E-2,7.856319658E-3,-3.462106921E-3
2.534571458E0,1.837579720E-2,6.791055668E-3,-2.396843163E-3
2.537059010E0,2.050632425E-2,5.725792143E-3,-2.396843163E-3
2.539546562E0,2.263685316E-2,4.660528619E-3,-2.396843163E-3
2.542034114E0,2.476738021E-2,2.530001104E-3,-1.331579522E-3
2.544521666E0,2.583264373E-2,-6.657897611E-4,-2.663159103E-4
2.547009218E0,2.796317078E-2,-2.796316985E-3,-2.663159103E-4
2.549496770E0,3.009369783E-2,-7.057371549E-3,-2.663159103E-4
2.551984322E0,3.222422674E-2,-1.025316212E-2,-2.663159103E-4
2.554471874E0,3.435475379E-2,-1.451421715E-2,-1.331579522E-3
2.556959427E0,3.542001545E-2,-1.771000773E-2,-1.331579522E-3
2.559446979E0,3.755054250E-2,-1.984053478E-2,-2.396843163E-3
2.561934531E0,3.755054250E-2,-2.090579830E-2,-2.396843163E-3
2.564422083E0,3.861580789E-2,-2.303632535E-2,-3.462106921E-3
2.566909635E0,3.861580789E-2,-2.197106183E-2,-4.527370445E-3
2.569397187E0,3.755054250E-2,-2.090579830E-2,-5.592633970E-3
2.571884739E0,3.648528084E-2,-1.877527125E-2,-6.657897960E-3
2.574372291E0,3.542001545E-2,-1.557948068E-2,-6.657897960E-3
2.576859843E0,3.435475379E-2,-1.238369010E-2,-7.723161485E-3
2.579347395E0,3.115896136E-2,-9.187898599E-3,-7.723161485E-3
2.581834947E0,2.796317078E-2,-4.926844500E-3,-8.788425475E-3
2.584322499E0,2.476738021E-2,-2.796316985E-3,-8.788425475E-3
2.586810052E0,2.050632425E-2,3.994738800E-4,-8.788425475E-3
2.589297604E0,1.624527015E-2,3.595264861E-3,-8.788425475E-3
2.591785156E0,1.198421605E-2,5.725792143E-3,-8.788425475E-3
2.594272708E0,7.723161485E-3,6.791055668E-3,-9.853689000E-3
2.596760260E0,2.396843163E-3,7.856319658E-3,-9.853689000E-3
2.599247812E0,-2.929474926E-3,5.725792143E-3,-8.788425475E-3
2.601735364E0,-7.190529723E-3,3.595264861E-3,-8.788425475E-3
2.604222916E0,-1.251684781E-2,-6.657897611E-4,-8.788425475E-3
2.606710468E0,-1.677790284E-2,-3.861580743E-3,-8.788425475E-3
2.609198020E0,-2.103895694E-2,-9.187898599E-3,-7.723161485E-3
2.611685572E0,-2.530001104E-2,-1.451421715E-2,-7.723161485E-3
2.614173124E0,-2.743053809E-2,-1.984053478E-2,-7.723161485E-3
2.616660677E0,-2.956106514E-2,-2.623211779E-2,-8.788425475E-3
2.619148229E0,-3.062633052E-2,-3.155843541E-2,-8.788425475E-3
2.621635781E0,-3.062633052E-2,-3.688475490E-2,-8.788425475E-3
2.624123333E0,-3.062633052E-2,-4.221107066E-2,-8.788425475E-3
2.626610885E0,-2.956106514E-2,-4.540686309E-2,-9.853689000E-3
2.629098437E0,-2.743053809E-2,-4.860265180E-2,-9.853689000E-3
2.631585989E0,-2.636527456E-2,-5.073318258E-2,-1.091895252E-2
2.634073541E0,-2.530001104E-2,-5.179844424E-2,-1.198421605E-2
2.636561093E0,-2.316948399E-2,-5.286370963E-2,-1.198421605E-2
2.639048645E0,-2.103895694E-2,-5.286370963E-2,-1.198421605E-2
2.641536197E0,-2.103895694E-2,-5.392897129E-2,-1.304947957E-2
2.644023749E0,-2.210422046E-2,-5.286370963E-2,-1.411474310E-2
2.646511302E0,-2.316948399E-2,-5.286370963E-2,-1.411474310E-2
2.648998854E0,-2.423474751E-2,-5.286370963E-2,-1.518000662E-2
2.651486406E0,-2.636527456E-2,-5.179844424E-2,-1.518000662E-2
2.653973958E0,-2.743053809E-2,-4.860265180E-2,-1.518000662E-2
2.656461562E0,-2.743053809E-2,-4.540686309E-2,-1.624527015E-2
2.658949166E0,-2.743053809E-2,-4.221107066E-2,-1.624527015E-2
2.661436770E0,-2.743053809E-2,-3.795001656E-2,-1.731053367E-2
2.663924374E0,-2.743053809E-2,-3.475422785E-2,-1.837579720E-2
2.666411979E0,-2.636527456E-2,-2.942790836E-2,-1.944106072E-2
2.668899583E0,-2.423474751E-2,-2.410159074E-2,-2.050632425E-2
2.671387187E0,-2.316948399E-2,-1.984053478E-2,-2.157158963E-2
2.673874791E0,-2.210422046E-2,-1.771000773E-2,-2.263685316E-2
2.676362395E0,-1.997369342E-2,-1.557948068E-2,-2.370211668E-2
2.678849999E0,-1.890842989E-2,-1.451421715E-2,-2.583264373E-2
2.681337604E0,-1.677790284E-2,-1.238369010E-2,-2.689790726E-2
2.683825208E0,-1.358211134E-2,-1.131842658E-2,-2.583264373E-2
2.686312812E0,-9.321057238E-3,-9.187898599E-3,-2.689790726E-2
2.688800416E0,-5.060002208E-3,-7.057371549E-3,-2.689790726E-2
2.691288020E0,-7.989477599E-4,-3.861580743E-3,-2.689790726E-2
2.693775624E0,3.462106921E-3,-1.731053460E-3,-2.689790726E-2
2.696263229E0,7.723161485E-3,1.464737463E-3,-2.583264373E-2
2.698750833E0,1.198421605E-2,3.595264861E-3,-2.476738021E-2
2.701238437E0,1.624527015E-2,5.725792143E-3,-2.370211668E-2
2.703726041E0,1.944106072E-2,7.856319658E-3,-2.263685316E-2
2.706213645E0,2.263685316E-2,8.921583183E-3,-2.050632425E-2
2.708701249E0,2.370211668E-2,8.921583183E-3,-1.837579720E-2
2.711188854E0,2.476738021E-2,9.986846708E-3,-1.731053367E-2
2.713676458E0,2.583264373E-2,9.986846708E-3,-1.624527015E-2
2.716164062E0,2.583264373E-2,1.105211023E-2,-1.411474310E-2
2.718651666E0,2.583264373E-2,1.211737376E-2,-1.198421605E-2
2.721139270E0,2.583264373E-2,1.211737376E-2,-9.853689000E-3
2.723626874E0,2.476738021E-2,1.318263728E-2,-8.788425475E-3
2.726114479E0,2.263685316E-2,1.318263728E-2,-6.657897960E-3
2.728602083E0,2.050632425E-2,1.424790081E-2,-5.592633970E-3
2.731089687E0,1.731053367E-2,1.424790081E-2,-5.592633970E-3
2.733577291E0,1.304947957E-2,1.424790081E-2,-4.527370445E-3
2.736064895E0,8.788425475E-3,1.424790081E-2,-3.462106921E-3
2.738552499E0,4.527370445E-3,1.211737376E-2,-4.527370445E-3
2.741040104E0,2.663159103E-4,1.105211023E-2,-4.527370445E-3
2.743527708E0,-5.060002208E-3,8.921583183E-3,-5.592633970E-3
2.746015312E0,-9.321057238E-3,6.791055668E-3,-5.592633970E-3
2.748502864E0,-1.464737486E-2,5.725792143E-3,-6.657897960E-3
2.750990416E0,-1.997369342E-2,4.660528619E-3,-6.657897960E-3
2.753477968E0,-2.423474751E-2,3.595264861E-3,-7.723161485E-3
2.755965520E0,-2.849580161E-2,2.530001104E-3,-7.723161485E-3
2.758453072E0,-3.062633052E-2,3.595264861E-3,-7.723161485E-3
2.760940624E0,-3.169159219E-2,4.660528619E-3,-8.788425475E-3
2.763428177E0,-3.275685757E-2,5.725792143E-3,-8.788425475E-3
2.765915729E0,-3.382211924E-2,6.791055668E-3,-8.788425475E-3
2.768403281E0,-3.382211924E-2,8.921583183E-3,-8.788425475E-3
2.770890833E0,-3.382211924E-2,1.211737376E-2,-8.788425475E-3
2.773378385E0,-3.169159219E-2,1.531316526E-2,-8.788425475E-3
2.775865937E0,-3.062633052E-2,1.850895584E-2,-8.788425475E-3
2.778353489E0,-2.849580161E-2,2.170474641E-2,-8.788425475E-3
2.780841041E0,-2.636527456E-2,2.490053698E-2,-7.723161485E-3
2.783328593E0,-2.316948399E-2,3.022685647E-2,-6.657897960E-3
2.785816145E0,-2.103895694E-2,3.448791057E-2,-5.592633970E-3
2.788303697E0,-1.784316637E-2,4.087949172E-2,-5.592633970E-3
2.790791249E0,-1.358211134E-2,4.620581120E-2,-4.527370445E-3
2.793278802E0,-9.321057238E-3,5.259739235E-2,-3.462106921E-3
2.795766354E0,-6.125265732E-3,5.792371184E-2,-1.331579522E-3
2.798253906E0,-2.929474926E-3,6.218476593E-2,7.989477599E-4
2.800741458E0,2.663159103E-4,6.644582003E-2,1.864211401E-3
2.803229010E0,3.462106921E-3,7.070687413E-2,3.994738683E-3
2.805716562E0,5.592633970E-3,7.709845901E-2,5.060002208E-3
2.808204114E0,8.788425475E-3,8.242477477E-2,5.060002208E-3
2.810691666E0,1.198421605E-2,8.881635964E-2,6.125265732E-3
2.813179218E0,1.411474310E-2,9.520793706E-2,8.255792782E-3
2.815666770E0,1.731053367E-2,1.015995219E-1,9.321057238E-3
2.818154322E0,1.944106072E-2,1.079910994E-1,1.038632076E-2
2.820641874E0,2.157158963E-2,1.133174226E-1,1.251684781E-2
2.823129427E0,2.263685316E-2,1.165132076E-1,1.251684781E-2
2.825616979E0,2.370211668E-2,1.197090000E-1,1.251684781E-2
2.828104531E0,2.370211668E-2,1.207742617E-1,1.145158429E-2
2.830592083E0,2.157158963E-2,1.186437383E-1,1.038632076E-2
2.833079635E0,2.157158963E-2,1.165132076E-1,9.321057238E-3
2.835567187E0,2.050632425E-2,1.122521535E-1,9.321057238E-3
2.838054739E0,1.944106072E-2,1.058605760E-1,9.321057238E-3
2.840542291E0,1.837579720E-2,9.946899116E-2,1.145158429E-2
2.843029843E0,1.944106072E-2,9.307741374E-2,1.251684781E-2
2.845517395E0,2.050632425E-2,8.775109053E-2,1.571263932E-2
2.848004947E0,2.050632425E-2,8.242477477E-2,1.677790284E-2
2.850492499E0,2.263685316E-2,7.709845901E-2,1.890842989E-2
2.852980052E0,2.370211668E-2,7.283740491E-2,2.103895694E-2
2.855467604E0,2.689790726E-2,6.857634336E-2,2.316948399E-2
2.857955156E0,2.902843431E-2,6.218476593E-2,2.423474751E-2
2.860442708E0,3.115896136E-2,5.685844645E-2,2.636527456E-2
2.862930260E0,3.222422674E-2,4.940159991E-2,2.849580161E-2
2.865417812E0,3.435475379E-2,4.194475710E-2,2.849580161E-2
2.867905364E0,3.542001545E-2,3.448791057E-2,2.849580161E-2
2.870392916E0,3.542001545E-2,2.809632942E-2,2.849580161E-2
2.872880468E0,3.542001545E-2,2.277000993E-2,2.956106514E-2
2.875368020E0,3.328948840E-2,1.744369231E-2,3.062633052E-2
2.877855572E0,3.115896136E-2,1.318263728E-2,3.169159219E-2
2.880343124E0,3.009369783E-2,8.921583183E-3,3.169159219E-2
2.882830677E0,2.689790726E-2,4.660528619E-3,3.275685757E-2
2.885318229E0,2.476738021E-2,1.464737463E-3,3.275685757E-2
2.887805781E0,2.263685316E-2,-2.796316985E-3,3.275685757E-2
2.890293333E0,2.050632425E-2,-7.057371549E-3,3.382211924E-2
2.892780885E0,1.731053367E-2,-1.238369010E-2,3.382211924E-2
2.895268437E0,1.518000662E-2,-1.771000773E-2,3.382211924E-2
2.897755989E0,9.853689000E-3,-2.410159074E-2,3.382211924E-2
2.900243541E0,5.592633970E-3,-3.155843541E-2,3.275685757E-2
2.902731093E0,1.331579522E-3,-3.901528195E-2,3.062633052E-2
2.905218645E0,-2.929474926E-3,-4.860265180E-2,2.849580161E-2
2.907706197E0,-7.190529723E-3,-5.925529078E-2,2.636527456E-2
2.910193749E0,-1.145158429E-2,-6.990792602E-2,2.423474751E-2
2.912681302E0,-1.464737486E-2,-8.162582666E-2,2.210422046E-2
2.915168854E0,-1.677790284E-2,-9.334372729E-2,1.997369342E-2
2.917656406E0,-1.784316637E-2,-1.039963663E-1,1.571263932E-2
2.920143958E0,-1.890842989E-2,-1.114532053E-1,1.251684781E-2
2.922631510E0,-1.784316637E-2,-1.167795286E-1,9.321057238E-3
2.925119062E0,-1.677790284E-2,-1.189100519E-1,6.125265732E-3
2.927606614E0,-1.251684781E-2,-1.189100519E-1,2.929474926E-3
2.930094166E0,-9.321057238E-3,-1.167795286E-1,-1.331579522E-3
2.932581718E0,-5.060002208E-3,-1.125184745E-1,-4.527370445E-3
2.935069270E0,2.663159103E-4,-1.082574204E-1,-6.657897960E-3
2.937556874E0,5.592633970E-3,-1.018658355E-1,-7.723161485E-3
2.940044479E0,1.091895252E-2,-9.440898895E-2,-7.723161485E-3
2.942532083E0,1.518000662E-2,-8.801741153E-2,-7.723161485E-3
2.945019687E0,1.837579720E-2,-7.949529588E-2,-7.723161485E-3
2.947507291E0,2.157158963E-2,-7.203845680E-2,-7.723161485E-3
2.949994895E0,2.476738021E-2,-6.458161026E-2,-7.723161485E-3
2.952482499E0,2.583264373E-2,-5.712476373E-2,-7.723161485E-3
2.954970104E0,2.583264373E-2,-5.179844424E-2,-7.723161485E-3
2.957457708E0,2.583264373E-2,-4.647212476E-2,-6.657897960E-3
2.959945312E0,2.583264373E-2,-4.221107066E-2,-5.592633970E-3
2.962432916E0,2.583264373E-2,-4.008054361E-2,-4.527370445E-3
2.964920520E0,2.476738021E-2,-4.008054361E-2,-3.462106921E-3
2.967408124E0,2.263685316E-2,-4.114580899E-2,-3.462106921E-3
2.969895729E0,2.050632425E-2,-4.434159771E-2,-2.396843163E-3
2.972383333E0,1.944106072E-2,-4.753739014E-2,-1.331579522E-3
2.974870937E0,1.731053367E-2,-5.073318258E-2,-1.331579522E-3
2.977358541E0,1.518000662E-2,-5.286370963E-2,-2.396843163E-3
2.979846145E0,1.411474310E-2,-5.499423668E-2,-2.396843163E-3
2.982333749E0,1.304947957E-2,-5.499423668E-2,-2.396843163E-3
2.984821354E0,1.411474310E-2,-5.392897129E-2,-3.462106921E-3
2.987308958E0,1.624527015E-2,-5.286370963E-2,-3.462106921E-3
2.989796562E0,1.837579720E-2,-5.073318258E-2,-3.462106921E-3
2.992284166E0,2.157158963E-2,-4.753739014E-2,-4.527370445E-3
2.994771770E0,2.476738021E-2,-4.434159771E-2,-5.592633970E-3
2.997259374E0,2.902843431E-2,-4.114580899E-2,-5.592633970E-3
2.999746979E0,3.222422674E-2,-3.901528195E-2,-5.592633970E-3
3.002234583E0,3.648528084E-2,-3.688475490E-2,-5.592633970E-3
3.004722187E0,3.968106955E-2,-3.475422785E-2,-6.657897960E-3
3.007209791E0,4.287686199E-2,-3.262370080E-2,-7.723161485E-3
3.009697395E0,4.500738904E-2,-3.049317189E-2,-8.788425475E-3
3.012184999E0,4.713791609E-2,-2.836264484E-2,-8.788425475E-3
3.014672604E0,4.820318148E-2,-2.729738131E-2,-1.091895252E-2
3.017160208E0,4.820318148E-2,-2.516685426E-2,-1.091895252E-2
3.019647812E0,4.820318148E-2,-2.197106183E-2,-1.304947957E-2
3.022135416E0,4.713791609E-2,-1.984053478E-2,-1.411474310E-2
3.024623020E0,4.607265070E-2,-1.771000773E-2,-1.518000662E-2
3.027110572E0,4.394212365E-2,-1.344895363E-2,-1.624527015E-2
3.029598124E0,4.074633494E-2,-1.025316212E-2,-1.731053367E-2
3.032085677E0,3.648528084E-2,-7.057371549E-3,-1.944106072E-2
3.034573229E0,3.222422674E-2,-3.861580743E-3,-2.157158963E-2
3.037060781E0,2.796317078E-2,-6.657897611E-4,-2.263685316E-2
3.039548333E0,2.263685316E-2,2.530001104E-3,-2.370211668E-2
3.042035885E0,1.731053367E-2,5.725792143E-3,-2.583264373E-2
3.044523437E0,1.198421605E-2,8.921583183E-3,-2.583264373E-2
3.047010989E0,7.723161485E-3,1.105211023E-2,-2.583264373E-2
3.049498541E0,2.396843163E-3,1.318263728E-2,-2.689790726E-2
3.051986093E0,-2.929474926E-3,1.318263728E-2,-2.689790726E-2
3.054473645E0,-7.190529723E-3,1.424790081E-2,-2.796317078E-2
3.056961197E0,-1.038632076E-2,1.531316526E-2,-2.796317078E-2
3.059448749E0,-1.251684781E-2,1.637842879E-2,-2.902843431E-2
3.061936302E0,-1.464737486E-2,1.744369231E-2,-3.009369783E-2
3.064423854E0,-1.571263932E-2,1.957421936E-2,-3.009369783E-2
3.066911406E0,-1.464737486E-2,2.170474641E-2,-3.009369783E-2
3.069398958E0,-1.358211134E-2,2.383527346E-2,-3.009369783E-2
3.071886510E0,-1.145158429E-2,2.596580051E-2,-2.902843431E-2
3.074374062E0,-9.321057238E-3,2.809632942E-2,-2.902843431E-2
3.076861614E0,-8.255792782E-3,3.022685647E-2,-2.902843431E-2
3.079349166E0,-6.125265732E-3,3.235738352E-2,-2.796317078E-2
3.081836718E0,-5.060002208E-3,3.342264518E-2,-2.796317078E-2
3.084324270E0,-3.994738683E-3,3.235738352E-2,-2.689790726E-2
3.086811822E0,-2.929474926E-3,3.129211813E-2,-2.476738021E-2
3.089299374E0,-2.929474926E-3,2.916159295E-2,-2.370211668E-2
3.091786927E0,-1.864211401E-3,2.703106403E-2,-2.157158963E-2
3.094274479E0,-7.989477599E-4,2.490053698E-2,-2.050632425E-2
3.096762031E0,2.663159103E-4,2.170474641E-2,-1.837579720E-2
3.099249583E0,1.331579522E-3,1.850895584E-2,-1.837579720E-2
3.101737135E0,2.396843163E-3,1.637842879E-2,-1.731053367E-2
3.104224687E0,4.527370445E-3,1.318263728E-2,-1.624527015E-2
3.106712239E0,5.592633970E-3,8.921583183E-3,-1.624527015E-2
3.109199791E0,6.657897960E-3,4.660528619E-3,-1.518000662E-2
3.111687343E0,7.723161485E-3,-6.657897611E-4,-1.518000662E-2
3.114174895E0,7.723161485E-3,-7.057371549E-3,-1.304947957E-2
3.116662447E0,7.723161485E-3,-1.344895363E-2,-1.091895252E-2
3.119149999E0,6.657897960E-3,-2.197106183E-2,-1.091895252E-2
3.121637552E0,5.592633970E-3,-2.836264484E-2,-9.853689000E-3
3.124125104E0,2.396843163E-3,-3.475422785E-2,-8.788425475E-3
3.126612656E0,1.331579522E-3,-4.114580899E-2,-7.723161485E-3
3.129100208E0,-1.864211401E-3,-4.540686309E-2,-8.788425475E-3
3.131587760E0,-3.994738683E-3,-4.966791719E-2,-8.788425475E-3
3.134075312E0,-7.190529723E-3,-5.286370963E-2,-8.788425475E-3
3.136562864E0,-9.321057238E-3,-5.392897129E-2,-7.723161485E-3
3.139050416E0,-1.038632076E-2,-5.392897129E-2,-7.723161485E-3
3.141537968E0,-1.251684781E-2,-5.286370963E-2,-7.723161485E-3
3.144025520E0,-1.464737486E-2,-5.073318258E-2,-7.723161485E-3
3.146513072E0,-1.677790284E-2,-4.647212476E-2,-8.788425475E-3
3.149000624E0,-1.890842989E-2,-4.114580899E-2,-9.853689000E-3
3.151488177E0,-1.997369342E-2,-3.368896246E-2,-1.091895252E-2
3.153975729E0,-1.997369342E-2,-2.516685426E-2,-1.091895252E-2
3.156463281E0,-2.103895694E-2,-1.664474420E-2,-1.091895252E-2
3.158950833E0,-2.103895694E-2,-5.992108025E-3,-1.198421605E-2
3.161438385E0,-2.103895694E-2,3.595264861E-3,-1.304947957E-2
3.163925937E0,-2.103895694E-2,1.318263728E-2,-1.304947957E-2
3.166413489E0,-2.103895694E-2,2.063948289E-2,-1.304947957E-2
3.168901041E0,-2.103895694E-2,2.916159295E-2,-1.198421605E-2
3.171388593E0,-2.210422046E-2,3.448791057E-2,-1.091895252E-2
3.173876145E0,-2.316948399E-2,3.768370301E-2,-1.091895252E-2
3.176363697E0,-2.423474751E-2,3.981423005E-2,-8.788425475E-3
3.178851249E0,-2.530001104E-2,4.194475710E-2,-6.657897960E-3
3.181338802E0,-2.530001104E-2,4.194475710E-2,-4.527370445E-3
3.183826354E0,-2.530001104E-2,4.194475710E-2,-2.396843163E-3
3.186313906E0,-2.423474751E-2,4.194475710E-2,-1.331579522E-3
3.188801458E0,-2.316948399E-2,4.087949172E-2,-1.331579522E-3
3.191289010E0,-2.103895694E-2,3.981423005E-2,-1.331579522E-3
3.193776562E0,-1.784316637E-2,3.874896467E-2,-1.331579522E-3
3.196264114E0,-1.464737486E-2,3.661843762E-2,-2.396843163E-3
3.198751666E0,-1.145158429E-2,3.342264518E-2,-2.396843163E-3
3.201239218E0,-9.321057238E-3,3.022685647E-2,-2.396843163E-3
3.203726770E0,-6.125265732E-3,2.596580051E-2,-3.462106921E-3
3.206214322E0,-2.929474926E-3,2.170474641E-2,-4.527370445E-3
3.208701874E0,2.663159103E-4,1.744369231E-2,-5.592633970E-3
3.211189427E0,2.396843163E-3,1.211737376E-2,-7.723161485E-3
3.213676979E0,3.462106921E-3,6.791055668E-3,-8.788425475E-3
3.216164531E0,5.592633970E-3,1.464737463E-3,-1.091895252E-2
3.218652083E0,5.592633970E-3,-3.861580743E-3,-1.304947957E-2
3.221139635E0,4.527370445E-3,-9.187898599E-3,-1.304947957E-2
3.223627187E0,4.527370445E-3,-1.557948068E-2,-1.411474310E-2
3.226114791E0,3.462106921E-3,-2.197106183E-2,-1.518000662E-2
3.228602395E0,2.396843163E-3,-2.942790836E-2,-1.518000662E-2
3.231089999E0,2.663159103E-4,-3.688475490E-2,-1.518000662E-2
3.233577604E0,-1.864211401E-3,-4.540686309E-2,-1.411474310E-2
3.236065208E0,-3.994738683E-3,-5.179844424E-2,-1.304947957E-2
3.238552812E0,-6.125265732E-3,-5.712476373E-2,-1.304947957E-2
3.241040416E0,-8.255792782E-3,-6.138581783E-2,-1.198421605E-2
3.243528020E0,-1.038632076E-2,-6.458161026E-2,-1.091895252E-2
3.246015624E0,-1.145158429E-2,-6.564687192E-2,-9.853689000E-3
3.248503229E0,-1.251684781E-2,-6.671213359E-2,-9.853689000E-3
3.250990833E0,-1.145158429E-2,-6.671213359E-2,-8.788425475E-3
3.253478437E0,-1.038632076E-2,-6.671213359E-2,-7.723161485E-3
3.255966041E0,-8.255792782E-3,-6.777740270E-2,-6.657897960E-3
3.258453645E0,-6.125265732E-3,-6.884266436E-2,-4.527370445E-3
3.260941249E0,-2.929474926E-3,-7.097318769E-2,-3.462106921E-3
3.263428854E0,-7.989477599E-4,-7.310371846E-2,-3.462106921E-3
3.265916458E0,1.331579522E-3,-7.523424178E-2,-3.462106921E-3
3.268404062E0,3.462106921E-3,-7.843003422E-2,-4.527370445E-3
3.270891666E0,6.657897960E-3,-8.162582666E-2,-4.527370445E-3
3.273379270E0,9.853689000E-3,-8.375635743E-2,-4.527370445E-3
3.275866874E0,1.411474310E-2,-8.588688076E-2,-4.527370445E-3
3.278354479E0,1.731053367E-2,-8.801741153E-2,-3.462106921E-3
3.280842083E0,2.157158963E-2,-8.695214242E-2,-4.527370445E-3
3.283329687E0,2.583264373E-2,-8.588688076E-2,-3.462106921E-3
3.285817291E0,3.009369783E-2,-8.375635743E-2,-2.396843163E-3
3.288304895E0,3.222422674E-2,-8.056056499E-2,-2.396843163E-3
3.290792499E0,3.648528084E-2,-7.843003422E-2,-2.396843163E-3
3.293280104E0,3.861580789E-2,-7.523424178E-2,-2.396843163E-3
3.295767708E0,3.968106955E-2,-7.203845680E-2,-2.396843163E-3
3.298255312E0,3.968106955E-2,-6.884266436E-2,-2.396843163E-3
3.300742916E0,3.861580789E-2,-6.458161026E-2,-3.462106921E-3
3.303230520E0,3.861580789E-2,-6.032055244E-2,-3.462106921E-3
3.305718124E0,3.648528084E-2,-5.605949834E-2,-4.527370445E-3
3.308205729E0,3.328948840E-2,-5.286370963E-2,-4.527370445E-3
3.310693333E0,3.009369783E-2,-4.860265180E-2,-4.527370445E-3
3.313180885E0,2.583264373E-2,-4.434159771E-2,-5.592633970E-3
3.315668437E0,2.263685316E-2,-4.008054361E-2,-6.657897960E-3
3.318155989E0,1.731053367E-2,-3.581948951E-2,-6.657897960E-3
3.320643541E0,1.304947957E-2,-3.155843541E-2,-7.723161485E-3
3.323131093E0,7.723161485E-3,-2.836264484E-2,-8.788425475E-3
3.325618645E0,3.462106921E-3,-2.516685426E-2,-8.788425475E-3
3.328106197E0,-7.989477599E-4,-2.197106183E-2,-8.788425475E-3
3.330593749E0,-3.994738683E-3,-1.877527125E-2,-9.853689000E-3
3.333081302E0,-7.190529723E-3,-1.557948068E-2,-9.853689000E-3
3.335568854E0,-9.321057238E-3,-1.344895363E-2,-1.091895252E-2
3.338056406E0,-1.038632076E-2,-1.025316212E-2,-1.091895252E-2
3.340543958E0,-1.251684781E-2,-7.057371549E-3,-9.853689000E-3
3.343031510E0,-1.464737486E-2,-3.861580743E-3,-9.853689000E-3
3.345519062E0,-1.677790284E-2,-6.657897611E-4,-9.853689000E-3
3.348006614E0,-1.784316637E-2,1.464737463E-3,-9.853689000E-3
3.350494166E0,-1.890842989E-2,4.660528619E-3,-8.788425475E-3
3.352981718E0,-1.890842989E-2,7.856319658E-3,-8.788425475E-3
3.355469270E0,-1.997369342E-2,8.921583183E-3,-7.723161485E-3
3.357956822E0,-1.997369342E-2,1.105211023E-2,-6.657897960E-3
3.360444374E0,-1.997369342E-2,1.211737376E-2,-5.592633970E-3
3.362931927E0,-2.103895694E-2,1.318263728E-2,-3.462106921E-3
3.365419479E0,-2.103895694E-2,1.318263728E-2,-2.396843163E-3
3.367907031E0,-2.103895694E-2,1.211737376E-2,-2.663159103E-4
3.370394583E0,-2.210422046E-2,1.211737376E-2,1.864211401E-3
3.372882135E0,-2.316948399E-2,1.318263728E-2,2.929474926E-3
3.375369687E0,-2.316948399E-2,1.424790081E-2,3.994738683E-3
3.377857239E0,-2.316948399E-2,1.424790081E-2,6.125265732E-3
3.380344791E0,-2.423474751E-2,1.531316526E-2,7.190529723E-3
3.382832343E0,-2.316948399E-2,1.744369231E-2,8.255792782E-3
3.385319895E0,-2.103895694E-2,1.850895584E-2,9.321057238E-3
3.387807447E0,-1.997369342E-2,2.063948289E-2,1.038632076E-2
3.390294999E0,-1.784316637E-2,2.277000993E-2,1.038632076E-2
3.392782552E0,-1.464737486E-2,2.383527346E-2,1.038632076E-2
3.395270104E0,-1.251684781E-2,2.596580051E-2,1.038632076E-2
3.397757656E0,-9.321057238E-3,2.703106403E-2,1.038632076E-2
3.400245208E0,-6.125265732E-3,2.916159295E-2,9.321057238E-3
3.402732760E0,-1.864211401E-3,2.916159295E-2,9.321057238E-3
3.405220312E0,1.331579522E-3,3.022685647E-2,9.321057238E-3
3.407707864E0,5.592633970E-3,3.022685647E-2,9.321057238E-3
3.410195416E0,8.788425475E-3,2.916159295E-2,8.255792782E-3
3.412682968E0,1.198421605E-2,2.703106403E-2,8.255792782E-3
3.415170520E0,1.411474310E-2,2.490053698E-2,8.255792782E-3
3.417658072E0,1.731053367E-2,2.170474641E-2,8.255792782E-3
3.420145624E0,1.944106072E-2,1.850895584E-2,7.190529723E-3
3.422633177E0,2.157158963E-2,1.637842879E-2,7.190529723E-3
3.425120729E0,2.370211668E-2,1.318263728E-2,7.190529723E-3
3.427608281E0,2.476738021E-2,9.986846708E-3,7.190529723E-3
3.430095833E0,2.476738021E-2,7.856319658E-3,7.190529723E-3
3.432583385E0,2.370211668E-2,4.660528619E-3,8.255792782E-3
3.435070937E0,2.157158963E-2,3.994738800E-4,8.255792782E-3
3.437558489E0,1.944106072E-2,-3.861580743E-3,7.190529723E-3
3.440046041E0,1.518000662E-2,-8.122635074E-3,7.190529723E-3
3.442533593E0,1.091895252E-2,-1.344895363E-2,7.190529723E-3
3.445021145E0,6.657897960E-3,-1.984053478E-2,7.190529723E-3
3.447508697E0,2.396843163E-3,-2.516685426E-2,7.190529723E-3
3.449996249E0,-7.989477599E-4,-3.049317189E-2,7.190529723E-3
3.452483802E0,-3.994738683E-3,-3.581948951E-2,7.190529723E-3
3.454971354E0,-7.190529723E-3,-4.114580899E-2,7.190529723E-3
3.457458906E0,-9.321057238E-3,-4.647212476E-2,8.255792782E-3
3.459946458E0,-1.145158429E-2,-5.286370963E-2,9.321057238E-3
3.462434010E0,-1.251684781E-2,-5.819002539E-2,1.038632076E-2
3.464921562E0,-1.464737486E-2,-6.351634115E-2,1.145158429E-2
3.467409114E0,-1.571263932E-2,-6.777740270E-2,1.464737486E-2
3.469896666E0,-1.784316637E-2,-7.203845680E-2,1.571263932E-2
3.472384218E0,-1.890842989E-2,-7.629951090E-2,1.677790284E-2
3.474871770E0,-1.890842989E-2,-7.949529588E-2,1.890842989E-2
3.477359322E0,-2.103895694E-2,-8.269108832E-2,2.103895694E-2
3.479846874E0,-2.103895694E-2,-8.482161909E-2,2.210422046E-2
3.482334427E0,-2.210422046E-2,-8.695214242E-2,2.210422046E-2
3.484821979E0,-2.103895694E-2,-8.908267319E-2,2.316948399E-2
3.487309531E0,-1.997369342E-2,-9.121319652E-2,2.316948399E-2
3.489797083E0,-1.890842989E-2,-9.227846563E-2,2.210422046E-2
3.492284635E0,-1.677790284E-2,-9.227846563E-2,2.316948399E-2
3.494772187E0,-1.464737486E-2,-9.227846563E-2,2.423474751E-2
3.497259739E0,-1.145158429E-2,-9.227846563E-2,2.530001104E-2
3.499747291E0,-8.255792782E-3,-9.227846563E-2,2.636527456E-2
3.502234843E0,-5.060002208E-3,-9.121319652E-2,2.743053809E-2
3.504722395E0,-1.864211401E-3,-8.908267319E-2,2.956106514E-2
3.507209947E0,1.331579522E-3,-8.695214242E-2,3.062633052E-2
3.509697499E0,5.592633970E-3,-8.482161909E-2,3.062633052E-2
3.512185052E0,8.788425475E-3,-8.162582666E-2,3.062633052E-2
3.514672604E0,1.411474310E-2,-7.736477256E-2,3.062633052E-2
3.517160156E0,1.944106072E-2,-7.310371846E-2,2.956106514E-2
3.519647708E0,2.370211668E-2,-6.884266436E-2,2.956106514E-2
3.522135260E0,2.796317078E-2,-6.458161026E-2,2.849580161E-2
3.524622864E0,3.328948840E-2,-5.819002539E-2,2.849580161E-2
3.527110468E0,3.861580789E-2,-5.286370963E-2,2.743053809E-2
3.529598072E0,4.287686199E-2,-4.647212476E-2,2.743053809E-2
3.532085677E0,4.607265070E-2,-4.008054361E-2,2.743053809E-2
3.534573281E0,4.926844314E-2,-3.368896246E-2,2.636527456E-2
3.537060885E0,5.139897019E-2,-2.729738131E-2,2.530001104E-2
3.539548489E0,5.139897019E-2,-2.090579830E-2,2.530001104E-2
3.542036093E0,5.139897019E-2,-1.664474420E-2,2.636527456E-2
3.544523697E0,4.926844314E-2,-1.238369010E-2,2.636527456E-2
3.547011302E0,4.820318148E-2,-1.025316212E-2,2.530001104E-2
3.549498906E0,4.394212365E-2,-8.122635074E-3,2.530001104E-2
3.551986510E0,3.968106955E-2,-5.992108025E-3,2.423474751E-2
3.554474114E0,3.542001545E-2,-3.861580743E-3,2.316948399E-2
3.556961718E0,3.009369783E-2,-1.731053460E-3,2.103895694E-2
3.559449322E0,2.583264373E-2,2.530001104E-3,2.103895694E-2
3.561936927E0,2.157158963E-2,5.725792143E-3,1.997369342E-2
3.564424531E0,1.731053367E-2,9.986846708E-3,1.997369342E-2
3.566912135E0,1.518000662E-2,1.318263728E-2,1.890842989E-2
3.569399739E0,1.091895252E-2,1.744369231E-2,1.784316637E-2
3.571887343E0,8.788425475E-3,1.957421936E-2,1.677790284E-2
3.574374947E0,5.592633970E-3,2.170474641E-2,1.677790284E-2
3.576862552E0,4.527370445E-3,2.277000993E-2,1.571263932E-2
3.579350156E0,3.462106921E-3,2.383527346E-2,1.464737486E-2
3.581837760E0,1.331579522E-3,2.277000993E-2,1.251684781E-2
3.584325364E0,2.663159103E-4,2.170474641E-2,1.145158429E-2
3.586812968E0,2.663159103E-4,2.063948289E-2,9.321057238E-3
3.589300572E0,2.663159103E-4,1.957421936E-2,7.190529723E-3
3.591788177E0,1.331579522E-3,1.744369231E-2,6.125265732E-3
3.594275781E0,3.462106921E-3,1.637842879E-2,2.929474926E-3
3.596763385E0,5.592633970E-3,1.424790081E-2,7.989477599E-4
3.599250989E0,7.723161485E-3,1.211737376E-2,-2.663159103E-4
3.601738593E0,1.091895252E-2,8.921583183E-3,-2.663159103E-4
3.604226197E0,1.411474310E-2,4.660528619E-3,-2.663159103E-4
3.606713802E0,1.731053367E-2,2.530001104E-3,-2.663159103E-4
3.609201354E0,1.944106072E-2,-6.657897611E-4,-2.663159103E-4
3.611688906E0,2.157158963E-2,-3.861580743E-3,-2.663159103E-4
3.614176458E0,2.370211668E-2,-8.122635074E-3,-1.331579522E-3
3.616664010E0,2.476738021E-2,-1.131842658E-2,-2.396843163E-3
3.619151562E0,2.583264373E-2,-1.557948068E-2,-2.396843163E-3
3.621639114E0,2.583264373E-2,-1.984053478E-2,-2.396843163E-3
3.624126666E0,2.583264373E-2,-2.410159074E-2,-2.396843163E-3
3.626614218E0,2.583264373E-2,-2.836264484E-2,-2.396843163E-3
3.629101770E0,2.476738021E-2,-3.262370080E-2,-2.396843163E-3
3.631589322E0,2.370211668E-2,-3.581948951E-2,-1.331579522E-3
3.634076874E0,2.263685316E-2,-3.795001656E-2,-1.331579522E-3
3.636564427E0,2.050632425E-2,-3.901528195E-2,-1.331579522E-3
3.639051979E0,1.944106072E-2,-4.008054361E-2,-2.396843163E-3
3.641539531E0,1.624527015E-2,-4.008054361E-2,-2.396843163E-3
3.644027083E0,1.411474310E-2,-3.795001656E-2,-2.396843163E-3
3.646514635E0,1.198421605E-2,-3.475422785E-2,-2.396843163E-3
3.649002187E0,9.853689000E-3,-3.049317189E-2,-1.331579522E-3
3.651489739E0,7.723161485E-3,-2.623211779E-2,-2.663159103E-4
3.653977291E0,4.527370445E-3,-2.303632535E-2,7.989477599E-4
3.656464843E0,1.331579522E-3,-1.877527125E-2,1.864211401E-3
3.658952395E0,2.663159103E-4,-1.557948068E-2,2.929474926E-3
3.661439947E0,-1.864211401E-3,-1.344895363E-2,3.994738683E-3
3.663927499E0,-2.929474926E-3,-1.131842658E-2,3.994738683E-3
3.666415052E0,-3.994738683E-3,-8.122635074E-3,5.060002208E-3
3.668902604E0,-3.994738683E-3,-7.057371549E-3,6.125265732E-3
3.671390156E0,-5.060002208E-3,-4.926844500E-3,6.125265732E-3
3.673877708E0,-3.994738683E-3,-2.796316985E-3,5.060002208E-3
3.676365260E0,-3.994738683E-3,-6.657897611E-4,3.994738683E-3
3.678852812E0,-3.994738683E-3,1.464737463E-3,2.929474926E-3
3.681340364E0,-3.994738683E-3,3.595264861E-3,2.929474926E-3
3.683827916E0,-2.929474926E-3,4.660528619E-3,2.929474926E-3
3.686315468E0,-1.864211401E-3,5.725792143E-3,2.929474926E-3
3.688803020E0,-7.989477599E-4,5.725792143E-3,2.929474926E-3
3.691290572E0,-7.989477599E-4,4.660528619E-3,3.994738683E-3
3.693778124E0,-7.989477599E-4,3.595264861E-3,5.060002208E-3
3.696265677E0,-7.989477599E-4,2.530001104E-3,5.060002208E-3
3.698753229E0,-7.989477599E-4,2.530001104E-3,6.125265732E-3
3.701240781E0,-7.989477599E-4,3.994738800E-4,7.190529723E-3
3.703728333E0,-7.989477599E-4,-1.731053460E-3,6.125265732E-3
3.706215885E0,-7.989477599E-4,-3.861580743E-3,6.125265732E-3
3.708703437E0,2.663159103E-4,-5.992108025E-3,6.125265732E-3
3.711190989E0,2.663159103E-4,-8.122635074E-3,6.125265732E-3
3.713678541E0,1.331579522E-3,-1.131842658E-2,7.190529723E-3
3.716166093E0,2.396843163E-3,-1.451421715E-2,8.255792782E-3
3.718653645E0,3.462106921E-3,-1.557948068E-2,9.321057238E-3
3.721141197E0,5.592633970E-3,-1.664474420E-2,9.321057238E-3
3.723628749E0,7.723161485E-3,-1.664474420E-2,8.255792782E-3
3.726116302E0,7.723161485E-3,-1.557948068E-2,8.255792782E-3
3.728603854E0,8.788425475E-3,-1.344895363E-2,7.190529723E-3
3.731091406E0,9.853689000E-3,-1.238369010E-2,6.125265732E-3
3.733578958E0,8.788425475E-3,-1.025316212E-2,5.060002208E-3
3.736066510E0,7.723161485E-3,-9.187898599E-3,3.994738683E-3
3.738554062E0,5.592633970E-3,-8.122635074E-3,3.994738683E-3
3.741041614E0,3.462106921E-3,-5.992108025E-3,3.994738683E-3
3.743529166E0,-7.989477599E-4,-4.926844500E-3,3.994738683E-3
3.746016718E0,-3.994738683E-3,-4.926844500E-3,3.994738683E-3
3.748504270E0,-9.321057238E-3,-2.796316985E-3,1.864211401E-3
3.750991822E0,-1.358211134E-2,-1.731053460E-3,7.989477599E-4
3.753479374E0,-1.890842989E-2,3.994738800E-4,7.989477599E-4
3.755966927E0,-2.316948399E-2,2.530001104E-3,7.989477599E-4
3.758454479E0,-2.743053809E-2,4.660528619E-3,7.989477599E-4
3.760942031E0,-3.382211924E-2,4.660528619E-3,-2.663159103E-4
3.763429583E0,-3.808317333E-2,2.530001104E-3,7.989477599E-4
3.765917135E0,-4.340949282E-2,3.994738800E-4,1.864211401E-3
3.768404687E0,-4.873581231E-2,-2.796316985E-3,1.864211401E-3
3.770892239E0,-5.406212807E-2,-5.992108025E-3,3.994738683E-3
3.773379791E0,-5.725792050E-2,-9.187898599E-3,3.994738683E-3
3.775867343E0,-6.045371294E-2,-1.131842658E-2,5.060002208E-3
3.778354895E0,-6.258423626E-2,-1.451421715E-2,6.125265732E-3
3.780842447E0,-6.364950538E-2,-1.664474420E-2,7.190529723E-3
3.783329999E0,-6.471476704E-2,-1.877527125E-2,7.190529723E-3
3.785817552E0,-6.364950538E-2,-2.090579830E-2,8.255792782E-3
3.788305104E0,-6.258423626E-2,-2.197106183E-2,1.038632076E-2
3.790792656E0,-5.938844755E-2,-2.303632535E-2,1.038632076E-2
3.793280208E0,-5.619265884E-2,-2.516685426E-2,1.251684781E-2
3.795767760E0,-5.193160102E-2,-2.516685426E-2,1.358211134E-2
3.798255312E0,-4.767054692E-2,-2.623211779E-2,1.358211134E-2
3.800742864E0,-4.447475821E-2,-2.729738131E-2,1.251684781E-2
3.803230416E0,-4.021370411E-2,-2.729738131E-2,1.358211134E-2
3.805717968E0,-3.595264629E-2,-2.836264484E-2,1.464737486E-2
3.808205520E0,-3.275685757E-2,-2.836264484E-2,1.358211134E-2
3.810693072E0,-2.849580161E-2,-2.942790836E-2,1.358211134E-2
3.813180624E0,-2.423474751E-2,-2.942790836E-2,1.464737486E-2
3.815668177E0,-1.997369342E-2,-3.049317189E-2,1.571263932E-2
3.818155729E0,-1.571263932E-2,-3.155843541E-2,1.571263932E-2
3.820643281E0,-1.145158429E-2,-3.262370080E-2,1.677790284E-2
3.823130833E0,-8.255792782E-3,-3.368896246E-2,1.677790284E-2
3.825618385E0,-5.060002208E-3,-3.368896246E-2,1.677790284E-2
3.828105937E0,-2.929474926E-3,-3.368896246E-2,1.677790284E-2
3.830593489E0,-1.864211401E-3,-3.368896246E-2,1.571263932E-2
3.833081041E0,-7.989477599E-4,-3.368896246E-2,1.571263932E-2
3.835568645E0,2.663159103E-4,-3.262370080E-2,1.464737486E-2
3.838056249E0,-7.989477599E-4,-3.262370080E-2,1.358211134E-2
3.840543854E0,-7.989477599E-4,-3.262370080E-2,1.251684781E-2
3.843031458E0,-1.864211401E-3,-3.155843541E-2,1.251684781E-2
3.845519062E0,-3.994738683E-3,-3.049317189E-2,1.145158429E-2
3.848006666E0,-6.125265732E-3,-2.942790836E-2,1.251684781E-2
3.850494270E0,-7.190529723E-3,-2.729738131E-2,1.145158429E-2
3.852981874E0,-9.321057238E-3,-2.516685426E-2,1.145158429E-2
3.855469479E0,-1.251684781E-2,-2.090579830E-2,1.145158429E-2
3.857957083E0,-1.571263932E-2,-1.664474420E-2,1.145158429E-2
3.860444687E0,-1.784316637E-2,-1.025316212E-2,1.038632076E-2
3.862932291E0,-2.103895694E-2,-3.861580743E-3,1.038632076E-2
3.865419895E0,-2.316948399E-2,1.464737463E-3,1.038632076E-2
3.867907499E0,-2.530001104E-2,7.856319658E-3,1.038632076E-2
3.870395104E0,-2.636527456E-2,1.211737376E-2,1.038632076E-2
3.872882708E0,-2.849580161E-2,1.637842879E-2,1.038632076E-2
3.875370312E0,-2.956106514E-2,1.957421936E-2,1.038632076E-2
3.877857916E0,-2.956106514E-2,2.170474641E-2,1.038632076E-2
3.880345520E0,-2.956106514E-2,2.277000993E-2,9.321057238E-3
3.882833124E0,-2.956106514E-2,2.277000993E-2,9.321057238E-3
3.885320729E0,-2.956106514E-2,2.277000993E-2,8.255792782E-3
3.887808333E0,-2.849580161E-2,2.277000993E-2,7.190529723E-3
3.890295937E0,-2.849580161E-2,2.170474641E-2,6.125265732E-3
3.892783541E0,-2.743053809E-2,2.063948289E-2,5.060002208E-3
3.895271145E0,-2.636527456E-2,1.957421936E-2,5.060002208E-3
3.897758749E0,-2.530001104E-2,2.063948289E-2,3.994738683E-3
3.900246354E0,-2.423474751E-2,2.170474641E-2,3.994738683E-3
3.902733958E0,-2.316948399E-2,2.383527346E-2,3.994738683E-3
3.905221562E0,-2.210422046E-2,2.596580051E-2,3.994738683E-3
3.907709166E0,-2.103895694E-2,2.916159295E-2,3.994738683E-3
3.910196770E0,-2.103895694E-2,3.129211813E-2,5.060002208E-3
3.912684374E0,-2.103895694E-2,3.235738352E-2,5.060002208E-3
3.915171979E0,-2.103895694E-2,3.235738352E-2,5.060002208E-3
3.917659531E0,-2.316948399E-2,3.129211813E-2,3.994738683E-3
3.920147083E0,-2.530001104E-2,2.809632942E-2,3.994738683E-3
3.922634635E0,-2.743053809E-2,2.277000993E-2,2.929474926E-3
3.925122187E0,-3.062633052E-2,1.850895584E-2,7.989477599E-4
3.927609739E0,-3.382211924E-2,1.424790081E-2,7.989477599E-4
3.930097291E0,-3.595264629E-2,8.921583183E-3,-1.331579522E-3
3.932584843E0,-3.701791167E-2,5.725792143E-3,-1.331579522E-3
3.935072395E0,-3.701791167E-2,1.464737463E-3,-2.396843163E-3
3.937559947E0,-3.701791167E-2,-2.796316985E-3,-3.462106921E-3
3.940047499E0,-3.595264629E-2,-5.992108025E-3,-5.592633970E-3
3.942535052E0,-3.382211924E-2,-9.187898599E-3,-6.657897960E-3
3.945022604E0,-3.062633052E-2,-1.025316212E-2,-7.723161485E-3
3.947510156E0,-2.743053809E-2,-1.025316212E-2,-7.723161485E-3
3.949997708E0,-2.210422046E-2,-1.025316212E-2,-8.788425475E-3
3.952485260E0,-1.677790284E-2,-9.187898599E-3,-9.853689000E-3
3.954972812E0,-1.145158429E-2,-8.122635074E-3,-1.091895252E-2
3.957460364E0,-6.125265732E-3,-5.992108025E-3,-1.198421605E-2
3.959947916E0,-7.989477599E-4,-3.861580743E-3,-1.091895252E-2
3.962435468E0,4.527370445E-3,-1.731053460E-3,-1.091895252E-2
3.964923020E0,9.853689000E-3,-1.731053460E-3,-9.853689000E-3
3.967410572E0,1.411474310E-2,-6.657897611E-4,-9.853689000E-3
3.969898124E0,1.731053367E-2,-1.731053460E-3,-8.788425475E-3
3.972385677E0,1.944106072E-2,-2.796316985E-3,-9.853689000E-3
3.974873229E0,2.050632425E-2,-5.992108025E-3,-9.853689000E-3
3.977360781E0,2.157158963E-2,-9.187898599E-3,-9.853689000E-3
3.979848333E0,2.157158963E-2,-1.238369010E-2,-1.091895252E-2
3.982335885E0,2.050632425E-2,-1.664474420E-2,-1.091895252E-2
3.984823437E0,1.837579720E-2,-2.090579830E-2,-1.091895252E-2
3.987310989E0,1.518000662E-2,-2.623211779E-2,-1.091895252E-2
3.989798541E0,1.198421605E-2,-3.155843541E-2,-1.198421605E-2
3.992286093E0,8.788425475E-3,-3.795001656E-2,-1.091895252E-2
3.994773645E0,3.462106921E-3,-4.221107066E-2,-1.198421605E-2
3.997261197E0,-7.989477599E-4,-4.540686309E-2,-1.198421605E-2
3.999748749E0,-6.125265732E-3,-4.647212476E-2,-1.091895252E-2
4.002236302E0,-1.038632076E-2,-4.753739014E-2,-1.091895252E-2
4.004723854E0,-1.571263932E-2,-4.647212476E-2,-9.853689000E-3
4.007211406E0,-2.103895694E-2,-4.327633604E-2,-1.091895252E-2
4.009698958E0,-2.636527456E-2,-4.008054361E-2,-1.091895252E-2
4.012186510E0,-3.062633052E-2,-3.581948951E-2,-9.853689000E-3
4.014674062E0,-3.488738462E-2,-3.262370080E-2,-9.853689000E-3
4.017161614E0,-4.021370411E-2,-3.049317189E-2,-8.788425475E-3
4.019649166E0,-4.447475821E-2,-2.729738131E-2,-8.788425475E-3
4.022136718E0,-4.767054692E-2,-2.623211779E-2,-8.788425475E-3
4.024624270E0,-5.193160102E-2,-2.516685426E-2,-8.788425475E-3
4.027111822E0,-5.619265884E-2,-2.516685426E-2,-8.788425475E-3
4.029599374E0,-5.832318589E-2,-2.410159074E-2,-8.788425475E-3
4.032086927E0,-6.045371294E-2,-2.516685426E-2,-9.853689000E-3
4.034574479E0,-6.151897460E-2,-2.410159074E-2,-1.091895252E-2
4.037062031E0,-6.045371294E-2,-2.410159074E-2,-1.091895252E-2
4.039549583E0,-5.832318589E-2,-2.303632535E-2,-1.091895252E-2
4.042037135E0,-5.619265884E-2,-2.090579830E-2,-1.091895252E-2
4.044524687E0,-5.406212807E-2,-1.984053478E-2,-1.091895252E-2
4.047012239E0,-5.086633936E-2,-1.877527125E-2,-1.198421605E-2
4.049499791E0,-4.660528526E-2,-1.664474420E-2,-1.091895252E-2
4.051987343E0,-4.340949282E-2,-1.344895363E-2,-1.091895252E-2
4.054474895E0,-4.021370411E-2,-1.025316212E-2,-1.091895252E-2
4.056962447E0,-3.595264629E-2,-8.122635074E-3,-9.853689000E-3
4.059449999E0,-3.169159219E-2,-3.861580743E-3,-9.853689000E-3
4.061937552E0,-2.849580161E-2,-6.657897611E-4,-9.853689000E-3
4.064425104E0,-2.423474751E-2,3.595264861E-3,-7.723161485E-3
4.066912656E0,-1.997369342E-2,7.856319658E-3,-8.788425475E-3
4.069400208E0,-1.677790284E-2,1.211737376E-2,-7.723161485E-3
4.071887760E0,-1.464737486E-2,1.637842879E-2,-6.657897960E-3
4.074375312E0,-1.251684781E-2,1.957421936E-2,-5.592633970E-3
4.076862864E0,-9.321057238E-3,2.063948289E-2,-3.462106921E-3
4.079350416E0,-8.255792782E-3,2.063948289E-2,-2.396843163E-3
4.081837968E0,-6.125265732E-3,2.063948289E-2,7.989477599E-4
4.084325520E0,-5.060002208E-3,1.850895584E-2,3.994738683E-3
4.086813072E0,-3.994738683E-3,1.424790081E-2,6.125265732E-3
4.089300624E0,-3.994738683E-3,8.921583183E-3,9.321057238E-3
4.091788177E0,-2.929474926E-3,2.530001104E-3,1.251684781E-2
4.094275729E0,-2.929474926E-3,-3.861580743E-3,1.464737486E-2
4.096763281E0,-1.864211401E-3,-1.131842658E-2,1.784316637E-2
4.099250833E0,-7.989477599E-4,-1.984053478E-2,1.890842989E-2
4.101738385E0,-7.989477599E-4,-2.836264484E-2,2.210422046E-2
4.104225937E0,-7.989477599E-4,-3.581948951E-2,2.423474751E-2
4.106713489E0,-1.864211401E-3,-4.540686309E-2,2.636527456E-2
4.109201041E0,-1.864211401E-3,-5.392897129E-2,2.743053809E-2
4.111688593E0,-1.864211401E-3,-6.032055244E-2,2.956106514E-2
4.114176145E0,-2.929474926E-3,-6.458161026E-2,3.169159219E-2
4.116663697E0,-2.929474926E-3,-6.884266436E-2,3.382211924E-2
4.119151249E0,-3.994738683E-3,-6.990792602E-2,3.488738462E-2
4.121638802E0,-3.994738683E-3,-6.990792602E-2,3.595264629E-2
4.124126354E0,-3.994738683E-3,-6.884266436E-2,3.595264629E-2
4.126613906E0,-3.994738683E-3,-6.564687192E-2,3.808317333E-2
4.129101458E0,-3.994738683E-3,-6.351634115E-2,3.914843872E-2
4.131589010E0,-3.994738683E-3,-6.138581783E-2,4.127896577E-2
4.134076562E0,-3.994738683E-3,-5.712476373E-2,4.127896577E-2
4.136564114E0,-2.929474926E-3,-5.286370963E-2,4.127896577E-2
4.139051666E0,-2.929474926E-3,-4.753739014E-2,4.021370411E-2
4.141539218E0,-1.864211401E-3,-4.221107066E-2,3.914843872E-2
4.144026770E0,-7.989477599E-4,-3.581948951E-2,3.914843872E-2
4.146514322E0,2.663159103E-4,-2.836264484E-2,4.021370411E-2
4.149001874E0,1.331579522E-3,-2.090579830E-2,3.914843872E-2
4.151489427E0,3.462106921E-3,-1.557948068E-2,3.914843872E-2
4.153976979E0,3.462106921E-3,-1.025316212E-2,3.808317333E-2
4.156464531E0,4.527370445E-3,-4.926844500E-3,3.701791167E-2
4.158952083E0,4.527370445E-3,-1.731053460E-3,3.488738462E-2
4.161439635E0,4.527370445E-3,1.464737463E-3,3.382211924E-2
4.163927239E0,4.527370445E-3,4.660528619E-3,3.275685757E-2
4.166414843E0,4.527370445E-3,6.791055668E-3,3.169159219E-2
4.168902447E0,4.527370445E-3,8.921583183E-3,3.062633052E-2
4.171390052E0,4.527370445E-3,1.211737376E-2,2.956106514E-2
4.173877656E0,3.462106921E-3,1.424790081E-2,2.956106514E-2
4.176365260E0,2.396843163E-3,1.637842879E-2,2.956106514E-2
4.178852864E0,1.331579522E-3,1.850895584E-2,2.743053809E-2
4.181340468E0,1.331579522E-3,2.063948289E-2,2.743053809E-2
4.183828072E0,2.663159103E-4,2.277000993E-2,2.743053809E-2
4.186315677E0,-1.864211401E-3,2.383527346E-2,2.636527456E-2
4.188803281E0,-2.929474926E-3,2.490053698E-2,2.636527456E-2
4.191290885E0,-5.060002208E-3,2.490053698E-2,2.743053809E-2
4.193778489E0,-7.190529723E-3,2.383527346E-2,2.636527456E-2
4.196266093E0,-9.321057238E-3,2.277000993E-2,2.530001104E-2
4.198753697E0,-1.145158429E-2,2.063948289E-2,2.423474751E-2
4.201241302E0,-1.251684781E-2,1.850895584E-2,2.423474751E-2
4.203728906E0,-1.358211134E-2,1.637842879E-2,2.316948399E-2
4.206216510E0,-1.358211134E-2,1.424790081E-2,2.210422046E-2
4.208704114E0,-1.358211134E-2,1.105211023E-2,2.103895694E-2
4.211191718E0,-1.251684781E-2,6.791055668E-3,1.890842989E-2
4.213679322E0,-1.038632076E-2,2.530001104E-3,1.784316637E-2
4.216166927E0,-9.321057238E-3,-2.796316985E-3,1.677790284E-2
4.218654531E0,-7.190529723E-3,-8.122635074E-3,1.464737486E-2
4.221142135E0,-5.060002208E-3,-1.451421715E-2,1.145158429E-2
4.223629739E0,-2.929474926E-3,-1.984053478E-2,9.321057238E-3
4.226117343E0,-1.864211401E-3,-2.516685426E-2,7.190529723E-3
4.228604947E0,-1.864211401E-3,-3.049317189E-2,3.994738683E-3
4.231092552E0,-1.864211401E-3,-3.475422785E-2,1.864211401E-3
4.233580156E0,-2.929474926E-3,-3.688475490E-2,-1.331579522E-3
4.236067760E0,-5.060002208E-3,-4.008054361E-2,-3.462106921E-3
4.238555364E0,-7.190529723E-3,-4.114580899E-2,-4.527370445E-3
4.241042968E0,-8.255792782E-3,-4.114580899E-2,-5.592633970E-3
4.243530520E0,-1.038632076E-2,-4.114580899E-2,-5.592633970E-3
4.246018072E0,-1.251684781E-2,-4.008054361E-2,-4.527370445E-3
4.248505624E0,-1.464737486E-2,-3.901528195E-2,-5.592633970E-3
4.250993177E0,-1.784316637E-2,-3.581948951E-2,-4.527370445E-3
4.253480729E0,-2.103895694E-2,-3.155843541E-2,-4.527370445E-3
4.255968281E0,-2.316948399E-2,-2.729738131E-2,-4.527370445E-3
4.258455833E0,-2.530001104E-2,-2.303632535E-2,-4.527370445E-3
4.260943385E0,-2.743053809E-2,-1.771000773E-2,-3.462106921E-3
4.263430937E0,-2.849580161E-2,-1.451421715E-2,-2.396843163E-3
4.265918489E0,-2.849580161E-2,-1.025316212E-2,-1.331579522E-3
4.268406041E0,-2.849580161E-2,-8.122635074E-3,-2.663159103E-4
4.270893593E0,-2.743053809E-2,-7.057371549E-3,7.989477599E-4
4.273381145E0,-2.743053809E-2,-7.057371549E-3,1.864211401E-3
4.275868697E0,-2.530001104E-2,-8.122635074E-3,2.929474926E-3
4.278356249E0,-2.530001104E-2,-1.131842658E-2,2.929474926E-3
4.280843802E0,-2.530001104E-2,-1.451421715E-2,3.994738683E-3
4.283331354E0,-2.530001104E-2,-1.984053478E-2,3.994738683E-3
4.285818906E0,-2.423474751E-2,-2.516685426E-2,2.929474926E-3
4.288306458E0,-2.316948399E-2,-3.049317189E-2,2.929474926E-3
4.290794010E0,-2.210422046E-2,-3.581948951E-2,1.864211401E-3
4.293281562E0,-2.103895694E-2,-4.114580899E-2,1.864211401E-3
4.295769114E0,-1.997369342E-2,-4.540686309E-2,1.864211401E-3
4.298256666E0,-1.997369342E-2,-4.966791719E-2,-2.663159103E-4
4.300744218E0,-1.890842989E-2,-5.286370963E-2,-2.663159103E-4
4.303231770E0,-1.784316637E-2,-5.392897129E-2,-2.663159103E-4
4.305719322E0,-1.784316637E-2,-5.499423668E-2,-1.331579522E-3
4.308206874E0,-1.890842989E-2,-5.712476373E-2,-1.331579522E-3
4.310694427E0,-1.890842989E-2,-5.819002539E-2,-2.396843163E-3
4.313181979E0,-1.997369342E-2,-5.925529078E-2,-2.396843163E-3
4.315669531E0,-2.103895694E-2,-6.138581783E-2,-3.462106921E-3
4.318157083E0,-2.316948399E-2,-6.351634115E-2,-3.462106921E-3
4.320644635E0,-2.423474751E-2,-6.564687192E-2,-4.527370445E-3
4.323132187E0,-2.636527456E-2,-6.671213359E-2,-5.592633970E-3
4.325619739E0,-2.849580161E-2,-6.671213359E-2,-7.723161485E-3
4.328107291E0,-3.062633052E-2,-6.564687192E-2,-7.723161485E-3
4.330594843E0,-3.169159219E-2,-6.245107949E-2,-9.853689000E-3
4.333082395E0,-3.382211924E-2,-6.032055244E-2,-9.853689000E-3
4.335569947E0,-3.595264629E-2,-5.605949834E-2,-9.853689000E-3
4.338057499E0,-3.701791167E-2,-5.286370963E-2,-1.091895252E-2
4.340545052E0,-3.808317333E-2,-4.966791719E-2,-1.091895252E-2
4.343032604E0,-4.021370411E-2,-4.860265180E-2,-1.091895252E-2
4.345520156E0,-4.021370411E-2,-4.753739014E-2,-9.853689000E-3
4.348007708E0,-4.021370411E-2,-4.753739014E-2,-7.723161485E-3
4.350495260E0,-4.021370411E-2,-4.753739014E-2,-5.592633970E-3
4.352982812E0,-4.127896577E-2,-4.753739014E-2,-2.396843163E-3
4.355470364E0,-4.127896577E-2,-4.966791719E-2,-2.663159103E-4
4.357957916E0,-4.127896577E-2,-5.286370963E-2,2.929474926E-3
4.360445468E0,-4.234423116E-2,-5.819002539E-2,3.994738683E-3
4.362933020E0,-4.127896577E-2,-6.458161026E-2,7.190529723E-3
4.365420572E0,-4.021370411E-2,-6.884266436E-2,9.321057238E-3
4.367908124E0,-3.808317333E-2,-7.310371846E-2,1.358211134E-2
4.370395677E0,-3.595264629E-2,-7.416898012E-2,1.677790284E-2
4.372883229E0,-3.169159219E-2,-7.310371846E-2,1.784316637E-2
4.375370781E0,-2.636527456E-2,-6.990792602E-2,1.784316637E-2
4.377858333E0,-2.103895694E-2,-6.671213359E-2,1.890842989E-2
4.380345885E0,-1.464737486E-2,-5.925529078E-2,1.890842989E-2
4.382833437E0,-9.321057238E-3,-5.286370963E-2,1.890842989E-2
4.385320989E0,-3.994738683E-3,-4.434159771E-2,1.890842989E-2
4.387808541E0,1.331579522E-3,-3.688475490E-2,1.890842989E-2
4.390296093E0,6.657897960E-3,-3.049317189E-2,1.784316637E-2
4.392783645E0,8.788425475E-3,-2.410159074E-2,1.677790284E-2
4.395271197E0,1.198421605E-2,-1.771000773E-2,1.571263932E-2
4.397758749E0,1.304947957E-2,-1.131842658E-2,1.464737486E-2
4.400246302E0,1.304947957E-2,-4.926844500E-3,1.251684781E-2
4.402733854E0,1.304947957E-2,-6.657897611E-4,1.038632076E-2
4.405221406E0,1.198421605E-2,5.725792143E-3,8.255792782E-3
4.407708958E0,9.853689000E-3,9.986846708E-3,7.190529723E-3
4.410196510E0,6.657897960E-3,1.531316526E-2,6.125265732E-3
4.412684062E0,3.462106921E-3,1.957421936E-2,3.994738683E-3
4.415171614E0,-1.864211401E-3,2.170474641E-2,1.864211401E-3
4.417659166E0,-6.125265732E-3,2.277000993E-2,7.989477599E-4
4.420146718E0,-1.145158429E-2,2.490053698E-2,-2.663159103E-4
4.422634270E0,-1.890842989E-2,2.703106403E-2,-2.396843163E-3
4.425121822E0,-2.530001104E-2,2.703106403E-2,-3.462106921E-3
4.427609374E0,-3.169159219E-2,2.916159295E-2,-4.527370445E-3
4.430096927E0,-3.914843872E-2,3.022685647E-2,-6.657897960E-3
4.432584479E0,-4.660528526E-2,3.342264518E-2,-8.788425475E-3
4.435072031E0,-5.299686641E-2,3.768370301E-2,-1.091895252E-2
4.437559583E0,-5.725792050E-2,4.301001877E-2,-1.304947957E-2
4.440047135E0,-6.151897460E-2,4.833633825E-2,-1.411474310E-2
4.442534687E0,-6.364950538E-2,5.472791940E-2,-1.518000662E-2
4.445022239E0,-6.578002870E-2,6.005423889E-2,-1.624527015E-2
4.447509791E0,-6.578002870E-2,6.538055837E-2,-1.624527015E-2
4.449997343E0,-6.471476704E-2,6.964161247E-2,-1.731053367E-2
4.452484895E0,-6.151897460E-2,7.390266657E-2,-1.731053367E-2
4.454972447E0,-5.938844755E-2,7.816372067E-2,-1.731053367E-2
4.457459999E0,-5.512739345E-2,8.242477477E-2,-1.837579720E-2
4.459947552E0,-4.980107397E-2,8.455529809E-2,-1.837579720E-2
4.462435104E0,-4.340949282E-2,8.668582886E-2,-1.944106072E-2
4.464922656E0,-3.595264629E-2,8.562056720E-2,-1.944106072E-2
4.467410208E0,-2.956106514E-2,8.349003643E-2,-1.944106072E-2
4.469897760E0,-2.316948399E-2,7.922898233E-2,-1.944106072E-2
4.472385312E0,-1.677790284E-2,7.496792823E-2,-1.944106072E-2
4.474872864E0,-1.038632076E-2,6.857634336E-2,-1.944106072E-2
4.477360416E0,-5.060002208E-3,6.218476593E-2,-1.837579720E-2
4.479847968E0,2.663159103E-4,5.685844645E-2,-1.731053367E-2
4.482335520E0,5.592633970E-3,4.940159991E-2,-1.624527015E-2
4.484823072E0,9.853689000E-3,4.407528415E-2,-1.518000662E-2
4.487310624E0,1.411474310E-2,3.874896467E-2,-1.518000662E-2
4.489798177E0,1.731053367E-2,3.235738352E-2,-1.411474310E-2
4.492285729E0,1.944106072E-2,2.809632942E-2,-1.198421605E-2
4.494773281E0,2.050632425E-2,2.383527346E-2,-1.091895252E-2
4.497260833E0,2.157158963E-2,2.063948289E-2,-9.853689000E-3
4.499748385E0,2.263685316E-2,1.957421936E-2,-8.788425475E-3
4.502235937E0,2.263685316E-2,1.850895584E-2,-7.723161485E-3
4.504723489E0,2.370211668E-2,1.637842879E-2,-6.657897960E-3
4.507211041E0,2.476738021E-2,1.531316526E-2,-5.592633970E-3
4.509698593E0,2.583264373E-2,1.531316526E-2,-4.527370445E-3
4.512186145E0,2.689790726E-2,1.424790081E-2,-3.462106921E-3
4.514673697E0,2.689790726E-2,1.424790081E-2,-3.462106921E-3
4.517161302E0,2.796317078E-2,1.318263728E-2,-2.396843163E-3
4.519648906E0,2.689790726E-2,1.318263728E-2,-2.396843163E-3
4.522136510E0,2.689790726E-2,1.211737376E-2,-3.462106921E-3
4.524624114E0,2.476738021E-2,9.986846708E-3,-3.462106921E-3
4.527111718E0,2.157158963E-2,6.791055668E-3,-5.592633970E-3
4.529599322E0,1.837579720E-2,2.530001104E-3,-6.657897960E-3
4.532086927E0,1.411474310E-2,-2.796316985E-3,-8.788425475E-3
4.534574531E0,8.788425475E-3,-9.187898599E-3,-1.091895252E-2
4.537062135E0,3.462106921E-3,-1.557948068E-2,-1.198421605E-2
4.539549739E0,-1.864211401E-3,-2.197106183E-2,-1.304947957E-2
4.542037343E0,-7.190529723E-3,-2.729738131E-2,-1.411474310E-2
4.544524947E0,-1.251684781E-2,-3.155843541E-2,-1.518000662E-2
4.547012552E0,-1.571263932E-2,-3.475422785E-2,-1.518000662E-2
4.549500156E0,-1.997369342E-2,-3.581948951E-2,-1.518000662E-2
4.551987760E0,-2.316948399E-2,-3.688475490E-2,-1.411474310E-2
4.554475364E0,-2.636527456E-2,-3.795001656E-2,-1.411474310E-2
4.556962968E0,-2.956106514E-2,-3.901528195E-2,-1.411474310E-2
4.559450572E0,-3.275685757E-2,-4.008054361E-2,-1.411474310E-2
4.561938177E0,-3.595264629E-2,-4.221107066E-2,-1.304947957E-2
4.564425781E0,-3.808317333E-2,-4.540686309E-2,-1.198421605E-2
4.566913385E0,-4.021370411E-2,-4.753739014E-2,-1.198421605E-2
4.569400989E0,-4.234423116E-2,-4.966791719E-2,-1.091895252E-2
4.571888593E0,-4.127896577E-2,-5.179844424E-2,-1.091895252E-2
4.574376197E0,-4.021370411E-2,-5.286370963E-2,-1.198421605E-2
4.576863802E0,-3.914843872E-2,-5.286370963E-2,-1.198421605E-2
4.579351406E0,-3.701791167E-2,-5.286370963E-2,-1.198421605E-2
4.581839010E0,-3.488738462E-2,-5.286370963E-2,-1.304947957E-2
4.584326614E0,-3.062633052E-2,-5.073318258E-2,-1.198421605E-2
4.586814218E0,-2.743053809E-2,-4.860265180E-2,-1.091895252E-2
4.589301822E0,-2.423474751E-2,-4.753739014E-2,-9.853689000E-3
4.591789427E0,-2.103895694E-2,-4.434159771E-2,-8.788425475E-3
4.594276979E0,-1.890842989E-2,-4.221107066E-2,-6.657897960E-3
4.596764531E0,-1.677790284E-2,-3.901528195E-2,-4.527370445E-3
4.599252083E0,-1.571263932E-2,-3.581948951E-2,-3.462106921E-3
4.601739635E0,-1.677790284E-2,-3.262370080E-2,-2.396843163E-3
4.604227187E0,-1.677790284E-2,-3.049317189E-2,-1.331579522E-3
4.606714739E0,-1.890842989E-2,-2.729738131E-2,-2.663159103E-4
4.609202291E0,-1.997369342E-2,-2.516685426E-2,1.864211401E-3
4.611689843E0,-2.210422046E-2,-2.197106183E-2,3.994738683E-3
4.614177395E0,-2.530001104E-2,-1.877527125E-2,6.125265732E-3
4.616664947E0,-2.743053809E-2,-1.664474420E-2,7.190529723E-3
4.619152499E0,-2.956106514E-2,-1.344895363E-2,8.255792782E-3
4.621640052E0,-3.169159219E-2,-1.025316212E-2,9.321057238E-3
4.624127604E0,-3.382211924E-2,-5.992108025E-3,9.321057238E-3
4.626615156E0,-3.595264629E-2,-1.731053460E-3,9.321057238E-3
4.629102708E0,-3.701791167E-2,2.530001104E-3,1.038632076E-2
4.631590260E0,-3.808317333E-2,7.856319658E-3,8.255792782E-3
4.634077812E0,-3.914843872E-2,1.318263728E-2,7.190529723E-3
4.636565364E0,-3.914843872E-2,1.850895584E-2,5.060002208E-3
4.639052916E0,-3.808317333E-2,2.383527346E-2,3.994738683E-3
4.641540468E0,-3.701791167E-2,2.916159295E-2,2.929474926E-3
4.644028020E0,-3.701791167E-2,3.342264518E-2,1.864211401E-3
4.646515572E0,-3.595264629E-2,3.661843762E-2,7.989477599E-4
4.649003124E0,-3.488738462E-2,3.874896467E-2,-2.663159103E-4
4.651490677E0,-3.382211924E-2,3.874896467E-2,-2.396843163E-3
4.653978229E0,-3.275685757E-2,3.768370301E-2,-3.462106921E-3
4.656465781E0,-3.062633052E-2,3.661843762E-2,-5.592633970E-3
4.658953333E0,-2.849580161E-2,3.555317223E-2,-6.657897960E-3
4.661440885E0,-2.636527456E-2,3.448791057E-2,-9.853689000E-3
4.663928437E0,-2.316948399E-2,3.448791057E-2,-9.853689000E-3
4.666415989E0,-1.997369342E-2,3.235738352E-2,-1.091895252E-2
4.668903541E0,-1.784316637E-2,3.129211813E-2,-1.198421605E-2
4.671391093E0,-1.358211134E-2,3.022685647E-2,-1.304947957E-2
4.673878645E0,-1.145158429E-2,3.022685647E-2,-1.304947957E-2
4.676366197E0,-9.321057238E-3,3.022685647E-2,-1.304947957E-2
4.678853749E0,-7.190529723E-3,3.022685647E-2,-1.198421605E-2
4.681341302E0,-7.190529723E-3,3.129211813E-2,-1.091895252E-2
4.683828854E0,-5.060002208E-3,3.129211813E-2,-9.853689000E-3
4.686316406E0,-5.060002208E-3,3.235738352E-2,-8.788425475E-3
4.688803958E0,-3.994738683E-3,3.448791057E-2,-6.657897960E-3
4.691291510E0,-3.994738683E-3,3.661843762E-2,-5.592633970E-3
4.693779062E0,-3.994738683E-3,3.768370301E-2,-4.527370445E-3
4.696266614E0,-5.060002208E-3,3.981423005E-2,-3.462106921E-3
4.698754166E0,-5.060002208E-3,4.301001877E-2,-1.331579522E-3
4.701241718E0,-5.060002208E-3,4.407528415E-2,-2.663159103E-4
4.703729270E0,-5.060002208E-3,4.620581120E-2,1.864211401E-3
4.706216822E0,-5.060002208E-3,4.833633825E-2,2.929474926E-3
4.708704374E0,-5.060002208E-3,5.046686530E-2,3.994738683E-3
4.711191927E0,-6.125265732E-3,5.153212696E-2,5.060002208E-3
4.713679479E0,-6.125265732E-3,5.259739235E-2,6.125265732E-3
4.716167031E0,-7.190529723E-3,5.366265774E-2,6.125265732E-3
4.718654583E0,-8.255792782E-3,5.366265774E-2,7.190529723E-3
4.721142135E0,-9.321057238E-3,5.472791940E-2,7.190529723E-3
4.723629687E0,-1.145158429E-2,5.579318479E-2,8.255792782E-3
4.726117239E0,-1.251684781E-2,5.685844645E-2,9.321057238E-3
4.728604791E0,-1.251684781E-2,5.792371184E-2,1.038632076E-2
4.731092343E0,-1.145158429E-2,5.898897350E-2,1.145158429E-2
4.733579895E0,-1.251684781E-2,5.898897350E-2,1.358211134E-2
4.736067447E0,-1.251684781E-2,6.005423889E-2,1.464737486E-2
4.738554999E0,-1.145158429E-2,6.111950055E-2,1.571263932E-2
4.741042552E0,-1.038632076E-2,6.111950055E-2,1.677790284E-2
4.743530104E0,-9.321057238E-3,6.218476593E-2,1.784316637E-2
4.746017656E0,-8.255792782E-3,6.218476593E-2,1.890842989E-2
4.748505208E0,-7.190529723E-3,6.218476593E-2,1.997369342E-2
4.750992760E0,-5.060002208E-3,6.218476593E-2,1.997369342E-2
4.753480312E0,-3.994738683E-3,6.111950055E-2,1.997369342E-2
4.755967864E0,-3.994738683E-3,5.898897350E-2,1.890842989E-2
4.758455416E0,-2.929474926E-3,5.472791940E-2,1.784316637E-2
4.760942968E0,-2.929474926E-3,5.046686530E-2,1.677790284E-2
4.763430520E0,-2.929474926E-3,4.620581120E-2,1.571263932E-2
4.765918072E0,-1.864211401E-3,4.087949172E-2,1.464737486E-2
4.768405624E0,-1.864211401E-3,3.555317223E-2,1.358211134E-2
4.770893177E0,-7.989477599E-4,3.129211813E-2,1.251684781E-2
4.773380729E0,-7.989477599E-4,2.809632942E-2,1.251684781E-2
4.775868281E0,-7.989477599E-4,2.596580051E-2,1.251684781E-2
4.778355833E0,-7.989477599E-4,2.490053698E-2,1.358211134E-2
4.780843385E0,-7.989477599E-4,2.383527346E-2,1.464737486E-2
4.783330937E0,-1.864211401E-3,2.383527346E-2,1.677790284E-2
4.785818489E0,-1.864211401E-3,2.277000993E-2,1.784316637E-2
4.788306041E0,-2.929474926E-3,2.170474641E-2,1.890842989E-2
4.790793593E0,-3.994738683E-3,2.063948289E-2,2.103895694E-2
4.793281145E0,-5.060002208E-3,1.957421936E-2,2.103895694E-2
4.795768697E0,-5.060002208E-3,1.744369231E-2,2.316948399E-2
4.798256249E0,-5.060002208E-3,1.637842879E-2,2.423474751E-2
4.800743802E0,-3.994738683E-3,1.531316526E-2,2.636527456E-2
4.803231354E0,-2.929474926E-3,1.637842879E-2,2.743053809E-2
4.805718906E0,-7.989477599E-4,1.531316526E-2,2.743053809E-2
4.808206458E0,2.663159103E-4,1.424790081E-2,2.849580161E-2
4.810694010E0,2.396843163E-3,1.211737376E-2,2.743053809E-2
4.813181562E0,4.527370445E-3,9.986846708E-3,2.743053809E-2
4.815669114E0,7.723161485E-3,6.791055668E-3,2.636527456E-2
4.818156666E0,1.091895252E-2,2.530001104E-3,2.530001104E-2
4.820644218E0,1.304947957E-2,-1.731053460E-3,2.530001104E-2
4.823131770E0,1.518000662E-2,-5.992108025E-3,2.316948399E-2
4.825619322E0,1.731053367E-2,-9.187898599E-3,2.210422046E-2
4.828106874E0,1.837579720E-2,-1.344895363E-2,1.997369342E-2
4.830594427E0,2.050632425E-2,-1.557948068E-2,1.890842989E-2
4.833081979E0,2.263685316E-2,-1.664474420E-2,1.677790284E-2
4.835569531E0,2.370211668E-2,-1.664474420E-2,1.464737486E-2
4.838057083E0,2.583264373E-2,-1.664474420E-2,1.251684781E-2
4.840544635E0,2.689790726E-2,-1.664474420E-2,1.038632076E-2
4.843032187E0,2.689790726E-2,-1.451421715E-2,8.255792782E-3
4.845519739E0,2.689790726E-2,-1.451421715E-2,6.125265732E-3
4.848007291E0,2.476738021E-2,-1.451421715E-2,5.060002208E-3
4.850494843E0,2.263685316E-2,-1.451421715E-2,2.929474926E-3
4.852982395E0,2.050632425E-2,-1.451421715E-2,1.864211401E-3
4.855469947E0,1.837579720E-2,-1.451421715E-2,7.989477599E-4
4.857957499E0,1.518000662E-2,-1.451421715E-2,7.989477599E-4
4.860445052E0,1.198421605E-2,-1.557948068E-2,1.864211401E-3
4.862932604E0,7.723161485E-3,-1.664474420E-2,1.864211401E-3
4.865420156E0,4.527370445E-3,-1.877527125E-2,1.864211401E-3
4.867907708E0,2.663159103E-4,-2.090579830E-2,1.864211401E-3
4.870395260E0,-5.060002208E-3,-2.410159074E-2,2.929474926E-3
4.872882812E0,-8.255792782E-3,-2.623211779E-2,2.929474926E-3
4.875370364E0,-1.251684781E-2,-2.729738131E-2,3.994738683E-3
4.877857916E0,-1.677790284E-2,-2.942790836E-2,5.060002208E-3
4.880345468E0,-2.103895694E-2,-2.942790836E-2,6.125265732E-3
4.882833020E0,-2.423474751E-2,-2.942790836E-2,7.190529723E-3
4.885320572E0,-2.743053809E-2,-2.942790836E-2,8.255792782E-3
4.887808124E0,-2.956106514E-2,-2.836264484E-2,8.255792782E-3
4.890295677E0,-3.062633052E-2,-2.623211779E-2,9.321057238E-3
4.892783281E0,-3.062633052E-2,-2.303632535E-2,1.038632076E-2
4.895270885E0,-3.062633052E-2,-1.877527125E-2,1.145158429E-2
4.897758489E0,-2.956106514E-2,-1.451421715E-2,1.145158429E-2
4.900246093E0,-2.743053809E-2,-1.131842658E-2,1.251684781E-2
4.902733697E0,-2.636527456E-2,-5.992108025E-3,1.358211134E-2
4.905221302E0,-2.316948399E-2,-1.731053460E-3,1.464737486E-2
4.907708906E0,-2.103895694E-2,2.530001104E-3,1.677790284E-2
4.910196510E0,-1.784316637E-2,5.725792143E-3,1.890842989E-2
4.912684114E0,-1.571263932E-2,7.856319658E-3,2.210422046E-2
4.915171718E0,-1.358211134E-2,9.986846708E-3,2.423474751E-2
4.917659322E0,-1.038632076E-2,1.105211023E-2,2.636527456E-2
4.920146927E0,-9.321057238E-3,1.105211023E-2,2.743053809E-2
4.922634531E0,-7.190529723E-3,1.105211023E-2,2.743053809E-2
4.925122135E0,-6.125265732E-3,9.986846708E-3,2.956106514E-2
4.927609739E0,-6.125265732E-3,9.986846708E-3,3.062633052E-2
4.930097343E0,-7.190529723E-3,8.921583183E-3,3.062633052E-2
4.932584947E0,-9.321057238E-3,6.791055668E-3,2.956106514E-2
4.935072552E0,-1.251684781E-2,4.660528619E-3,2.849580161E-2
4.937560156E0,-1.677790284E-2,4.660528619E-3,2.636527456E-2
4.940047760E0,-2.316948399E-2,4.660528619E-3,2.423474751E-2
4.942535364E0,-3.062633052E-2,5.725792143E-3,2.210422046E-2
4.945022968E0,-3.914843872E-2,8.921583183E-3,1.784316637E-2
4.947510572E0,-4.554001987E-2,1.318263728E-2,1.464737486E-2
4.949998177E0,-5.299686641E-2,1.850895584E-2,1.038632076E-2
4.952485781E0,-6.045371294E-2,2.383527346E-2,5.060002208E-3
4.954973385E0,-6.578002870E-2,3.129211813E-2,7.989477599E-4
4.957460989E0,-7.110634446E-2,3.874896467E-2,-4.527370445E-3
4.959948593E0,-7.643266767E-2,4.620581120E-2,-8.788425475E-3
4.962436197E0,-7.962846011E-2,5.366265774E-2,-1.198421605E-2
4.964923802E0,-8.175898343E-2,6.005423889E-2,-1.624527015E-2
4.967411354E0,-8.282424510E-2,6.644582003E-2,-1.944106072E-2
4.969898906E0,-8.282424510E-2,7.177213579E-2,-2.050632425E-2
4.972386458E0,-8.175898343E-2,7.709845901E-2,-2.157158963E-2
4.974874010E0,-8.069372177E-2,8.135951310E-2,-2.157158963E-2
4.977361562E0,-7.749792933E-2,8.349003643E-2,-2.157158963E-2
4.979849114E0,-7.430213690E-2,8.349003643E-2,-2.157158963E-2
4.982336666E0,-7.004108280E-2,8.349003643E-2,-2.050632425E-2
4.984824218E0,-6.471476704E-2,8.135951310E-2,-2.050632425E-2
4.987311770E0,-5.832318589E-2,7.709845901E-2,-1.837579720E-2
4.989799322E0,-5.299686641E-2,7.070687413E-2,-1.624527015E-2
4.992286874E0,-4.660528526E-2,6.431528926E-2,-1.304947957E-2
4.994774427E0,-4.021370411E-2,5.579318479E-2,-1.091895252E-2
4.997261979E0,-3.488738462E-2,4.620581120E-2,-6.657897960E-3
4.999749531E0,-2.956106514E-2,3.768370301E-2,-1.331579522E-3
5.002237083E0,-2.530001104E-2,2.916159295E-2,2.929474926E-3
5.004724635E0,-1.890842989E-2,2.170474641E-2,8.255792782E-3
5.007212187E0,-1.464737486E-2,1.531316526E-2,1.358211134E-2
5.009699739E0,-1.038632076E-2,9.986846708E-3,1.997369342E-2
5.012187291E0,-7.190529723E-3,4.660528619E-3,2.636527456E-2
5.014674843E0,-2.929474926E-3,3.994738800E-4,3.169159219E-2
5.017162395E0,-7.989477599E-4,-2.796316985E-3,3.808317333E-2
5.019649947E0,1.331579522E-3,-4.926844500E-3,4.447475821E-2
5.022137499E0,2.396843163E-3,-7.057371549E-3,5.086633936E-2
5.024625052E0,4.527370445E-3,-8.122635074E-3,5.619265884E-2
