"Time (s)","Acceleration x (m/s^2)","Acceleration y (m/s^2)","Acceleration z (m/s^2)"
4.684901000E-2,-5.015852451E-1,1.981201917E-1,1.112166500E1
4.934515600E-2,-4.537012279E-1,1.933317930E-1,1.107856941E1
5.184130200E-2,-4.249708056E-1,2.124854028E-1,1.104505062E1
5.433744700E-2,-3.770867586E-1,2.268506140E-1,1.101153183E1
5.683359300E-2,-3.339911401E-1,2.364274114E-1,1.095407104E1
5.932973900E-2,-2.813186944E-1,2.460042238E-1,1.087266827E1
6.182588500E-2,-2.047042400E-1,2.555810213E-1,1.081041908E1
6.432203100E-2,-1.424549967E-1,2.699462473E-1,1.074338150E1
6.682203100E-2,-6.584054977E-2,2.747346461E-1,1.067634392E1
6.932203100E-2,1.197100850E-3,3.130418658E-1,1.057578754E1
7.177203100E-2,9.696517140E-2,3.321954906E-1,1.042734718E1
7.422203100E-2,1.400607973E-1,2.938882709E-1,1.038903999E1
7.672557200E-2,1.879448295E-1,2.555810213E-1,1.035552120E1
7.922911400E-2,2.166752517E-1,1.981201917E-1,1.030284882E1
8.177911400E-2,2.214636505E-1,1.358709484E-1,1.021665764E1
8.432911400E-2,2.166752517E-1,1.119289324E-1,1.013046551E1
8.687911400E-2,2.023100406E-1,1.119289324E-1,1.007300472E1
8.942911400E-2,1.687912196E-1,1.358709484E-1,1.000117874E1
9.197911400E-2,1.352723986E-1,1.646013707E-1,9.982025146E0
9.452911400E-2,1.113303825E-1,1.693897694E-1,9.948506355E0
9.707911400E-2,1.017535701E-1,1.502361596E-1,9.938929558E0
9.962911400E-2,7.302315533E-2,1.071405262E-1,9.938929558E0
1.021791140E-1,1.077390742E-2,5.446808785E-2,9.934141159E0
1.047291140E-1,-1.316810958E-2,3.052607179E-2,9.938929558E0
1.072791140E-1,-7.541735470E-2,1.137245819E-2,9.924564362E0
1.098291140E-1,-1.424549967E-1,6.584054790E-3,9.905410767E0
1.123791140E-1,-1.759738177E-1,1.795651275E-3,9.900622368E0
1.149291140E-1,-2.047042400E-1,2.094926499E-2,9.886257172E0
1.174791140E-1,-2.382230759E-1,2.094926499E-2,9.900622368E0
1.200291140E-1,-2.813186944E-1,4.489128292E-2,9.914987564E0
1.225791140E-1,-2.908954918E-1,5.925649032E-2,9.958083153E0
1.251291140E-1,-3.004723191E-1,4.489128292E-2,9.996390343E0
1.276791140E-1,-2.861070931E-1,2.573766746E-2,1.003948593E1
1.302291140E-1,-2.621650994E-1,6.584054790E-3,1.010173512E1
1.327791140E-1,-2.382230759E-1,1.137245819E-2,1.014483070E1
1.353291140E-1,-2.334346622E-1,1.795651275E-3,1.016398430E1
1.378791140E-1,-2.382230759E-1,2.573766746E-2,1.019271564E1
1.404291140E-1,-2.430114746E-1,4.967968538E-2,1.023102283E1
1.429791140E-1,-2.621650994E-1,5.925649032E-2,1.025975323E1
1.455291140E-1,-2.861070931E-1,8.798690885E-2,1.027411842E1
1.480791140E-1,-2.908954918E-1,1.023521200E-1,1.030284882E1
1.506291140E-1,-2.956839204E-1,9.277531505E-2,1.031242561E1
1.531791140E-1,-3.004723191E-1,7.841010392E-2,1.032200241E1
1.557291140E-1,-2.908954918E-1,9.277531505E-2,1.032679081E1
1.582791140E-1,-3.004723191E-1,1.071405262E-1,1.033157921E1
1.608291140E-1,-3.148375154E-1,1.502361596E-1,1.032679081E1
1.633791140E-1,-3.339911401E-1,1.933317930E-1,1.030284882E1
1.659291140E-1,-3.579331636E-1,2.029085904E-1,1.028369522E1
1.684791140E-1,-3.770867586E-1,2.172738016E-1,1.024538803E1
1.710291140E-1,-3.866635859E-1,2.076970041E-1,1.020229244E1
1.735791140E-1,-3.675099611E-1,1.741781682E-1,1.017356110E1
1.761291140E-1,-3.435679376E-1,1.598129570E-1,1.011610031E1
1.786791140E-1,-3.100491166E-1,1.598129570E-1,1.006821632E1
1.812291140E-1,-3.052607179E-1,1.646013707E-1,1.001554394E1
1.837791140E-1,-3.004723191E-1,1.885433793E-1,9.996390343E0
1.863034370E-1,-3.004723191E-1,2.220622003E-1,9.977236748E0
1.887910410E-1,-3.004723191E-1,2.316390127E-1,9.962871552E0
1.912785930E-1,-3.244143426E-1,2.555810213E-1,9.938929558E0
1.937661450E-1,-3.339911401E-1,2.651578486E-1,9.929352760E0
1.962536970E-1,-3.675099611E-1,2.603694201E-1,9.924564362E0
1.987412490E-1,-3.483563364E-1,2.555810213E-1,9.919775963E0
2.012288020E-1,-3.675099611E-1,2.651578486E-1,9.924564362E0
2.037163540E-1,-3.770867586E-1,2.555810213E-1,9.905410767E0
2.062039060E-1,-3.627215624E-1,2.699462473E-1,9.891045570E0
2.086914580E-1,-3.579331636E-1,2.651578486E-1,9.881468773E0
2.111790100E-1,-3.100491166E-1,2.651578486E-1,9.886257172E0
2.136665620E-1,-3.052607179E-1,2.699462473E-1,9.886257172E0
2.161541140E-1,-2.813186944E-1,2.555810213E-1,9.914987564E0
2.186416660E-1,-2.956839204E-1,2.938882709E-1,9.924564362E0
2.211292180E-1,-3.148375154E-1,3.226186931E-1,9.934141159E0
2.236167700E-1,-3.435679376E-1,3.178302646E-1,9.924564362E0
2.261043220E-1,-3.627215624E-1,3.274070919E-1,9.900622368E0
2.285918740E-1,-3.866635859E-1,3.417722881E-1,9.862315178E0
2.310794270E-1,-3.962403834E-1,3.513490856E-1,9.828796387E0
2.335669790E-1,-3.866635859E-1,3.705027103E-1,9.804854393E0
2.360545310E-1,-4.010287821E-1,3.657143116E-1,9.814431190E0
2.385420830E-1,-4.153940082E-1,3.800795078E-1,9.819219589E0
2.410296350E-1,-4.345476031E-1,3.896563351E-1,9.852738380E0
2.435171870E-1,-4.824316502E-1,4.088099301E-1,9.891045570E0
2.460047390E-1,-5.494692922E-1,4.135983288E-1,9.948506355E0
2.484922910E-1,-5.973533392E-1,4.423287511E-1,1.002033234E1
2.509798430E-1,-6.548141837E-1,4.806360006E-1,1.008736992E1
2.534673950E-1,-7.170634270E-1,4.758476019E-1,1.012088871E1
2.559549470E-1,-7.457938194E-1,4.662707746E-1,1.013525391E1
2.584424990E-1,-7.553706169E-1,4.710591733E-1,1.015440750E1
2.609300520E-1,-7.553706169E-1,4.519055784E-1,1.015440750E1
2.634176040E-1,-7.314286232E-1,4.375403523E-1,1.014004230E1
2.659051560E-1,-7.122750282E-1,4.183867574E-1,1.013525391E1
2.683927080E-1,-6.787561774E-1,3.944447339E-1,1.011131191E1
2.708802600E-1,-6.308721304E-1,3.896563351E-1,1.008258152E1
2.733678120E-1,-5.781996846E-1,3.800795078E-1,1.005863953E1
2.758553640E-1,-5.398924947E-1,3.609259129E-1,1.004427433E1
2.783429160E-1,-4.872200489E-1,3.321954906E-1,1.000596714E1
2.808304680E-1,-4.297592044E-1,3.369838893E-1,9.977236748E0
2.833180200E-1,-3.962403834E-1,3.274070919E-1,9.919775963E0
2.858055720E-1,-3.818751574E-1,3.369838893E-1,9.838373184E0
2.882931240E-1,-3.531447649E-1,3.465606868E-1,9.766547203E0
2.907806770E-1,-3.148375154E-1,3.561375141E-1,9.694721222E0
2.932682290E-1,-2.717418969E-1,3.609259129E-1,9.632472038E0
2.957557810E-1,-2.382230759E-1,3.800795078E-1,9.579799652E0
2.982433330E-1,-2.382230759E-1,3.848679364E-1,9.527127266E0
3.007308850E-1,-2.525882721E-1,3.848679364E-1,9.488820076E0
3.032184370E-1,-2.813186944E-1,4.088099301E-1,9.445724487E0
3.057059890E-1,-2.908954918E-1,4.231751561E-1,9.393052101E0
3.081935410E-1,-3.244143426E-1,4.279635549E-1,9.345168114E0
3.106810930E-1,-3.722983599E-1,4.519055784E-1,9.287707329E0
3.131686450E-1,-3.866635859E-1,4.519055784E-1,9.235034943E0
3.156561970E-1,-4.010287821E-1,4.279635549E-1,9.201516151E0
3.181437490E-1,-4.058171809E-1,4.375403523E-1,9.153631210E0
3.206313020E-1,-3.914519846E-1,4.231751561E-1,9.129689217E0
3.231188540E-1,-4.010287821E-1,4.135983288E-1,9.110535622E0
3.256064580E-1,-4.058171809E-1,4.088099301E-1,9.086593628E0
3.280940620E-1,-4.106055796E-1,4.231751561E-1,9.081805229E0
3.305816660E-1,-4.537012279E-1,4.231751561E-1,9.091382027E0
3.330692700E-1,-5.015852451E-1,4.327519536E-1,9.110535622E0
3.355568740E-1,-5.351040959E-1,4.471171796E-1,9.120112419E0
3.380444790E-1,-5.686228871E-1,4.375403523E-1,9.115324020E0
3.405320830E-1,-6.165069342E-1,4.327519536E-1,9.100958824E0
3.430196870E-1,-6.596025825E-1,4.183867574E-1,9.120112419E0
3.455072910E-1,-7.074866295E-1,4.135983288E-1,9.144054413E0
3.479948950E-1,-7.649474144E-1,3.992331326E-1,9.124900818E0
3.504824990E-1,-8.224082589E-1,3.944447339E-1,9.115324020E0
3.529701040E-1,-8.894459605E-1,3.992331326E-1,9.120112419E0
3.554577080E-1,-9.516952038E-1,4.183867574E-1,9.144054413E0
3.579453120E-1,-9.995791912E-1,4.183867574E-1,9.187150002E0
3.604329160E-1,-1.042674899E0,4.088099301E-1,9.215881348E0
3.629205200E-1,-1.076193690E0,4.183867574E-1,9.273342133E0
3.654081240E-1,-1.095347285E0,4.135983288E-1,9.316437721E0
3.678957290E-1,-1.095347285E0,3.848679364E-1,9.335591316E0
3.703833330E-1,-1.066616893E0,3.848679364E-1,9.383475304E0
3.728709370E-1,-1.028309584E0,3.657143116E-1,9.397840500E0
3.753585410E-1,-9.756371975E-1,3.752911091E-1,9.407417297E0
3.778461450E-1,-9.229647517E-1,3.896563351E-1,9.431359291E0
3.803337490E-1,-8.798691034E-1,3.896563351E-1,9.469666481E0
3.828213540E-1,-8.415619135E-1,3.992331326E-1,9.488820076E0
3.853089580E-1,-8.128314614E-1,4.231751561E-1,9.503185272E0
3.877965620E-1,-7.649474144E-1,4.423287511E-1,9.560646057E0
3.902841660E-1,-7.266402245E-1,4.519055784E-1,9.613318443E0
3.927717700E-1,-6.787561774E-1,4.710591733E-1,9.646837234E0
3.952593740E-1,-6.356605291E-1,4.854243994E-1,9.699509621E0
3.977469790E-1,-5.925649405E-1,4.902127981E-1,9.733028412E0
4.002345830E-1,-5.686228871E-1,5.045779943E-1,9.766547203E0
4.027221870E-1,-5.398924947E-1,5.237316489E-1,9.809642792E0
4.052097910E-1,-5.303156972E-1,5.189431906E-1,9.838373184E0
4.076973950E-1,-5.255272985E-1,5.476736426E-1,9.876680374E0
4.101849990E-1,-5.303156972E-1,5.859808922E-1,9.905410767E0
4.126726040E-1,-5.303156972E-1,6.147112846E-1,9.962871552E0
4.151602080E-1,-5.255272985E-1,6.051344872E-1,9.996390343E0
4.176478120E-1,-5.015852451E-1,5.907692909E-1,1.002033234E1
4.201354160E-1,-4.872200489E-1,5.859808922E-1,1.004906273E1
4.226230200E-1,-4.584896266E-1,5.572504401E-1,1.010173512E1
4.251106240E-1,-4.249708056E-1,5.237316489E-1,1.012088871E1
4.275982290E-1,-4.297592044E-1,5.093663931E-1,1.015919590E1
4.300858330E-1,-4.297592044E-1,4.997895956E-1,1.019750404E1
4.325734370E-1,-4.489128292E-1,5.093663931E-1,1.021665764E1
4.350609890E-1,-4.680664241E-1,5.141547918E-1,1.021186924E1
4.375485410E-1,-5.111620426E-1,5.285200477E-1,1.022144604E1
4.400360930E-1,-5.398924947E-1,5.380968451E-1,1.024059963E1
4.425236450E-1,-5.542576909E-1,5.428852439E-1,1.025496483E1
4.450111970E-1,-5.973533392E-1,5.237316489E-1,1.026933002E1
4.474987490E-1,-6.117185354E-1,5.285200477E-1,1.026454163E1
4.499863020E-1,-6.643909812E-1,5.093663931E-1,1.026454163E1
4.524738540E-1,-7.074866295E-1,5.093663931E-1,1.026933002E1
4.549614060E-1,-7.697358727E-1,4.997895956E-1,1.025017643E1
4.574489580E-1,-8.559271097E-1,5.045779943E-1,1.022144604E1
4.599365100E-1,-8.990227580E-1,4.997895956E-1,1.018313885E1
4.624240620E-1,-9.229647517E-1,4.902127981E-1,1.014004230E1
4.649116140E-1,-9.612720013E-1,5.045779943E-1,1.008736992E1
4.673991660E-1,-9.804255962E-1,5.189431906E-1,1.004906273E1
4.698867180E-1,-9.947907925E-1,5.428852439E-1,9.967659950E0
4.723742700E-1,-9.995791912E-1,5.668272376E-1,9.886257172E0
4.748618220E-1,-1.004367590E0,5.428852439E-1,9.804854393E0
4.773493740E-1,-9.947907925E-1,5.189431906E-1,9.752182007E0
4.798369270E-1,-9.516952038E-1,5.093663931E-1,9.675567627E0
4.823244790E-1,-9.038111567E-1,4.950011969E-1,9.598953247E0
4.848120310E-1,-8.702923059E-1,5.141547918E-1,9.527127266E0
4.872995830E-1,-8.224082589E-1,5.428852439E-1,9.479243279E0
4.897871350E-1,-7.984662652E-1,5.764040351E-1,9.474454880E0
4.922746870E-1,-7.697358727E-1,6.147112846E-1,9.455301285E0
4.947622390E-1,-7.362170219E-1,6.482301354E-1,9.460089684E0
4.972497910E-1,-7.026981711E-1,6.769605279E-1,9.479243279E0
4.997373430E-1,-6.596025825E-1,6.913257241E-1,9.493608475E0
5.022248950E-1,-6.117185354E-1,6.865373254E-1,9.527127266E0
5.047124470E-1,-5.781996846E-1,6.817489266E-1,9.565434456E0
5.071999990E-1,-5.446808934E-1,6.721721292E-1,9.618106842E0
5.096875520E-1,-5.159504414E-1,6.913257241E-1,9.675567627E0
5.121751040E-1,-5.015852451E-1,7.056909800E-1,9.723451614E0
5.146626560E-1,-5.351040959E-1,7.296329737E-1,9.776124001E0
5.171502080E-1,-5.781996846E-1,7.535749674E-1,9.857526779E0
5.196377600E-1,-6.260837317E-1,7.775170207E-1,9.948506355E0
5.221253120E-1,-6.548141837E-1,7.775170207E-1,1.000117874E1
5.246128640E-1,-6.883329749E-1,7.727286220E-1,1.006342793E1
5.271004160E-1,-7.314286232E-1,7.679402232E-1,1.010652351E1
5.295879680E-1,-7.505822182E-1,7.631517649E-1,1.015440750E1
5.320755200E-1,-7.697358727E-1,7.535749674E-1,1.019750404E1
5.345630720E-1,-7.793126702E-1,7.344213724E-1,1.024059963E1
5.370506240E-1,-7.984662652E-1,7.009025216E-1,1.025975323E1
5.395381770E-1,-7.984662652E-1,6.625953317E-1,1.030284882E1
5.420257290E-1,-8.176198602E-1,6.290764809E-1,1.032200241E1
5.445132810E-1,-8.271966577E-1,6.099228859E-1,1.035552120E1
5.470008330E-1,-8.271966577E-1,6.194996834E-1,1.038903999E1
5.494883850E-1,-8.702923059E-1,6.194996834E-1,1.042734718E1
5.519759370E-1,-8.990227580E-1,6.194996834E-1,1.043213558E1
5.544634890E-1,-9.229647517E-1,6.242880821E-1,1.044171238E1
5.569510410E-1,-9.181763530E-1,5.907692909E-1,1.045607758E1
5.594385930E-1,-9.181763530E-1,5.811924338E-1,1.046086597E1
5.619261450E-1,-9.277531505E-1,5.811924338E-1,1.045128918E1
5.644136970E-1,-9.181763530E-1,5.716156363E-1,1.041298199E1
5.669012490E-1,-9.229647517E-1,5.668272376E-1,1.037946320E1
5.693888020E-1,-9.181763530E-1,5.572504401E-1,1.035552120E1
5.718763540E-1,-9.181763530E-1,5.476736426E-1,1.034594440E1
5.743639060E-1,-9.038111567E-1,5.524620414E-1,1.032679081E1
5.768515100E-1,-8.750807047E-1,5.572504401E-1,1.028369522E1
5.793391140E-1,-8.607155085E-1,5.476736426E-1,1.024538803E1
5.818267180E-1,-8.511387110E-1,5.524620414E-1,1.021665764E1
5.843143220E-1,-8.511387110E-1,5.524620414E-1,1.018313885E1
5.868019270E-1,-8.224082589E-1,5.572504401E-1,1.015440750E1
5.892895310E-1,-8.032546639E-1,5.572504401E-1,1.011131191E1
5.917771350E-1,-7.888894677E-1,5.524620414E-1,1.007779312E1
5.942647390E-1,-7.793126702E-1,5.524620414E-1,1.002512074E1
5.967523430E-1,-7.601590157E-1,5.333084464E-1,9.996390343E0
5.992399470E-1,-7.410054207E-1,5.380968451E-1,9.977236748E0
6.017275520E-1,-7.266402245E-1,5.189431906E-1,9.967659950E0
6.042151560E-1,-6.931213737E-1,5.141547918E-1,9.948506355E0
6.067027600E-1,-6.643909812E-1,5.141547918E-1,9.929352760E0
6.091903640E-1,-6.643909812E-1,5.189431906E-1,9.919775963E0
6.116779680E-1,-6.500257850E-1,5.141547918E-1,9.891045570E0
6.141655720E-1,-6.548141837E-1,5.045779943E-1,9.886257172E0
6.166531770E-1,-6.500257850E-1,4.902127981E-1,9.847949982E0
6.191407810E-1,-6.500257850E-1,4.806360006E-1,9.828796387E0
6.216283850E-1,-6.356605291E-1,4.566939771E-1,9.809642792E0
6.241159890E-1,-6.165069342E-1,4.327519536E-1,9.814431190E0
6.266035930E-1,-5.925649405E-1,4.327519536E-1,9.824007988E0
6.290911970E-1,-5.829881430E-1,4.183867574E-1,9.819219589E0
6.315788020E-1,-5.925649405E-1,4.135983288E-1,9.824007988E0
6.340664060E-1,-6.069301367E-1,4.183867574E-1,9.828796387E0
6.365540100E-1,-6.308721304E-1,4.135983288E-1,9.814431190E0
6.390416140E-1,-6.500257850E-1,4.135983288E-1,9.804854393E0
6.415292180E-1,-6.835445762E-1,3.992331326E-1,9.819219589E0
6.440168220E-1,-7.266402245E-1,3.944447339E-1,9.809642792E0
6.465044270E-1,-7.601590157E-1,3.944447339E-1,9.795277596E0
6.489920310E-1,-7.841010690E-1,3.992331326E-1,9.771335602E0
6.514796350E-1,-8.032546639E-1,3.992331326E-1,9.756970406E0
6.539672390E-1,-8.224082589E-1,3.752911091E-1,9.728240013E0
6.564548430E-1,-8.463503122E-1,3.705027103E-1,9.709086418E0
6.589424470E-1,-8.559271097E-1,3.561375141E-1,9.694721222E0
6.614300520E-1,-8.607155085E-1,3.465606868E-1,9.685144424E0
6.639176560E-1,-8.702923059E-1,3.321954906E-1,9.699509621E0
6.664052600E-1,-8.559271097E-1,3.369838893E-1,9.723451614E0
6.688928640E-1,-8.415619135E-1,3.369838893E-1,9.737816811E0
6.713804680E-1,-8.559271097E-1,3.274070919E-1,9.733028412E0
6.738680720E-1,-8.655039072E-1,3.321954906E-1,9.733028412E0
6.763556770E-1,-8.655039072E-1,3.369838893E-1,9.756970406E0
6.788432810E-1,-8.511387110E-1,3.321954906E-1,9.737816811E0
6.813308850E-1,-8.367735147E-1,3.082534671E-1,9.718663216E0
6.838184370E-1,-7.888894677E-1,3.130418658E-1,9.699509621E0
6.863059890E-1,-7.410054207E-1,3.226186931E-1,9.675567627E0
6.887935410E-1,-7.170634270E-1,3.274070919E-1,9.661202431E0
6.912810930E-1,-6.931213737E-1,3.274070919E-1,9.642048836E0
6.937686450E-1,-6.643909812E-1,3.417722881E-1,9.651625633E0
6.962561970E-1,-6.452373862E-1,3.417722881E-1,9.627683640E0
6.987437490E-1,-6.356605291E-1,3.321954906E-1,9.618106842E0
7.012313020E-1,-6.356605291E-1,3.417722881E-1,9.598953247E0
7.037188540E-1,-6.643909812E-1,3.226186931E-1,9.565434456E0
7.062064060E-1,-6.643909812E-1,3.226186931E-1,9.522338867E0
7.086939580E-1,-6.596025825E-1,3.274070919E-1,9.488820076E0
7.111815100E-1,-6.548141837E-1,3.274070919E-1,9.464878082E0
7.136690620E-1,-6.500257850E-1,3.226186931E-1,9.412205696E0
7.161566140E-1,-6.117185354E-1,3.082534671E-1,9.388263702E0
7.186441660E-1,-5.973533392E-1,2.890998423E-1,9.397840500E0
7.211317180E-1,-5.542576909E-1,2.843114436E-1,9.407417297E0
7.236192700E-1,-5.207388401E-1,3.130418658E-1,9.421782494E0
7.261068220E-1,-5.303156972E-1,3.130418658E-1,9.407417297E0
7.285943740E-1,-5.351040959E-1,3.082534671E-1,9.397840500E0
7.310819270E-1,-5.494692922E-1,3.034650683E-1,9.388263702E0
7.335694790E-1,-5.542576909E-1,3.178302646E-1,9.378686905E0
7.360570310E-1,-5.781996846E-1,3.178302646E-1,9.369110107E0
7.385445830E-1,-6.117185354E-1,3.082534671E-1,9.388263702E0
7.410321350E-1,-6.308721304E-1,3.034650683E-1,9.421782494E0
7.435196870E-1,-6.596025825E-1,2.986766696E-1,9.464878082E0
7.460072390E-1,-6.596025825E-1,3.034650683E-1,9.498396873E0
7.484947910E-1,-6.787561774E-1,2.986766696E-1,9.512762070E0
7.509823430E-1,-6.883329749E-1,3.369838893E-1,9.551069260E0
7.534698950E-1,-6.643909812E-1,3.178302646E-1,9.575011253E0
7.559574470E-1,-6.883329749E-1,3.082534671E-1,9.613318443E0
7.584449990E-1,-6.739677787E-1,3.130418658E-1,9.656414032E0
7.609325520E-1,-6.931213737E-1,3.130418658E-1,9.689932823E0
7.634201040E-1,-7.266402245E-1,3.178302646E-1,9.723451614E0
7.659076560E-1,-7.936778665E-1,3.178302646E-1,9.747393608E0
7.683952080E-1,-8.271966577E-1,3.226186931E-1,9.776124001E0
7.708827600E-1,-8.750807047E-1,3.274070919E-1,9.795277596E0
7.733703120E-1,-8.990227580E-1,3.369838893E-1,9.804854393E0
7.758578640E-1,-8.846575022E-1,3.321954906E-1,9.804854393E0
7.783454160E-1,-8.990227580E-1,3.321954906E-1,9.804854393E0
7.808329680E-1,-8.990227580E-1,3.321954906E-1,9.804854393E0
7.833205200E-1,-8.942343593E-1,3.274070919E-1,9.790489197E0
7.858080720E-1,-8.894459605E-1,3.417722881E-1,9.776124001E0
7.882956240E-1,-8.655039072E-1,3.321954906E-1,9.800065994E0
7.907831770E-1,-8.607155085E-1,3.321954906E-1,9.800065994E0
7.932707290E-1,-8.224082589E-1,3.417722881E-1,9.790489197E0
7.957582810E-1,-7.745242715E-1,3.321954906E-1,9.766547203E0
7.982458330E-1,-7.649474144E-1,3.417722881E-1,9.761758804E0
8.007333850E-1,-7.266402245E-1,3.417722881E-1,9.733028412E0
8.032209370E-1,-7.122750282E-1,3.369838893E-1,9.694721222E0
8.057084890E-1,-7.170634270E-1,3.226186931E-1,9.694721222E0
8.081960410E-1,-7.026981711E-1,3.274070919E-1,9.685144424E0
8.106835930E-1,-6.979097724E-1,3.274070919E-1,9.670779228E0
8.131711450E-1,-7.026981711E-1,3.274070919E-1,9.651625633E0
8.156586970E-1,-7.074866295E-1,3.274070919E-1,9.642048836E0
8.181462490E-1,-7.026981711E-1,3.274070919E-1,9.603741646E0
8.206338020E-1,-6.835445762E-1,3.274070919E-1,9.579799652E0
8.231213540E-1,-6.643909812E-1,3.321954906E-1,9.570222855E0
8.256089060E-1,-6.691793799E-1,3.369838893E-1,9.522338867E0
8.280964580E-1,-6.643909812E-1,3.417722881E-1,9.522338867E0
8.305840100E-1,-6.596025825E-1,3.321954906E-1,9.541492462E0
8.330716140E-1,-6.260837317E-1,3.274070919E-1,9.517550468E0
8.355592180E-1,-6.165069342E-1,2.890998423E-1,9.517550468E0
8.380468220E-1,-5.829881430E-1,2.555810213E-1,9.531915665E0
8.405344270E-1,-5.351040959E-1,2.268506140E-1,9.555857658E0
8.430220310E-1,-5.303156972E-1,2.220622003E-1,9.570222855E0
8.455096350E-1,-5.398924947E-1,2.124854028E-1,9.613318443E0
8.479972390E-1,-5.351040959E-1,2.316390127E-1,9.632472038E0
8.504848430E-1,-5.255272985E-1,2.316390127E-1,9.665990829E0
8.529724470E-1,-5.159504414E-1,2.316390127E-1,9.685144424E0
8.554600520E-1,-5.159504414E-1,2.172738016E-1,9.723451614E0
8.579476560E-1,-5.207388401E-1,2.172738016E-1,9.742605209E0
8.604352600E-1,-5.255272985E-1,2.220622003E-1,9.761758804E0
8.629228640E-1,-5.159504414E-1,2.268506140E-1,9.780912399E0
8.654104680E-1,-5.111620426E-1,2.316390127E-1,9.804854393E0
8.678980720E-1,-5.111620426E-1,2.460042238E-1,9.819219589E0
8.703856770E-1,-5.255272985E-1,2.651578486E-1,9.828796387E0
8.728732810E-1,-5.446808934E-1,2.747346461E-1,9.838373184E0
8.753608850E-1,-5.590460896E-1,2.747346461E-1,9.857526779E0
8.778484890E-1,-5.734112859E-1,2.747346461E-1,9.852738380E0
8.803360930E-1,-5.877765417E-1,2.843114436E-1,9.843161583E0
8.828236970E-1,-5.925649405E-1,2.986766696E-1,9.819219589E0
8.853113020E-1,-5.877765417E-1,3.178302646E-1,9.809642792E0
8.877989060E-1,-5.973533392E-1,3.369838893E-1,9.828796387E0
8.902865100E-1,-6.212953329E-1,3.417722881E-1,9.800065994E0
8.927741140E-1,-6.260837317E-1,3.321954906E-1,9.790489197E0
8.952617180E-1,-6.308721304E-1,3.417722881E-1,9.785700798E0
8.977493220E-1,-6.452373862E-1,3.513490856E-1,9.795277596E0
9.002369270E-1,-6.260837317E-1,3.465606868E-1,9.790489197E0
9.027245310E-1,-6.260837317E-1,3.417722881E-1,9.790489197E0
9.052121350E-1,-6.404489279E-1,3.609259129E-1,9.804854393E0
9.076997390E-1,-6.356605291E-1,3.513490856E-1,9.790489197E0
9.101873430E-1,-6.548141837E-1,3.705027103E-1,9.761758804E0
9.126749470E-1,-6.452373862E-1,3.705027103E-1,9.737816811E0
9.151625520E-1,-6.452373862E-1,3.513490856E-1,9.680356026E0
9.176501560E-1,-6.356605291E-1,3.609259129E-1,9.642048836E0
9.201377600E-1,-6.260837317E-1,3.705027103E-1,9.632472038E0
9.226253640E-1,-6.117185354E-1,3.944447339E-1,9.622895241E0
9.251129680E-1,-6.069301367E-1,3.800795078E-1,9.622895241E0
9.276005720E-1,-5.829881430E-1,3.609259129E-1,9.589376450E0
9.300881770E-1,-5.542576909E-1,3.417722881E-1,9.575011253E0
9.325757810E-1,-5.446808934E-1,3.274070919E-1,9.551069260E0
9.350633330E-1,-5.446808934E-1,3.178302646E-1,9.536704063E0
9.375508850E-1,-5.446808934E-1,3.130418658E-1,9.541492462E0
9.400384370E-1,-5.590460896E-1,3.082534671E-1,9.522338867E0
9.425259890E-1,-5.734112859E-1,2.986766696E-1,9.522338867E0
9.450135410E-1,-5.686228871E-1,2.890998423E-1,9.565434456E0
9.475010930E-1,-5.781996846E-1,2.938882709E-1,9.584588051E0
9.499886450E-1,-5.973533392E-1,2.795230448E-1,9.594164848E0
9.524761970E-1,-6.069301367E-1,2.795230448E-1,9.613318443E0
9.549637490E-1,-6.069301367E-1,2.747346461E-1,9.627683640E0
9.574513020E-1,-6.021417379E-1,2.603694201E-1,9.656414032E0
9.599388540E-1,-6.165069342E-1,2.651578486E-1,9.694721222E0
9.624264060E-1,-6.212953329E-1,2.555810213E-1,9.723451614E0
9.649139580E-1,-6.404489279E-1,2.555810213E-1,9.771335602E0
9.674015100E-1,-6.500257850E-1,2.555810213E-1,9.809642792E0
9.698890620E-1,-6.596025825E-1,2.795230448E-1,9.838373184E0
9.723766140E-1,-7.026981711E-1,2.938882709E-1,9.876680374E0
9.748641660E-1,-7.362170219E-1,2.986766696E-1,9.929352760E0
9.773517180E-1,-7.649474144E-1,3.178302646E-1,9.943717957E0
9.798392700E-1,-7.888894677E-1,3.178302646E-1,9.929352760E0
9.823268220E-1,-8.128314614E-1,3.369838893E-1,9.943717957E0
9.848143740E-1,-8.559271097E-1,3.752911091E-1,9.953294754E0
9.873019270E-1,-8.702923059E-1,3.848679364E-1,9.938929558E0
9.897894790E-1,-8.942343593E-1,3.896563351E-1,9.914987564E0
9.922770310E-1,-8.990227580E-1,4.040215313E-1,9.905410767E0
9.947645830E-1,-9.085995555E-1,4.135983288E-1,9.886257172E0
9.972521350E-1,-9.229647517E-1,4.279635549E-1,9.867103577E0
9.997396870E-1,-9.133879542E-1,4.471171796E-1,9.819219589E0
1.002227239E0,-8.990227580E-1,4.566939771E-1,9.785700798E0
1.004714791E0,-8.894459605E-1,4.279635549E-1,9.742605209E0
1.007202343E0,-8.990227580E-1,4.566939771E-1,9.713874817E0
1.009689895E0,-8.750807047E-1,4.854243994E-1,9.709086418E0
1.012177447E0,-8.798691034E-1,4.997895956E-1,9.675567627E0
1.014664999E0,-8.702923059E-1,4.950011969E-1,9.661202431E0
1.017152552E0,-8.607155085E-1,4.950011969E-1,9.656414032E0
1.019640104E0,-8.367735147E-1,4.997895956E-1,9.642048836E0
1.022127656E0,-7.888894677E-1,4.854243994E-1,9.579799652E0
1.024615208E0,-7.457938194E-1,4.854243994E-1,9.536704063E0
1.027102760E0,-6.835445762E-1,4.614823759E-1,9.512762070E0
1.029590312E0,-6.260837317E-1,4.471171796E-1,9.512762070E0
1.032077864E0,-5.925649405E-1,4.423287511E-1,9.527127266E0
1.034565416E0,-5.829881430E-1,4.375403523E-1,9.536704063E0
1.037052968E0,-5.925649405E-1,4.423287511E-1,9.541492462E0
1.039540520E0,-6.165069342E-1,4.375403523E-1,9.541492462E0
1.042028072E0,-6.500257850E-1,4.423287511E-1,9.589376450E0
1.044515624E0,-6.835445762E-1,4.423287511E-1,9.627683640E0
1.047003177E0,-6.979097724E-1,4.423287511E-1,9.670779228E0
1.049490729E0,-7.074866295E-1,4.231751561E-1,9.709086418E0
1.051978281E0,-7.026981711E-1,4.088099301E-1,9.752182007E0
1.054465833E0,-7.074866295E-1,4.183867574E-1,9.814431190E0
1.056953385E0,-7.122750282E-1,4.088099301E-1,9.871891975E0
1.059440937E0,-7.266402245E-1,4.040215313E-1,9.948506355E0
1.061928489E0,-7.457938194E-1,4.135983288E-1,9.996390343E0
1.064416041E0,-7.697358727E-1,4.135983288E-1,1.005863953E1
1.066903593E0,-7.984662652E-1,4.135983288E-1,1.014483070E1
1.069391145E0,-8.224082589E-1,4.279635549E-1,1.022144604E1
1.071878697E0,-8.415619135E-1,4.231751561E-1,1.027890682E1
1.074366249E0,-8.367735147E-1,4.375403523E-1,1.032679081E1
1.076853802E0,-8.415619135E-1,4.519055784E-1,1.036509800E1
1.079341354E0,-8.559271097E-1,4.471171796E-1,1.038425159E1
1.081828906E0,-8.511387110E-1,4.614823759E-1,1.039382839E1
1.084316458E0,-8.367735147E-1,4.519055784E-1,1.037467480E1
1.086804010E0,-8.319851160E-1,4.327519536E-1,1.036988640E1
1.089291562E0,-8.128314614E-1,4.279635549E-1,1.036509800E1
1.091779166E0,-8.032546639E-1,4.327519536E-1,1.034594440E1
1.094266770E0,-8.128314614E-1,4.183867574E-1,1.034115601E1
1.096754374E0,-8.367735147E-1,4.375403523E-1,1.033636761E1
1.099241979E0,-8.559271097E-1,4.279635549E-1,1.031242561E1
1.101729583E0,-8.846575022E-1,4.279635549E-1,1.026454163E1
1.104217187E0,-8.942343593E-1,4.135983288E-1,1.020708084E1
1.106704791E0,-8.846575022E-1,3.896563351E-1,1.012567711E1
1.109192395E0,-8.750807047E-1,3.705027103E-1,1.008258152E1
1.111679999E0,-8.607155085E-1,3.609259129E-1,1.002512074E1
1.114167604E0,-8.511387110E-1,3.321954906E-1,9.986813545E0
1.116655208E0,-8.511387110E-1,3.417722881E-1,9.938929558E0
1.119142812E0,-8.271966577E-1,3.417722881E-1,9.919775963E0
1.121630416E0,-8.176198602E-1,3.178302646E-1,9.919775963E0
1.124118020E0,-8.128314614E-1,3.321954906E-1,9.905410767E0
1.126605624E0,-8.224082589E-1,3.274070919E-1,9.924564362E0
1.129093229E0,-8.271966577E-1,3.226186931E-1,9.934141159E0
1.131580833E0,-8.463503122E-1,3.226186931E-1,9.919775963E0
1.134068437E0,-8.415619135E-1,3.082534671E-1,9.914987564E0
1.136556041E0,-8.367735147E-1,3.130418658E-1,9.914987564E0
1.139043645E0,-8.080430627E-1,2.938882709E-1,9.919775963E0
1.141531249E0,-7.793126702E-1,2.843114436E-1,9.929352760E0
1.144018854E0,-7.649474144E-1,2.747346461E-1,9.948506355E0
1.146506458E0,-7.314286232E-1,2.651578486E-1,9.953294754E0
1.148994062E0,-7.457938194E-1,2.603694201E-1,9.953294754E0
1.151481666E0,-7.266402245E-1,2.555810213E-1,9.958083153E0
1.153969270E0,-7.601590157E-1,2.507926226E-1,9.986813545E0
1.156456874E0,-7.793126702E-1,2.699462473E-1,1.003469753E1
1.158944479E0,-7.936778665E-1,2.795230448E-1,1.002512074E1
1.161432083E0,-8.176198602E-1,2.890998423E-1,1.004427433E1
1.163919687E0,-8.415619135E-1,2.747346461E-1,1.004906273E1
1.166407291E0,-8.702923059E-1,2.651578486E-1,1.003469753E1
1.168894895E0,-9.085995555E-1,2.603694201E-1,1.002512074E1
1.171382499E0,-9.229647517E-1,2.555810213E-1,1.005385113E1
1.173870104E0,-9.708487988E-1,2.555810213E-1,1.005385113E1
1.176357708E0,-1.004367590E0,2.651578486E-1,1.006821632E1
1.178845312E0,-1.018732786E0,2.747346461E-1,1.006821632E1
1.181332916E0,-1.033097982E0,2.843114436E-1,1.007300472E1
1.183820520E0,-1.052251697E0,2.843114436E-1,1.008258152E1
1.186308124E0,-1.071405292E0,3.034650683E-1,1.009694672E1
1.188795729E0,-1.052251697E0,2.986766696E-1,1.009215832E1
1.191283281E0,-1.037886381E0,3.034650683E-1,1.009215832E1
1.193770833E0,-1.023521185E0,2.890998423E-1,1.010173512E1
1.196258385E0,-9.852139950E-1,2.986766696E-1,1.010173512E1
1.198745937E0,-9.277531505E-1,3.178302646E-1,1.008736992E1
1.201233489E0,-9.038111567E-1,3.417722881E-1,1.009215832E1
1.203721041E0,-8.990227580E-1,3.417722881E-1,1.010173512E1
1.206208593E0,-8.559271097E-1,3.561375141E-1,1.008258152E1
1.208696145E0,-8.128314614E-1,3.705027103E-1,1.006821632E1
1.211183697E0,-7.697358727E-1,3.752911091E-1,1.002512074E1
1.213671249E0,-7.362170219E-1,3.657143116E-1,9.996390343E0
1.216158802E0,-7.074866295E-1,3.752911091E-1,9.958083153E0
1.218646354E0,-6.835445762E-1,3.705027103E-1,9.914987564E0
1.221133906E0,-6.500257850E-1,3.657143116E-1,9.871891975E0
1.223621458E0,-6.260837317E-1,3.800795078E-1,9.819219589E0
1.226109010E0,-6.212953329E-1,3.752911091E-1,9.742605209E0
1.228596562E0,-6.117185354E-1,3.561375141E-1,9.685144424E0
1.231084114E0,-6.212953329E-1,3.561375141E-1,9.632472038E0
1.233571666E0,-6.212953329E-1,3.465606868E-1,9.570222855E0
1.236059218E0,-6.212953329E-1,3.321954906E-1,9.512762070E0
1.238546770E0,-6.260837317E-1,2.938882709E-1,9.455301285E0
1.241034322E0,-6.308721304E-1,3.034650683E-1,9.431359291E0
1.243521874E0,-6.165069342E-1,2.938882709E-1,9.383475304E0
1.246009427E0,-6.308721304E-1,2.938882709E-1,9.345168114E0
1.248496979E0,-6.212953329E-1,2.795230448E-1,9.330802917E0
1.250984531E0,-6.260837317E-1,2.795230448E-1,9.340379715E0
1.253472083E0,-6.404489279E-1,2.603694201E-1,9.340379715E0
1.255959635E0,-6.548141837E-1,2.412158251E-1,9.340379715E0
1.258447187E0,-6.596025825E-1,2.220622003E-1,9.369110107E0
1.260934739E0,-6.883329749E-1,1.981201917E-1,9.412205696E0
1.263422291E0,-7.410054207E-1,1.933317930E-1,9.484031677E0
1.265909843E0,-7.649474144E-1,2.029085904E-1,9.527127266E0
1.268397395E0,-7.841010690E-1,2.172738016E-1,9.555857658E0
1.270884947E0,-8.128314614E-1,2.220622003E-1,9.622895241E0
1.273372499E0,-8.128314614E-1,2.268506140E-1,9.675567627E0
1.275860052E0,-8.271966577E-1,2.268506140E-1,9.747393608E0
1.278347604E0,-8.367735147E-1,2.412158251E-1,9.824007988E0
1.280835156E0,-8.511387110E-1,2.364274114E-1,9.905410767E0
1.283322708E0,-8.559271097E-1,2.412158251E-1,9.958083153E0
1.285810260E0,-8.702923059E-1,2.460042238E-1,1.002033234E1
1.288297812E0,-8.655039072E-1,2.555810213E-1,1.006821632E1
1.290785364E0,-8.607155085E-1,2.460042238E-1,1.012088871E1
1.293272916E0,-8.559271097E-1,2.555810213E-1,1.015440750E1
1.295760468E0,-8.463503122E-1,2.555810213E-1,1.013525391E1
1.298248020E0,-8.176198602E-1,2.651578486E-1,1.012567711E1
1.300735572E0,-8.176198602E-1,2.747346461E-1,1.012567711E1
1.303223124E0,-8.367735147E-1,2.747346461E-1,1.009215832E1
1.305710677E0,-8.224082589E-1,2.843114436E-1,1.007300472E1
1.308198229E0,-8.367735147E-1,2.795230448E-1,1.005385113E1
1.310685781E0,-8.655039072E-1,2.795230448E-1,1.002033234E1
1.313173333E0,-8.702923059E-1,2.890998423E-1,9.991601944E0
1.315660885E0,-8.894459605E-1,2.843114436E-1,9.958083153E0
1.318148437E0,-9.085995555E-1,2.938882709E-1,9.905410767E0
1.320635989E0,-9.277531505E-1,2.843114436E-1,9.857526779E0
1.323123541E0,-9.469067454E-1,2.890998423E-1,9.824007988E0
1.325611093E0,-9.612720013E-1,3.034650683E-1,9.800065994E0
1.328098645E0,-9.756371975E-1,3.178302646E-1,9.780912399E0
1.330586197E0,-9.995791912E-1,3.226186931E-1,9.752182007E0
1.333073749E0,-1.004367590E0,3.321954906E-1,9.718663216E0
1.335561302E0,-9.995791912E-1,3.369838893E-1,9.661202431E0
1.338048854E0,-9.947907925E-1,3.321954906E-1,9.651625633E0
1.340536406E0,-1.009155989E0,3.226186931E-1,9.637260437E0
1.343023958E0,-1.018732786E0,3.082534671E-1,9.618106842E0
1.345511510E0,-1.018732786E0,3.130418658E-1,9.598953247E0
1.347999114E0,-1.037886381E0,3.321954906E-1,9.589376450E0
1.350486718E0,-1.033097982E0,3.417722881E-1,9.570222855E0
1.352974322E0,-1.013944387E0,3.465606868E-1,9.565434456E0
1.355461927E0,-1.018732786E0,3.321954906E-1,9.536704063E0
1.357949531E0,-1.028309584E0,3.178302646E-1,9.546280861E0
1.360437135E0,-1.028309584E0,3.178302646E-1,9.565434456E0
1.362924739E0,-1.018732786E0,3.369838893E-1,9.570222855E0
1.365412343E0,-1.023521185E0,3.465606868E-1,9.584588051E0
1.367899947E0,-1.028309584E0,3.609259129E-1,9.598953247E0
1.370387552E0,-1.037886381E0,3.705027103E-1,9.608530045E0
1.372875156E0,-1.037886381E0,3.800795078E-1,9.618106842E0
1.375362760E0,-1.052251697E0,3.609259129E-1,9.627683640E0
1.377850364E0,-1.047463298E0,3.561375141E-1,9.632472038E0
1.380337968E0,-1.028309584E0,3.417722881E-1,9.656414032E0
1.382825572E0,-1.037886381E0,3.513490856E-1,9.670779228E0
1.385313177E0,-1.033097982E0,3.657143116E-1,9.680356026E0
1.387800781E0,-1.033097982E0,3.561375141E-1,9.675567627E0
1.390288385E0,-1.047463298E0,3.705027103E-1,9.670779228E0
1.392775989E0,-1.037886381E0,3.705027103E-1,9.685144424E0
1.395263593E0,-1.037886381E0,3.944447339E-1,9.689932823E0
1.397751197E0,-1.052251697E0,3.992331326E-1,9.689932823E0
1.400238802E0,-1.052251697E0,4.040215313E-1,9.689932823E0
1.402726406E0,-1.071405292E0,4.135983288E-1,9.675567627E0
1.405214010E0,-1.071405292E0,4.040215313E-1,9.675567627E0
1.407701614E0,-1.090558887E0,3.896563351E-1,9.670779228E0
1.410189218E0,-1.095347285E0,3.752911091E-1,9.670779228E0
1.412676822E0,-1.109712481E0,3.800795078E-1,9.670779228E0
1.415164427E0,-1.104924083E0,3.800795078E-1,9.670779228E0
1.417652031E0,-1.090558887E0,3.944447339E-1,9.642048836E0
1.420139635E0,-1.100135684E0,4.231751561E-1,9.632472038E0
1.422627239E0,-1.100135684E0,4.231751561E-1,9.627683640E0
1.425114843E0,-1.080982089E0,4.327519536E-1,9.637260437E0
1.427602447E0,-1.085770488E0,4.375403523E-1,9.646837234E0
1.430090052E0,-1.057040095E0,4.566939771E-1,9.637260437E0
1.432577656E0,-1.009155989E0,4.423287511E-1,9.627683640E0
1.435065260E0,-9.564836025E-1,4.327519536E-1,9.618106842E0
1.437552864E0,-9.181763530E-1,4.183867574E-1,9.598953247E0
1.440040468E0,-8.846575022E-1,4.088099301E-1,9.594164848E0
1.442528072E0,-8.655039072E-1,4.040215313E-1,9.584588051E0
1.445015677E0,-8.511387110E-1,3.944447339E-1,9.579799652E0
1.447503229E0,-8.319851160E-1,4.135983288E-1,9.579799652E0
1.449990781E0,-7.936778665E-1,4.135983288E-1,9.575011253E0
1.452478333E0,-7.745242715E-1,4.183867574E-1,9.565434456E0
1.454965885E0,-7.697358727E-1,4.183867574E-1,9.541492462E0
1.457453437E0,-7.553706169E-1,4.088099301E-1,9.498396873E0
1.459940989E0,-7.266402245E-1,3.896563351E-1,9.512762070E0
1.462428541E0,-7.122750282E-1,3.752911091E-1,9.517550468E0
1.464916093E0,-7.122750282E-1,3.705027103E-1,9.522338867E0
1.467403645E0,-7.266402245E-1,3.705027103E-1,9.531915665E0
1.469891197E0,-7.505822182E-1,3.800795078E-1,9.560646057E0
1.472378749E0,-7.649474144E-1,3.800795078E-1,9.551069260E0
1.474866302E0,-7.745242715E-1,3.800795078E-1,9.575011253E0
1.477353854E0,-7.841010690E-1,3.705027103E-1,9.584588051E0
1.479841406E0,-7.936778665E-1,3.561375141E-1,9.589376450E0
1.482328958E0,-7.793126702E-1,3.609259129E-1,9.589376450E0
1.484816510E0,-8.080430627E-1,3.417722881E-1,9.608530045E0
1.487304062E0,-8.080430627E-1,3.513490856E-1,9.632472038E0
1.489791614E0,-8.224082589E-1,3.657143116E-1,9.675567627E0
1.492279166E0,-8.511387110E-1,3.417722881E-1,9.718663216E0
1.494766718E0,-8.798691034E-1,3.226186931E-1,9.766547203E0
1.497254270E0,-9.038111567E-1,3.321954906E-1,9.795277596E0
1.499741822E0,-9.277531505E-1,3.274070919E-1,9.833584785E0
1.502229374E0,-9.325415492E-1,3.369838893E-1,9.862315178E0
1.504716927E0,-9.708487988E-1,3.513490856E-1,9.891045570E0
1.507204479E0,-9.900023937E-1,3.609259129E-1,9.895833969E0
1.509692031E0,-9.995791912E-1,3.321954906E-1,9.914987564E0
1.512179583E0,-1.037886381E0,3.321954906E-1,9.943717957E0
1.514667135E0,-1.037886381E0,3.513490856E-1,9.948506355E0
1.517154687E0,-1.057040095E0,3.465606868E-1,9.953294754E0
1.519642239E0,-1.052251697E0,3.561375141E-1,9.958083153E0
1.522129791E0,-1.061828494E0,3.513490856E-1,9.943717957E0
1.524617343E0,-1.076193690E0,3.752911091E-1,9.967659950E0
1.527104895E0,-1.066616893E0,3.657143116E-1,9.986813545E0
1.529592447E0,-1.076193690E0,3.561375141E-1,1.001554394E1
1.532079999E0,-1.061828494E0,3.513490856E-1,1.002990913E1
1.534567552E0,-1.052251697E0,3.465606868E-1,1.004427433E1
1.537055104E0,-1.061828494E0,3.561375141E-1,1.006342793E1
1.539542656E0,-1.057040095E0,3.561375141E-1,1.009215832E1
1.542030208E0,-1.061828494E0,3.705027103E-1,1.008736992E1
1.544517760E0,-1.052251697E0,3.752911091E-1,1.008258152E1
1.547005312E0,-1.028309584E0,3.417722881E-1,1.008258152E1
1.549492864E0,-1.013944387E0,3.321954906E-1,1.006821632E1
1.551980416E0,-9.995791912E-1,3.369838893E-1,1.006342793E1
1.554467968E0,-9.900023937E-1,3.226186931E-1,1.005863953E1
1.556955520E0,-9.708487988E-1,2.938882709E-1,1.006342793E1
1.559443072E0,-9.516952038E-1,2.938882709E-1,1.002990913E1
1.561930624E0,-9.421183467E-1,2.938882709E-1,1.003469753E1
1.564418177E0,-9.277531505E-1,3.034650683E-1,1.002990913E1
1.566905729E0,-9.421183467E-1,3.082534671E-1,1.001075554E1
1.569393281E0,-9.325415492E-1,3.082534671E-1,9.972448349E0
1.571880833E0,-9.229647517E-1,2.938882709E-1,9.953294754E0
1.574368385E0,-9.133879542E-1,2.890998423E-1,9.914987564E0
1.576855937E0,-9.181763530E-1,2.603694201E-1,9.862315178E0
1.579343489E0,-9.133879542E-1,2.603694201E-1,9.838373184E0
1.581831041E0,-9.277531505E-1,2.747346461E-1,9.800065994E0
1.584318593E0,-9.229647517E-1,2.890998423E-1,9.776124001E0
1.586806145E0,-9.277531505E-1,3.082534671E-1,9.747393608E0
1.589293697E0,-9.421183467E-1,3.178302646E-1,9.728240013E0
1.591781249E0,-9.277531505E-1,2.986766696E-1,9.704298019E0
1.594268802E0,-9.181763530E-1,2.699462473E-1,9.689932823E0
1.596756354E0,-9.229647517E-1,2.651578486E-1,9.685144424E0
1.599243906E0,-9.133879542E-1,2.651578486E-1,9.680356026E0
1.601731458E0,-9.229647517E-1,2.843114436E-1,9.665990829E0
1.604219010E0,-9.421183467E-1,3.034650683E-1,9.665990829E0
1.606706614E0,-9.516952038E-1,3.130418658E-1,9.670779228E0
1.609194218E0,-9.564836025E-1,3.178302646E-1,9.656414032E0
1.611681822E0,-9.852139950E-1,3.226186931E-1,9.651625633E0
1.614169427E0,-9.852139950E-1,3.082534671E-1,9.656414032E0
1.616657031E0,-1.004367590E0,2.890998423E-1,9.651625633E0
1.619144635E0,-1.023521185E0,2.651578486E-1,9.675567627E0
1.621632239E0,-1.028309584E0,2.603694201E-1,9.670779228E0
1.624119843E0,-1.033097982E0,2.555810213E-1,9.689932823E0
1.626607447E0,-1.042674899E0,2.412158251E-1,9.689932823E0
1.629095052E0,-1.037886381E0,2.268506140E-1,9.713874817E0
1.631582656E0,-1.076193690E0,2.412158251E-1,9.723451614E0
1.634070260E0,-1.090558887E0,2.316390127E-1,9.742605209E0
1.636557864E0,-1.114500880E0,2.364274114E-1,9.756970406E0
1.639045468E0,-1.133654475E0,2.364274114E-1,9.766547203E0
1.641533072E0,-1.157596469E0,2.268506140E-1,9.756970406E0
1.644020677E0,-1.186326981E0,2.507926226E-1,9.747393608E0
1.646508281E0,-1.205480576E0,2.507926226E-1,9.747393608E0
1.648995885E0,-1.243787766E0,2.603694201E-1,9.728240013E0
1.651483489E0,-1.262941360E0,2.843114436E-1,9.718663216E0
1.653971093E0,-1.258152962E0,2.795230448E-1,9.699509621E0
1.656458697E0,-1.258152962E0,2.986766696E-1,9.694721222E0
1.658946302E0,-1.243787766E0,2.843114436E-1,9.675567627E0
1.661433906E0,-1.224634171E0,2.651578486E-1,9.670779228E0
1.663921510E0,-1.205480576E0,2.507926226E-1,9.680356026E0
1.666409114E0,-1.200692177E0,2.555810213E-1,9.689932823E0
1.668896718E0,-1.191115379E0,2.651578486E-1,9.685144424E0
1.671384322E0,-1.186326981E0,2.747346461E-1,9.689932823E0
1.673871927E0,-1.191115379E0,2.795230448E-1,9.685144424E0
1.676359531E0,-1.171961784E0,2.699462473E-1,9.694721222E0
1.678847135E0,-1.176750183E0,2.747346461E-1,9.680356026E0
1.681334739E0,-1.162384868E0,2.603694201E-1,9.685144424E0
1.683822343E0,-1.143231273E0,2.651578486E-1,9.689932823E0
1.686309947E0,-1.133654475E0,2.699462473E-1,9.718663216E0
1.688797552E0,-1.100135684E0,2.651578486E-1,9.747393608E0
1.691285156E0,-1.061828494E0,2.364274114E-1,9.747393608E0
1.693772760E0,-1.037886381E0,2.316390127E-1,9.761758804E0
1.696260364E0,-1.028309584E0,2.172738016E-1,9.771335602E0
1.698747968E0,-1.018732786E0,2.268506140E-1,9.804854393E0
1.701235572E0,-1.009155989E0,2.412158251E-1,9.843161583E0
1.703723124E0,-9.756371975E-1,2.460042238E-1,9.895833969E0
1.706210677E0,-9.804255962E-1,2.507926226E-1,9.914987564E0
1.708698229E0,-9.756371975E-1,2.747346461E-1,9.929352760E0
1.711185781E0,-9.564836025E-1,2.699462473E-1,9.953294754E0
1.713673333E0,-9.612720013E-1,2.555810213E-1,9.977236748E0
1.716160885E0,-9.756371975E-1,2.651578486E-1,9.986813545E0
1.718648437E0,-9.564836025E-1,2.507926226E-1,1.001554394E1
1.721135989E0,-9.852139950E-1,2.364274114E-1,1.003469753E1
1.723623541E0,-9.947907925E-1,2.316390127E-1,1.004427433E1
1.726111093E0,-1.004367590E0,2.507926226E-1,1.008258152E1
1.728598645E0,-9.947907925E-1,2.603694201E-1,1.008736992E1
1.731086197E0,-9.852139950E-1,2.651578486E-1,1.011131191E1
1.733573749E0,-9.804255962E-1,2.699462473E-1,1.010173512E1
1.736061302E0,-9.612720013E-1,2.651578486E-1,1.008736992E1
1.738548854E0,-9.277531505E-1,2.603694201E-1,1.009694672E1
1.741036406E0,-9.038111567E-1,2.507926226E-1,1.007300472E1
1.743523958E0,-8.894459605E-1,2.460042238E-1,1.005385113E1
1.746011510E0,-9.133879542E-1,2.412158251E-1,1.005863953E1
1.748499062E0,-9.229647517E-1,2.651578486E-1,1.003469753E1
1.750986614E0,-9.660604000E-1,2.843114436E-1,1.002033234E1
1.753474166E0,-9.995791912E-1,3.082534671E-1,9.982025146E0
1.755961718E0,-1.018732786E0,3.178302646E-1,9.938929558E0
1.758449270E0,-1.028309584E0,3.226186931E-1,9.900622368E0
1.760936822E0,-1.066616893E0,3.130418658E-1,9.871891975E0
1.763424374E0,-1.100135684E0,2.938882709E-1,9.838373184E0
1.765911927E0,-1.128866076E0,2.938882709E-1,9.833584785E0
1.768399479E0,-1.143231273E0,2.986766696E-1,9.804854393E0
1.770887031E0,-1.162384868E0,2.938882709E-1,9.776124001E0
1.773374583E0,-1.171961784E0,3.082534671E-1,9.756970406E0
1.775862135E0,-1.181538582E0,3.130418658E-1,9.776124001E0
1.778349687E0,-1.195903778E0,3.178302646E-1,9.771335602E0
1.780837239E0,-1.191115379E0,3.178302646E-1,9.737816811E0
1.783324791E0,-1.171961784E0,3.034650683E-1,9.733028412E0
1.785812343E0,-1.167173386E0,3.130418658E-1,9.704298019E0
1.788299895E0,-1.176750183E0,3.130418658E-1,9.670779228E0
1.790787447E0,-1.167173386E0,3.130418658E-1,9.642048836E0
1.793274999E0,-1.176750183E0,3.178302646E-1,9.618106842E0
1.795762552E0,-1.186326981E0,3.321954906E-1,9.589376450E0
1.798250104E0,-1.200692177E0,3.321954906E-1,9.560646057E0
1.800737656E0,-1.215057373E0,3.321954906E-1,9.531915665E0
1.803225208E0,-1.219845772E0,3.369838893E-1,9.503185272E0
1.805712760E0,-1.200692177E0,3.274070919E-1,9.484031677E0
1.808200312E0,-1.210268974E0,3.178302646E-1,9.460089684E0
1.810687864E0,-1.200692177E0,3.321954906E-1,9.445724487E0
1.813175416E0,-1.200692177E0,3.226186931E-1,9.426570892E0
1.815662968E0,-1.200692177E0,3.369838893E-1,9.412205696E0
1.818150520E0,-1.176750183E0,3.226186931E-1,9.402628899E0
1.820638072E0,-1.162384868E0,3.369838893E-1,9.402628899E0
1.823125624E0,-1.148019671E0,3.321954906E-1,9.421782494E0
1.825613177E0,-1.128866076E0,3.321954906E-1,9.421782494E0
1.828100729E0,-1.119289279E0,3.369838893E-1,9.440936089E0
1.830588281E0,-1.114500880E0,3.369838893E-1,9.455301285E0
1.833075833E0,-1.076193690E0,3.321954906E-1,9.479243279E0
1.835563385E0,-1.057040095E0,3.178302646E-1,9.503185272E0
1.838050937E0,-1.037886381E0,3.321954906E-1,9.512762070E0
1.840538489E0,-1.042674899E0,3.561375141E-1,9.507973671E0
1.843026041E0,-1.037886381E0,3.657143116E-1,9.536704063E0
1.845513593E0,-1.028309584E0,3.705027103E-1,9.551069260E0
1.848001145E0,-1.023521185E0,3.561375141E-1,9.594164848E0
1.850488697E0,-1.004367590E0,3.513490856E-1,9.618106842E0
1.852976249E0,-9.900023937E-1,3.178302646E-1,9.661202431E0
1.855463802E0,-9.708487988E-1,3.226186931E-1,9.709086418E0
1.857951354E0,-9.995791912E-1,3.321954906E-1,9.742605209E0
1.860438906E0,-9.947907925E-1,3.417722881E-1,9.752182007E0
1.862926510E0,-1.009155989E0,3.321954906E-1,9.785700798E0
1.865414114E0,-1.037886381E0,3.465606868E-1,9.814431190E0
1.867901718E0,-1.047463298E0,3.513490856E-1,9.847949982E0
1.870389322E0,-1.057040095E0,3.369838893E-1,9.843161583E0
1.872876927E0,-1.076193690E0,3.369838893E-1,9.867103577E0
1.875364531E0,-1.100135684E0,3.321954906E-1,9.881468773E0
1.877852135E0,-1.128866076E0,3.369838893E-1,9.867103577E0
1.880339739E0,-1.152808070E0,3.321954906E-1,9.857526779E0
1.882827343E0,-1.167173386E0,3.321954906E-1,9.852738380E0
1.885314947E0,-1.167173386E0,3.417722881E-1,9.852738380E0
1.887802552E0,-1.167173386E0,3.226186931E-1,9.843161583E0
1.890290156E0,-1.171961784E0,3.226186931E-1,9.838373184E0
1.892777760E0,-1.162384868E0,3.274070919E-1,9.819219589E0
1.895265364E0,-1.143231273E0,3.226186931E-1,9.800065994E0
1.897752968E0,-1.124077678E0,3.178302646E-1,9.804854393E0
1.900240572E0,-1.100135684E0,2.986766696E-1,9.780912399E0
1.902728177E0,-1.090558887E0,2.890998423E-1,9.780912399E0
1.905215781E0,-1.071405292E0,3.034650683E-1,9.776124001E0
1.907703385E0,-1.042674899E0,2.986766696E-1,9.771335602E0
1.910190989E0,-1.018732786E0,3.034650683E-1,9.752182007E0
1.912678593E0,-1.037886381E0,3.130418658E-1,9.709086418E0
1.915166197E0,-1.047463298E0,3.226186931E-1,9.689932823E0
1.917653802E0,-1.057040095E0,3.321954906E-1,9.670779228E0
1.920141406E0,-1.066616893E0,3.130418658E-1,9.646837234E0
1.922629010E0,-1.057040095E0,3.226186931E-1,9.622895241E0
1.925116614E0,-1.042674899E0,3.274070919E-1,9.603741646E0
1.927604218E0,-1.042674899E0,3.369838893E-1,9.589376450E0
1.930091822E0,-1.042674899E0,3.417722881E-1,9.565434456E0
1.932579427E0,-1.052251697E0,3.274070919E-1,9.541492462E0
1.935067031E0,-1.052251697E0,3.130418658E-1,9.531915665E0
1.937554635E0,-1.057040095E0,3.321954906E-1,9.527127266E0
1.940042239E0,-1.066616893E0,3.130418658E-1,9.560646057E0
1.942529843E0,-1.076193690E0,3.274070919E-1,9.536704063E0
1.945017447E0,-1.085770488E0,3.321954906E-1,9.522338867E0
1.947505052E0,-1.100135684E0,3.274070919E-1,9.507973671E0
1.949992656E0,-1.095347285E0,3.465606868E-1,9.479243279E0
1.952480260E0,-1.095347285E0,3.465606868E-1,9.455301285E0
1.954967864E0,-1.090558887E0,3.465606868E-1,9.431359291E0
1.957455468E0,-1.076193690E0,3.417722881E-1,9.431359291E0
1.959943020E0,-1.080982089E0,3.321954906E-1,9.416994095E0
1.962430572E0,-1.076193690E0,3.226186931E-1,9.421782494E0
1.964918124E0,-1.061828494E0,3.130418658E-1,9.455301285E0
1.967405677E0,-1.090558887E0,3.321954906E-1,9.479243279E0
1.969893229E0,-1.095347285E0,3.274070919E-1,9.503185272E0
1.972380781E0,-1.114500880E0,3.369838893E-1,9.507973671E0
1.974868333E0,-1.148019671E0,3.513490856E-1,9.517550468E0
1.977355885E0,-1.171961784E0,3.321954906E-1,9.551069260E0
1.979843437E0,-1.186326981E0,3.034650683E-1,9.565434456E0
1.982330989E0,-1.186326981E0,2.795230448E-1,9.579799652E0
1.984818541E0,-1.200692177E0,2.603694201E-1,9.613318443E0
1.987306093E0,-1.215057373E0,2.651578486E-1,9.632472038E0
1.989793645E0,-1.243787766E0,2.843114436E-1,9.651625633E0
1.992281197E0,-1.277306557E0,2.747346461E-1,9.675567627E0
1.994768749E0,-1.306037068E0,2.603694201E-1,9.728240013E0
1.997256302E0,-1.339555860E0,2.460042238E-1,9.752182007E0
1.999743854E0,-1.344344258E0,2.220622003E-1,9.785700798E0
2.002231406E0,-1.339555860E0,2.268506140E-1,9.814431190E0
2.004718958E0,-1.344344258E0,2.316390127E-1,9.843161583E0
2.007206510E0,-1.353921056E0,2.268506140E-1,9.852738380E0
2.009694062E0,-1.358709455E0,2.124854028E-1,9.852738380E0
2.012181614E0,-1.358709455E0,2.172738016E-1,9.857526779E0
2.014669166E0,-1.363497853E0,2.364274114E-1,9.871891975E0
2.017156718E0,-1.377863050E0,2.412158251E-1,9.895833969E0
2.019644270E0,-1.382651448E0,2.172738016E-1,9.895833969E0
2.022131822E0,-1.377863050E0,2.076970041E-1,9.895833969E0
2.024619374E0,-1.377863050E0,2.076970041E-1,9.919775963E0
2.027106927E0,-1.382651448E0,2.076970041E-1,9.914987564E0
2.029594479E0,-1.373074651E0,2.172738016E-1,9.900622368E0
2.032082031E0,-1.363497853E0,2.316390127E-1,9.914987564E0
2.034569583E0,-1.339555860E0,2.651578486E-1,9.900622368E0
2.037057135E0,-1.315613866E0,2.460042238E-1,9.895833969E0
2.039544687E0,-1.291671872E0,2.412158251E-1,9.910199165E0
2.042032239E0,-1.282094955E0,2.603694201E-1,9.910199165E0
2.044519791E0,-1.272518158E0,2.747346461E-1,9.919775963E0
2.047007343E0,-1.267729759E0,2.699462473E-1,9.919775963E0
2.049494895E0,-1.267729759E0,2.651578486E-1,9.905410767E0
2.051982447E0,-1.229422569E0,2.460042238E-1,9.881468773E0
2.054469999E0,-1.186326981E0,2.268506140E-1,9.867103577E0
2.056957552E0,-1.176750183E0,2.172738016E-1,9.862315178E0
2.059445104E0,-1.171961784E0,2.268506140E-1,9.828796387E0
2.061932656E0,-1.152808070E0,2.268506140E-1,9.819219589E0
2.064420208E0,-1.152808070E0,2.316390127E-1,9.804854393E0
2.066907760E0,-1.162384868E0,2.364274114E-1,9.809642792E0
2.069395312E0,-1.143231273E0,2.412158251E-1,9.814431190E0
2.071882864E0,-1.143231273E0,2.316390127E-1,9.824007988E0
2.074370416E0,-1.138442874E0,2.172738016E-1,9.824007988E0
2.076857968E0,-1.128866076E0,2.316390127E-1,9.800065994E0
2.079345520E0,-1.114500880E0,2.220622003E-1,9.814431190E0
2.081833072E0,-1.100135684E0,2.316390127E-1,9.814431190E0
2.084320624E0,-1.100135684E0,2.220622003E-1,9.828796387E0
2.086808177E0,-1.100135684E0,2.076970041E-1,9.857526779E0
2.089295729E0,-1.080982089E0,2.076970041E-1,9.876680374E0
2.091783281E0,-1.095347285E0,2.076970041E-1,9.886257172E0
2.094270833E0,-1.114500880E0,2.124854028E-1,9.905410767E0
2.096758385E0,-1.138442874E0,2.029085904E-1,9.943717957E0
2.099245937E0,-1.171961784E0,2.268506140E-1,9.958083153E0
2.101733489E0,-1.200692177E0,2.268506140E-1,9.938929558E0
2.104221041E0,-1.243787766E0,2.316390127E-1,9.934141159E0
2.106708593E0,-1.272518158E0,2.364274114E-1,9.934141159E0
2.109196145E0,-1.291671872E0,2.316390127E-1,9.958083153E0
2.111683697E0,-1.315613866E0,2.172738016E-1,9.982025146E0
2.114171249E0,-1.329979062E0,2.220622003E-1,9.991601944E0
2.116658802E0,-1.325190663E0,1.981201917E-1,1.000117874E1
2.119146354E0,-1.320402265E0,1.981201917E-1,1.002033234E1
2.121633906E0,-1.310825467E0,2.076970041E-1,1.002990913E1
2.124121510E0,-1.306037068E0,1.885433793E-1,1.003469753E1
2.126609114E0,-1.296460271E0,1.885433793E-1,1.001554394E1
2.129096718E0,-1.315613866E0,2.029085904E-1,1.000117874E1
2.131584322E0,-1.306037068E0,2.076970041E-1,1.001554394E1
2.134071927E0,-1.296460271E0,2.172738016E-1,1.001075554E1
2.136559531E0,-1.296460271E0,2.172738016E-1,1.000596714E1
2.139047135E0,-1.301248670E0,2.076970041E-1,9.982025146E0
2.141534739E0,-1.310825467E0,2.220622003E-1,9.977236748E0
2.144022343E0,-1.306037068E0,2.172738016E-1,9.967659950E0
2.146509947E0,-1.301248670E0,2.172738016E-1,9.958083153E0
2.148997552E0,-1.286883354E0,2.220622003E-1,9.934141159E0
2.151485156E0,-1.262941360E0,2.124854028E-1,9.914987564E0
2.153972760E0,-1.243787766E0,2.076970041E-1,9.871891975E0
2.156460364E0,-1.243787766E0,2.124854028E-1,9.857526779E0
2.158947968E0,-1.238999367E0,1.981201917E-1,9.819219589E0
2.161435572E0,-1.224634171E0,1.981201917E-1,9.790489197E0
2.163923177E0,-1.224634171E0,2.076970041E-1,9.761758804E0
2.166410781E0,-1.229422569E0,2.268506140E-1,9.718663216E0
2.168898385E0,-1.238999367E0,2.555810213E-1,9.680356026E0
2.171385989E0,-1.234210968E0,2.699462473E-1,9.622895241E0
2.173873593E0,-1.243787766E0,2.651578486E-1,9.565434456E0
2.176361197E0,-1.224634171E0,2.603694201E-1,9.522338867E0
2.178848802E0,-1.210268974E0,2.651578486E-1,9.498396873E0
2.181336406E0,-1.181538582E0,2.507926226E-1,9.479243279E0
2.183824010E0,-1.167173386E0,2.507926226E-1,9.455301285E0
2.186311614E0,-1.148019671E0,2.460042238E-1,9.426570892E0
2.188799218E0,-1.124077678E0,2.555810213E-1,9.416994095E0
2.191286822E0,-1.133654475E0,2.747346461E-1,9.383475304E0
2.193774427E0,-1.138442874E0,3.034650683E-1,9.383475304E0
2.196262031E0,-1.133654475E0,2.890998423E-1,9.369110107E0
2.198749635E0,-1.148019671E0,3.082534671E-1,9.397840500E0
2.201237239E0,-1.133654475E0,2.986766696E-1,9.378686905E0
2.203724843E0,-1.124077678E0,2.795230448E-1,9.412205696E0
2.206212447E0,-1.100135684E0,2.795230448E-1,9.440936089E0
2.208700052E0,-1.095347285E0,2.890998423E-1,9.469666481E0
2.211187656E0,-1.100135684E0,2.795230448E-1,9.474454880E0
2.213675260E0,-1.100135684E0,2.747346461E-1,9.488820076E0
2.216162864E0,-1.095347285E0,2.699462473E-1,9.493608475E0
2.218650416E0,-1.085770488E0,2.747346461E-1,9.512762070E0
2.221137968E0,-1.100135684E0,2.603694201E-1,9.560646057E0
2.223625520E0,-1.119289279E0,2.412158251E-1,9.598953247E0
2.226113072E0,-1.148019671E0,2.364274114E-1,9.627683640E0
2.228600624E0,-1.186326981E0,2.364274114E-1,9.642048836E0
2.231088177E0,-1.219845772E0,2.555810213E-1,9.642048836E0
2.233575729E0,-1.262941360E0,2.220622003E-1,9.646837234E0
2.236063281E0,-1.306037068E0,2.124854028E-1,9.665990829E0
2.238550833E0,-1.310825467E0,2.076970041E-1,9.680356026E0
2.241038385E0,-1.320402265E0,2.124854028E-1,9.689932823E0
2.243525937E0,-1.320402265E0,2.076970041E-1,9.704298019E0
2.246013489E0,-1.315613866E0,2.076970041E-1,9.742605209E0
2.248501041E0,-1.301248670E0,1.981201917E-1,9.733028412E0
2.250988593E0,-1.286883354E0,1.981201917E-1,9.747393608E0
2.253476145E0,-1.272518158E0,2.029085904E-1,9.747393608E0
2.255963697E0,-1.248576164E0,1.933317930E-1,9.776124001E0
2.258451249E0,-1.229422569E0,1.933317930E-1,9.761758804E0
2.260938802E0,-1.215057373E0,1.837549806E-1,9.752182007E0
2.263426354E0,-1.205480576E0,1.741781682E-1,9.737816811E0
2.265913906E0,-1.191115379E0,1.741781682E-1,9.742605209E0
2.268401458E0,-1.176750183E0,1.885433793E-1,9.747393608E0
2.270889010E0,-1.186326981E0,1.933317930E-1,9.742605209E0
2.273376562E0,-1.200692177E0,1.981201917E-1,9.718663216E0
2.275864114E0,-1.205480576E0,1.933317930E-1,9.733028412E0
2.278351666E0,-1.200692177E0,1.885433793E-1,9.742605209E0
2.280839218E0,-1.205480576E0,1.646013707E-1,9.733028412E0
2.283326770E0,-1.200692177E0,1.789665818E-1,9.713874817E0
2.285814322E0,-1.191115379E0,1.454477459E-1,9.733028412E0
2.288301874E0,-1.186326981E0,1.358709484E-1,9.733028412E0
2.290789427E0,-1.181538582E0,1.502361596E-1,9.747393608E0
2.293276979E0,-1.191115379E0,1.693897694E-1,9.761758804E0
2.295764531E0,-1.167173386E0,1.741781682E-1,9.766547203E0
2.298252083E0,-1.157596469E0,1.598129570E-1,9.742605209E0
2.300739635E0,-1.138442874E0,1.406593472E-1,9.742605209E0
2.303227187E0,-1.114500880E0,1.358709484E-1,9.742605209E0
2.305714739E0,-1.095347285E0,1.119289324E-1,9.756970406E0
2.308202291E0,-1.090558887E0,1.406593472E-1,9.747393608E0
2.310689843E0,-1.076193690E0,1.406593472E-1,9.737816811E0
2.313177395E0,-1.090558887E0,1.406593472E-1,9.752182007E0
2.315664947E0,-1.090558887E0,1.550245583E-1,9.733028412E0
2.318152499E0,-1.071405292E0,1.502361596E-1,9.718663216E0
2.320640052E0,-1.042674899E0,1.310825497E-1,9.737816811E0
2.323127604E0,-1.042674899E0,1.310825497E-1,9.737816811E0
2.325615156E0,-1.037886381E0,1.502361596E-1,9.733028412E0
2.328102708E0,-1.033097982E0,1.598129570E-1,9.742605209E0
2.330590260E0,-1.023521185E0,1.646013707E-1,9.723451614E0
2.333077812E0,-1.023521185E0,1.693897694E-1,9.713874817E0
2.335565364E0,-1.028309584E0,1.598129570E-1,9.685144424E0
2.338052916E0,-1.042674899E0,1.598129570E-1,9.704298019E0
2.340540468E0,-1.066616893E0,1.693897694E-1,9.675567627E0
2.343028020E0,-1.090558887E0,1.550245583E-1,9.670779228E0
2.345515572E0,-1.100135684E0,1.550245583E-1,9.670779228E0
2.348003124E0,-1.109712481E0,1.550245583E-1,9.665990829E0
2.350490677E0,-1.119289279E0,1.598129570E-1,9.675567627E0
2.352978229E0,-1.124077678E0,1.693897694E-1,9.694721222E0
2.355465781E0,-1.119289279E0,1.741781682E-1,9.699509621E0
2.357953333E0,-1.104924083E0,1.741781682E-1,9.685144424E0
2.360440885E0,-1.085770488E0,1.741781682E-1,9.699509621E0
2.362928437E0,-1.066616893E0,1.646013707E-1,9.723451614E0
2.365415989E0,-1.052251697E0,1.646013707E-1,9.756970406E0
2.367903541E0,-1.033097982E0,1.933317930E-1,9.761758804E0
2.370391093E0,-1.052251697E0,1.933317930E-1,9.752182007E0
2.372878645E0,-1.057040095E0,2.076970041E-1,9.747393608E0
2.375366197E0,-1.066616893E0,2.172738016E-1,9.742605209E0
2.377853749E0,-1.085770488E0,2.172738016E-1,9.737816811E0
2.380341302E0,-1.095347285E0,2.124854028E-1,9.747393608E0
2.382828854E0,-1.124077678E0,2.029085904E-1,9.747393608E0
2.385316406E0,-1.138442874E0,1.981201917E-1,9.737816811E0
2.387804010E0,-1.152808070E0,2.172738016E-1,9.733028412E0
2.390291614E0,-1.162384868E0,2.076970041E-1,9.718663216E0
2.392779218E0,-1.186326981E0,2.124854028E-1,9.699509621E0
2.395266822E0,-1.200692177E0,1.981201917E-1,9.694721222E0
2.397754427E0,-1.215057373E0,1.933317930E-1,9.675567627E0
2.400242031E0,-1.215057373E0,1.981201917E-1,9.665990829E0
2.402729635E0,-1.215057373E0,1.933317930E-1,9.680356026E0
2.405217239E0,-1.229422569E0,1.981201917E-1,9.680356026E0
2.407704843E0,-1.210268974E0,1.933317930E-1,9.704298019E0
2.410192447E0,-1.200692177E0,1.693897694E-1,9.709086418E0
2.412680052E0,-1.200692177E0,1.741781682E-1,9.709086418E0
2.415167656E0,-1.200692177E0,1.646013707E-1,9.699509621E0
2.417655260E0,-1.181538582E0,1.502361596E-1,9.723451614E0
2.420142864E0,-1.171961784E0,1.454477459E-1,9.742605209E0
2.422630468E0,-1.176750183E0,1.310825497E-1,9.776124001E0
2.425118072E0,-1.191115379E0,1.310825497E-1,9.800065994E0
2.427605677E0,-1.181538582E0,1.310825497E-1,9.843161583E0
2.430093281E0,-1.162384868E0,1.167173311E-1,9.871891975E0
2.432580885E0,-1.152808070E0,1.262941360E-1,9.895833969E0
2.435068489E0,-1.128866076E0,1.119289324E-1,9.910199165E0
2.437556093E0,-1.104924083E0,1.167173311E-1,9.919775963E0
2.440043697E0,-1.066616893E0,8.319851011E-2,9.924564362E0
2.442531302E0,-1.061828494E0,8.798690885E-2,9.924564362E0
2.445018906E0,-1.047463298E0,7.362170517E-2,9.934141159E0
2.447506510E0,-1.047463298E0,6.404489279E-2,9.943717957E0
2.449994114E0,-1.057040095E0,7.841010392E-2,9.948506355E0
2.452481718E0,-1.090558887E0,8.319851011E-2,9.962871552E0
2.454969322E0,-1.090558887E0,7.841010392E-2,9.958083153E0
2.457456927E0,-1.109712481E0,6.883329898E-2,9.972448349E0
2.459944531E0,-1.133654475E0,5.925649032E-2,9.962871552E0
2.462432135E0,-1.167173386E0,5.446808785E-2,9.958083153E0
2.464919739E0,-1.176750183E0,4.967968538E-2,9.934141159E0
2.467407343E0,-1.210268974E0,5.446808785E-2,9.914987564E0
2.469894947E0,-1.219845772E0,7.841010392E-2,9.886257172E0
2.472382552E0,-1.238999367E0,8.319851011E-2,9.876680374E0
2.474870156E0,-1.238999367E0,7.841010392E-2,9.876680374E0
2.477357760E0,-1.248576164E0,1.023521200E-1,9.871891975E0
2.479845312E0,-1.238999367E0,1.023521200E-1,9.867103577E0
2.482332864E0,-1.258152962E0,8.319851011E-2,9.871891975E0
2.484820416E0,-1.253364563E0,8.319851011E-2,9.871891975E0
2.487307968E0,-1.272518158E0,8.798690885E-2,9.876680374E0
2.489795520E0,-1.286883354E0,1.167173311E-1,9.895833969E0
2.492283072E0,-1.282094955E0,1.167173311E-1,9.886257172E0
2.494770624E0,-1.277306557E0,9.277531505E-2,9.852738380E0
2.497258177E0,-1.286883354E0,1.023521200E-1,9.843161583E0
2.499745729E0,-1.286883354E0,1.119289324E-1,9.847949982E0
2.502233281E0,-1.291671872E0,1.023521200E-1,9.847949982E0
2.504720833E0,-1.286883354E0,9.277531505E-2,9.862315178E0
2.507208385E0,-1.286883354E0,9.277531505E-2,9.871891975E0
2.509695937E0,-1.310825467E0,1.119289324E-1,9.871891975E0
2.512183489E0,-1.349132657E0,1.167173311E-1,9.871891975E0
2.514671041E0,-1.368286252E0,1.358709484E-1,9.876680374E0
2.517158593E0,-1.368286252E0,1.502361596E-1,9.876680374E0
2.519646145E0,-1.349132657E0,1.454477459E-1,9.895833969E0
2.522133697E0,-1.349132657E0,1.502361596E-1,9.914987564E0
2.524621249E0,-1.334767461E0,1.454477459E-1,9.905410767E0
2.527108802E0,-1.325190663E0,1.406593472E-1,9.886257172E0
2.529596354E0,-1.325190663E0,1.454477459E-1,9.867103577E0
2.532083906E0,-1.320402265E0,1.454477459E-1,9.876680374E0
2.534571458E0,-1.310825467E0,1.646013707E-1,9.862315178E0
2.537059010E0,-1.310825467E0,1.837549806E-1,9.876680374E0
2.539546562E0,-1.301248670E0,1.885433793E-1,9.862315178E0
2.542034114E0,-1.291671872E0,2.076970041E-1,9.876680374E0
2.544521666E0,-1.291671872E0,2.029085904E-1,9.862315178E0
2.547009218E0,-1.291671872E0,2.124854028E-1,9.857526779E0
2.549496770E0,-1.286883354E0,2.029085904E-1,9.833584785E0
2.551984322E0,-1.282094955E0,2.172738016E-1,9.800065994E0
2.554471874E0,-1.286883354E0,2.220622003E-1,9.761758804E0
2.556959427E0,-1.282094955E0,2.316390127E-1,9.742605209E0
2.559446979E0,-1.272518158E0,2.220622003E-1,9.699509621E0
2.561934531E0,-1.267729759E0,1.933317930E-1,9.685144424E0
2.564422083E0,-1.262941360E0,1.837549806E-1,9.656414032E0
2.566909635E0,-1.267729759E0,1.837549806E-1,9.627683640E0
2.569397187E0,-1.291671872E0,1.837549806E-1,9.603741646E0
2.571884739E0,-1.296460271E0,1.693897694E-1,9.598953247E0
2.574372291E0,-1.310825467E0,1.693897694E-1,9.584588051E0
2.576859843E0,-1.301248670E0,1.741781682E-1,9.570222855E0
2.579347395E0,-1.282094955E0,1.933317930E-1,9.551069260E0
2.581834947E0,-1.286883354E0,2.029085904E-1,9.531915665E0
2.584322499E0,-1.296460271E0,2.124854028E-1,9.522338867E0
2.586810052E0,-1.291671872E0,2.124854028E-1,9.527127266E0
2.589297604E0,-1.291671872E0,1.885433793E-1,9.531915665E0
2.591785156E0,-1.296460271E0,1.693897694E-1,9.565434456E0
2.594272708E0,-1.282094955E0,1.789665818E-1,9.598953247E0
2.596760260E0,-1.286883354E0,1.693897694E-1,9.603741646E0
2.599247812E0,-1.267729759E0,1.789665818E-1,9.642048836E0
2.601735364E0,-1.253364563E0,1.837549806E-1,9.651625633E0
2.604222916E0,-1.248576164E0,1.933317930E-1,9.665990829E0
2.606710468E0,-1.253364563E0,1.885433793E-1,9.694721222E0
2.609198020E0,-1.238999367E0,1.933317930E-1,9.718663216E0
2.611685572E0,-1.253364563E0,1.933317930E-1,9.752182007E0
2.614173124E0,-1.248576164E0,1.933317930E-1,9.752182007E0
2.616660677E0,-1.234210968E0,1.933317930E-1,9.771335602E0
2.619148229E0,-1.224634171E0,1.885433793E-1,9.761758804E0
2.621635781E0,-1.219845772E0,1.550245583E-1,9.776124001E0
2.624123333E0,-1.210268974E0,1.502361596E-1,9.771335602E0
2.626610885E0,-1.176750183E0,1.358709484E-1,9.752182007E0
2.629098437E0,-1.162384868E0,1.215057373E-1,9.733028412E0
2.631585989E0,-1.186326981E0,1.262941360E-1,9.704298019E0
2.634073541E0,-1.210268974E0,1.119289324E-1,9.709086418E0
2.636561093E0,-1.210268974E0,1.119289324E-1,9.718663216E0
2.639048645E0,-1.205480576E0,1.215057373E-1,9.718663216E0
2.641536197E0,-1.195903778E0,1.167173311E-1,9.737816811E0
2.644023749E0,-1.191115379E0,9.756372124E-2,9.723451614E0
2.646511302E0,-1.186326981E0,8.798690885E-2,9.733028412E0
2.648998854E0,-1.176750183E0,5.446808785E-2,9.742605209E0
2.651486406E0,-1.181538582E0,5.925649032E-2,9.766547203E0
2.653973958E0,-1.171961784E0,5.925649032E-2,9.766547203E0
2.656461562E0,-1.152808070E0,7.362170517E-2,9.776124001E0
2.658949166E0,-1.167173386E0,7.841010392E-2,9.780912399E0
2.661436770E0,-1.152808070E0,7.362170517E-2,9.804854393E0
2.663924374E0,-1.138442874E0,6.404489279E-2,9.814431190E0
2.666411979E0,-1.124077678E0,3.052607179E-2,9.838373184E0
2.668899583E0,-1.100135684E0,1.137245819E-2,9.867103577E0
2.671387187E0,-1.114500880E0,1.137245819E-2,9.867103577E0
2.673874791E0,-1.138442874E0,3.052607179E-2,9.895833969E0
2.676362395E0,-1.167173386E0,6.883329898E-2,9.919775963E0
2.678849999E0,-1.205480576E0,8.319851011E-2,9.919775963E0
2.681337604E0,-1.205480576E0,9.756372124E-2,9.919775963E0
2.683825208E0,-1.234210968E0,9.277531505E-2,9.895833969E0
2.686312812E0,-1.253364563E0,8.319851011E-2,9.895833969E0
2.688800416E0,-1.262941360E0,7.841010392E-2,9.876680374E0
2.691288020E0,-1.286883354E0,8.798690885E-2,9.867103577E0
2.693775624E0,-1.291671872E0,8.798690885E-2,9.843161583E0
2.696263229E0,-1.296460271E0,9.277531505E-2,9.828796387E0
2.698750833E0,-1.334767461E0,1.119289324E-1,9.824007988E0
2.701238437E0,-1.334767461E0,1.358709484E-1,9.800065994E0
2.703726041E0,-1.344344258E0,1.358709484E-1,9.776124001E0
2.706213645E0,-1.344344258E0,1.358709484E-1,9.747393608E0
2.708701249E0,-1.320402265E0,1.454477459E-1,9.737816811E0
2.711188854E0,-1.334767461E0,1.358709484E-1,9.704298019E0
2.713676458E0,-1.315613866E0,1.406593472E-1,9.685144424E0
2.716164062E0,-1.320402265E0,1.550245583E-1,9.656414032E0
2.718651666E0,-1.315613866E0,1.550245583E-1,9.632472038E0
2.721139270E0,-1.306037068E0,1.646013707E-1,9.618106842E0
2.723626874E0,-1.272518158E0,1.598129570E-1,9.598953247E0
2.726114479E0,-1.258152962E0,1.598129570E-1,9.579799652E0
2.728602083E0,-1.229422569E0,1.646013707E-1,9.598953247E0
2.731089687E0,-1.234210968E0,1.693897694E-1,9.589376450E0
2.733577291E0,-1.219845772E0,1.502361596E-1,9.613318443E0
2.736064895E0,-1.195903778E0,1.406593472E-1,9.622895241E0
2.738552499E0,-1.186326981E0,1.454477459E-1,9.637260437E0
2.741040104E0,-1.162384868E0,1.454477459E-1,9.651625633E0
2.743527708E0,-1.148019671E0,1.454477459E-1,9.665990829E0
2.746015312E0,-1.162384868E0,1.502361596E-1,9.689932823E0
2.748502864E0,-1.186326981E0,1.358709484E-1,9.699509621E0
2.750990416E0,-1.195903778E0,1.454477459E-1,9.723451614E0
2.753477968E0,-1.205480576E0,1.358709484E-1,9.723451614E0
2.755965520E0,-1.200692177E0,1.167173311E-1,9.747393608E0
2.758453072E0,-1.205480576E0,1.023521200E-1,9.766547203E0
2.760940624E0,-1.205480576E0,9.277531505E-2,9.785700798E0
2.763428177E0,-1.215057373E0,1.023521200E-1,9.790489197E0
2.765915729E0,-1.215057373E0,1.071405262E-1,9.776124001E0
2.768403281E0,-1.224634171E0,8.798690885E-2,9.790489197E0
2.770890833E0,-1.243787766E0,1.023521200E-1,9.790489197E0
2.773378385E0,-1.243787766E0,8.798690885E-2,9.800065994E0
2.775865937E0,-1.248576164E0,8.798690885E-2,9.814431190E0
2.778353489E0,-1.262941360E0,9.277531505E-2,9.819219589E0
2.780841041E0,-1.291671872E0,8.798690885E-2,9.819219589E0
2.783328593E0,-1.301248670E0,8.319851011E-2,9.795277596E0
2.785816145E0,-1.296460271E0,8.319851011E-2,9.785700798E0
2.788303697E0,-1.296460271E0,8.798690885E-2,9.780912399E0
2.790791249E0,-1.310825467E0,8.319851011E-2,9.809642792E0
2.793278802E0,-1.306037068E0,6.883329898E-2,9.804854393E0
2.795766354E0,-1.296460271E0,6.404489279E-2,9.804854393E0
2.798253906E0,-1.315613866E0,7.362170517E-2,9.776124001E0
2.800741458E0,-1.310825467E0,6.883329898E-2,9.776124001E0
2.803229010E0,-1.315613866E0,8.319851011E-2,9.771335602E0
2.805716562E0,-1.320402265E0,1.119289324E-1,9.723451614E0
2.808204114E0,-1.315613866E0,1.262941360E-1,9.689932823E0
2.810691666E0,-1.334767461E0,1.262941360E-1,9.680356026E0
2.813179218E0,-1.320402265E0,1.358709484E-1,9.675567627E0
2.815666770E0,-1.301248670E0,1.262941360E-1,9.685144424E0
2.818154322E0,-1.282094955E0,1.310825497E-1,9.675567627E0
2.820641874E0,-1.277306557E0,1.454477459E-1,9.675567627E0
2.823129427E0,-1.258152962E0,1.550245583E-1,9.680356026E0
2.825616979E0,-1.258152962E0,1.502361596E-1,9.699509621E0
2.828104531E0,-1.286883354E0,1.598129570E-1,9.709086418E0
2.830592083E0,-1.301248670E0,1.693897694E-1,9.742605209E0
2.833079635E0,-1.325190663E0,1.646013707E-1,9.742605209E0
2.835567187E0,-1.344344258E0,1.789665818E-1,9.756970406E0
2.838054739E0,-1.339555860E0,2.076970041E-1,9.752182007E0
2.840542291E0,-1.353921056E0,2.172738016E-1,9.747393608E0
2.843029843E0,-1.334767461E0,2.029085904E-1,9.752182007E0
2.845517395E0,-1.339555860E0,1.885433793E-1,9.737816811E0
2.848004947E0,-1.334767461E0,1.741781682E-1,9.713874817E0
2.850492499E0,-1.339555860E0,1.981201917E-1,9.723451614E0
2.852980052E0,-1.373074651E0,2.460042238E-1,9.723451614E0
2.855467604E0,-1.363497853E0,2.172738016E-1,9.737816811E0
2.857955156E0,-1.320402265E0,1.406593472E-1,9.752182007E0
2.860442708E0,-1.286883354E0,8.319851011E-2,9.737816811E0
2.862930260E0,-1.258152962E0,6.883329898E-2,9.737816811E0
2.865417812E0,-1.258152962E0,1.071405262E-1,9.713874817E0
2.867905364E0,-1.248576164E0,1.550245583E-1,9.680356026E0
2.870392916E0,-1.258152962E0,2.172738016E-1,9.685144424E0
2.872880468E0,-1.258152962E0,2.412158251E-1,9.670779228E0
2.875368020E0,-1.248576164E0,2.603694201E-1,9.642048836E0
2.877855572E0,-1.258152962E0,2.268506140E-1,9.656414032E0
2.880343124E0,-1.229422569E0,1.837549806E-1,9.661202431E0
2.882830677E0,-1.210268974E0,1.741781682E-1,9.680356026E0
2.885318229E0,-1.176750183E0,1.598129570E-1,9.718663216E0
2.887805781E0,-1.148019671E0,1.454477459E-1,9.723451614E0
2.890293333E0,-1.124077678E0,1.598129570E-1,9.728240013E0
2.892780885E0,-1.095347285E0,1.598129570E-1,9.747393608E0
2.895268437E0,-1.061828494E0,1.502361596E-1,9.766547203E0
2.897755989E0,-1.042674899E0,1.598129570E-1,9.780912399E0
2.900243541E0,-1.013944387E0,1.693897694E-1,9.828796387E0
2.902731093E0,-9.947907925E-1,1.598129570E-1,9.862315178E0
2.905218645E0,-9.900023937E-1,1.646013707E-1,9.914987564E0
2.907706197E0,-9.756371975E-1,1.646013707E-1,9.919775963E0
2.910193749E0,-9.852139950E-1,1.693897694E-1,9.938929558E0
2.912681302E0,-9.660604000E-1,1.789665818E-1,9.958083153E0
2.915168854E0,-9.804255962E-1,1.693897694E-1,9.953294754E0
2.917656406E0,-9.947907925E-1,1.550245583E-1,9.914987564E0
2.920143958E0,-1.013944387E0,1.502361596E-1,9.919775963E0
2.922631510E0,-1.033097982E0,1.358709484E-1,9.924564362E0
2.925119062E0,-1.090558887E0,1.358709484E-1,9.914987564E0
2.927606614E0,-1.124077678E0,1.358709484E-1,9.905410767E0
2.930094166E0,-1.167173386E0,1.358709484E-1,9.876680374E0
2.932581718E0,-1.238999367E0,1.550245583E-1,9.876680374E0
2.935069270E0,-1.286883354E0,1.646013707E-1,9.876680374E0
2.937556874E0,-1.310825467E0,1.693897694E-1,9.828796387E0
2.940044479E0,-1.296460271E0,1.358709484E-1,9.790489197E0
2.942532083E0,-1.258152962E0,1.406593472E-1,9.785700798E0
2.945019687E0,-1.267729759E0,1.454477459E-1,9.785700798E0
2.947507291E0,-1.262941360E0,1.741781682E-1,9.766547203E0
2.949994895E0,-1.267729759E0,1.789665818E-1,9.723451614E0
2.952482499E0,-1.262941360E0,1.981201917E-1,9.728240013E0
2.954970104E0,-1.267729759E0,1.981201917E-1,9.752182007E0
2.957457708E0,-1.262941360E0,1.837549806E-1,9.771335602E0
2.959945312E0,-1.262941360E0,1.885433793E-1,9.776124001E0
2.962432916E0,-1.262941360E0,1.981201917E-1,9.795277596E0
2.964920520E0,-1.234210968E0,1.741781682E-1,9.804854393E0
2.967408124E0,-1.234210968E0,1.981201917E-1,9.809642792E0
2.969895729E0,-1.215057373E0,2.220622003E-1,9.795277596E0
2.972383333E0,-1.210268974E0,2.316390127E-1,9.819219589E0
2.974870937E0,-1.200692177E0,2.364274114E-1,9.804854393E0
2.977358541E0,-1.215057373E0,2.316390127E-1,9.809642792E0
2.979846145E0,-1.205480576E0,2.076970041E-1,9.809642792E0
2.982333749E0,-1.210268974E0,1.837549806E-1,9.824007988E0
2.984821354E0,-1.200692177E0,1.981201917E-1,9.828796387E0
2.987308958E0,-1.210268974E0,2.029085904E-1,9.843161583E0
2.989796562E0,-1.215057373E0,2.076970041E-1,9.847949982E0
2.992284166E0,-1.234210968E0,2.124854028E-1,9.843161583E0
2.994771770E0,-1.224634171E0,2.076970041E-1,9.833584785E0
2.997259374E0,-1.229422569E0,2.268506140E-1,9.828796387E0
2.999746979E0,-1.229422569E0,2.029085904E-1,9.824007988E0
3.002234583E0,-1.224634171E0,1.885433793E-1,9.814431190E0
3.004722187E0,-1.229422569E0,1.933317930E-1,9.800065994E0
3.007209791E0,-1.219845772E0,1.837549806E-1,9.780912399E0
3.009697395E0,-1.215057373E0,1.693897694E-1,9.756970406E0
3.012184999E0,-1.219845772E0,1.646013707E-1,9.709086418E0
3.014672604E0,-1.224634171E0,1.693897694E-1,9.699509621E0
3.017160208E0,-1.229422569E0,1.646013707E-1,9.656414032E0
3.019647812E0,-1.229422569E0,1.454477459E-1,9.637260437E0
3.022135416E0,-1.229422569E0,1.502361596E-1,9.622895241E0
3.024623020E0,-1.238999367E0,1.358709484E-1,9.598953247E0
3.027110572E0,-1.238999367E0,1.502361596E-1,9.589376450E0
3.029598124E0,-1.238999367E0,1.646013707E-1,9.565434456E0
3.032085677E0,-1.253364563E0,1.837549806E-1,9.546280861E0
3.034573229E0,-1.267729759E0,1.789665818E-1,9.541492462E0
3.037060781E0,-1.272518158E0,1.789665818E-1,9.560646057E0
3.039548333E0,-1.267729759E0,1.885433793E-1,9.565434456E0
3.042035885E0,-1.282094955E0,1.885433793E-1,9.584588051E0
3.044523437E0,-1.291671872E0,1.933317930E-1,9.608530045E0
3.047010989E0,-1.291671872E0,1.789665818E-1,9.637260437E0
3.049498541E0,-1.286883354E0,1.885433793E-1,9.656414032E0
3.051986093E0,-1.267729759E0,1.837549806E-1,9.661202431E0
3.054473645E0,-1.291671872E0,1.933317930E-1,9.680356026E0
3.056961197E0,-1.282094955E0,2.029085904E-1,9.699509621E0
3.059448749E0,-1.306037068E0,1.933317930E-1,9.713874817E0
3.061936302E0,-1.310825467E0,1.837549806E-1,9.737816811E0
3.064423854E0,-1.325190663E0,2.029085904E-1,9.733028412E0
3.066911406E0,-1.334767461E0,2.029085904E-1,9.737816811E0
3.069398958E0,-1.349132657E0,1.933317930E-1,9.733028412E0
3.071886510E0,-1.368286252E0,1.789665818E-1,9.737816811E0
3.074374062E0,-1.382651448E0,1.693897694E-1,9.733028412E0
3.076861614E0,-1.397016644E0,1.837549806E-1,9.747393608E0
3.079349166E0,-1.401805043E0,1.693897694E-1,9.761758804E0
3.081836718E0,-1.420958757E0,1.741781682E-1,9.766547203E0
3.084324270E0,-1.435323954E0,1.789665818E-1,9.766547203E0
3.086811822E0,-1.425747156E0,1.837549806E-1,9.771335602E0
3.089299374E0,-1.416170359E0,1.885433793E-1,9.756970406E0
3.091786927E0,-1.392228246E0,1.837549806E-1,9.761758804E0
3.094274479E0,-1.382651448E0,1.837549806E-1,9.737816811E0
3.096762031E0,-1.373074651E0,1.885433793E-1,9.713874817E0
3.099249583E0,-1.377863050E0,1.741781682E-1,9.689932823E0
3.101737135E0,-1.397016644E0,1.789665818E-1,9.680356026E0
3.104224687E0,-1.401805043E0,1.981201917E-1,9.694721222E0
3.106712239E0,-1.392228246E0,2.029085904E-1,9.675567627E0
3.109199791E0,-1.401805043E0,2.268506140E-1,9.665990829E0
3.111687343E0,-1.387439847E0,2.172738016E-1,9.661202431E0
3.114174895E0,-1.382651448E0,2.172738016E-1,9.637260437E0
3.116662447E0,-1.368286252E0,2.076970041E-1,9.642048836E0
3.119149999E0,-1.339555860E0,1.933317930E-1,9.632472038E0
3.121637552E0,-1.320402265E0,1.550245583E-1,9.598953247E0
3.124125104E0,-1.306037068E0,1.310825497E-1,9.594164848E0
3.126612656E0,-1.301248670E0,1.262941360E-1,9.570222855E0
3.129100208E0,-1.282094955E0,1.215057373E-1,9.579799652E0
3.131587760E0,-1.282094955E0,1.310825497E-1,9.565434456E0
3.134075312E0,-1.272518158E0,1.167173311E-1,9.584588051E0
3.136562864E0,-1.272518158E0,1.262941360E-1,9.579799652E0
3.139050416E0,-1.243787766E0,1.262941360E-1,9.570222855E0
3.141537968E0,-1.243787766E0,1.310825497E-1,9.565434456E0
3.144025520E0,-1.248576164E0,1.310825497E-1,9.565434456E0
3.146513072E0,-1.248576164E0,1.406593472E-1,9.555857658E0
3.149000624E0,-1.253364563E0,1.406593472E-1,9.560646057E0
3.151488177E0,-1.267729759E0,1.358709484E-1,9.546280861E0
3.153975729E0,-1.258152962E0,1.598129570E-1,9.551069260E0
3.156463281E0,-1.262941360E0,1.454477459E-1,9.584588051E0
3.158950833E0,-1.277306557E0,1.310825497E-1,9.613318443E0
3.161438385E0,-1.296460271E0,1.406593472E-1,9.632472038E0
3.163925937E0,-1.320402265E0,1.358709484E-1,9.661202431E0
3.166413489E0,-1.325190663E0,1.502361596E-1,9.694721222E0
3.168901041E0,-1.329979062E0,1.550245583E-1,9.728240013E0
3.171388593E0,-1.306037068E0,1.646013707E-1,9.752182007E0
3.173876145E0,-1.306037068E0,1.789665818E-1,9.766547203E0
3.176363697E0,-1.277306557E0,1.598129570E-1,9.785700798E0
3.178851249E0,-1.253364563E0,1.646013707E-1,9.790489197E0
3.181338802E0,-1.234210968E0,1.550245583E-1,9.795277596E0
3.183826354E0,-1.210268974E0,1.550245583E-1,9.790489197E0
3.186313906E0,-1.191115379E0,1.454477459E-1,9.819219589E0
3.188801458E0,-1.162384868E0,1.550245583E-1,9.833584785E0
3.191289010E0,-1.143231273E0,1.646013707E-1,9.847949982E0
3.193776562E0,-1.133654475E0,1.885433793E-1,9.857526779E0
3.196264114E0,-1.124077678E0,1.933317930E-1,9.852738380E0
3.198751666E0,-1.100135684E0,1.837549806E-1,9.871891975E0
3.201239218E0,-1.076193690E0,1.741781682E-1,9.862315178E0
3.203726770E0,-1.057040095E0,1.550245583E-1,9.847949982E0
3.206214322E0,-1.047463298E0,1.454477459E-1,9.838373184E0
3.208701874E0,-1.052251697E0,1.406593472E-1,9.824007988E0
3.211189427E0,-1.085770488E0,1.502361596E-1,9.814431190E0
3.213676979E0,-1.100135684E0,1.741781682E-1,9.814431190E0
3.216164531E0,-1.119289279E0,1.837549806E-1,9.819219589E0
3.218652083E0,-1.152808070E0,1.741781682E-1,9.795277596E0
3.221139635E0,-1.186326981E0,1.598129570E-1,9.809642792E0
3.223627187E0,-1.219845772E0,1.406593472E-1,9.804854393E0
3.226114791E0,-1.224634171E0,1.646013707E-1,9.819219589E0
3.228602395E0,-1.253364563E0,1.741781682E-1,9.819219589E0
3.231089999E0,-1.272518158E0,1.646013707E-1,9.804854393E0
3.233577604E0,-1.253364563E0,1.646013707E-1,9.780912399E0
3.236065208E0,-1.238999367E0,1.550245583E-1,9.785700798E0
3.238552812E0,-1.224634171E0,1.646013707E-1,9.776124001E0
3.241040416E0,-1.229422569E0,1.741781682E-1,9.761758804E0
3.243528020E0,-1.248576164E0,1.646013707E-1,9.780912399E0
3.246015624E0,-1.267729759E0,1.454477459E-1,9.795277596E0
3.248503229E0,-1.267729759E0,1.406593472E-1,9.804854393E0
3.250990833E0,-1.262941360E0,1.454477459E-1,9.833584785E0
3.253478437E0,-1.258152962E0,1.454477459E-1,9.852738380E0
3.255966041E0,-1.248576164E0,1.406593472E-1,9.871891975E0
3.258453645E0,-1.234210968E0,1.550245583E-1,9.862315178E0
3.260941249E0,-1.210268974E0,1.693897694E-1,9.867103577E0
3.263428854E0,-1.186326981E0,1.550245583E-1,9.876680374E0
3.265916458E0,-1.181538582E0,1.502361596E-1,9.871891975E0
3.268404062E0,-1.181538582E0,1.358709484E-1,9.886257172E0
3.270891666E0,-1.200692177E0,1.262941360E-1,9.881468773E0
3.273379270E0,-1.205480576E0,1.693897694E-1,9.852738380E0
3.275866874E0,-1.210268974E0,1.646013707E-1,9.843161583E0
3.278354479E0,-1.229422569E0,1.598129570E-1,9.828796387E0
3.280842083E0,-1.210268974E0,1.598129570E-1,9.804854393E0
3.283329687E0,-1.181538582E0,1.454477459E-1,9.785700798E0
3.285817291E0,-1.162384868E0,1.454477459E-1,9.766547203E0
3.288304895E0,-1.167173386E0,1.550245583E-1,9.723451614E0
3.290792499E0,-1.152808070E0,1.454477459E-1,9.699509621E0
3.293280104E0,-1.133654475E0,1.454477459E-1,9.661202431E0
3.295767708E0,-1.133654475E0,1.454477459E-1,9.646837234E0
3.298255312E0,-1.119289279E0,1.550245583E-1,9.637260437E0
3.300742916E0,-1.128866076E0,1.502361596E-1,9.622895241E0
3.303230520E0,-1.128866076E0,1.454477459E-1,9.622895241E0
3.305718124E0,-1.133654475E0,1.358709484E-1,9.603741646E0
3.308205729E0,-1.138442874E0,1.358709484E-1,9.594164848E0
3.310693333E0,-1.128866076E0,1.262941360E-1,9.579799652E0
3.313180885E0,-1.119289279E0,1.310825497E-1,9.594164848E0
3.315668437E0,-1.124077678E0,1.454477459E-1,9.589376450E0
3.318155989E0,-1.133654475E0,1.550245583E-1,9.613318443E0
3.320643541E0,-1.138442874E0,1.406593472E-1,9.627683640E0
3.323131093E0,-1.148019671E0,1.262941360E-1,9.646837234E0
3.325618645E0,-1.157596469E0,1.167173311E-1,9.646837234E0
3.328106197E0,-1.171961784E0,1.167173311E-1,9.661202431E0
3.330593749E0,-1.186326981E0,1.215057373E-1,9.661202431E0
3.333081302E0,-1.195903778E0,1.454477459E-1,9.661202431E0
3.335568854E0,-1.186326981E0,1.550245583E-1,9.670779228E0
3.338056406E0,-1.200692177E0,1.550245583E-1,9.694721222E0
3.340543958E0,-1.210268974E0,1.693897694E-1,9.685144424E0
3.343031510E0,-1.229422569E0,1.741781682E-1,9.680356026E0
3.345519062E0,-1.234210968E0,1.550245583E-1,9.704298019E0
3.348006614E0,-1.253364563E0,1.502361596E-1,9.728240013E0
3.350494166E0,-1.267729759E0,1.454477459E-1,9.747393608E0
3.352981718E0,-1.291671872E0,1.454477459E-1,9.737816811E0
3.355469270E0,-1.282094955E0,1.550245583E-1,9.747393608E0
3.357956822E0,-1.286883354E0,1.598129570E-1,9.766547203E0
3.360444374E0,-1.282094955E0,1.598129570E-1,9.752182007E0
3.362931927E0,-1.291671872E0,1.454477459E-1,9.776124001E0
3.365419479E0,-1.306037068E0,1.358709484E-1,9.785700798E0
3.367907031E0,-1.306037068E0,1.262941360E-1,9.795277596E0
3.370394583E0,-1.282094955E0,1.262941360E-1,9.800065994E0
3.372882135E0,-1.267729759E0,1.071405262E-1,9.800065994E0
3.375369687E0,-1.253364563E0,1.071405262E-1,9.833584785E0
3.377857239E0,-1.258152962E0,9.756372124E-2,9.857526779E0
3.380344791E0,-1.243787766E0,9.277531505E-2,9.876680374E0
3.382832343E0,-1.248576164E0,1.023521200E-1,9.891045570E0
3.385319895E0,-1.238999367E0,1.071405262E-1,9.891045570E0
3.387807447E0,-1.234210968E0,9.756372124E-2,9.891045570E0
3.390294999E0,-1.224634171E0,9.756372124E-2,9.891045570E0
3.392782552E0,-1.205480576E0,8.798690885E-2,9.900622368E0
3.395270104E0,-1.195903778E0,9.277531505E-2,9.919775963E0
3.397757656E0,-1.205480576E0,9.277531505E-2,9.914987564E0
3.400245208E0,-1.219845772E0,1.023521200E-1,9.924564362E0
3.402732760E0,-1.205480576E0,1.023521200E-1,9.905410767E0
3.405220312E0,-1.195903778E0,1.262941360E-1,9.914987564E0
3.407707864E0,-1.200692177E0,1.358709484E-1,9.900622368E0
3.410195416E0,-1.200692177E0,1.310825497E-1,9.891045570E0
3.412682968E0,-1.195903778E0,1.502361596E-1,9.862315178E0
3.415170520E0,-1.210268974E0,1.837549806E-1,9.828796387E0
3.417658072E0,-1.210268974E0,1.933317930E-1,9.804854393E0
3.420145624E0,-1.210268974E0,1.933317930E-1,9.766547203E0
3.422633177E0,-1.234210968E0,1.981201917E-1,9.752182007E0
3.425120729E0,-1.219845772E0,2.124854028E-1,9.728240013E0
3.427608281E0,-1.191115379E0,2.076970041E-1,9.699509621E0
3.430095833E0,-1.186326981E0,2.029085904E-1,9.689932823E0
3.432583385E0,-1.167173386E0,1.837549806E-1,9.675567627E0
3.435070937E0,-1.171961784E0,1.741781682E-1,9.670779228E0
3.437558489E0,-1.148019671E0,1.646013707E-1,9.665990829E0
3.440046041E0,-1.138442874E0,1.693897694E-1,9.675567627E0
3.442533593E0,-1.162384868E0,1.789665818E-1,9.685144424E0
3.445021145E0,-1.176750183E0,1.885433793E-1,9.699509621E0
3.447508697E0,-1.219845772E0,1.885433793E-1,9.709086418E0
3.449996249E0,-1.243787766E0,1.885433793E-1,9.709086418E0
3.452483802E0,-1.253364563E0,1.885433793E-1,9.718663216E0
3.454971354E0,-1.258152962E0,1.837549806E-1,9.737816811E0
3.457458906E0,-1.267729759E0,1.981201917E-1,9.742605209E0
3.459946458E0,-1.258152962E0,1.981201917E-1,9.747393608E0
3.462434010E0,-1.262941360E0,1.885433793E-1,9.742605209E0
3.464921562E0,-1.262941360E0,1.693897694E-1,9.737816811E0
3.467409114E0,-1.258152962E0,1.693897694E-1,9.747393608E0
3.469896666E0,-1.248576164E0,1.693897694E-1,9.766547203E0
3.472384218E0,-1.238999367E0,1.550245583E-1,9.766547203E0
3.474871770E0,-1.224634171E0,1.550245583E-1,9.795277596E0
3.477359322E0,-1.238999367E0,1.454477459E-1,9.814431190E0
3.479846874E0,-1.219845772E0,1.598129570E-1,9.819219589E0
3.482334427E0,-1.229422569E0,1.454477459E-1,9.843161583E0
3.484821979E0,-1.234210968E0,1.310825497E-1,9.847949982E0
3.487309531E0,-1.234210968E0,1.358709484E-1,9.871891975E0
3.489797083E0,-1.253364563E0,1.646013707E-1,9.876680374E0
3.492284635E0,-1.258152962E0,1.789665818E-1,9.881468773E0
3.494772187E0,-1.262941360E0,1.981201917E-1,9.881468773E0
3.497259739E0,-1.248576164E0,1.837549806E-1,9.886257172E0
3.499747291E0,-1.224634171E0,1.837549806E-1,9.891045570E0
3.502234843E0,-1.171961784E0,1.550245583E-1,9.867103577E0
3.504722395E0,-1.128866076E0,1.310825497E-1,9.862315178E0
3.507209947E0,-1.100135684E0,1.262941360E-1,9.876680374E0
3.509697499E0,-1.080982089E0,1.406593472E-1,9.876680374E0
3.512185052E0,-1.085770488E0,1.598129570E-1,9.881468773E0
3.514672604E0,-1.095347285E0,1.741781682E-1,9.881468773E0
3.517160156E0,-1.080982089E0,1.837549806E-1,9.843161583E0
3.519647708E0,-1.061828494E0,1.933317930E-1,9.838373184E0
3.522135260E0,-1.071405292E0,2.076970041E-1,9.804854393E0
3.524622864E0,-1.071405292E0,1.885433793E-1,9.790489197E0
3.527110468E0,-1.080982089E0,2.029085904E-1,9.780912399E0
3.529598072E0,-1.095347285E0,2.124854028E-1,9.742605209E0
3.532085677E0,-1.090558887E0,2.124854028E-1,9.728240013E0
3.534573281E0,-1.100135684E0,2.220622003E-1,9.699509621E0
3.537060885E0,-1.095347285E0,1.981201917E-1,9.689932823E0
3.539548489E0,-1.057040095E0,1.885433793E-1,9.675567627E0
3.542036093E0,-1.047463298E0,1.933317930E-1,9.651625633E0
3.544523697E0,-1.023521185E0,1.837549806E-1,9.637260437E0
3.547011302E0,-1.028309584E0,1.789665818E-1,9.632472038E0
3.549498906E0,-1.023521185E0,1.885433793E-1,9.613318443E0
3.551986510E0,-1.052251697E0,2.029085904E-1,9.598953247E0
3.554474114E0,-1.052251697E0,1.933317930E-1,9.575011253E0
3.556961718E0,-1.057040095E0,1.885433793E-1,9.594164848E0
3.559449322E0,-1.061828494E0,1.789665818E-1,9.584588051E0
3.561936927E0,-1.061828494E0,1.837549806E-1,9.589376450E0
3.564424531E0,-1.076193690E0,1.598129570E-1,9.618106842E0
3.566912135E0,-1.047463298E0,1.789665818E-1,9.618106842E0
3.569399739E0,-1.028309584E0,1.741781682E-1,9.656414032E0
3.571887343E0,-1.033097982E0,1.789665818E-1,9.680356026E0
3.574374947E0,-1.028309584E0,1.693897694E-1,9.704298019E0
3.576862552E0,-1.018732786E0,1.741781682E-1,9.723451614E0
3.579350156E0,-1.009155989E0,1.693897694E-1,9.761758804E0
3.581837760E0,-1.009155989E0,1.550245583E-1,9.761758804E0
3.584325364E0,-1.023521185E0,1.598129570E-1,9.756970406E0
3.586812968E0,-1.023521185E0,1.646013707E-1,9.747393608E0
3.589300572E0,-1.023521185E0,1.646013707E-1,9.761758804E0
3.591788177E0,-1.057040095E0,1.693897694E-1,9.785700798E0
3.594275781E0,-1.090558887E0,1.837549806E-1,9.804854393E0
3.596763385E0,-1.119289279E0,1.885433793E-1,9.814431190E0
3.599250989E0,-1.133654475E0,1.885433793E-1,9.804854393E0
3.601738593E0,-1.143231273E0,1.981201917E-1,9.800065994E0
3.604226197E0,-1.138442874E0,2.172738016E-1,9.795277596E0
3.606713802E0,-1.143231273E0,2.076970041E-1,9.756970406E0
3.609201354E0,-1.152808070E0,1.885433793E-1,9.728240013E0
3.611688906E0,-1.148019671E0,1.741781682E-1,9.723451614E0
3.614176458E0,-1.148019671E0,1.693897694E-1,9.709086418E0
3.616664010E0,-1.152808070E0,1.693897694E-1,9.704298019E0
3.619151562E0,-1.157596469E0,1.885433793E-1,9.718663216E0
3.621639114E0,-1.181538582E0,2.124854028E-1,9.689932823E0
3.624126666E0,-1.181538582E0,2.460042238E-1,9.689932823E0
3.626614218E0,-1.176750183E0,2.460042238E-1,9.665990829E0
3.629101770E0,-1.176750183E0,2.268506140E-1,9.642048836E0
3.631589322E0,-1.176750183E0,1.933317930E-1,9.642048836E0
3.634076874E0,-1.176750183E0,1.646013707E-1,9.632472038E0
3.636564427E0,-1.205480576E0,1.454477459E-1,9.613318443E0
3.639051979E0,-1.205480576E0,1.550245583E-1,9.589376450E0
3.641539531E0,-1.224634171E0,1.693897694E-1,9.598953247E0
3.644027083E0,-1.267729759E0,1.885433793E-1,9.598953247E0
3.646514635E0,-1.267729759E0,2.172738016E-1,9.598953247E0
3.649002187E0,-1.267729759E0,2.172738016E-1,9.618106842E0
3.651489739E0,-1.238999367E0,2.172738016E-1,9.632472038E0
3.653977291E0,-1.229422569E0,2.124854028E-1,9.661202431E0
3.656464843E0,-1.229422569E0,1.933317930E-1,9.694721222E0
3.658952395E0,-1.205480576E0,1.933317930E-1,9.709086418E0
3.661439947E0,-1.186326981E0,1.933317930E-1,9.704298019E0
3.663927499E0,-1.181538582E0,2.172738016E-1,9.709086418E0
3.666415052E0,-1.152808070E0,2.172738016E-1,9.733028412E0
3.668902604E0,-1.128866076E0,2.124854028E-1,9.742605209E0
3.671390156E0,-1.124077678E0,1.981201917E-1,9.728240013E0
3.673877708E0,-1.133654475E0,1.885433793E-1,9.737816811E0
3.676365260E0,-1.138442874E0,1.789665818E-1,9.742605209E0
3.678852812E0,-1.152808070E0,1.646013707E-1,9.747393608E0
3.681340364E0,-1.167173386E0,1.693897694E-1,9.756970406E0
3.683827916E0,-1.195903778E0,1.646013707E-1,9.761758804E0
3.686315468E0,-1.210268974E0,1.741781682E-1,9.761758804E0
3.688803020E0,-1.224634171E0,1.789665818E-1,9.756970406E0
3.691290572E0,-1.229422569E0,1.789665818E-1,9.752182007E0
3.693778124E0,-1.219845772E0,1.789665818E-1,9.747393608E0
3.696265677E0,-1.205480576E0,1.598129570E-1,9.761758804E0
3.698753229E0,-1.186326981E0,1.550245583E-1,9.771335602E0
3.701240781E0,-1.176750183E0,1.502361596E-1,9.761758804E0
3.703728333E0,-1.167173386E0,1.598129570E-1,9.752182007E0
3.706215885E0,-1.191115379E0,1.646013707E-1,9.756970406E0
3.708703437E0,-1.200692177E0,1.646013707E-1,9.756970406E0
3.711190989E0,-1.205480576E0,1.789665818E-1,9.771335602E0
3.713678541E0,-1.205480576E0,1.741781682E-1,9.747393608E0
3.716166093E0,-1.200692177E0,1.741781682E-1,9.723451614E0
3.718653645E0,-1.195903778E0,1.646013707E-1,9.680356026E0
3.721141197E0,-1.181538582E0,1.598129570E-1,9.651625633E0
3.723628749E0,-1.181538582E0,1.502361596E-1,9.627683640E0
3.726116302E0,-1.176750183E0,1.454477459E-1,9.613318443E0
3.728603854E0,-1.143231273E0,1.454477459E-1,9.603741646E0
3.731091406E0,-1.167173386E0,1.646013707E-1,9.608530045E0
3.733578958E0,-1.157596469E0,1.646013707E-1,9.589376450E0
3.736066510E0,-1.162384868E0,1.933317930E-1,9.575011253E0
3.738554062E0,-1.176750183E0,2.316390127E-1,9.570222855E0
3.741041614E0,-1.171961784E0,2.268506140E-1,9.555857658E0
3.743529166E0,-1.171961784E0,2.124854028E-1,9.546280861E0
3.746016718E0,-1.171961784E0,2.029085904E-1,9.541492462E0
3.748504270E0,-1.181538582E0,1.837549806E-1,9.536704063E0
3.750991822E0,-1.195903778E0,1.933317930E-1,9.536704063E0
3.753479374E0,-1.181538582E0,2.029085904E-1,9.541492462E0
3.755966927E0,-1.200692177E0,1.981201917E-1,9.551069260E0
3.758454479E0,-1.219845772E0,2.076970041E-1,9.594164848E0
3.760942031E0,-1.248576164E0,2.124854028E-1,9.656414032E0
3.763429583E0,-1.262941360E0,2.172738016E-1,9.685144424E0
3.765917135E0,-1.253364563E0,2.124854028E-1,9.704298019E0
3.768404687E0,-1.258152962E0,2.124854028E-1,9.733028412E0
3.770892239E0,-1.243787766E0,1.981201917E-1,9.747393608E0
3.773379791E0,-1.248576164E0,1.885433793E-1,9.780912399E0
3.775867343E0,-1.258152962E0,1.933317930E-1,9.795277596E0
3.778354895E0,-1.267729759E0,1.981201917E-1,9.809642792E0
3.780842447E0,-1.282094955E0,2.220622003E-1,9.852738380E0
3.783329999E0,-1.267729759E0,2.172738016E-1,9.876680374E0
3.785817552E0,-1.253364563E0,2.172738016E-1,9.895833969E0
3.788305104E0,-1.224634171E0,2.172738016E-1,9.910199165E0
3.790792656E0,-1.219845772E0,1.837549806E-1,9.919775963E0
3.793280208E0,-1.205480576E0,1.933317930E-1,9.934141159E0
3.795767760E0,-1.191115379E0,2.029085904E-1,9.929352760E0
3.798255312E0,-1.171961784E0,2.029085904E-1,9.910199165E0
3.800742864E0,-1.181538582E0,2.124854028E-1,9.924564362E0
3.803230416E0,-1.186326981E0,2.172738016E-1,9.929352760E0
3.805717968E0,-1.186326981E0,2.316390127E-1,9.919775963E0
3.808205520E0,-1.205480576E0,2.460042238E-1,9.924564362E0
3.810693072E0,-1.191115379E0,2.316390127E-1,9.929352760E0
3.813180624E0,-1.176750183E0,2.076970041E-1,9.934141159E0
3.815668177E0,-1.152808070E0,1.885433793E-1,9.919775963E0
3.818155729E0,-1.133654475E0,1.741781682E-1,9.900622368E0
3.820643281E0,-1.104924083E0,1.646013707E-1,9.857526779E0
3.823130833E0,-1.085770488E0,1.550245583E-1,9.833584785E0
3.825618385E0,-1.057040095E0,1.693897694E-1,9.833584785E0
3.828105937E0,-1.057040095E0,1.789665818E-1,9.824007988E0
3.830593489E0,-1.061828494E0,1.837549806E-1,9.819219589E0
3.833081041E0,-1.076193690E0,1.837549806E-1,9.800065994E0
3.835568645E0,-1.090558887E0,1.837549806E-1,9.766547203E0
3.838056249E0,-1.109712481E0,1.981201917E-1,9.756970406E0
3.840543854E0,-1.128866076E0,1.885433793E-1,9.761758804E0
3.843031458E0,-1.133654475E0,2.029085904E-1,9.742605209E0
3.845519062E0,-1.152808070E0,1.885433793E-1,9.733028412E0
3.848006666E0,-1.157596469E0,1.693897694E-1,9.728240013E0
3.850494270E0,-1.138442874E0,1.789665818E-1,9.718663216E0
3.852981874E0,-1.119289279E0,1.693897694E-1,9.704298019E0
3.855469479E0,-1.119289279E0,1.693897694E-1,9.685144424E0
3.857957083E0,-1.109712481E0,1.789665818E-1,9.685144424E0
3.860444687E0,-1.119289279E0,1.885433793E-1,9.699509621E0
3.862932291E0,-1.143231273E0,1.885433793E-1,9.704298019E0
3.865419895E0,-1.138442874E0,1.837549806E-1,9.718663216E0
3.867907499E0,-1.114500880E0,1.837549806E-1,9.728240013E0
3.870395104E0,-1.090558887E0,1.837549806E-1,9.742605209E0
3.872882708E0,-1.080982089E0,1.933317930E-1,9.766547203E0
3.875370312E0,-1.066616893E0,1.981201917E-1,9.780912399E0
3.877857916E0,-1.057040095E0,1.837549806E-1,9.785700798E0
3.880345520E0,-1.057040095E0,1.933317930E-1,9.771335602E0
3.882833124E0,-1.061828494E0,1.885433793E-1,9.771335602E0
3.885320729E0,-1.047463298E0,1.646013707E-1,9.780912399E0
3.887808333E0,-1.080982089E0,1.406593472E-1,9.766547203E0
3.890295937E0,-1.104924083E0,1.454477459E-1,9.761758804E0
3.892783541E0,-1.133654475E0,1.406593472E-1,9.766547203E0
3.895271145E0,-1.148019671E0,1.550245583E-1,9.756970406E0
3.897758749E0,-1.152808070E0,1.550245583E-1,9.723451614E0
3.900246354E0,-1.148019671E0,1.310825497E-1,9.713874817E0
3.902733958E0,-1.143231273E0,1.167173311E-1,9.685144424E0
3.905221562E0,-1.143231273E0,1.310825497E-1,9.675567627E0
3.907709166E0,-1.128866076E0,1.358709484E-1,9.680356026E0
3.910196770E0,-1.100135684E0,1.358709484E-1,9.699509621E0
3.912684374E0,-1.095347285E0,1.310825497E-1,9.718663216E0
3.915171979E0,-1.052251697E0,9.277531505E-2,9.761758804E0
3.917659531E0,-1.047463298E0,7.841010392E-2,9.766547203E0
3.920147083E0,-1.033097982E0,7.841010392E-2,9.785700798E0
3.922634635E0,-1.033097982E0,7.362170517E-2,9.790489197E0
3.925122187E0,-1.028309584E0,8.798690885E-2,9.804854393E0
3.927609739E0,-1.037886381E0,8.319851011E-2,9.800065994E0
3.930097291E0,-1.042674899E0,7.841010392E-2,9.828796387E0
3.932584843E0,-1.066616893E0,7.841010392E-2,9.852738380E0
3.935072395E0,-1.052251697E0,9.277531505E-2,9.867103577E0
3.937559947E0,-1.066616893E0,9.756372124E-2,9.871891975E0
3.940047499E0,-1.095347285E0,9.277531505E-2,9.871891975E0
3.942535052E0,-1.109712481E0,8.319851011E-2,9.876680374E0
3.945022604E0,-1.114500880E0,7.841010392E-2,9.871891975E0
3.947510156E0,-1.109712481E0,6.883329898E-2,9.862315178E0
3.949997708E0,-1.133654475E0,8.319851011E-2,9.862315178E0
3.952485260E0,-1.138442874E0,7.841010392E-2,9.857526779E0
3.954972812E0,-1.157596469E0,8.319851011E-2,9.847949982E0
3.957460364E0,-1.176750183E0,1.119289324E-1,9.819219589E0
3.959947916E0,-1.176750183E0,1.215057373E-1,9.800065994E0
3.962435468E0,-1.195903778E0,1.358709484E-1,9.790489197E0
3.964923020E0,-1.181538582E0,1.215057373E-1,9.766547203E0
3.967410572E0,-1.162384868E0,1.215057373E-1,9.752182007E0
3.969898124E0,-1.148019671E0,1.023521200E-1,9.723451614E0
3.972385677E0,-1.143231273E0,8.319851011E-2,9.709086418E0
3.974873229E0,-1.133654475E0,7.841010392E-2,9.685144424E0
3.977360781E0,-1.128866076E0,1.167173311E-1,9.661202431E0
3.979848333E0,-1.124077678E0,1.215057373E-1,9.646837234E0
3.982335885E0,-1.128866076E0,1.262941360E-1,9.627683640E0
3.984823437E0,-1.138442874E0,1.310825497E-1,9.622895241E0
3.987310989E0,-1.157596469E0,1.406593472E-1,9.618106842E0
3.989798541E0,-1.162384868E0,1.310825497E-1,9.608530045E0
3.992286093E0,-1.191115379E0,1.119289324E-1,9.594164848E0
3.994773645E0,-1.200692177E0,1.023521200E-1,9.603741646E0
3.997261197E0,-1.200692177E0,1.167173311E-1,9.565434456E0
3.999748749E0,-1.195903778E0,1.358709484E-1,9.565434456E0
4.002236302E0,-1.195903778E0,1.358709484E-1,9.579799652E0
4.004723854E0,-1.215057373E0,1.406593472E-1,9.565434456E0
4.007211406E0,-1.210268974E0,1.119289324E-1,9.579799652E0
4.009698958E0,-1.195903778E0,1.215057373E-1,9.608530045E0
4.012186510E0,-1.181538582E0,1.119289324E-1,9.627683640E0
4.014674062E0,-1.176750183E0,9.756372124E-2,9.675567627E0
4.017161614E0,-1.195903778E0,1.119289324E-1,9.704298019E0
4.019649166E0,-1.195903778E0,1.310825497E-1,9.713874817E0
4.022136718E0,-1.191115379E0,1.454477459E-1,9.747393608E0
4.024624270E0,-1.176750183E0,1.262941360E-1,9.766547203E0
4.027111822E0,-1.171961784E0,1.215057373E-1,9.795277596E0
4.029599374E0,-1.167173386E0,1.406593472E-1,9.809642792E0
4.032086927E0,-1.152808070E0,1.454477459E-1,9.804854393E0
4.034574479E0,-1.167173386E0,1.646013707E-1,9.819219589E0
4.037062031E0,-1.176750183E0,1.693897694E-1,9.847949982E0
4.039549583E0,-1.186326981E0,1.646013707E-1,9.833584785E0
4.042037135E0,-1.186326981E0,1.741781682E-1,9.843161583E0
4.044524687E0,-1.195903778E0,1.885433793E-1,9.862315178E0
4.047012239E0,-1.200692177E0,1.741781682E-1,9.857526779E0
4.049499791E0,-1.205480576E0,1.741781682E-1,9.843161583E0
4.051987343E0,-1.195903778E0,1.789665818E-1,9.833584785E0
4.054474895E0,-1.219845772E0,1.837549806E-1,9.843161583E0
4.056962447E0,-1.238999367E0,1.693897694E-1,9.833584785E0
4.059449999E0,-1.238999367E0,1.741781682E-1,9.833584785E0
4.061937552E0,-1.248576164E0,1.837549806E-1,9.828796387E0
4.064425104E0,-1.277306557E0,1.837549806E-1,9.828796387E0
4.066912656E0,-1.286883354E0,1.837549806E-1,9.819219589E0
4.069400208E0,-1.301248670E0,1.741781682E-1,9.809642792E0
4.071887760E0,-1.329979062E0,1.789665818E-1,9.800065994E0
4.074375312E0,-1.344344258E0,1.693897694E-1,9.828796387E0
4.076862864E0,-1.358709455E0,1.502361596E-1,9.838373184E0
4.079350416E0,-1.368286252E0,1.502361596E-1,9.852738380E0
4.081837968E0,-1.353921056E0,1.406593472E-1,9.862315178E0
4.084325520E0,-1.344344258E0,1.310825497E-1,9.862315178E0
4.086813072E0,-1.334767461E0,1.454477459E-1,9.871891975E0
4.089300624E0,-1.349132657E0,1.454477459E-1,9.857526779E0
4.091788177E0,-1.329979062E0,1.358709484E-1,9.876680374E0
4.094275729E0,-1.306037068E0,1.358709484E-1,9.886257172E0
4.096763281E0,-1.301248670E0,1.167173311E-1,9.881468773E0
4.099250833E0,-1.301248670E0,1.119289324E-1,9.900622368E0
4.101738385E0,-1.291671872E0,1.167173311E-1,9.891045570E0
4.104225937E0,-1.296460271E0,1.310825497E-1,9.895833969E0
4.106713489E0,-1.282094955E0,1.023521200E-1,9.876680374E0
4.109201041E0,-1.258152962E0,8.798690885E-2,9.862315178E0
4.111688593E0,-1.234210968E0,9.277531505E-2,9.838373184E0
4.114176145E0,-1.224634171E0,8.798690885E-2,9.828796387E0
4.116663697E0,-1.215057373E0,8.319851011E-2,9.824007988E0
4.119151249E0,-1.191115379E0,1.023521200E-1,9.833584785E0
4.121638802E0,-1.176750183E0,1.310825497E-1,9.833584785E0
4.124126354E0,-1.143231273E0,1.167173311E-1,9.847949982E0
4.126613906E0,-1.133654475E0,1.167173311E-1,9.876680374E0
4.129101458E0,-1.100135684E0,1.023521200E-1,9.867103577E0
4.131589010E0,-1.080982089E0,9.756372124E-2,9.857526779E0
4.134076562E0,-1.061828494E0,9.756372124E-2,9.843161583E0
4.136564114E0,-1.066616893E0,1.119289324E-1,9.828796387E0
4.139051666E0,-1.076193690E0,1.262941360E-1,9.814431190E0
4.141539218E0,-1.080982089E0,1.454477459E-1,9.795277596E0
4.144026770E0,-1.080982089E0,1.454477459E-1,9.771335602E0
4.146514322E0,-1.057040095E0,1.502361596E-1,9.776124001E0
4.149001874E0,-1.028309584E0,1.215057373E-1,9.780912399E0
4.151489427E0,-1.009155989E0,1.071405262E-1,9.790489197E0
4.153976979E0,-9.852139950E-1,9.756372124E-2,9.795277596E0
4.156464531E0,-9.900023937E-1,8.798690885E-2,9.809642792E0
4.158952083E0,-9.995791912E-1,8.798690885E-2,9.804854393E0
4.161439635E0,-1.009155989E0,9.756372124E-2,9.785700798E0
4.163927239E0,-1.009155989E0,1.119289324E-1,9.790489197E0
4.166414843E0,-1.018732786E0,1.167173311E-1,9.766547203E0
4.168902447E0,-1.018732786E0,1.358709484E-1,9.747393608E0
4.171390052E0,-1.023521185E0,1.167173311E-1,9.742605209E0
4.173877656E0,-1.028309584E0,1.071405262E-1,9.737816811E0
4.176365260E0,-1.033097982E0,1.119289324E-1,9.723451614E0
4.178852864E0,-1.052251697E0,9.756372124E-2,9.733028412E0
4.181340468E0,-1.057040095E0,8.319851011E-2,9.728240013E0
4.183828072E0,-1.052251697E0,8.798690885E-2,9.733028412E0
4.186315677E0,-1.052251697E0,8.798690885E-2,9.742605209E0
4.188803281E0,-1.042674899E0,1.023521200E-1,9.752182007E0
4.191290885E0,-1.004367590E0,9.277531505E-2,9.742605209E0
4.193778489E0,-1.004367590E0,9.277531505E-2,9.766547203E0
4.196266093E0,-9.900023937E-1,9.756372124E-2,9.771335602E0
4.198753697E0,-9.756371975E-1,8.798690885E-2,9.776124001E0
4.201241302E0,-9.469067454E-1,9.277531505E-2,9.795277596E0
4.203728906E0,-9.516952038E-1,1.071405262E-1,9.800065994E0
4.206216510E0,-9.325415492E-1,1.071405262E-1,9.804854393E0
4.208704114E0,-9.325415492E-1,1.215057373E-1,9.814431190E0
4.211191718E0,-9.277531505E-1,1.358709484E-1,9.828796387E0
4.213679322E0,-9.181763530E-1,1.502361596E-1,9.819219589E0
4.216166927E0,-9.229647517E-1,1.646013707E-1,9.809642792E0
4.218654531E0,-9.229647517E-1,1.598129570E-1,9.785700798E0
4.221142135E0,-9.277531505E-1,1.310825497E-1,9.747393608E0
4.223629739E0,-9.229647517E-1,1.262941360E-1,9.733028412E0
4.226117343E0,-9.516952038E-1,1.358709484E-1,9.718663216E0
4.228604947E0,-9.756371975E-1,1.167173311E-1,9.699509621E0
4.231092552E0,-1.013944387E0,1.406593472E-1,9.689932823E0
4.233580156E0,-1.033097982E0,1.502361596E-1,9.699509621E0
4.236067760E0,-1.071405292E0,1.502361596E-1,9.699509621E0
4.238555364E0,-1.119289279E0,1.358709484E-1,9.670779228E0
4.241042968E0,-1.119289279E0,1.167173311E-1,9.646837234E0
4.243530520E0,-1.114500880E0,9.756372124E-2,9.642048836E0
4.246018072E0,-1.104924083E0,9.277531505E-2,9.622895241E0
4.248505624E0,-1.133654475E0,1.023521200E-1,9.646837234E0
4.250993177E0,-1.148019671E0,1.023521200E-1,9.665990829E0
4.253480729E0,-1.157596469E0,1.119289324E-1,9.680356026E0
4.255968281E0,-1.167173386E0,1.119289324E-1,9.689932823E0
4.258455833E0,-1.152808070E0,1.071405262E-1,9.709086418E0
4.260943385E0,-1.152808070E0,9.756372124E-2,9.747393608E0
4.263430937E0,-1.143231273E0,8.798690885E-2,9.790489197E0
4.265918489E0,-1.138442874E0,9.277531505E-2,9.790489197E0
4.268406041E0,-1.148019671E0,1.119289324E-1,9.819219589E0
4.270893593E0,-1.114500880E0,1.167173311E-1,9.828796387E0
4.273381145E0,-1.095347285E0,1.167173311E-1,9.838373184E0
4.275868697E0,-1.080982089E0,1.262941360E-1,9.843161583E0
4.278356249E0,-1.066616893E0,1.454477459E-1,9.843161583E0
4.280843802E0,-1.076193690E0,1.358709484E-1,9.847949982E0
4.283331354E0,-1.080982089E0,1.406593472E-1,9.843161583E0
4.285818906E0,-1.080982089E0,1.598129570E-1,9.819219589E0
4.288306458E0,-1.080982089E0,1.454477459E-1,9.804854393E0
4.290794010E0,-1.076193690E0,1.550245583E-1,9.814431190E0
4.293281562E0,-1.080982089E0,1.550245583E-1,9.809642792E0
4.295769114E0,-1.076193690E0,1.406593472E-1,9.804854393E0
4.298256666E0,-1.071405292E0,1.598129570E-1,9.780912399E0
4.300744218E0,-1.066616893E0,1.502361596E-1,9.761758804E0
4.303231770E0,-1.057040095E0,1.454477459E-1,9.756970406E0
4.305719322E0,-1.042674899E0,1.358709484E-1,9.747393608E0
4.308206874E0,-1.037886381E0,1.358709484E-1,9.752182007E0
4.310694427E0,-1.047463298E0,1.310825497E-1,9.747393608E0
4.313181979E0,-1.047463298E0,1.215057373E-1,9.752182007E0
4.315669531E0,-1.037886381E0,1.262941360E-1,9.728240013E0
4.318157083E0,-1.052251697E0,1.358709484E-1,9.718663216E0
4.320644635E0,-1.057040095E0,1.215057373E-1,9.704298019E0
4.323132187E0,-1.076193690E0,1.262941360E-1,9.685144424E0
4.325619739E0,-1.080982089E0,1.358709484E-1,9.646837234E0
4.328107291E0,-1.095347285E0,1.693897694E-1,9.632472038E0
4.330594843E0,-1.128866076E0,1.837549806E-1,9.627683640E0
4.333082395E0,-1.171961784E0,1.885433793E-1,9.637260437E0
4.335569947E0,-1.195903778E0,1.789665818E-1,9.661202431E0
4.338057499E0,-1.229422569E0,1.454477459E-1,9.709086418E0
4.340545052E0,-1.262941360E0,1.550245583E-1,9.761758804E0
4.343032604E0,-1.286883354E0,1.454477459E-1,9.785700798E0
4.345520156E0,-1.310825467E0,1.646013707E-1,9.790489197E0
4.348007708E0,-1.310825467E0,1.693897694E-1,9.814431190E0
4.350495260E0,-1.301248670E0,1.693897694E-1,9.824007988E0
4.352982812E0,-1.296460271E0,1.550245583E-1,9.843161583E0
4.355470364E0,-1.258152962E0,1.406593472E-1,9.891045570E0
4.357957916E0,-1.248576164E0,1.262941360E-1,9.967659950E0
4.360445468E0,-1.253364563E0,1.502361596E-1,9.982025146E0
4.362933020E0,-1.238999367E0,1.262941360E-1,9.962871552E0
4.365420572E0,-1.191115379E0,1.167173311E-1,9.938929558E0
4.367908124E0,-1.143231273E0,1.071405262E-1,9.910199165E0
4.370395677E0,-1.119289279E0,9.756372124E-2,9.900622368E0
4.372883229E0,-1.109712481E0,9.756372124E-2,9.886257172E0
4.375370781E0,-1.095347285E0,9.277531505E-2,9.857526779E0
4.377858333E0,-1.080982089E0,1.071405262E-1,9.867103577E0
4.380345885E0,-1.090558887E0,1.215057373E-1,9.862315178E0
4.382833437E0,-1.076193690E0,1.310825497E-1,9.843161583E0
4.385320989E0,-1.066616893E0,1.502361596E-1,9.838373184E0
4.387808541E0,-1.052251697E0,1.454477459E-1,9.819219589E0
4.390296093E0,-1.042674899E0,1.358709484E-1,9.800065994E0
4.392783645E0,-1.013944387E0,1.358709484E-1,9.752182007E0
4.395271197E0,-9.947907925E-1,1.215057373E-1,9.737816811E0
4.397758749E0,-9.852139950E-1,1.167173311E-1,9.699509621E0
4.400246302E0,-9.804255962E-1,1.262941360E-1,9.675567627E0
4.402733854E0,-9.756371975E-1,1.262941360E-1,9.665990829E0
4.405221406E0,-9.708487988E-1,1.167173311E-1,9.608530045E0
4.407708958E0,-9.804255962E-1,1.119289324E-1,9.618106842E0
4.410196510E0,-9.804255962E-1,1.167173311E-1,9.613318443E0
4.412684062E0,-9.708487988E-1,1.215057373E-1,9.598953247E0
4.415171614E0,-9.852139950E-1,1.167173311E-1,9.579799652E0
4.417659166E0,-9.947907925E-1,1.167173311E-1,9.570222855E0
4.420146718E0,-9.947907925E-1,1.167173311E-1,9.598953247E0
4.422634270E0,-9.900023937E-1,1.071405262E-1,9.603741646E0
4.425121822E0,-9.900023937E-1,9.277531505E-2,9.608530045E0
4.427609374E0,-9.852139950E-1,1.071405262E-1,9.632472038E0
4.430096927E0,-9.995791912E-1,1.023521200E-1,9.642048836E0
4.432584479E0,-1.013944387E0,9.756372124E-2,9.632472038E0
4.435072031E0,-1.023521185E0,8.798690885E-2,9.670779228E0
4.437559583E0,-1.042674899E0,7.841010392E-2,9.733028412E0
4.440047135E0,-1.042674899E0,8.798690885E-2,9.766547203E0
4.442534687E0,-1.047463298E0,1.071405262E-1,9.804854393E0
4.445022239E0,-1.066616893E0,1.167173311E-1,9.852738380E0
4.447509791E0,-1.071405292E0,1.023521200E-1,9.900622368E0
4.449997343E0,-1.076193690E0,9.756372124E-2,9.905410767E0
4.452484895E0,-1.085770488E0,9.277531505E-2,9.938929558E0
4.454972447E0,-1.085770488E0,6.883329898E-2,9.972448349E0
4.457459999E0,-1.071405292E0,6.883329898E-2,1.000117874E1
4.459947552E0,-1.076193690E0,4.010287672E-2,1.000596714E1
4.462435104E0,-1.080982089E0,5.446808785E-2,1.002990913E1
4.464922656E0,-1.076193690E0,6.404489279E-2,1.002512074E1
4.467410208E0,-1.085770488E0,6.404489279E-2,1.005385113E1
4.469897760E0,-1.124077678E0,6.404489279E-2,1.004906273E1
4.472385312E0,-1.138442874E0,6.404489279E-2,1.001075554E1
4.474872864E0,-1.148019671E0,6.883329898E-2,9.996390343E0
4.477360416E0,-1.138442874E0,5.925649032E-2,9.967659950E0
4.479847968E0,-1.157596469E0,4.967968538E-2,9.929352760E0
4.482335520E0,-1.167173386E0,3.052607179E-2,9.905410767E0
4.484823072E0,-1.148019671E0,2.094926499E-2,9.886257172E0
4.487310624E0,-1.143231273E0,1.795651275E-3,9.857526779E0
4.489798177E0,-1.157596469E0,2.573766746E-2,9.838373184E0
4.492285729E0,-1.162384868E0,4.489128292E-2,9.833584785E0
4.494773281E0,-1.148019671E0,4.489128292E-2,9.795277596E0
4.497260833E0,-1.133654475E0,3.052607179E-2,9.785700798E0
4.499748385E0,-1.138442874E0,4.010287672E-2,9.766547203E0
4.502235937E0,-1.138442874E0,4.010287672E-2,9.742605209E0
4.504723489E0,-1.128866076E0,4.010287672E-2,9.742605209E0
4.507211041E0,-1.119289279E0,4.010287672E-2,9.733028412E0
4.509698593E0,-1.109712481E0,4.010287672E-2,9.713874817E0
4.512186145E0,-1.090558887E0,4.967968538E-2,9.704298019E0
4.514673697E0,-1.076193690E0,5.925649032E-2,9.665990829E0
4.517161302E0,-1.057040095E0,5.925649032E-2,9.642048836E0
4.519648906E0,-1.037886381E0,7.362170517E-2,9.613318443E0
4.522136510E0,-1.028309584E0,5.925649032E-2,9.632472038E0
4.524624114E0,-1.013944387E0,4.489128292E-2,9.637260437E0
4.527111718E0,-9.995791912E-1,2.573766746E-2,9.632472038E0
4.529599322E0,-9.995791912E-1,4.489128292E-2,9.656414032E0
4.532086927E0,-1.013944387E0,4.967968538E-2,9.665990829E0
4.534574531E0,-1.047463298E0,4.967968538E-2,9.670779228E0
4.537062135E0,-1.066616893E0,7.362170517E-2,9.665990829E0
4.539549739E0,-1.100135684E0,8.319851011E-2,9.656414032E0
4.542037343E0,-1.119289279E0,9.277531505E-2,9.632472038E0
4.544524947E0,-1.148019671E0,9.756372124E-2,9.622895241E0
4.547012552E0,-1.157596469E0,8.798690885E-2,9.627683640E0
4.549500156E0,-1.143231273E0,6.883329898E-2,9.646837234E0
4.551987760E0,-1.148019671E0,7.841010392E-2,9.680356026E0
4.554475364E0,-1.152808070E0,7.362170517E-2,9.709086418E0
4.556962968E0,-1.152808070E0,8.319851011E-2,9.737816811E0
4.559450572E0,-1.124077678E0,8.798690885E-2,9.761758804E0
4.561938177E0,-1.124077678E0,7.841010392E-2,9.785700798E0
4.564425781E0,-1.133654475E0,6.404489279E-2,9.800065994E0
4.566913385E0,-1.138442874E0,5.925649032E-2,9.800065994E0
4.569400989E0,-1.133654475E0,4.489128292E-2,9.800065994E0
4.571888593E0,-1.114500880E0,4.489128292E-2,9.804854393E0
4.574376197E0,-1.138442874E0,4.489128292E-2,9.795277596E0
4.576863802E0,-1.162384868E0,4.489128292E-2,9.795277596E0
4.579351406E0,-1.186326981E0,5.925649032E-2,9.771335602E0
4.581839010E0,-1.210268974E0,5.925649032E-2,9.771335602E0
4.584326614E0,-1.229422569E0,6.404489279E-2,9.756970406E0
4.586814218E0,-1.243787766E0,6.404489279E-2,9.752182007E0
4.589301822E0,-1.243787766E0,5.925649032E-2,9.728240013E0
4.591789427E0,-1.229422569E0,5.925649032E-2,9.699509621E0
4.594276979E0,-1.219845772E0,4.489128292E-2,9.670779228E0
4.596764531E0,-1.219845772E0,1.616086066E-2,9.665990829E0
4.599252083E0,-1.219845772E0,1.616086066E-2,9.685144424E0
4.601739635E0,-1.229422569E0,3.052607179E-2,9.675567627E0
4.604227187E0,-1.243787766E0,3.052607179E-2,9.680356026E0
4.606714739E0,-1.253364563E0,4.010287672E-2,9.680356026E0
4.609202291E0,-1.248576164E0,5.446808785E-2,9.685144424E0
4.611689843E0,-1.248576164E0,3.531447425E-2,9.699509621E0
4.614177395E0,-1.224634171E0,2.094926499E-2,9.713874817E0
4.616664947E0,-1.191115379E0,1.137245819E-2,9.718663216E0
4.619152499E0,-1.176750183E0,-1.256955881E-2,9.704298019E0
4.621640052E0,-1.171961784E0,1.795651275E-3,9.709086418E0
4.624127604E0,-1.171961784E0,1.795651275E-3,9.728240013E0
4.626615156E0,-1.148019671E0,1.795651275E-3,9.747393608E0
4.629102708E0,-1.138442874E0,-2.992752008E-3,9.742605209E0
4.631590260E0,-1.143231273E0,-2.992752008E-3,9.752182007E0
4.634077812E0,-1.138442874E0,1.795651275E-3,9.761758804E0
4.636565364E0,-1.148019671E0,1.137245819E-2,9.771335602E0
4.639052916E0,-1.148019671E0,-7.781155407E-3,9.790489197E0
4.641540468E0,-1.133654475E0,-1.256955881E-2,9.814431190E0
4.644028020E0,-1.100135684E0,6.584054790E-3,9.833584785E0
4.646515572E0,-1.119289279E0,6.584054790E-3,9.857526779E0
4.649003124E0,-1.128866076E0,1.795651275E-3,9.867103577E0
4.651490677E0,-1.119289279E0,6.584054790E-3,9.857526779E0
4.653978229E0,-1.133654475E0,-1.256955881E-2,9.862315178E0
4.656465781E0,-1.133654475E0,-2.214636654E-2,9.862315178E0
4.658953333E0,-1.143231273E0,-1.735796221E-2,9.862315178E0
4.661440885E0,-1.162384868E0,-1.256955881E-2,9.847949982E0
4.663928437E0,-1.176750183E0,1.137245819E-2,9.847949982E0
4.666415989E0,-1.181538582E0,-7.781155407E-3,9.819219589E0
4.668903541E0,-1.200692177E0,6.584054790E-3,9.800065994E0
4.671391093E0,-1.229422569E0,3.052607179E-2,9.790489197E0
4.673878645E0,-1.224634171E0,3.531447425E-2,9.780912399E0
4.676366197E0,-1.243787766E0,2.573766746E-2,9.766547203E0
4.678853749E0,-1.253364563E0,6.584054790E-3,9.771335602E0
4.681341302E0,-1.262941360E0,-2.992752008E-3,9.780912399E0
4.683828854E0,-1.258152962E0,-2.992752008E-3,9.785700798E0
4.686316406E0,-1.258152962E0,1.795651275E-3,9.761758804E0
4.688803958E0,-1.258152962E0,1.795651275E-3,9.776124001E0
4.691291510E0,-1.277306557E0,-1.256955881E-2,9.776124001E0
4.693779062E0,-1.262941360E0,-1.735796221E-2,9.785700798E0
4.696266614E0,-1.243787766E0,-2.214636654E-2,9.785700798E0
4.698754166E0,-1.248576164E0,-7.781155407E-3,9.790489197E0
4.701241718E0,-1.224634171E0,1.616086066E-2,9.795277596E0
4.703729270E0,-1.195903778E0,1.137245819E-2,9.790489197E0
4.706216822E0,-1.181538582E0,6.584054790E-3,9.804854393E0
4.708704374E0,-1.181538582E0,-1.256955881E-2,9.814431190E0
4.711191927E0,-1.181538582E0,-7.781155407E-3,9.819219589E0
4.713679479E0,-1.171961784E0,-2.992752008E-3,9.814431190E0
4.716167031E0,-1.176750183E0,1.616086066E-2,9.833584785E0
4.718654583E0,-1.186326981E0,3.052607179E-2,9.824007988E0
4.721142135E0,-1.186326981E0,1.616086066E-2,9.819219589E0
4.723629687E0,-1.191115379E0,2.094926499E-2,9.828796387E0
4.726117239E0,-1.176750183E0,3.052607179E-2,9.847949982E0
4.728604791E0,-1.181538582E0,3.531447425E-2,9.857526779E0
4.731092343E0,-1.167173386E0,3.052607179E-2,9.838373184E0
4.733579895E0,-1.181538582E0,4.489128292E-2,9.847949982E0
4.736067447E0,-1.181538582E0,6.404489279E-2,9.857526779E0
4.738554999E0,-1.157596469E0,6.404489279E-2,9.867103577E0
4.741042552E0,-1.143231273E0,5.446808785E-2,9.857526779E0
4.743530104E0,-1.124077678E0,5.446808785E-2,9.857526779E0
4.746017656E0,-1.090558887E0,4.010287672E-2,9.847949982E0
4.748505208E0,-1.076193690E0,4.489128292E-2,9.843161583E0
4.750992760E0,-1.037886381E0,2.094926499E-2,9.847949982E0
4.753480312E0,-1.033097982E0,2.573766746E-2,9.843161583E0
4.755967864E0,-1.028309584E0,5.925649032E-2,9.847949982E0
4.758455416E0,-1.047463298E0,4.967968538E-2,9.847949982E0
4.760942968E0,-1.061828494E0,5.925649032E-2,9.847949982E0
4.763430520E0,-1.080982089E0,7.362170517E-2,9.852738380E0
4.765918072E0,-1.100135684E0,6.404489279E-2,9.838373184E0
4.768405624E0,-1.104924083E0,6.883329898E-2,9.804854393E0
4.770893177E0,-1.119289279E0,7.362170517E-2,9.800065994E0
4.773380729E0,-1.124077678E0,6.404489279E-2,9.780912399E0
4.775868281E0,-1.148019671E0,6.404489279E-2,9.761758804E0
4.778355833E0,-1.162384868E0,8.319851011E-2,9.785700798E0
4.780843385E0,-1.162384868E0,7.362170517E-2,9.780912399E0
4.783330937E0,-1.157596469E0,6.404489279E-2,9.790489197E0
4.785818489E0,-1.167173386E0,6.404489279E-2,9.814431190E0
4.788306041E0,-1.167173386E0,6.883329898E-2,9.833584785E0
4.790793593E0,-1.143231273E0,6.404489279E-2,9.852738380E0
4.793281145E0,-1.133654475E0,5.925649032E-2,9.862315178E0
4.795768697E0,-1.119289279E0,6.883329898E-2,9.867103577E0
4.798256249E0,-1.104924083E0,7.362170517E-2,9.881468773E0
4.800743802E0,-1.085770488E0,9.277531505E-2,9.886257172E0
4.803231354E0,-1.057040095E0,7.841010392E-2,9.876680374E0
4.805718906E0,-1.033097982E0,5.446808785E-2,9.881468773E0
4.808206458E0,-1.028309584E0,5.925649032E-2,9.910199165E0
4.810694010E0,-9.852139950E-1,4.010287672E-2,9.900622368E0
4.813181562E0,-9.708487988E-1,4.489128292E-2,9.900622368E0
4.815669114E0,-9.660604000E-1,6.404489279E-2,9.905410767E0
4.818156666E0,-9.564836025E-1,7.362170517E-2,9.891045570E0
4.820644218E0,-9.229647517E-1,7.841010392E-2,9.876680374E0
4.823131770E0,-9.229647517E-1,8.798690885E-2,9.867103577E0
4.825619322E0,-9.325415492E-1,8.798690885E-2,9.833584785E0
4.828106874E0,-9.516952038E-1,8.798690885E-2,9.800065994E0
4.830594427E0,-9.516952038E-1,9.277531505E-2,9.780912399E0
4.833081979E0,-9.756371975E-1,9.756372124E-2,9.747393608E0
4.835569531E0,-9.756371975E-1,1.023521200E-1,9.737816811E0
4.838057083E0,-9.947907925E-1,1.119289324E-1,9.723451614E0
4.840544635E0,-1.023521185E0,1.215057373E-1,9.699509621E0
4.843032187E0,-1.037886381E0,1.071405262E-1,9.670779228E0
4.845519739E0,-1.066616893E0,1.071405262E-1,9.665990829E0
4.848007291E0,-1.090558887E0,9.756372124E-2,9.651625633E0
4.850494843E0,-1.104924083E0,1.167173311E-1,9.637260437E0
4.852982395E0,-1.133654475E0,1.358709484E-1,9.598953247E0
4.855469947E0,-1.157596469E0,1.262941360E-1,9.598953247E0
4.857957499E0,-1.157596469E0,1.406593472E-1,9.594164848E0
4.860445052E0,-1.162384868E0,1.262941360E-1,9.598953247E0
4.862932604E0,-1.162384868E0,1.215057373E-1,9.613318443E0
4.865420156E0,-1.157596469E0,1.215057373E-1,9.618106842E0
4.867907708E0,-1.176750183E0,1.310825497E-1,9.642048836E0
4.870395260E0,-1.171961784E0,1.167173311E-1,9.627683640E0
4.872882812E0,-1.176750183E0,1.023521200E-1,9.642048836E0
4.875370364E0,-1.157596469E0,1.071405262E-1,9.642048836E0
4.877857916E0,-1.167173386E0,1.023521200E-1,9.651625633E0
4.880345468E0,-1.133654475E0,7.362170517E-2,9.675567627E0
4.882833020E0,-1.143231273E0,8.319851011E-2,9.699509621E0
4.885320572E0,-1.148019671E0,7.841010392E-2,9.718663216E0
4.887808124E0,-1.157596469E0,7.841010392E-2,9.689932823E0
4.890295677E0,-1.162384868E0,9.277531505E-2,9.704298019E0
4.892783281E0,-1.181538582E0,8.319851011E-2,9.709086418E0
4.895270885E0,-1.200692177E0,7.841010392E-2,9.723451614E0
4.897758489E0,-1.229422569E0,6.883329898E-2,9.718663216E0
4.900246093E0,-1.262941360E0,5.446808785E-2,9.713874817E0
4.902733697E0,-1.272518158E0,6.404489279E-2,9.718663216E0
4.905221302E0,-1.282094955E0,6.404489279E-2,9.728240013E0
4.907708906E0,-1.277306557E0,7.362170517E-2,9.713874817E0
4.910196510E0,-1.272518158E0,6.883329898E-2,9.709086418E0
4.912684114E0,-1.277306557E0,7.362170517E-2,9.699509621E0
4.915171718E0,-1.253364563E0,6.883329898E-2,9.670779228E0
4.917659322E0,-1.238999367E0,9.277531505E-2,9.637260437E0
4.920146927E0,-1.200692177E0,7.841010392E-2,9.603741646E0
4.922634531E0,-1.176750183E0,8.798690885E-2,9.551069260E0
4.925122135E0,-1.143231273E0,7.841010392E-2,9.546280861E0
4.927609739E0,-1.109712481E0,7.841010392E-2,9.531915665E0
4.930097343E0,-1.076193690E0,8.319851011E-2,9.498396873E0
4.932584947E0,-1.066616893E0,9.277531505E-2,9.488820076E0
4.935072552E0,-1.028309584E0,8.798690885E-2,9.474454880E0
4.937560156E0,-1.018732786E0,5.925649032E-2,9.469666481E0
4.940047760E0,-9.852139950E-1,6.883329898E-2,9.460089684E0
4.942535364E0,-9.995791912E-1,6.404489279E-2,9.474454880E0
4.945022968E0,-1.004367590E0,5.925649032E-2,9.493608475E0
4.947510572E0,-1.033097982E0,4.967968538E-2,9.512762070E0
4.949998177E0,-1.057040095E0,4.010287672E-2,9.551069260E0
4.952485781E0,-1.080982089E0,3.531447425E-2,9.613318443E0
4.954973385E0,-1.104924083E0,2.094926499E-2,9.661202431E0
4.957460989E0,-1.152808070E0,1.616086066E-2,9.709086418E0
4.959948593E0,-1.191115379E0,6.584054790E-3,9.747393608E0
4.962436197E0,-1.219845772E0,-7.781155407E-3,9.804854393E0
4.964923802E0,-1.291671872E0,-7.781155407E-3,9.867103577E0
4.967411354E0,-1.329979062E0,-2.992752008E-3,9.905410767E0
4.969898906E0,-1.363497853E0,1.795651275E-3,9.948506355E0
4.972386458E0,-1.387439847E0,-1.256955881E-2,9.982025146E0
4.974874010E0,-1.416170359E0,-1.735796221E-2,1.002990913E1
4.977361562E0,-1.440112352E0,-2.214636654E-2,1.006821632E1
4.979849114E0,-1.449689150E0,-2.693476900E-2,1.009694672E1
4.982336666E0,-1.473631144E0,-4.608838260E-2,1.011610031E1
4.984824218E0,-1.516726732E0,-5.087678507E-2,1.014004230E1
4.987311770E0,-1.545457244E0,-4.129998013E-2,1.015440750E1
4.989799322E0,-1.583764434E0,-2.693476900E-2,1.015440750E1
4.992286874E0,-1.622071624E0,-1.256955881E-2,1.015440750E1
4.994774427E0,-1.626860023E0,-2.693476900E-2,1.014961910E1
4.997261979E0,-1.626860023E0,-3.651157767E-2,1.012567711E1
4.999749531E0,-1.631648421E0,-5.566519126E-2,1.008736992E1
5.002237083E0,-1.622071624E0,-7.960720360E-2,1.005385113E1
5.004724635E0,-1.636436820E0,-8.439560980E-2,1.002990913E1
5.007212187E0,-1.631648421E0,-9.876082093E-2,1.002512074E1
5.009699739E0,-1.622071624E0,-1.035492271E-1,1.000117874E1
5.012187291E0,-1.607706428E0,-1.083376259E-1,9.991601944E0
5.014674843E0,-1.574187636E0,-1.131260321E-1,1.000117874E1
5.017162395E0,-1.540668845E0,-1.179144308E-1,9.977236748E0
5.019649947E0,-1.516726732E0,-1.227028370E-1,9.948506355E0
5.022137499E0,-1.497573137E0,-1.227028370E-1,9.953294754E0
5.024625052E0,-1.440112352E0,-1.274912357E-1,9.962871552E0
5.027112604E0,-1.392228246E0,-1.418564469E-1,9.972448349E0
5.029600156E0,-1.329979062E0,-1.466448605E-1,9.967659950E0
5.032087708E0,-1.272518158E0,-1.562216580E-1,9.972448349E0
5.034575260E0,-1.200692177E0,-1.753752679E-1,9.972448349E0
5.037062812E0,-1.133654475E0,-1.801636815E-1,9.996390343E0
5.039550364E0,-1.066616893E0,-1.945288926E-1,9.991601944E0
5.042037916E0,-1.023521185E0,-1.945288926E-1,9.972448349E0
5.044525468E0,-9.756371975E-1,-2.136825025E-1,9.982025146E0
5.047013020E0,-9.612720013E-1,-1.945288926E-1,9.977236748E0
5.049500572E0,-9.469067454E-1,-1.945288926E-1,9.972448349E0
5.051988124E0,-9.516952038E-1,-1.849520802E-1,9.982025146E0
5.054475677E0,-9.373299479E-1,-1.801636815E-1,9.962871552E0
5.056963229E0,-9.516952038E-1,-1.657984704E-1,9.934141159E0
5.059450781E0,-9.756371975E-1,-1.610100716E-1,9.905410767E0
5.061938333E0,-9.900023937E-1,-1.753752679E-1,9.862315178E0
5.064425885E0,-9.900023937E-1,-1.610100716E-1,9.852738380E0
5.066913437E0,-1.004367590E0,-1.657984704E-1,9.847949982E0
5.069400989E0,-1.013944387E0,-1.705868691E-1,9.833584785E0
5.071888541E0,-1.042674899E0,-1.562216580E-1,9.814431190E0
5.074376093E0,-1.042674899E0,-1.514332592E-1,9.814431190E0
5.076863645E0,-1.057040095E0,-1.514332592E-1,9.795277596E0
5.079351197E0,-1.057040095E0,-1.370680481E-1,9.785700798E0
5.081838749E0,-1.080982089E0,-1.227028370E-1,9.761758804E0
5.084326302E0,-1.071405292E0,-1.179144308E-1,9.728240013E0
5.086813854E0,-1.066616893E0,-9.876082093E-2,9.675567627E0
5.089301406E0,-1.071405292E0,-9.876082093E-2,9.646837234E0
5.091788958E0,-1.071405292E0,-8.918401599E-2,9.618106842E0
5.094276510E0,-1.066616893E0,-7.960720360E-2,9.575011253E0
5.096764062E0,-1.085770488E0,-5.566519126E-2,9.522338867E0
5.099251614E0,-1.100135684E0,-3.651157767E-2,9.493608475E0
5.101739166E0,-1.095347285E0,-2.214636654E-2,9.450512886E0
5.104226718E0,-1.080982089E0,-1.735796221E-2,9.440936089E0
5.106714270E0,-1.076193690E0,-7.781155407E-3,9.402628899E0
5.109201822E0,-1.071405292E0,-2.992752008E-3,9.364321709E0
5.111689374E0,-1.066616893E0,1.795651275E-3,9.326014519E0
5.114176927E0,-1.076193690E0,-1.256955881E-2,9.297284126E0
5.116664479E0,-1.085770488E0,1.795651275E-3,9.268553734E0
5.119152031E0,-1.100135684E0,1.616086066E-2,9.235034943E0
5.121639583E0,-1.114500880E0,5.925649032E-2,9.211092949E0
5.124127135E0,-1.109712481E0,6.883329898E-2,9.196727753E0
5.126614687E0,-1.124077678E0,8.798690885E-2,9.163208008E0
5.129102239E0,-1.119289279E0,9.277531505E-2,9.158419609E0
5.131589791E0,-1.095347285E0,1.023521200E-1,9.148842812E0
5.134077343E0,-1.071405292E0,8.798690885E-2,9.163208008E0
5.136564895E0,-1.052251697E0,6.404489279E-2,9.167996407E0
5.139052447E0,-1.028309584E0,5.925649032E-2,9.187150002E0
5.141539999E0,-9.995791912E-1,4.967968538E-2,9.220669746E0
