"Time (s)","Acceleration x (m/s^2)","Acceleration y (m/s^2)","Acceleration z (m/s^2)"
3.061120900E-2,-6.266822815E0,-4.164115429E0,6.271012783E0
3.310334400E-2,-6.257246017E0,-4.159327030E0,6.271012783E0
3.559574000E-2,-6.252457619E0,-4.149750233E0,6.294954777E0
3.808855300E-2,-6.262034416E0,-4.149750233E0,6.333261967E0
4.058188600E-2,-6.281188011E0,-4.168903828E0,6.338050365E0
4.307579200E-2,-6.305130005E0,-4.168903828E0,6.347627163E0
4.557381300E-2,-6.324283600E0,-4.192845821E0,6.338050365E0
4.807183400E-2,-6.329071999E0,-4.207211018E0,6.323685169E0
5.052183400E-2,-6.353013992E0,-4.202422619E0,6.271012783E0
5.297183400E-2,-6.362590790E0,-4.202422619E0,6.256647587E0
5.547568800E-2,-6.381744862E0,-4.168903828E0,6.237493992E0
5.797954200E-2,-6.391321659E0,-4.140173435E0,6.199186802E0
6.052954200E-2,-6.420052052E0,-4.121019840E0,6.156091213E0
6.307954200E-2,-6.448782444E0,-4.077924252E0,6.084265232E0
6.562954200E-2,-6.477512836E0,-4.073135853E0,6.007650852E0
6.817954200E-2,-6.515820026E0,-4.068347454E0,5.911882401E0
7.072954200E-2,-6.534973621E0,-4.068347454E0,5.820902824E0
7.327954200E-2,-6.549338818E0,-4.077924252E0,5.782595634E0
7.582954200E-2,-6.587646008E0,-4.058770657E0,5.749076843E0
7.837954200E-2,-6.625953197E0,-4.039616585E0,5.729923248E0
8.092954200E-2,-6.683413982E0,-4.010886192E0,5.696404457E0
8.347954200E-2,-6.731297970E0,-3.986944437E0,5.710769653E0
8.602954200E-2,-6.774393559E0,-3.963002443E0,5.734711647E0
8.857954200E-2,-6.803123951E0,-3.963002443E0,5.710769653E0
9.112954200E-2,-6.807912350E0,-3.977367640E0,5.677250862E0
9.367954200E-2,-6.807912350E0,-3.982156038E0,5.667674065E0
9.622954200E-2,-6.798335552E0,-3.991732836E0,5.610213280E0
9.877954200E-2,-6.764816761E0,-4.006097794E0,5.586271286E0
1.013295420E-1,-6.721721172E0,-4.020462990E0,5.567117691E0
1.038795420E-1,-6.669048786E0,-4.049193859E0,5.576694489E0
1.064295420E-1,-6.649895191E0,-4.073135853E0,5.605424881E0
1.089795420E-1,-6.625953197E0,-4.097077847E0,5.624578476E0
1.115295420E-1,-6.616376400E0,-4.111443043E0,5.705981255E0
1.140795420E-1,-6.582857609E0,-4.144961834E0,5.787384033E0
1.166295420E-1,-6.573280811E0,-4.154538631E0,5.892728806E0
1.191795420E-1,-6.554127216E0,-4.154538631E0,5.983708382E0
1.217295420E-1,-6.534973621E0,-4.159327030E0,6.093842030E0
1.242795420E-1,-6.525396824E0,-4.202422619E0,6.170456409E0
1.268295420E-1,-6.515820026E0,-4.235941410E0,6.223128796E0
1.293795420E-1,-6.511031628E0,-4.250306606E0,6.299743176E0
1.319295420E-1,-6.511031628E0,-4.255095005E0,6.371569157E0
1.344795420E-1,-6.477512836E0,-4.240729809E0,6.433818340E0
1.370295420E-1,-6.434417248E0,-4.245518208E0,6.481702328E0
1.395795420E-1,-6.391321659E0,-4.235941410E0,6.515221596E0
1.421295420E-1,-6.362590790E0,-4.250306606E0,6.582259178E0
1.446795420E-1,-6.338648796E0,-4.269460201E0,6.615777969E0
1.472295420E-1,-6.329071999E0,-4.264671803E0,6.620566368E0
1.497795420E-1,-6.314706802E0,-4.264671803E0,6.620566368E0
1.523295420E-1,-6.333860397E0,-4.264671803E0,6.596624374E0
1.548795420E-1,-6.353013992E0,-4.245518208E0,6.610989571E0
1.574295420E-1,-6.381744862E0,-4.240729809E0,6.591835976E0
1.599795420E-1,-6.400898457E0,-4.207211018E0,6.577470779E0
1.625295420E-1,-6.439205647E0,-4.188057423E0,6.567893982E0
1.650777190E-1,-6.482301235E0,-4.168903828E0,6.563105583E0
1.675654800E-1,-6.520608425E0,-4.164115429E0,6.548740387E0
1.700532400E-1,-6.539762020E0,-4.144961834E0,6.515221596E0
1.725410000E-1,-6.539762020E0,-4.116231441E0,6.467337132E0
1.750287610E-1,-6.554127216E0,-4.116231441E0,6.414664745E0
1.775165210E-1,-6.563704014E0,-4.101866245E0,6.328473568E0
1.800042820E-1,-6.597222805E0,-4.097077847E0,6.247070789E0
1.824920420E-1,-6.621164799E0,-4.092289448E0,6.141726017E0
1.849798030E-1,-6.645106792E0,-4.092289448E0,6.079476833E0
1.874675630E-1,-6.673837185E0,-4.077924252E0,6.036381245E0
1.899553230E-1,-6.683413982E0,-4.049193859E0,6.012439251E0
1.924430840E-1,-6.697779179E0,-4.025251389E0,5.998073578E0
1.949308440E-1,-6.716932774E0,-4.006097794E0,5.978919983E0
1.974186050E-1,-6.721721172E0,-4.001309395E0,5.969343185E0
1.999063650E-1,-6.736086369E0,-3.991732836E0,5.945401192E0
2.023941250E-1,-6.721721172E0,-4.015674591E0,5.907094002E0
2.048818860E-1,-6.716932774E0,-4.053982258E0,5.863998413E0
2.073696460E-1,-6.697779179E0,-4.082712650E0,5.825691223E0
2.098574070E-1,-6.716932774E0,-4.101866245E0,5.820902824E0
2.123451670E-1,-6.726509571E0,-4.097077847E0,5.787384033E0
2.148329280E-1,-6.731297970E0,-4.077924252E0,5.787384033E0
2.173206880E-1,-6.736086369E0,-4.053982258E0,5.801749229E0
2.198084480E-1,-6.726509571E0,-4.039616585E0,5.820902824E0
2.222962090E-1,-6.740874767E0,-4.020462990E0,5.825691223E0
2.247839690E-1,-6.745663166E0,-4.025251389E0,5.859210014E0
2.272717300E-1,-6.750451565E0,-4.020462990E0,5.883152008E0
2.297594900E-1,-6.750451565E0,-4.015674591E0,5.907094002E0
2.322472500E-1,-6.745663166E0,-4.025251389E0,5.907094002E0
2.347350110E-1,-6.740874767E0,-3.996521235E0,5.907094002E0
2.372227710E-1,-6.750451565E0,-4.001309395E0,5.911882401E0
2.397105320E-1,-6.731297970E0,-3.996521235E0,5.940612793E0
2.421982920E-1,-6.707355976E0,-3.963002443E0,5.964554787E0
2.446860530E-1,-6.688202381E0,-3.939060450E0,6.007650852E0
2.471738130E-1,-6.688202381E0,-3.943848848E0,6.045958042E0
2.496615730E-1,-6.678625584E0,-3.967790842E0,6.108207226E0
2.521493340E-1,-6.669048786E0,-3.991732836E0,6.127360821E0
2.546370940E-1,-6.664260387E0,-4.006097794E0,6.184821606E0
2.571248550E-1,-6.654683590E0,-4.039616585E0,6.199186802E0
2.596126150E-1,-6.664260387E0,-4.073135853E0,6.232705593E0
2.621003750E-1,-6.649895191E0,-4.073135853E0,6.256647587E0
2.645881360E-1,-6.654683590E0,-4.063559055E0,6.294954777E0
2.670758960E-1,-6.659471989E0,-4.068347454E0,6.271012783E0
2.695636570E-1,-6.625953197E0,-4.068347454E0,6.271012783E0
2.720514170E-1,-6.587646008E0,-4.073135853E0,6.247070789E0
2.745391780E-1,-6.563704014E0,-4.082712650E0,6.203975201E0
2.770269380E-1,-6.544550419E0,-4.121019840E0,6.136937618E0
2.795146980E-1,-6.515820026E0,-4.135385036E0,6.108207226E0
2.820024590E-1,-6.496666431E0,-4.149750233E0,6.079476833E0
2.844902190E-1,-6.491878033E0,-4.149750233E0,6.045958042E0
2.869779800E-1,-6.506243229E0,-4.144961834E0,6.050746441E0
2.894657400E-1,-6.506243229E0,-4.140173435E0,6.055534840E0
2.919535000E-1,-6.511031628E0,-4.154538631E0,6.055534840E0
2.944412610E-1,-6.525396824E0,-4.144961834E0,6.065111637E0
2.969290210E-1,-6.520608425E0,-4.144961834E0,6.117784023E0
2.994167820E-1,-6.558915615E0,-4.159327030E0,6.141726017E0
3.019045420E-1,-6.568492413E0,-4.164115429E0,6.151302814E0
3.043923030E-1,-6.568492413E0,-4.183269024E0,6.180033207E0
3.068800630E-1,-6.573280811E0,-4.188057423E0,6.203975201E0
3.093678230E-1,-6.606799603E0,-4.183269024E0,6.242282391E0
3.118555840E-1,-6.635529995E0,-4.188057423E0,6.280589581E0
3.143433440E-1,-6.692990780E0,-4.178480625E0,6.275801182E0
3.168311050E-1,-6.750451565E0,-4.159327030E0,6.237493992E0
3.193188650E-1,-6.779181957E0,-4.140173435E0,6.194398403E0
3.218066250E-1,-6.793547153E0,-4.097077847E0,6.127360821E0
3.242943860E-1,-6.807912350E0,-4.073135853E0,6.026804447E0
3.267821460E-1,-6.788758755E0,-4.044404984E0,5.926247597E0
3.292699070E-1,-6.769605160E0,-4.034828186E0,5.820902824E0
3.317576670E-1,-6.755239964E0,-4.039616585E0,5.729923248E0
3.342454280E-1,-6.726509571E0,-4.020462990E0,5.658097267E0
3.367331880E-1,-6.702567577E0,-4.010886192E0,5.595848083E0
3.392209480E-1,-6.692990780E0,-4.001309395E0,5.557540894E0
3.417087090E-1,-6.707355976E0,-3.991732836E0,5.528810501E0
3.441964690E-1,-6.740874767E0,-4.006097794E0,5.500079632E0
3.466842300E-1,-6.803123951E0,-4.015674591E0,5.452195644E0
3.491719900E-1,-6.874950409E0,-4.030039787E0,5.423465252E0
3.516597500E-1,-6.937199593E0,-4.030039787E0,5.423465252E0
3.541475110E-1,-6.970718384E0,-4.020462990E0,5.423465252E0
3.566352710E-1,-6.985083580E0,-4.001309395E0,5.399523258E0
3.591230320E-1,-6.994660378E0,-3.991732836E0,5.394734859E0
3.616107920E-1,-6.999448776E0,-4.001309395E0,5.394734859E0
3.640985530E-1,-7.013813972E0,-4.006097794E0,5.389946461E0
3.665863130E-1,-7.013813972E0,-4.034828186E0,5.380369663E0
3.690740730E-1,-7.009025574E0,-4.058770657E0,5.380369663E0
3.715618340E-1,-7.018602371E0,-4.111443043E0,5.404311657E0
3.740495940E-1,-7.052121162E0,-4.154538631E0,5.413888454E0
3.765373550E-1,-7.095216751E0,-4.207211018E0,5.466560841E0
3.790251150E-1,-7.143100739E0,-4.226364613E0,5.533598900E0
3.815128750E-1,-7.176619530E0,-4.197634220E0,5.643732071E0
3.840006360E-1,-7.238868713E0,-4.164115429E0,5.768230438E0
3.864883960E-1,-7.296329498E0,-4.116231441E0,5.878363609E0
3.889761570E-1,-7.372944355E0,-4.082712650E0,5.998073578E0
3.914639170E-1,-7.444770336E0,-4.058770657E0,6.098630428E0
3.939516780E-1,-7.511807919E0,-4.044404984E0,6.199186802E0
3.964394380E-1,-7.574057102E0,-4.053982258E0,6.338050365E0
3.989271980E-1,-7.621941090E0,-4.082712650E0,6.505644798E0
4.014149590E-1,-7.684190273E0,-4.121019840E0,6.701969147E0
4.039027190E-1,-7.741651058E0,-4.221576214E0,6.874351501E0
4.063904800E-1,-7.842207432E0,-4.365228176E0,7.027580738E0
4.088782400E-1,-7.942764282E0,-4.484938145E0,7.128137112E0
4.113660000E-1,-8.033743858E0,-4.585494995E0,7.214328289E0
4.138537610E-1,-8.095993042E0,-4.614225388E0,7.281365871E0
4.163415210E-1,-8.124723434E0,-4.628590584E0,7.338826656E0
4.188292820E-1,-8.148665428E0,-4.628590584E0,7.362768650E0
4.213170420E-1,-8.172607422E0,-4.590283394E0,7.372345448E0
4.238048030E-1,-8.172607422E0,-4.551976204E0,7.329249859E0
4.262925630E-1,-8.186972618E0,-4.523245335E0,7.295731068E0
4.287803230E-1,-8.206126213E0,-4.494514942E0,7.281365871E0
4.312680840E-1,-8.225279808E0,-4.480149746E0,7.262212276E0
4.337558440E-1,-8.263586998E0,-4.489726543E0,7.267000675E0
4.362436050E-1,-8.340201378E0,-4.504091740E0,7.267000675E0
4.387313650E-1,-8.445546150E0,-4.551976204E0,7.262212276E0
4.412191250E-1,-8.565256119E0,-4.599860191E0,7.262212276E0
4.437068860E-1,-8.665813446E0,-4.623802185E0,7.262212276E0
4.461946460E-1,-8.742427826E0,-4.623802185E0,7.271789074E0
4.486824070E-1,-8.785523415E0,-4.609436989E0,7.262212276E0
4.511701670E-1,-8.819042206E0,-4.585494995E0,7.243058681E0
4.536579280E-1,-8.814253807E0,-4.561553001E0,7.223905087E0
4.561456880E-1,-8.833407402E0,-4.537611008E0,7.204751492E0
4.586334480E-1,-8.895656586E0,-4.504091740E0,7.161655903E0
4.611212090E-1,-8.953117371E0,-4.451419353E0,7.137713909E0
4.636089690E-1,-9.053673744E0,-4.398746967E0,7.094618320E0
4.660967300E-1,-9.168595314E0,-4.360439777E0,7.022792339E0
4.685844900E-1,-9.293093681E0,-4.302978992E0,6.960542679E0
4.710722500E-1,-9.422380447E0,-4.259883404E0,6.903081894E0
4.735600110E-1,-9.561244011E0,-4.216787815E0,6.826467514E0
4.760477710E-1,-9.671378136E0,-4.183269024E0,6.764218330E0
4.785355320E-1,-9.757569313E0,-4.149750233E0,6.706757545E0
4.810232920E-1,-9.843760490E0,-4.116231441E0,6.625354767E0
4.835110530E-1,-9.939528465E0,-4.111443043E0,6.515221596E0
4.859988130E-1,-1.003050804E1,-4.125808239E0,6.414664745E0
4.884865730E-1,-1.010233402E1,-4.125808239E0,6.357203960E0
4.909743340E-1,-1.013106441E1,-4.111443043E0,6.342838764E0
4.934620940E-1,-1.015021801E1,-4.092289448E0,6.376357555E0
4.959498550E-1,-1.014064121E1,-4.092289448E0,6.472125530E0
4.984376150E-1,-1.015500641E1,-4.125808239E0,6.620566368E0
5.009253750E-1,-1.022683239E1,-4.168903828E0,6.769006729E0
5.034131360E-1,-1.032738876E1,-4.226364613E0,6.922235489E0
5.059008960E-1,-1.039921474E1,-4.288613796E0,7.094618320E0
5.083886570E-1,-1.047104073E1,-4.326920986E0,7.319673061E0
5.108764170E-1,-1.057159805E1,-4.336497784E0,7.549516678E0
5.133641780E-1,-1.071525002E1,-4.317344189E0,7.803301811E0
5.158519380E-1,-1.084932518E1,-4.288613796E0,8.023568153E0
5.183396980E-1,-1.097861195E1,-4.231153011E0,8.176796913E0
5.208274590E-1,-1.106480312E1,-4.183269024E0,8.272565842E0
5.233152190E-1,-1.112226391E1,-4.135385036E0,8.286931038E0
5.258029800E-1,-1.115099430E1,-4.058770657E0,8.248623848E0
5.282907400E-1,-1.116057110E1,-4.001309395E0,8.138489723E0
5.307785000E-1,-1.111747551E1,-3.972579241E0,8.009202957E0
5.332662610E-1,-1.104564953E1,-3.948637247E0,7.851185799E0
5.357540210E-1,-1.096424675E1,-3.924695253E0,7.693168640E0
5.382417820E-1,-1.089242077E1,-3.915118217E0,7.515997887E0
5.407295420E-1,-1.086847878E1,-3.915118217E0,7.324461460E0
5.432173030E-1,-1.087326717E1,-3.948637247E0,7.128137112E0
5.457050630E-1,-1.090678596E1,-3.977367640E0,6.931812286E0
5.481928230E-1,-1.095466995E1,-3.982156038E0,6.769006729E0
5.506805840E-1,-1.104086113E1,-3.943848848E0,6.610989571E0
5.531683440E-1,-1.106959152E1,-3.867234230E0,6.467337132E0
5.556561050E-1,-1.107916832E1,-3.800196648E0,6.338050365E0
5.581438650E-1,-1.108874512E1,-3.733159065E0,6.189610004E0
5.606316250E-1,-1.105043793E1,-3.685275078E0,6.031592846E0
5.631193340E-1,-1.100255394E1,-3.661332846E0,5.868786812E0
5.656070420E-1,-1.094988155E1,-3.646967649E0,5.725134850E0
5.680947500E-1,-1.088763237E1,-3.642179251E0,5.605424881E0
5.705824590E-1,-1.082059479E1,-3.656544447E0,5.519233704E0
5.730701670E-1,-1.078228760E1,-3.670909643E0,5.456984043E0
5.755578750E-1,-1.074398041E1,-3.709217072E0,5.437830448E0
5.780455840E-1,-1.075355721E1,-3.771466255E0,5.452195644E0
5.805332920E-1,-1.074398041E1,-3.838503838E0,5.524022102E0
5.830210000E-1,-1.073440361E1,-3.886387825E0,5.595848083E0
5.855087090E-1,-1.072961521E1,-3.929483652E0,5.715558052E0
5.879964170E-1,-1.071525002E1,-3.967790842E0,5.844844818E0
5.904841250E-1,-1.067694283E1,-4.006097794E0,5.978919983E0
5.929718340E-1,-1.061948204E1,-4.030039787E0,6.098630428E0
5.954595420E-1,-1.056680965E1,-4.044404984E0,6.251859188E0
5.979472500E-1,-1.050934792E1,-4.073135853E0,6.342838764E0
6.004349590E-1,-1.046146393E1,-4.077924252E0,6.385934353E0
6.029226670E-1,-1.043273354E1,-4.135385036E0,6.414664745E0
6.054103750E-1,-1.039921474E1,-4.183269024E0,6.424241543E0
6.078980840E-1,-1.037527275E1,-4.211999416E0,6.414664745E0
6.103857920E-1,-1.036569595E1,-4.231153011E0,6.424241543E0
6.128735000E-1,-1.029386997E1,-4.216787815E0,6.429029942E0
6.153612090E-1,-1.017894840E1,-4.202422619E0,6.414664745E0
6.178489170E-1,-1.003529644E1,-4.183269024E0,6.366780758E0
6.203366250E-1,-9.925163269E0,-4.149750233E0,6.304531574E0
6.228243340E-1,-9.848548889E0,-4.154538631E0,6.223128796E0
6.253120940E-1,-9.781511307E0,-4.168903828E0,6.141726017E0
6.277998550E-1,-9.743204117E0,-4.164115429E0,6.084265232E0
6.302876150E-1,-9.724050522E0,-4.140173435E0,6.055534840E0
6.327753750E-1,-9.724050522E0,-4.111443043E0,6.017227650E0
6.352631360E-1,-9.728838921E0,-4.077924252E0,5.998073578E0
6.377508960E-1,-9.752780914E0,-4.039616585E0,5.998073578E0
6.402386570E-1,-9.762357712E0,-3.991732836E0,5.974131584E0
6.427264170E-1,-9.762357712E0,-3.948637247E0,5.940612793E0
6.452141780E-1,-9.709685326E0,-3.891176224E0,5.921459198E0
6.477019380E-1,-9.647436142E0,-3.838503838E0,5.878363609E0
6.501896980E-1,-9.556455612E0,-3.795408249E0,5.849633217E0
6.526774590E-1,-9.513360023E0,-3.785831451E0,5.773018837E0
6.551652190E-1,-9.460687637E0,-3.761889458E0,5.672462463E0
6.576529800E-1,-9.441534042E0,-3.761889458E0,5.562329292E0
6.601407400E-1,-9.446322441E0,-3.766677856E0,5.480926037E0
6.626285000E-1,-9.451110840E0,-3.752312660E0,5.466560841E0
6.651162610E-1,-9.441534042E0,-3.747524261E0,5.476137638E0
6.676040210E-1,-9.451110840E0,-3.728370667E0,5.543175697E0
6.700917820E-1,-9.451110840E0,-3.690063477E0,5.600636482E0
6.725795420E-1,-9.441534042E0,-3.666121244E0,5.595848083E0
6.750673030E-1,-9.427168846E0,-3.666121244E0,5.595848083E0
6.775550630E-1,-9.422380447E0,-3.670909643E0,5.595848083E0
6.800428230E-1,-9.408015251E0,-3.680486679E0,5.576694489E0
6.825305840E-1,-9.379284859E0,-3.675698042E0,5.538387299E0
6.850183440E-1,-9.345766068E0,-3.666121244E0,5.519233704E0
6.875061050E-1,-9.317035675E0,-3.651756048E0,5.504868031E0
6.899938650E-1,-9.297882080E0,-3.618237257E0,5.490502834E0
6.924816250E-1,-9.307458878E0,-3.555988073E0,5.466560841E0
6.949693860E-1,-9.312247276E0,-3.512892485E0,5.476137638E0
6.974571460E-1,-9.293093681E0,-3.465008497E0,5.471349239E0
6.999449070E-1,-9.273940086E0,-3.436278105E0,5.418676853E0
7.024326670E-1,-9.259574890E0,-3.412335873E0,5.342062473E0
7.049204280E-1,-9.240421295E0,-3.388393879E0,5.294178486E0
7.074081880E-1,-9.216479301E0,-3.393182278E0,5.203198910E0
7.098959480E-1,-9.192537308E0,-3.383605480E0,5.088277340E0
7.123837090E-1,-9.163806915E0,-3.364451885E0,4.958990097E0
7.148714690E-1,-9.159018517E0,-3.359663486E0,4.858433723E0
7.173592300E-1,-9.125499725E0,-3.330933094E0,4.800972939E0
7.198469900E-1,-9.101557732E0,-3.316567898E0,4.733935356E0
7.223347500E-1,-9.077615738E0,-3.254318714E0,4.695628166E0
7.248225110E-1,-9.053673744E0,-3.225588322E0,4.657320976E0
7.273102710E-1,-9.001001358E0,-3.201646328E0,4.642955780E0
7.297980320E-1,-8.953117371E0,-3.192069530E0,4.599860191E0
7.322857920E-1,-8.886079788E0,-3.230376720E0,4.556764603E0
7.347735530E-1,-8.809465408E0,-3.273472309E0,4.504091740E0
7.372613130E-1,-8.766369820E0,-3.306991100E0,4.460996151E0
7.397490730E-1,-8.742427826E0,-3.345298290E0,4.446630955E0
7.422368340E-1,-8.718485832E0,-3.359663486E0,4.484938145E0
7.447245940E-1,-8.699332237E0,-3.354875088E0,4.537611008E0
7.472123550E-1,-8.656236649E0,-3.321356297E0,4.657320976E0
7.497001150E-1,-8.617929459E0,-3.287837505E0,4.757877350E0
7.521878750E-1,-8.565256119E0,-3.254318714E0,4.829703331E0
7.546756360E-1,-8.512583733E0,-3.235165119E0,4.915894508E0
7.571633960E-1,-8.450334549E0,-3.263895512E0,4.958990097E0
7.596511570E-1,-8.383296967E0,-3.287837505E0,5.016450882E0
7.621389170E-1,-8.311470985E0,-3.321356297E0,5.088277340E0
7.646266780E-1,-8.258798599E0,-3.345298290E0,5.155314922E0
7.671144380E-1,-8.230068207E0,-3.397970676E0,5.212775707E0
7.696021980E-1,-8.215703011E0,-3.431489468E0,5.303755283E0
7.720899590E-1,-8.244433403E0,-3.465008497E0,5.394734859E0
7.745777190E-1,-8.258798599E0,-3.441066504E0,5.433042049E0
7.770654800E-1,-8.287528992E0,-3.421912670E0,5.466560841E0
7.795532400E-1,-8.287528992E0,-3.407547474E0,5.452195644E0
7.820410000E-1,-8.287528992E0,-3.369240284E0,5.399523258E0
7.845287610E-1,-8.268375397E0,-3.335721493E0,5.342062473E0
7.870165210E-1,-8.239645004E0,-3.287837505E0,5.255871296E0
7.895042820E-1,-8.210914612E0,-3.263895512E0,5.121796131E0
7.919920420E-1,-8.206126213E0,-3.216011524E0,5.002085686E0
7.944798030E-1,-8.206126213E0,-3.177704096E0,4.868010521E0
7.969675630E-1,-8.196549416E0,-3.120243311E0,4.729146957E0
7.994553230E-1,-8.206126213E0,-3.081936121E0,4.609436989E0
8.019430840E-1,-8.196549416E0,-3.038840532E0,4.523245335E0
8.044308440E-1,-8.163030624E0,-3.010110140E0,4.398746967E0
8.069186050E-1,-8.163030624E0,-2.986168146E0,4.326920986E0
8.094063650E-1,-8.172607422E0,-2.943072557E0,4.259883404E0
8.118941250E-1,-8.201337814E0,-2.890399933E0,4.221576214E0
8.143818860E-1,-8.239645004E0,-2.828150749E0,4.183269024E0
8.168696460E-1,-8.239645004E0,-2.794631958E0,4.159327030E0
8.193574070E-1,-8.220491409E0,-2.770689964E0,4.121019840E0
8.218451670E-1,-8.196549416E0,-2.770689964E0,4.092289448E0
8.243329280E-1,-8.191761017E0,-2.789843559E0,4.039616585E0
8.268206880E-1,-8.196549416E0,-2.832939148E0,4.034828186E0
8.293084480E-1,-8.215703011E0,-2.832939148E0,4.049193859E0
8.317962090E-1,-8.234856606E0,-2.832939148E0,4.097077847E0
8.342839690E-1,-8.210914612E0,-2.818573952E0,4.178480625E0
8.367717300E-1,-8.186972618E0,-2.765901566E0,4.264671803E0
8.392594900E-1,-8.124723434E0,-2.746747971E0,4.298190594E0
8.417472500E-1,-8.095993042E0,-2.765901566E0,4.370016575E0
8.442350110E-1,-8.086416245E0,-2.746747971E0,4.408323765E0
8.467227710E-1,-8.100781441E0,-2.775478363E0,4.465784550E0
8.492105320E-1,-8.110358238E0,-2.785055161E0,4.528033733E0
8.516982920E-1,-8.119935036E0,-2.756324768E0,4.604648590E0
8.541860530E-1,-8.143877029E0,-2.727594376E0,4.676474571E0
8.566738130E-1,-8.124723434E0,-2.694075346E0,4.757877350E0
8.591615730E-1,-8.115146637E0,-2.617460966E0,4.844068527E0
8.616493340E-1,-8.033743858E0,-2.536058187E0,4.887164116E0
8.641370940E-1,-7.995436668E0,-2.469020605E0,4.901529312E0
8.666248550E-1,-7.952341080E0,-2.401982784E0,4.906317711E0
8.691126150E-1,-7.952341080E0,-2.382829189E0,4.868010521E0
8.716003750E-1,-7.952341080E0,-2.382829189E0,4.810549736E0
8.740881360E-1,-7.961917877E0,-2.382829189E0,4.757877350E0
8.765758960E-1,-7.990648270E0,-2.392405987E0,4.714781761E0
8.790636570E-1,-8.019378662E0,-2.392405987E0,4.676474571E0
8.815514170E-1,-8.014590263E0,-2.382829189E0,4.619013786E0
8.840391780E-1,-8.048109055E0,-2.363675594E0,4.585494995E0
8.865269380E-1,-8.076839447E0,-2.334945202E0,4.561553001E0
8.890146980E-1,-8.110358238E0,-2.287061214E0,4.547187805E0
8.915024590E-1,-8.119935036E0,-2.248754025E0,4.523245335E0
8.939902190E-1,-8.095993042E0,-2.229600430E0,4.489726543E0
8.964779800E-1,-8.067262650E0,-2.210446835E0,4.422688961E0
8.989657400E-1,-8.057685852E0,-2.205658197E0,4.355651379E0
9.014535000E-1,-8.043320656E0,-2.220023632E0,4.317344189E0
9.039412610E-1,-8.048109055E0,-2.248754025E0,4.245518208E0
9.064290210E-1,-8.033743858E0,-2.306214809E0,4.149750233E0
9.089167820E-1,-8.009801865E0,-2.382829189E0,4.087501049E0
9.114045420E-1,-7.966706276E0,-2.449866772E0,4.006097794E0
9.138923030E-1,-7.918822289E0,-2.521692991E0,3.910329819E0
9.163800630E-1,-7.856573105E0,-2.579153776E0,3.785831451E0
9.188678230E-1,-7.784746647E0,-2.636614561E0,3.680486679E0
9.213555840E-1,-7.674613476E0,-2.708440781E0,3.575141668E0
9.238433440E-1,-7.535749912E0,-2.789843559E0,3.484162092E0
9.263311050E-1,-7.368155956E0,-2.904765129E0,3.383605480E0
9.288188650E-1,-7.205349922E0,-3.019686937E0,3.283049107E0
9.313066250E-1,-7.061697960E0,-3.129820108E0,3.216011524E0
9.337943860E-1,-6.951564789E0,-3.249530315E0,3.192069530E0
9.362821460E-1,-6.884527206E0,-3.330933094E0,3.220799923E0
9.387699070E-1,-6.812700748E0,-3.364451885E0,3.278260708E0
9.412576670E-1,-6.760028362E0,-3.374028683E0,3.350086689E0
9.437454280E-1,-6.707355976E0,-3.378817081E0,3.402759075E0
9.462331880E-1,-6.654683590E0,-3.374028683E0,3.474585295E0
9.487209480E-1,-6.606799603E0,-3.335721493E0,3.527257681E0
9.512087090E-1,-6.568492413E0,-3.278260708E0,3.570353270E0
9.536964690E-1,-6.534973621E0,-3.220799923E0,3.599083662E0
9.561842300E-1,-6.515820026E0,-3.139396906E0,3.570353270E0
9.586719900E-1,-6.506243229E0,-3.072359324E0,3.532046080E0
9.611597500E-1,-6.501454830E0,-2.990956545E0,3.460220098E0
9.636475110E-1,-6.506243229E0,-2.909553528E0,3.388393879E0
9.661352710E-1,-6.511031628E0,-2.828150749E0,3.292625904E0
9.686230320E-1,-6.511031628E0,-2.732382774E0,3.196857929E0
9.711107920E-1,-6.511031628E0,-2.641402960E0,3.105878115E0
9.735985530E-1,-6.515820026E0,-2.526481390E0,3.019686937E0
9.760863130E-1,-6.549338818E0,-2.421136379E0,2.952649355E0
9.785740730E-1,-6.578069210E0,-2.334945202E0,2.890399933E0
9.810618340E-1,-6.611588001E0,-2.248754025E0,2.856881142E0
9.835495940E-1,-6.669048786E0,-2.176927805E0,2.828150749E0
9.860373550E-1,-6.721721172E0,-2.105101824E0,2.837727547E0
9.885251150E-1,-6.760028362E0,-2.066794634E0,2.856881142E0
9.910128750E-1,-6.822277546E0,-2.023699045E0,2.890399933E0
9.935006360E-1,-6.846219540E0,-2.004545450E0,2.943072557E0
9.959883960E-1,-6.889315605E0,-1.994968534E0,2.971802950E0
9.984761570E-1,-6.913257599E0,-1.994968534E0,3.005321741E0
1.000963917E0,-6.951564789E0,-1.975814939E0,3.038840532E0
1.003451678E0,-6.961141586E0,-1.961449742E0,3.091512918E0
1.005939438E0,-6.970718384E0,-1.966238141E0,3.153762102E0
1.008427198E0,-6.951564789E0,-1.985391736E0,3.225588322E0
1.010914959E0,-6.918045998E0,-2.004545450E0,3.249530315E0
1.013402719E0,-6.884527206E0,-2.062006235E0,3.230376720E0
1.015890480E0,-6.860584736E0,-2.119467020E0,3.201646328E0
1.018378240E0,-6.822277546E0,-2.152985811E0,3.163338900E0
1.020866000E0,-6.740874767E0,-2.172139406E0,3.144185305E0
1.023353761E0,-6.654683590E0,-2.186504602E0,3.125031710E0
1.025841521E0,-6.602011204E0,-2.220023632E0,3.129820108E0
1.028329282E0,-6.549338818E0,-2.253542423E0,3.101089716E0
1.030817042E0,-6.520608425E0,-2.320580006E0,3.067570925E0
1.033304803E0,-6.496666431E0,-2.382829189E0,3.014898539E0
1.035792563E0,-6.453570843E0,-2.421136379E0,2.967014551E0
1.038280323E0,-6.405686855E0,-2.469020605E0,2.904765129E0
1.040768084E0,-6.357802391E0,-2.497750998E0,2.852092743E0
1.043255844E0,-6.305130005E0,-2.521692991E0,2.799420357E0
1.045743605E0,-6.276399612E0,-2.536058187E0,2.813785553E0
1.048231365E0,-6.290764809E0,-2.569576979E0,2.856881142E0
1.050719125E0,-6.329071999E0,-2.583942175E0,2.899976730E0
1.053206886E0,-6.372167587E0,-2.588730574E0,2.957437754E0
1.055694646E0,-6.453570843E0,-2.588730574E0,3.005321741E0
1.058182407E0,-6.530185223E0,-2.579153776E0,3.034052134E0
1.060670167E0,-6.597222805E0,-2.536058187E0,3.062782526E0
1.063157928E0,-6.673837185E0,-2.469020605E0,3.096301317E0
1.065645688E0,-6.745663166E0,-2.397194386E0,3.086724520E0
1.068133448E0,-6.817489147E0,-2.334945202E0,3.034052134E0
1.070621209E0,-6.894104004E0,-2.243965626E0,2.947860956E0
1.073108969E0,-6.932411194E0,-2.157774210E0,2.823362350E0
1.075596730E0,-6.980295181E0,-2.062006235E0,2.674921751E0
1.078084490E0,-7.056909561E0,-1.961449742E0,2.531269789E0
1.080572250E0,-7.133523941E0,-1.851316452E0,2.411559582E0
1.083060011E0,-7.267599106E0,-1.731606364E0,2.282272816E0
1.085547771E0,-7.396886349E0,-1.597531080E0,2.210446835E0
1.088035532E0,-7.516596317E0,-1.444302201E0,2.143409014E0
1.090523292E0,-7.626729488E0,-1.310226917E0,2.109890223E0
1.093011053E0,-7.727285862E0,-1.166574836E0,2.076371431E0
1.095498813E0,-7.818265438E0,-1.037287831E0,2.038064241E0
1.097986573E0,-7.899668694E0,-9.271546006E-1,1.961449742E0
1.100474334E0,-7.957129478E0,-8.553285599E-1,1.908777356E0
1.102962094E0,-8.009801865E0,-7.978677154E-1,1.846528053E0
1.105449855E0,-8.038532257E0,-7.691373229E-1,1.798644066E0
1.107937615E0,-8.057685852E0,-7.404068708E-1,1.779490471E0
1.110425375E0,-8.076839447E0,-7.260416746E-1,1.750759959E0
1.112913136E0,-8.076839447E0,-7.547720671E-1,1.707664371E0
1.115400896E0,-8.033743858E0,-7.835025191E-1,1.678933978E0
1.117888657E0,-7.933187485E0,-8.457517624E-1,1.683722377E0
1.120376417E0,-7.818265438E0,-9.463081956E-1,1.698087573E0
1.122864178E0,-7.679401875E0,-1.042076349E0,1.702875972E0
1.125351938E0,-7.545326710E0,-1.152209520E0,1.702875972E0
1.127839698E0,-7.459135532E0,-1.247977614E0,1.750759959E0
1.130327459E0,-7.372944355E0,-1.343745708E0,1.803432465E0
1.132815219E0,-7.320271492E0,-1.405994892E0,1.880046844E0
1.135302980E0,-7.277175903E0,-1.434725404E0,1.951872945E0
1.137790740E0,-7.243657112E0,-1.473032594E0,2.038064241E0
1.140278500E0,-7.248445511E0,-1.487397790E0,2.138620615E0
1.142766261E0,-7.234080315E0,-1.487397790E0,2.224812031E0
1.145254021E0,-7.238868713E0,-1.487397790E0,2.296638012E0
1.147741782E0,-7.238868713E0,-1.477820992E0,2.368463993E0
1.150229542E0,-7.248445511E0,-1.468244195E0,2.445078373E0
1.152717303E0,-7.258022308E0,-1.458667397E0,2.502539396E0
1.155205063E0,-7.267599106E0,-1.429937005E0,2.579153776E0
1.157692823E0,-7.291541100E0,-1.386841297E0,2.665344954E0
1.160180584E0,-7.315483093E0,-1.329380512E0,2.737171173E0
1.162668344E0,-7.344213486E0,-1.267131209E0,2.789843559E0
1.165156105E0,-7.430405140E0,-1.195305228E0,2.837727547E0
1.167643865E0,-7.550115108E0,-1.123479128E0,2.895188332E0
1.170131625E0,-7.693767071E0,-1.046864748E0,2.947860956E0
1.172619386E0,-7.870938301E0,-9.941922426E-1,2.995744944E0
1.175107146E0,-8.024167061E0,-9.510966539E-1,3.024475336E0
1.177594907E0,-8.201337814E0,-8.840589523E-1,3.019686937E0
1.180082667E0,-8.388085365E0,-8.409633636E-1,2.967014551E0
1.182570428E0,-8.550890923E0,-8.218097091E-1,2.866457939E0
1.185058188E0,-8.704120636E0,-7.643488646E-1,2.737171173E0
1.187545948E0,-8.795100212E0,-6.829460263E-1,2.641402960E0
1.190033709E0,-8.886079788E0,-5.728127360E-1,2.497750998E0
1.192521469E0,-8.957905769E0,-4.626794755E-1,2.339733601E0
1.195009230E0,-8.986636162E0,-3.525462151E-1,2.152985811E0
1.197496990E0,-9.010578156E0,-2.711433470E-1,1.999756932E0
1.199984750E0,-9.015366554E0,-2.232593149E-1,1.841739655E0
1.202472511E0,-9.015366554E0,-1.993172914E-1,1.726817966E0
1.204960271E0,-8.972270966E0,-2.088941038E-1,1.616684675E0
1.207448032E0,-8.910021782E0,-2.041056901E-1,1.559223890E0
1.209935792E0,-8.814253807E0,-2.088941038E-1,1.540070295E0
1.212423553E0,-8.704120636E0,-1.993172914E-1,1.578377485E0
1.214911313E0,-8.574832916E0,-2.376245260E-1,1.616684675E0
1.217399073E0,-8.493430138E0,-2.998737693E-1,1.693299174E0
1.219886834E0,-8.407238960E0,-3.669114113E-1,1.779490471E0
1.222374594E0,-8.335412979E0,-4.147954583E-1,1.894412041E0
1.224862355E0,-8.268375397E0,-4.435258508E-1,2.062006235E0
1.227350115E0,-8.210914612E0,-4.674678743E-1,2.263119221E0
1.229837875E0,-8.134300232E0,-5.249287486E-1,2.492962599E0
1.232325636E0,-8.038532257E0,-5.728127360E-1,2.746747971E0
1.234813396E0,-7.971494675E0,-6.302735806E-1,3.038840532E0
1.237301157E0,-7.918822289E0,-6.877344251E-1,3.311779499E0
1.239788917E0,-7.870938301E0,-7.356184721E-1,3.517680883E0
1.242276678E0,-7.866149902E0,-8.026561141E-1,3.733159065E0
1.244764438E0,-7.856573105E0,-8.696937561E-1,3.948637247E0
1.247252198E0,-7.842207432E0,-9.510966539E-1,4.116231441E0
1.249739959E0,-7.846996307E0,-1.003769040E0,4.250306606E0
1.252227719E0,-7.842207432E0,-1.032499433E0,4.341286182E0
1.254715480E0,-7.837419033E0,-1.066018343E0,4.393958569E0
1.257203240E0,-7.856573105E0,-1.066018343E0,4.475361347E0
1.259691000E0,-7.885303497E0,-1.070806742E0,4.528033733E0
1.262178761E0,-7.937975883E0,-1.056441545E0,4.619013786E0
1.264666521E0,-7.990648270E0,-1.022922635E0,4.733935356E0
1.267154282E0,-8.057685852E0,-9.846154451E-1,4.839280128E0
1.269642042E0,-8.048109055E0,-9.415197968E-1,4.915894508E0
1.272129803E0,-8.005013466E0,-9.127894044E-1,4.958990097E0
1.274617563E0,-7.937975883E0,-8.936358094E-1,4.935048103E0
1.277105323E0,-7.832630634E0,-8.792705536E-1,4.915894508E0
1.279593084E0,-7.732074261E0,-8.361749649E-1,4.872798920E0
1.282080844E0,-7.597999096E0,-8.122329116E-1,4.848856926E0
1.284568605E0,-7.468712330E0,-7.930793166E-1,4.824914932E0
1.287056365E0,-7.329848289E0,-7.643488646E-1,4.777030945E0
1.289544125E0,-7.181407928E0,-7.308300734E-1,4.733935356E0
1.292031886E0,-7.047332764E0,-6.973112226E-1,4.695628166E0
1.294519646E0,-6.870162010E0,-6.590040326E-1,4.690839767E0
1.297007407E0,-6.712144375E0,-6.063315868E-1,4.657320976E0
1.299495167E0,-6.558915615E0,-5.584475398E-1,4.614225388E0
1.301982928E0,-6.381744862E0,-5.297171474E-1,4.590283394E0
1.304470688E0,-6.166266441E0,-4.961982965E-1,4.609436989E0
1.306958448E0,-5.931634903E0,-5.057750940E-1,4.642955780E0
1.309446209E0,-5.701791286E0,-5.345055461E-1,4.695628166E0
1.311933969E0,-5.500678539E0,-6.206967831E-1,4.729146957E0
1.314421730E0,-5.289988518E0,-7.260416746E-1,4.762665749E0
1.316909490E0,-5.112817764E0,-8.409633636E-1,4.796184540E0
1.319397250E0,-4.926070213E0,-1.008557439E0,4.805761337E0
1.321885011E0,-4.720168591E0,-1.176151633E0,4.777030945E0
1.324372771E0,-4.499902248E0,-1.382052898E0,4.719570160E0
1.326860532E0,-4.222174644E0,-1.587954283E0,4.595071793E0
1.329348292E0,-3.944447279E0,-1.803432465E0,4.451419353E0
1.331836053E0,-3.700238705E0,-1.994968534E0,4.302978992E0
1.334323813E0,-3.422511339E0,-2.191293001E0,4.130596638E0
1.336811573E0,-3.183091164E0,-2.378040791E0,3.953425646E0
1.339299334E0,-2.981978178E0,-2.531269789E0,3.795408249E0
1.341787094E0,-2.838326216E0,-2.646191359E0,3.637390852E0
1.344274855E0,-2.728192806E0,-2.679710150E0,3.488950491E0
1.346762615E0,-2.646790028E0,-2.684498549E0,3.374028683E0
1.349250375E0,-2.622848034E0,-2.641402960E0,3.249530315E0
1.351738136E0,-2.622848034E0,-2.555211782E0,3.158550501E0
1.354225896E0,-2.665943623E0,-2.459443808E0,3.081936121E0
1.356713657E0,-2.728192806E0,-2.320580006E0,3.038840532E0
1.359201417E0,-2.819172382E0,-2.191293001E0,3.010110140E0
1.361689178E0,-2.962824583E0,-2.047641039E0,3.043628931E0
1.364176938E0,-3.168725967E0,-1.923142552E0,3.077147722E0
1.366664698E0,-3.417722940E0,-1.798644066E0,3.110666513E0
1.369152459E0,-3.705027103E0,-1.669357181E0,3.134608507E0
1.371640219E0,-4.049792290E0,-1.530493379E0,3.148973703E0
1.374127980E0,-4.423287868E0,-1.386841297E0,3.148973703E0
1.376615740E0,-4.868608952E0,-1.243189216E0,3.168127298E0
1.379103500E0,-5.366602898E0,-1.089960337E0,3.158550501E0
1.381591261E0,-5.883750439E0,-9.367313981E-1,3.129820108E0
1.384079021E0,-6.396110058E0,-8.026561141E-1,3.062782526E0
1.386566782E0,-6.870162010E0,-6.542156339E-1,2.971802950E0
1.389054542E0,-7.363367558E0,-5.249287486E-1,2.871246338E0
1.391542303E0,-7.904457092E0,-4.243722558E-1,2.770689964E0
1.394030063E0,-8.450334549E0,-3.333925903E-1,2.674921751E0
1.396517823E0,-8.962694168E0,-2.232593149E-1,2.564788580E0
1.399005584E0,-9.451110840E0,-9.876082093E-2,2.411559582E0
1.401493344E0,-9.915586472E0,7.841010392E-2,2.263119221E0
1.403981105E0,-1.037048435E1,2.507926226E-1,2.081159830E0
1.406468865E0,-1.083017159E1,4.327519536E-1,1.870470047E0
1.408956625E0,-1.126591587E1,6.003460884E-1,1.650203466E0
1.411444386E0,-1.168250751E1,7.870938182E-1,1.415571809E0
1.413932146E0,-1.205600262E1,9.546879530E-1,1.185728431E0
1.416419907E0,-1.239597893E1,1.131858826E0,9.271546006E-1
1.418907667E0,-1.269764900E1,1.275510907E0,6.733692288E-1
1.421395428E0,-1.295622253E1,1.400009394E0,4.626794755E-1
1.423883188E0,-1.319564247E1,1.476623893E0,2.998737693E-1
1.426370948E0,-1.342069721E1,1.562815189E0,1.801636815E-1
1.428858709E0,-1.363617611E1,1.596333981E0,1.131260321E-1
1.431346469E0,-1.383728886E1,1.591545582E0,9.397241473E-2
1.433834230E0,-1.402882481E1,1.558026791E0,1.370680481E-1
1.436321990E0,-1.417726517E1,1.510142684E0,2.567781210E-1
1.438809750E0,-1.432570553E1,1.481412292E0,3.860650361E-1
1.441297511E0,-1.444062710E1,1.423951507E0,5.057750940E-1
1.443785271E0,-1.454118443E1,1.342548609E0,6.302735806E-1
1.446273032E0,-1.456512642E1,1.285087705E0,7.499836683E-1
1.448760792E0,-1.456512642E1,1.208473325E0,8.553285599E-1
1.451248553E0,-1.450766563E1,1.093551636E0,9.463081956E-1
1.453736313E0,-1.437837791E1,9.642647505E-1,1.037287831E0
1.456224073E0,-1.421078396E1,7.966706157E-1,1.104325533E0
1.458711834E0,-1.397136402E1,5.811924338E-1,1.166574836E0
1.461199594E0,-1.371757889E1,3.800795078E-1,1.195305228E0
1.463687355E0,-1.348773575E1,1.262941360E-1,1.195305228E0
1.466175115E0,-1.323394966E1,-1.370680481E-1,1.219247222E0
1.468662875E0,-1.298495293E1,-4.147954583E-1,1.271919608E0
1.471150636E0,-1.269764900E1,-7.020996213E-1,1.300650120E0
1.473638396E0,-1.240555573E1,-9.941922426E-1,1.319803715E0
1.476126157E0,-1.211346340E1,-1.291073322E0,1.343745708E0
1.478613917E0,-1.183573627E1,-1.592742682E0,1.372476101E0
1.481101678E0,-1.157237434E1,-1.860893250E0,1.377264500E0
1.483589438E0,-1.129464626E1,-2.129043818E0,1.367687702E0
1.486077198E0,-1.103128433E1,-2.401982784E0,1.343745708E0
1.488564959E0,-1.078228760E1,-2.646191359E0,1.334168911E0
1.491052719E0,-1.052850151E1,-2.871246338E0,1.295861721E0
1.493540480E0,-1.027471638E1,-3.072359324E0,1.281496406E0
1.496028240E0,-1.007360363E1,-3.216011524E0,1.276708007E0
1.498516000E0,-9.877279282E0,-3.350086689E0,1.267131209E0
1.501003761E0,-9.728838921E0,-3.426701069E0,1.214458823E0
1.503491521E0,-9.628282547E0,-3.469796896E0,1.147421122E0
1.505979282E0,-9.537302017E0,-3.474585295E0,1.070806742E0
1.508467042E0,-9.484629631E0,-3.474585295E0,9.558850527E-1
1.510954803E0,-9.451110840E0,-3.436278105E0,8.696937561E-1
1.513442563E0,-9.427168846E0,-3.374028683E0,7.451952696E-1
1.515930323E0,-9.436745644E0,-3.283049107E0,6.446388364E-1
1.518418084E0,-9.460687637E0,-3.168127298E0,5.392939448E-1
1.520905844E0,-9.460687637E0,-3.048417330E0,4.004302323E-1
1.523393605E0,-9.427168846E0,-2.923918724E0,3.142389655E-1
1.525881365E0,-9.398438454E0,-2.794631958E0,2.232593149E-1
1.528369125E0,-9.340977669E0,-2.694075346E0,1.562216580E-1
1.530856886E0,-9.307458878E0,-2.612672567E0,1.179144308E-1
1.533344646E0,-9.254786491E0,-2.536058187E0,1.083376259E-1
1.535832407E0,-9.240421295E0,-2.445078373E0,1.370680481E-1
1.538320167E0,-9.235632896E0,-2.378040791E0,2.184709013E-1
1.540807875E0,-9.226056099E0,-2.330156803E0,3.333925903E-1
1.543295584E0,-9.235632896E0,-2.272696018E0,4.578910768E-1
1.545783292E0,-9.245209694E0,-2.220023632E0,5.776011348E-1
1.548271000E0,-9.259574890E0,-2.186504602E0,6.973112226E-1
1.550758709E0,-9.273940086E0,-2.167351007E0,8.313865662E-1
1.553246417E0,-9.278728485E0,-2.152985811E0,9.654618502E-1
1.555734125E0,-9.307458878E0,-2.138620615E0,1.075595140E0
1.558221834E0,-9.307458878E0,-2.085948229E0,1.200093627E0
1.560709542E0,-9.264363289E0,-2.018910646E0,1.319803715E0
1.563197250E0,-9.197325706E0,-1.966238141E0,1.401206493E0
1.565684959E0,-9.139864922E0,-1.918354154E0,1.492186189E0
1.568172667E0,-9.077615738E0,-1.875258446E0,1.592742682E0
1.570660375E0,-9.048885345E0,-1.846528053E0,1.664568782E0
1.573148084E0,-9.058462143E0,-1.798644066E0,1.736394763E0
1.575635792E0,-9.087192535E0,-1.769913554E0,1.798644066E0
1.578123500E0,-9.101557732E0,-1.741183162E0,1.856104851E0
1.580611209E0,-9.130288124E0,-1.712452769E0,1.894412041E0
1.583098917E0,-9.154230118E0,-1.683722377E0,1.913565755E0
1.585586625E0,-9.163806915E0,-1.664568782E0,1.899200439E0
1.588074334E0,-9.173383713E0,-1.621473074E0,1.894412041E0
1.590562042E0,-9.187748909E0,-1.583165884E0,1.899200439E0
1.593049750E0,-9.202114105E0,-1.540070295E0,1.899200439E0
1.595537459E0,-9.230844498E0,-1.477820992E0,1.880046844E0
1.598025167E0,-9.273940086E0,-1.434725404E0,1.875258446E0
1.600512875E0,-9.302670479E0,-1.401206493E0,1.865681648E0
1.603000584E0,-9.345766068E0,-1.372476101E0,1.832162857E0
1.605488292E0,-9.427168846E0,-1.343745708E0,1.822586060E0
1.607976053E0,-9.513360023E0,-1.291073322E0,1.803432465E0
1.610463813E0,-9.575610161E0,-1.238400817E0,1.793855667E0
1.612951573E0,-9.594763756E0,-1.209670424E0,1.813009262E0
1.615439334E0,-9.589975357E0,-1.161786318E0,1.822586060E0
1.617927094E0,-9.585186958E0,-1.118690729E0,1.822586060E0
1.620414855E0,-9.599552155E0,-1.085171938E0,1.813009262E0
1.622902615E0,-9.604340553E0,-1.051653147E0,1.779490471E0
1.625390375E0,-9.609128952E0,-1.032499433E0,1.765125155E0
1.627878136E0,-9.613917351E0,-1.018134236E0,1.736394763E0
1.630365896E0,-9.613917351E0,-9.894038439E-1,1.750759959E0
1.632853657E0,-9.618705750E0,-9.510966539E-1,1.726817966E0
1.635341417E0,-9.594763756E0,-8.936358094E-1,1.702875972E0
1.637829178E0,-9.575610161E0,-8.026561141E-1,1.698087573E0
1.640316938E0,-9.580398560E0,-7.308300734E-1,1.698087573E0
1.642804698E0,-9.599552155E0,-6.398503780E-1,1.707664371E0
1.645292459E0,-9.642647743E0,-5.680243373E-1,1.693299174E0
1.647780219E0,-9.671378136E0,-5.057750940E-1,1.674145579E0
1.650267980E0,-9.709685326E0,-4.531026781E-1,1.674145579E0
1.652755740E0,-9.752780914E0,-4.387374520E-1,1.698087573E0
1.655243500E0,-9.800664902E0,-4.195838571E-1,1.741183162E0
1.657731261E0,-9.829395294E0,-4.004302323E-1,1.760336757E0
1.660219021E0,-9.853337288E0,-3.860650361E-1,1.827374458E0
1.662706782E0,-9.882067680E0,-3.669114113E-1,1.903988957E0
1.665194542E0,-9.891644478E0,-3.477577865E-1,1.985391736E0
1.667682303E0,-9.906009674E0,-3.477577865E-1,2.057217836E0
1.670170063E0,-9.929951668E0,-3.429693878E-1,2.129043818E0
1.672657823E0,-9.958682060E0,-3.764882088E-1,2.196081400E0
1.675145584E0,-9.982624054E0,-4.004302323E-1,2.282272816E0
1.677633344E0,-1.000177765E1,-4.339490533E-1,2.373252392E0
1.680121105E0,-1.001614285E1,-4.674678743E-1,2.449866772E0
1.682608865E0,-1.004008484E1,-5.057750940E-1,2.507327795E0
1.685096625E0,-1.004487324E1,-5.345055461E-1,2.593518972E0
1.687584386E0,-1.006881523E1,-5.728127360E-1,2.665344954E0
1.690072146E0,-1.010712242E1,-6.206967831E-1,2.718017578E0
1.692559907E0,-1.014542961E1,-6.733692288E-1,2.770689964E0
1.695047667E0,-1.015021801E1,-7.260416746E-1,2.828150749E0
1.697535428E0,-1.013106441E1,-7.643488646E-1,2.880823135E0
1.700023188E0,-1.012627602E1,-8.026561141E-1,2.943072557E0
1.702510948E0,-1.012627602E1,-8.170213103E-1,3.000533342E0
1.704998709E0,-1.011669922E1,-8.122329116E-1,3.043628931E0
1.707486469E0,-1.008318043E1,-8.074445128E-1,3.072359324E0
1.709974230E0,-1.002571964E1,-8.074445128E-1,3.067570925E0
1.712461990E0,-9.982624054E0,-7.930793166E-1,3.034052134E0
1.714949750E0,-9.953893661E0,-7.930793166E-1,3.010110140E0
1.717437511E0,-9.901221275E0,-7.882909179E-1,3.029263735E0
1.719925271E0,-9.829395294E0,-7.547720671E-1,3.048417330E0
1.722413032E0,-9.704896927E0,-6.877344251E-1,3.067570925E0
1.724900792E0,-9.566033363E0,-6.398503780E-1,3.067570925E0
1.727388553E0,-9.417592049E0,-5.919663906E-1,3.057994127E0
1.729876313E0,-9.321824074E0,-5.823895931E-1,3.062782526E0
1.732364073E0,-9.264363289E0,-5.776011348E-1,3.062782526E0
1.734851834E0,-9.245209694E0,-5.919663906E-1,3.048417330E0
1.737339594E0,-9.221267700E0,-6.111199856E-1,3.067570925E0
1.739827355E0,-9.173383713E0,-6.206967831E-1,3.077147722E0
1.742315115E0,-9.130288124E0,-6.446388364E-1,3.120243311E0
1.744802875E0,-9.072827339E0,-6.877344251E-1,3.105878115E0
1.747290636E0,-8.991424561E0,-7.451952696E-1,3.101089716E0
1.749778396E0,-8.924386978E0,-8.170213103E-1,3.043628931E0
1.752266157E0,-8.881291389E0,-8.936358094E-1,2.986168146E0
1.754753917E0,-8.823830605E0,-9.750386477E-1,2.914341927E0
1.757241678E0,-8.795100212E0,-1.027711034E0,2.847304344E0
1.759729438E0,-8.780735016E0,-1.089960337E0,2.780266762E0
1.762217198E0,-8.785523415E0,-1.123479128E0,2.722805977E0
1.764704959E0,-8.790311813E0,-1.137844324E0,2.655768156E0
1.767192719E0,-8.809465408E0,-1.156997919E0,2.569576979E0
1.769680480E0,-8.866926193E0,-1.176151633E0,2.497750998E0
1.772168240E0,-8.900444984E0,-1.200093627E0,2.459443808E0
1.774656000E0,-8.967482567E0,-1.185728431E0,2.430713177E0
1.777143761E0,-9.010578156E0,-1.147421122E0,2.411559582E0
1.779631521E0,-9.048885345E0,-1.118690729E0,2.344521999E0
1.782119282E0,-9.077615738E0,-1.094748735E0,2.306214809E0
1.784607042E0,-9.120711327E0,-1.056441545E0,2.253542423E0
1.787094803E0,-9.154230118E0,-1.027711034E0,2.167351007E0
1.789582563E0,-9.192537308E0,-9.941922426E-1,2.090736628E0
1.792070323E0,-9.226056099E0,-9.606734514E-1,2.023699045E0
1.794558084E0,-9.269151688E0,-9.463081956E-1,1.927930951E0
1.797045844E0,-9.326612473E0,-9.080010056E-1,1.846528053E0
1.799533605E0,-9.369708061E0,-8.936358094E-1,1.774701953E0
1.802021365E0,-9.417592049E0,-8.888474107E-1,1.683722377E0
1.804509125E0,-9.470264435E0,-8.744821548E-1,1.611896276E0
1.806996886E0,-9.494206429E0,-8.744821548E-1,1.530493379E0
1.809484646E0,-9.518148422E0,-8.505401611E-1,1.477820992E0
1.811972407E0,-9.551667213E0,-8.505401611E-1,1.405994892E0
1.814460167E0,-9.599552155E0,-8.505401611E-1,1.348534107E0
1.816947928E0,-9.637859344E0,-8.553285599E-1,1.315015316E0
1.819435688E0,-9.680954933E0,-8.265981078E-1,1.281496406E0
1.821923448E0,-9.733627319E0,-7.835025191E-1,1.262342811E0
1.824411209E0,-9.805453300E0,-7.451952696E-1,1.228824019E0
1.826898969E0,-9.853337288E0,-6.973112226E-1,1.219247222E0
1.829386730E0,-9.925163269E0,-6.446388364E-1,1.209670424E0
1.831874490E0,-9.982624054E0,-5.584475398E-1,1.200093627E0
1.834362250E0,-1.002571964E1,-4.770447016E-1,1.224035621E0
1.836850011E0,-1.004008484E1,-4.243722558E-1,1.224035621E0
1.839337771E0,-1.004487324E1,-3.716998100E-1,1.219247222E0
1.841825532E0,-1.004008484E1,-3.573346138E-1,1.204882026E0
1.844313292E0,-1.000656605E1,-3.477577865E-1,1.147421122E0
1.846801053E0,-9.977835655E0,-3.573346138E-1,1.070806742E0
1.849288813E0,-9.939528465E0,-3.621230125E-1,9.894038439E-1
1.851776573E0,-9.901221275E0,-4.004302323E-1,9.367313981E-1
1.854264334E0,-9.834183693E0,-4.387374520E-1,8.649053574E-1
1.856752094E0,-9.786299706E0,-4.818331003E-1,7.930793166E-1
1.859239855E0,-9.757569313E0,-5.249287486E-1,7.643488646E-1
1.861727615E0,-9.709685326E0,-5.632359385E-1,7.547720671E-1
1.864215375E0,-9.685743332E0,-5.967547894E-1,7.451952696E-1
1.866703136E0,-9.657012939E0,-6.206967831E-1,7.547720671E-1
1.869190896E0,-9.647436142E0,-6.685808301E-1,7.882909179E-1
1.871678657E0,-9.652224541E0,-7.116764784E-1,8.265981078E-1
1.874166417E0,-9.666589737E0,-7.451952696E-1,8.840589523E-1
1.876654178E0,-9.685743332E0,-7.978677154E-1,9.558850527E-1
1.879141938E0,-9.685743332E0,-8.601169586E-1,1.022922635E0
1.881629698E0,-9.704896927E0,-8.984242082E-1,1.094748735E0
1.884117459E0,-9.733627319E0,-9.558850527E-1,1.195305228E0
1.886605219E0,-9.733627319E0,-1.008557439E0,1.276708007E0
1.889092980E0,-9.738415718E0,-1.061229944E0,1.372476101E0
1.891580740E0,-9.704896927E0,-1.123479128E0,1.496974587E0
1.894068500E0,-9.671378136E0,-1.156997919E0,1.607107878E0
1.896556261E0,-9.657012939E0,-1.209670424E0,1.698087573E0
1.899044021E0,-9.628282547E0,-1.252766013E0,1.827374458E0
1.901531782E0,-9.589975357E0,-1.319803715E0,1.937507749E0
1.904019542E0,-9.537302017E0,-1.372476101E0,2.057217836E0
1.906507303E0,-9.489418030E0,-1.429937005E0,2.138620615E0
1.908995063E0,-9.436745644E0,-1.477820992E0,2.253542423E0
1.911482823E0,-9.374496460E0,-1.535281897E0,2.311003208E0
1.913970584E0,-9.312247276E0,-1.573589087E0,2.373252392E0
1.916458344E0,-9.240421295E0,-1.592742682E0,2.440289974E0
1.918946105E0,-9.202114105E0,-1.645415068E0,2.492962599E0
1.921433865E0,-9.202114105E0,-1.678933978E0,2.545634985E0
1.923921625E0,-9.211690903E0,-1.707664371E0,2.593518972E0
1.926409386E0,-9.240421295E0,-1.693299174E0,2.641402960E0
1.928897146E0,-9.283516884E0,-1.659780383E0,2.708440781E0
1.931384907E0,-9.331400871E0,-1.631049871E0,2.794631958E0
1.933872667E0,-9.364919662E0,-1.578377485E0,2.876034737E0
1.936360428E0,-9.384073257E0,-1.554435492E0,2.933495522E0
1.938848188E0,-9.408015251E0,-1.516128182E0,3.010110140E0
1.941335948E0,-9.417592049E0,-1.496974587E0,3.081936121E0
1.943823709E0,-9.412803650E0,-1.482609391E0,3.110666513E0
1.946311469E0,-9.427168846E0,-1.468244195E0,3.134608507E0
1.948799230E0,-9.422380447E0,-1.477820992E0,3.139396906E0
1.951286990E0,-9.431957245E0,-1.458667397E0,3.115454912E0
1.953774750E0,-9.441534042E0,-1.468244195E0,3.101089716E0
1.956262511E0,-9.441534042E0,-1.477820992E0,3.101089716E0
1.958750271E0,-9.422380447E0,-1.477820992E0,3.086724520E0
1.961238032E0,-9.417592049E0,-1.468244195E0,3.072359324E0
1.963725792E0,-9.417592049E0,-1.482609391E0,3.067570925E0
1.966213553E0,-9.422380447E0,-1.473032594E0,3.057994127E0
1.968701313E0,-9.427168846E0,-1.463455796E0,3.034052134E0
1.971189073E0,-9.446322441E0,-1.458667397E0,3.024475336E0
1.973676834E0,-9.451110840E0,-1.449090600E0,2.990956545E0
1.976164594E0,-9.451110840E0,-1.444302201E0,2.986168146E0
1.978652355E0,-9.465476036E0,-1.405994892E0,2.943072557E0
1.981140115E0,-9.484629631E0,-1.401206493E0,2.885611534E0
1.983627875E0,-9.484629631E0,-1.377264500E0,2.856881142E0
1.986115636E0,-9.498994827E0,-1.367687702E0,2.808997154E0
1.988603396E0,-9.527725220E0,-1.338957310E0,2.775478363E0
1.991091157E0,-9.546878815E0,-1.329380512E0,2.732382774E0
1.993578917E0,-9.570821762E0,-1.310226917E0,2.665344954E0
1.996066678E0,-9.546878815E0,-1.281496406E0,2.631826162E0
1.998554438E0,-9.542090416E0,-1.271919608E0,2.569576979E0
2.001042198E0,-9.532513618E0,-1.276708007E0,2.507327795E0
2.003529959E0,-9.518148422E0,-1.271919608E0,2.469020605E0
2.006017719E0,-9.513360023E0,-1.281496406E0,2.430713177E0
2.008505480E0,-9.503783226E0,-1.276708007E0,2.397194386E0
2.010993240E0,-9.508571625E0,-1.281496406E0,2.358887196E0
2.013481000E0,-9.518148422E0,-1.300650120E0,2.311003208E0
2.015968761E0,-9.513360023E0,-1.315015316E0,2.258330822E0
2.018456521E0,-9.522936821E0,-1.319803715E0,2.224812031E0
2.020944282E0,-9.508571625E0,-1.338957310E0,2.167351007E0
2.023432042E0,-9.513360023E0,-1.324592113E0,2.129043818E0
2.025919803E0,-9.522936821E0,-1.315015316E0,2.105101824E0
2.028407563E0,-9.522936821E0,-1.305438519E0,2.090736628E0
2.030895323E0,-9.513360023E0,-1.295861721E0,2.047641039E0
2.033383084E0,-9.513360023E0,-1.286284804E0,2.033275843E0
2.035870844E0,-9.527725220E0,-1.286284804E0,2.004545450E0
2.038358605E0,-9.518148422E0,-1.276708007E0,1.999756932E0
2.040846365E0,-9.532513618E0,-1.291073322E0,1.961449742E0
2.043334125E0,-9.542090416E0,-1.319803715E0,1.918354154E0
2.045821886E0,-9.580398560E0,-1.338957310E0,1.903988957E0
2.048309646E0,-9.599552155E0,-1.391629696E0,1.899200439E0
2.050797407E0,-9.628282547E0,-1.425148606E0,1.870470047E0
2.053285167E0,-9.676166534E0,-1.482609391E0,1.884835243E0
2.055772928E0,-9.733627319E0,-1.525704980E0,1.913565755E0
2.058260688E0,-9.805453300E0,-1.578377485E0,1.951872945E0
2.060748448E0,-9.872490883E0,-1.631049871E0,1.971026540E0
2.063236209E0,-9.958682060E0,-1.693299174E0,2.033275843E0
2.065723969E0,-1.007839203E1,-1.741183162E0,2.076371431E0
2.068211730E0,-1.015500641E1,-1.793855667E0,2.129043818E0
2.070699490E0,-1.024598598E1,-1.836951256E0,2.172139406E0
2.073187250E0,-1.033217716E1,-1.860893250E0,2.215235233E0
2.075675011E0,-1.041357994E1,-1.884835243E0,2.282272816E0
2.078162771E0,-1.048540592E1,-1.899200439E0,2.325368404E0
2.080650532E0,-1.056202126E1,-1.903988957E0,2.373252392E0
2.083138292E0,-1.063384724E1,-1.889623642E0,2.416347980E0
2.085626053E0,-1.068173122E1,-1.870470047E0,2.454655409E0
2.088113813E0,-1.072961521E1,-1.846528053E0,2.502539396E0
2.090601573E0,-1.075355721E1,-1.803432465E0,2.545634985E0
2.093089334E0,-1.074398041E1,-1.745971560E0,2.540846586E0
2.095577094E0,-1.073919201E1,-1.674145579E0,2.540846586E0
2.098064803E0,-1.071046162E1,-1.573589087E0,2.521692991E0
2.100552511E0,-1.067215443E1,-1.477820992E0,2.507327795E0
2.103040219E0,-1.059554005E1,-1.362899303E0,2.488174200E0
2.105527928E0,-1.052371311E1,-1.243189216E0,2.469020605E0
2.108015636E0,-1.044709873E1,-1.152209520E0,2.440289974E0
2.110503344E0,-1.034175396E1,-1.046864748E0,2.392405987E0
2.112991053E0,-1.023162079E1,-9.367313981E-1,2.368463993E0
2.115478761E0,-1.011669922E1,-8.265981078E-1,2.315791607E0
2.117966469E0,-9.992200851E0,-7.404068708E-1,2.253542423E0
2.120454178E0,-9.843760490E0,-6.494272351E-1,2.215235233E0
2.122941886E0,-9.704896927E0,-5.871779919E-1,2.176927805E0
2.125429594E0,-9.551667213E0,-5.345055461E-1,2.129043818E0
2.127917303E0,-9.384073257E0,-4.770447016E-1,2.057217836E0
2.130405011E0,-9.211690903E0,-4.626794755E-1,1.990180135E0
2.132892719E0,-9.034520149E0,-4.339490533E-1,1.932719350E0
2.135380428E0,-8.876502991E0,-4.339490533E-1,1.856104851E0
2.137868136E0,-8.680178642E0,-4.483142793E-1,1.789067268E0
2.140355844E0,-8.479064941E0,-4.914098978E-1,1.702875972E0
2.142843553E0,-8.297105789E0,-5.153518915E-1,1.607107878E0
2.145331261E0,-8.115146637E0,-5.536591411E-1,1.506551385E0
2.147818969E0,-7.928399086E0,-5.919663906E-1,1.420360208E0
2.150306678E0,-7.779958248E0,-6.302735806E-1,1.334168911E0
2.152794386E0,-7.631517887E0,-6.829460263E-1,1.247977614E0
2.155282094E0,-7.507019520E0,-7.356184721E-1,1.176151633E0
2.157769803E0,-7.416039944E0,-7.835025191E-1,1.118690729E0
2.160257511E0,-7.344213486E0,-8.361749649E-1,1.061229944E0
2.162745219E0,-7.281964302E0,-8.840589523E-1,1.022922635E0
2.165232928E0,-7.229291916E0,-9.319429994E-1,9.989806414E-1
2.167720688E0,-7.186196327E0,-9.894038439E-1,9.846154451E-1
2.170208448E0,-7.147889137E0,-1.037287831E0,9.989806414E-1
2.172696209E0,-7.119158745E0,-1.085171938E0,9.654618502E-1
2.175183969E0,-7.104793549E0,-1.123479128E0,9.558850527E-1
2.177671730E0,-7.100005150E0,-1.171363235E0,9.606734514E-1
2.180159490E0,-7.100005150E0,-1.224035621E0,9.606734514E-1
2.182647250E0,-7.104793549E0,-1.271919608E0,9.558850527E-1
2.185135011E0,-7.138312340E0,-1.324592113E0,9.415197968E-1
2.187622771E0,-7.167042732E0,-1.377264500E0,9.080010056E-1
2.190110532E0,-7.224503517E0,-1.425148606E0,9.032126069E-1
2.192598292E0,-7.267599106E0,-1.473032594E0,9.080010056E-1
2.195086053E0,-7.325059891E0,-1.520916581E0,9.080010056E-1
2.197573813E0,-7.392097950E0,-1.564012289E0,9.032126069E-1
2.200061573E0,-7.468712330E0,-1.607107878E0,8.936358094E-1
2.202549334E0,-7.530961514E0,-1.640626669E0,8.888474107E-1
2.205037094E0,-7.607575893E0,-1.683722377E0,8.601169586E-1
2.207524855E0,-7.679401875E0,-1.726817966E0,8.313865662E-1
2.210012615E0,-7.770381451E0,-1.765125155E0,7.978677154E-1
2.212500375E0,-7.842207432E0,-1.803432465E0,7.691373229E-1
2.214988136E0,-7.923610687E0,-1.827374458E0,7.499836683E-1
2.217475896E0,-8.043320656E0,-1.856104851E0,7.212532759E-1
2.219963657E0,-8.158242226E0,-1.894412041E0,7.260416746E-1
2.222451417E0,-8.287528992E0,-1.942296147E0,7.547720671E-1
2.224939178E0,-8.450334549E0,-1.961449742E0,7.643488646E-1
2.227426938E0,-8.627506256E0,-1.994968534E0,7.835025191E-1
2.229914698E0,-8.804677010E0,-2.038064241E0,8.313865662E-1
2.232402459E0,-8.991424561E0,-2.052429438E0,8.744821548E-1
2.234890219E0,-9.192537308E0,-2.057217836E0,9.510966539E-1
2.237377980E0,-9.388861656E0,-2.066794634E0,1.061229944E0
2.239865740E0,-9.604340553E0,-2.076371431E0,1.152209520E0
2.242353500E0,-9.815030098E0,-2.090736628E0,1.262342811E0
2.244841261E0,-1.003050804E1,-2.105101824E0,1.362899303E0
2.247329021E0,-1.023162079E1,-2.105101824E0,1.449090600E0
2.249816782E0,-1.040400314E1,-2.133832216E0,1.516128182E0
2.252304542E0,-1.056202126E1,-2.148197412E0,1.578377485E0
2.254792303E0,-1.072003841E1,-2.172139406E0,1.654991984E0
2.257280063E0,-1.086369038E1,-2.181716204E0,1.702875972E0
2.259767823E0,-1.100255394E1,-2.176927805E0,1.760336757E0
2.262255584E0,-1.111268711E1,-2.167351007E0,1.817797661E0
2.264743344E0,-1.123718548E1,-2.172139406E0,1.875258446E0
2.267231105E0,-1.133774185E1,-2.133832216E0,1.927930951E0
2.269718865E0,-1.144308662E1,-2.085948229E0,1.932719350E0
2.272206625E0,-1.154364395E1,-2.047641039E0,1.942296147E0
2.274694386E0,-1.162025833E1,-1.999756932E0,1.918354154E0
2.277182146E0,-1.169208431E1,-1.947084546E0,1.884835243E0
2.279669907E0,-1.173996830E1,-1.870470047E0,1.827374458E0
2.282157667E0,-1.175433350E1,-1.813009262E0,1.750759959E0
2.284645428E0,-1.178306389E1,-1.707664371E0,1.645415068E0
2.287133188E0,-1.177348709E1,-1.607107878E0,1.525704980E0
2.289620948E0,-1.173517990E1,-1.492186189E0,1.410783410E0
2.292108709E0,-1.171602631E1,-1.362899303E0,1.257554412E0
2.294596469E0,-1.168250751E1,-1.233612418E0,1.094748735E0
2.297084230E0,-1.166335392E1,-1.109113932E0,9.175778031E-1
2.299571990E0,-1.165377712E1,-9.510966539E-1,7.499836683E-1
2.302059750E0,-1.164420033E1,-8.122329116E-1,5.680243373E-1
2.304547511E0,-1.162025833E1,-6.590040326E-1,3.764882088E-1
2.307035271E0,-1.159152794E1,-5.057750940E-1,1.897404790E-1
2.309523032E0,-1.156758595E1,-3.525462151E-1,2.214636654E-2
2.312010792E0,-1.151012421E1,-1.849520802E-1,-1.693897694E-1
2.314498553E0,-1.145745182E1,-3.651157767E-2,-3.417722881E-1
2.316986313E0,-1.137126064E1,1.071405262E-1,-5.093663931E-1
2.319474073E0,-1.131379986E1,2.316390127E-1,-6.673837304E-1
2.321961834E0,-1.122760868E1,3.561375141E-1,-7.918822169E-1
2.324449594E0,-1.113662910E1,4.758476019E-1,-9.259575009E-1
2.326937355E0,-1.106959152E1,5.716156363E-1,-1.031302333E0
2.329425115E0,-1.100255394E1,6.578069329E-1,-1.093551636E0
2.331912875E0,-1.092115116E1,7.344213724E-1,-1.136647224E0
2.334400636E0,-1.085411358E1,7.966706157E-1,-1.146224022E0
2.336888396E0,-1.077749920E1,8.301894665E-1,-1.151012421E0
2.339376157E0,-1.070567322E1,8.349778652E-1,-1.122282028E0
2.341863917E0,-1.061469364E1,8.158242106E-1,-1.064821243E0
2.344351678E0,-1.051413631E1,7.583633661E-1,-9.546879530E-1
2.346839438E0,-1.041836834E1,6.817489266E-1,-8.301894665E-1
2.349327198E0,-1.033217716E1,5.955576897E-1,-6.817489266E-1
2.351814959E0,-1.022683239E1,4.806360006E-1,-5.093663931E-1
2.354302719E0,-1.009754562E1,3.705027103E-1,-3.226186931E-1
2.356790480E0,-9.982624054E0,2.507926226E-1,-1.550245583E-1
2.359278240E0,-9.862914085E0,1.310825497E-1,6.524199992E-2
2.361766000E0,-9.743204117E0,1.616086066E-2,2.663549483E-1
2.364253761E0,-9.623494148E0,-1.131260321E-1,4.626794755E-1
2.366741521E0,-9.498994827E0,-2.424129248E-1,6.398503780E-1
2.369229282E0,-9.398438454E0,-3.860650361E-1,8.409633636E-1
2.371717042E0,-9.297882080E0,-5.392939448E-1,1.032499433E0
2.374204803E0,-9.197325706E0,-7.260416746E-1,1.224035621E0
2.376692563E0,-9.096769333E0,-9.127894044E-1,1.410783410E0
2.379180323E0,-8.981847763E0,-1.080383539E0,1.635838270E0
2.381668084E0,-8.871714592E0,-1.247977614E0,1.841739655E0
2.384155844E0,-8.761581421E0,-1.425148606E0,2.062006235E0
2.386643605E0,-8.651448250E0,-1.583165884E0,2.306214809E0
2.389131365E0,-8.517372131E0,-1.726817966E0,2.531269789E0
2.391619125E0,-8.426392555E0,-1.870470047E0,2.727594376E0
2.394106886E0,-8.340201378E0,-1.971026540E0,2.938283920E0
2.396594646E0,-8.258798599E0,-2.090736628E0,3.110666513E0
2.399082407E0,-8.191761017E0,-2.210446835E0,3.273472309E0
2.401570167E0,-8.139088631E0,-2.311003208E0,3.417124271E0
2.404057928E0,-8.124723434E0,-2.392405987E0,3.546411276E0
2.406545688E0,-8.115146637E0,-2.454655409E0,3.680486679E0
2.409033448E0,-8.110358238E0,-2.497750998E0,3.766677856E0
2.411521209E0,-8.124723434E0,-2.531269789E0,3.824138641E0
2.414008969E0,-8.158242226E0,-2.550423384E0,3.886387825E0
2.416496730E0,-8.206126213E0,-2.564788580E0,3.929483652E0
2.418984490E0,-8.258798599E0,-2.560000181E0,3.934272051E0
2.421472250E0,-8.311470985E0,-2.540846586E0,3.915118217E0
2.423960011E0,-8.359354973E0,-2.497750998E0,3.905541420E0
2.426447771E0,-8.426392555E0,-2.430713177E0,3.857657433E0
2.428935532E0,-8.512583733E0,-2.378040791E0,3.752312660E0
2.431423292E0,-8.608352661E0,-2.296638012E0,3.670909643E0
2.433911053E0,-8.708909035E0,-2.215235233E0,3.546411276E0
2.436398813E0,-8.833407402E0,-2.109890223E0,3.407547474E0
2.438886573E0,-8.986636162E0,-2.018910646E0,3.244741917E0
2.441374334E0,-9.120711327E0,-1.937507749E0,3.129820108E0
2.443862094E0,-9.278728485E0,-1.851316452E0,3.005321741E0
2.446349855E0,-9.446322441E0,-1.726817966E0,2.876034737E0
2.448837615E0,-9.599552155E0,-1.607107878E0,2.785055161E0
2.451325375E0,-9.738415718E0,-1.482609391E0,2.703652382E0
2.453813136E0,-9.872490883E0,-1.343745708E0,2.622249365E0
2.456300896E0,-9.996989250E0,-1.214458823E0,2.521692991E0
2.458788657E0,-1.011669922E1,-1.099537134E0,2.445078373E0
2.461276417E0,-1.025077438E1,-9.941922426E-1,2.344521999E0
2.463764178E0,-1.037048435E1,-8.936358094E-1,2.239177227E0
2.466251938E0,-1.048061752E1,-8.122329116E-1,2.129043818E0
2.468739698E0,-1.059554005E1,-7.356184721E-1,2.047641039E0
2.471227459E0,-1.068173122E1,-6.542156339E-1,1.947084546E0
2.473715219E0,-1.076792240E1,-6.015431881E-1,1.865681648E0
2.476202980E0,-1.081101799E1,-5.392939448E-1,1.789067268E0
2.478690740E0,-1.086369038E1,-4.866214991E-1,1.726817966E0
2.481178500E0,-1.091636276E1,-4.531026781E-1,1.674145579E0
2.483666261E0,-1.097382355E1,-4.100070298E-1,1.631049871E0
2.486154021E0,-1.098818874E1,-3.621230125E-1,1.607107878E0
2.488641782E0,-1.101691914E1,-3.333925903E-1,1.583165884E0
2.491129542E0,-1.104086113E1,-3.333925903E-1,1.568800688E0
2.493617303E0,-1.107437992E1,-3.142389655E-1,1.554435492E0
2.496105063E0,-1.107437992E1,-3.286041915E-1,1.559223890E0
2.498592823E0,-1.107437992E1,-3.238157928E-1,1.578377485E0
2.501080584E0,-1.107437992E1,-3.238157928E-1,1.587954283E0
2.503568344E0,-1.107437992E1,-3.381809890E-1,1.631049871E0
2.506056105E0,-1.106959152E1,-3.764882088E-1,1.664568782E0
2.508543865E0,-1.103607273E1,-4.387374520E-1,1.707664371E0
2.511031625E0,-1.101691914E1,-4.866214991E-1,1.769913554E0
2.513519386E0,-1.099297714E1,-5.297171474E-1,1.841739655E0
2.516007146E0,-1.095945835E1,-5.967547894E-1,1.918354154E0
2.518494907E0,-1.092593956E1,-6.398503780E-1,2.018910646E0
2.520982667E0,-1.086369038E1,-7.164648771E-1,2.138620615E0
2.523470428E0,-1.083017159E1,-7.882909179E-1,2.239177227E0
2.525958188E0,-1.076792240E1,-8.457517624E-1,2.330156803E0
2.528445948E0,-1.072003841E1,-9.175778031E-1,2.421136379E0
2.530933709E0,-1.067215443E1,-9.846154451E-1,2.526481390E0
2.533421469E0,-1.060990524E1,-1.066018343E0,2.607884169E0
2.535909230E0,-1.055723286E1,-1.137844324E0,2.689286947E0
2.538396990E0,-1.050934792E1,-1.238400817E0,2.737171173E0
2.540884750E0,-1.046625233E1,-1.305438519E0,2.751536369E0
2.543372511E0,-1.041357994E1,-1.420360208E0,2.789843559E0
2.545860271E0,-1.037527275E1,-1.501762986E0,2.832939148E0
2.548348032E0,-1.035133076E1,-1.554435492E0,2.880823135E0
2.550835792E0,-1.030823517E1,-1.611896276E0,2.909553528E0
2.553323553E0,-1.026035118E1,-1.664568782E0,2.962226152E0
2.555811313E0,-1.022204399E1,-1.698087573E0,3.019686937E0
2.558299073E0,-1.017416000E1,-1.726817966E0,3.053205729E0
2.560786834E0,-1.011191082E1,-1.760336757E0,3.077147722E0
2.563274594E0,-1.006402683E1,-1.779490471E0,3.091512918E0
2.565762303E0,-1.001614285E1,-1.813009262E0,3.086724520E0
2.568250011E0,-9.968258858E0,-1.817797661E0,3.086724520E0
2.570737719E0,-9.920374870E0,-1.846528053E0,3.062782526E0
2.573225428E0,-9.886856079E0,-1.860893250E0,3.062782526E0
2.575713136E0,-9.819818497E0,-1.884835243E0,3.034052134E0
2.578200844E0,-9.757569313E0,-1.884835243E0,2.990956545E0
2.580688553E0,-9.719262123E0,-1.884835243E0,2.952649355E0
2.583176261E0,-9.666589737E0,-1.870470047E0,2.933495522E0
2.585663969E0,-9.599552155E0,-1.836951256E0,2.895188332E0
2.588151678E0,-9.546878815E0,-1.798644066E0,2.856881142E0
2.590639386E0,-9.508571625E0,-1.755548358E0,2.799420357E0
2.593127094E0,-9.441534042E0,-1.674145579E0,2.741959572E0
2.595614803E0,-9.369708061E0,-1.616684675E0,2.660556555E0
2.598102511E0,-9.269151688E0,-1.564012289E0,2.593518972E0
2.600590219E0,-9.173383713E0,-1.511339784E0,2.531269789E0
2.603077928E0,-9.048885345E0,-1.468244195E0,2.478597403E0
2.605565636E0,-8.938752174E0,-1.425148606E0,2.430713177E0
2.608053344E0,-8.833407402E0,-1.353322506E0,2.373252392E0
2.610541053E0,-8.713697433E0,-1.300650120E0,2.301426411E0
2.613028761E0,-8.584410667E0,-1.243189216E0,2.229600430E0
2.615516469E0,-8.459911346E0,-1.200093627E0,2.162562609E0
2.618004178E0,-8.325836182E0,-1.166574836E0,2.100313425E0
2.620491886E0,-8.210914612E0,-1.137844324E0,2.038064241E0
2.622979594E0,-8.095993042E0,-1.137844324E0,1.980603337E0
2.625467303E0,-7.981071472E0,-1.113902330E0,1.932719350E0
2.627955011E0,-7.894880295E0,-1.089960337E0,1.865681648E0
2.630442719E0,-7.827842236E0,-1.080383539E0,1.808220863E0
2.632930428E0,-7.732074261E0,-1.094748735E0,1.779490471E0
2.635418136E0,-7.641094685E0,-1.104325533E0,1.736394763E0
2.637905896E0,-7.550115108E0,-1.128267527E0,1.654991984E0
2.640393657E0,-7.459135532E0,-1.171363235E0,1.621473074E0
2.642881417E0,-7.368155956E0,-1.204882026E0,1.583165884E0
2.645369178E0,-7.291541100E0,-1.224035621E0,1.511339784E0
2.647856938E0,-7.214926720E0,-1.238400817E0,1.463455796E0
2.650344698E0,-7.147889137E0,-1.257554412E0,1.415571809E0
2.652832459E0,-7.114370346E0,-1.252766013E0,1.372476101E0
2.655320219E0,-7.090428352E0,-1.252766013E0,1.334168911E0
2.657807980E0,-7.076063156E0,-1.238400817E0,1.319803715E0
2.660295740E0,-7.047332764E0,-1.209670424E0,1.295861721E0
2.662783500E0,-7.037755966E0,-1.180940032E0,1.271919608E0
2.665271261E0,-7.028179169E0,-1.161786318E0,1.243189216E0
2.667759021E0,-6.980295181E0,-1.109113932E0,1.224035621E0
2.670246782E0,-6.965929985E0,-1.051653147E0,1.204882026E0
2.672734542E0,-6.970718384E0,-1.003769040E0,1.171363235E0
2.675222303E0,-6.937199593E0,-9.415197968E-1,1.142632723E0
2.677710063E0,-6.932411194E0,-8.792705536E-1,1.104325533E0
2.680197823E0,-6.975506783E0,-8.122329116E-1,1.056441545E0
2.682685584E0,-7.009025574E0,-7.451952696E-1,1.003769040E0
2.685173344E0,-7.037755966E0,-6.685808301E-1,9.654618502E-1
2.687661105E0,-7.042544365E0,-5.919663906E-1,9.367313981E-1
2.690148865E0,-7.037755966E0,-5.009866953E-1,8.984242082E-1
2.692636625E0,-7.018602371E0,-4.339490533E-1,8.936358094E-1
2.695124386E0,-7.013813972E0,-3.908534348E-1,8.888474107E-1
2.697612146E0,-7.004237175E0,-3.381809890E-1,9.032126069E-1
2.700099907E0,-6.989871979E0,-2.950853705E-1,9.032126069E-1
2.702587667E0,-6.956353188E0,-2.807201445E-1,8.936358094E-1
2.705075428E0,-6.932411194E0,-2.950853705E-1,8.744821548E-1
2.707563188E0,-6.918045998E0,-3.142389655E-1,8.744821548E-1
2.710050948E0,-6.894104004E0,-3.429693878E-1,8.601169586E-1
2.712538709E0,-6.879738808E0,-3.716998100E-1,8.601169586E-1
2.715026469E0,-6.870162010E0,-3.908534348E-1,9.032126069E-1
2.717514230E0,-6.851007938E0,-4.147954583E-1,9.223662019E-1
2.720001990E0,-6.846219540E0,-4.387374520E-1,9.558850527E-1
2.722489750E0,-6.831854343E0,-4.674678743E-1,1.003769040E0
2.724977511E0,-6.827065945E0,-5.057750940E-1,1.027711034E0
2.727465271E0,-6.836642742E0,-5.392939448E-1,1.070806742E0
2.729953032E0,-6.855796337E0,-5.776011348E-1,1.123479128E0
2.732440792E0,-6.879738808E0,-6.302735806E-1,1.152209520E0
2.734928553E0,-6.898892403E0,-6.781576276E-1,1.180940032E0
2.737416313E0,-6.937199593E0,-7.068880796E-1,1.219247222E0
2.739904073E0,-6.975506783E0,-7.547720671E-1,1.224035621E0
2.742391834E0,-7.018602371E0,-7.835025191E-1,1.257554412E0
2.744879594E0,-7.080851555E0,-7.978677154E-1,1.267131209E0
2.747367355E0,-7.138312340E0,-8.409633636E-1,1.305438519E0
2.749855115E0,-7.200561523E0,-8.649053574E-1,1.310226917E0
2.752342875E0,-7.272387505E0,-9.032126069E-1,1.319803715E0
2.754830636E0,-7.372944355E0,-9.367313981E-1,1.338957310E0
2.757318396E0,-7.497442722E0,-9.846154451E-1,1.362899303E0
2.759806157E0,-7.645883083E0,-1.046864748E0,1.382052898E0
2.762293917E0,-7.832630634E0,-1.104325533E0,1.382052898E0
2.764781678E0,-8.038532257E0,-1.176151633E0,1.401206493E0
2.767269438E0,-8.282740593E0,-1.247977614E0,1.458667397E0
2.769757198E0,-8.531737328E0,-1.329380512E0,1.535281897E0
2.772244959E0,-8.775946617E0,-1.425148606E0,1.616684675E0
2.774732719E0,-9.039308548E0,-1.535281897E0,1.726817966E0
2.777220480E0,-9.278728485E0,-1.645415068E0,1.846528053E0
2.779708240E0,-9.532513618E0,-1.755548358E0,1.975814939E0
2.782196000E0,-9.786299706E0,-1.870470047E0,2.105101824E0
2.784683761E0,-1.005445004E1,-1.951872945E0,2.229600430E0
2.787171521E0,-1.025556278E1,-1.994968534E0,2.354098797E0
2.789659282E0,-1.041836834E1,-2.042852640E0,2.516904593E0
2.792147042E0,-1.059075165E1,-2.062006235E0,2.622249365E0
2.794634803E0,-1.072003841E1,-2.081159830E0,2.718017578E0
2.797122563E0,-1.076313400E1,-2.085948229E0,2.823362350E0
2.799610323E0,-1.073919201E1,-2.042852640E0,2.928707123E0
2.802098084E0,-1.068173122E1,-2.014122248E0,2.986168146E0
2.804585844E0,-1.057638645E1,-1.975814939E0,3.057994127E0
2.807073605E0,-1.046625233E1,-1.903988957E0,3.077147722E0
2.809561365E0,-1.031781197E1,-1.832162857E0,3.086724520E0
2.812049125E0,-1.015021801E1,-1.760336757E0,3.057994127E0
2.814536886E0,-9.958682060E0,-1.693299174E0,3.019686937E0
2.817024646E0,-9.762357712E0,-1.616684675E0,2.933495522E0
2.819512407E0,-9.551667213E0,-1.535281897E0,2.818573952E0
2.822000167E0,-9.321824074E0,-1.449090600E0,2.698863983E0
2.824487928E0,-9.068038940E0,-1.362899303E0,2.550423384E0
2.826975688E0,-8.852560997E0,-1.262342811E0,2.416347980E0
2.829463448E0,-8.637083054E0,-1.156997919E0,2.243965626E0
2.831951209E0,-8.416815758E0,-1.075595140E0,2.066794634E0
2.834438969E0,-8.239645004E0,-9.941922426E-1,1.923142552E0
2.836926730E0,-8.105569839E0,-9.223662019E-1,1.760336757E0
2.839414490E0,-7.957129478E0,-8.744821548E-1,1.621473074E0
2.841902250E0,-7.861361504E0,-8.457517624E-1,1.496974587E0
2.844390011E0,-7.775169849E0,-8.074445128E-1,1.386841297E0
2.846877771E0,-7.717709064E0,-7.595604658E-1,1.281496406E0
2.849365532E0,-7.669825077E0,-7.116764784E-1,1.190516829E0
2.851853292E0,-7.612364292E0,-6.781576276E-1,1.104325533E0
2.854341053E0,-7.550115108E0,-6.446388364E-1,1.013345838E0
2.856828813E0,-7.487865925E0,-6.159083843E-1,9.319429994E-1
2.859316573E0,-7.454347134E0,-6.111199856E-1,8.505401611E-1
2.861804334E0,-7.444770336E0,-6.159083843E-1,7.739257216E-1
2.864292094E0,-7.435193539E0,-6.063315868E-1,7.260416746E-1
2.866779855E0,-7.459135532E0,-6.350619793E-1,7.116764784E-1
2.869267615E0,-7.526173115E0,-6.542156339E-1,6.877344251E-1
2.871755375E0,-7.578845501E0,-6.685808301E-1,6.542156339E-1
2.874243136E0,-7.679401875E0,-6.925228238E-1,6.494272351E-1
2.876730896E0,-7.784746647E0,-7.356184721E-1,6.159083843E-1
2.879218657E0,-7.894880295E0,-7.499836683E-1,6.015431881E-1
2.881706417E0,-7.990648270E0,-7.595604658E-1,5.680243373E-1
2.884194178E0,-8.076839447E0,-7.835025191E-1,5.201402903E-1
2.886681938E0,-8.139088631E0,-8.218097091E-1,5.057750940E-1
2.889169698E0,-8.191761017E0,-8.744821548E-1,5.009866953E-1
2.891657459E0,-8.249221802E0,-9.271546006E-1,5.105634928E-1
2.894145219E0,-8.297105789E0,-9.941922426E-1,5.249287486E-1
2.896632980E0,-8.292317390E0,-1.046864748E0,5.776011348E-1
2.899120740E0,-8.301894188E0,-1.109113932E0,6.350619793E-1
2.901608500E0,-8.335412979E0,-1.166574836E0,6.925228238E-1
2.904096261E0,-8.325836182E0,-1.252766013E0,7.595604658E-1
2.906584021E0,-8.311470985E0,-1.305438519E0,8.313865662E-1
2.909071782E0,-8.273163795E0,-1.382052898E0,9.415197968E-1
2.911559542E0,-8.230068207E0,-1.492186189E0,1.037287831E0
2.914047303E0,-8.186972618E0,-1.578377485E0,1.099537134E0
2.916535063E0,-8.139088631E0,-1.678933978E0,1.190516829E0
2.919022823E0,-8.076839447E0,-1.765125155E0,1.271919608E0
2.921510584E0,-8.005013466E0,-1.827374458E0,1.377264500E0
2.923998344E0,-7.909245491E0,-1.884835243E0,1.473032594E0
2.926486105E0,-7.818265438E0,-1.932719350E0,1.520916581E0
2.928973865E0,-7.703343868E0,-1.994968534E0,1.587954283E0
2.931461625E0,-7.602787495E0,-2.057217836E0,1.645415068E0
2.933949386E0,-7.468712330E0,-2.119467020E0,1.683722377E0
2.936437146E0,-7.349001884E0,-2.176927805E0,1.698087573E0
2.938924907E0,-7.234080315E0,-2.234388828E0,1.702875972E0
2.941412667E0,-7.123947144E0,-2.291849613E0,1.698087573E0
2.943900428E0,-7.009025574E0,-2.325368404E0,1.707664371E0
2.946388188E0,-6.927622795E0,-2.382829189E0,1.693299174E0
2.948875948E0,-6.827065945E0,-2.430713177E0,1.678933978E0
2.951363709E0,-6.740874767E0,-2.464232206E0,1.659780383E0
2.953851469E0,-6.645106792E0,-2.488174200E0,1.645415068E0
2.956339230E0,-6.568492413E0,-2.512116194E0,1.631049871E0
2.958826990E0,-6.487089634E0,-2.521692991E0,1.573589087E0
2.961314750E0,-6.420052052E0,-2.526481390E0,1.540070295E0
2.963802511E0,-6.372167587E0,-2.545634985E0,1.496974587E0
2.966290271E0,-6.329071999E0,-2.564788580E0,1.453878999E0
2.968778032E0,-6.333860397E0,-2.545634985E0,1.439513803E0
2.971265792E0,-6.376956463E0,-2.550423384E0,1.415571809E0
2.973753553E0,-6.472724438E0,-2.516904593E0,1.429937005E0
2.976241313E0,-6.616376400E0,-2.478597403E0,1.463455796E0
2.978729073E0,-6.760028362E0,-2.430713177E0,1.496974587E0
2.981216782E0,-6.889315605E0,-2.373252392E0,1.487397790E0
2.983704490E0,-7.023390770E0,-2.320580006E0,1.468244195E0
2.986192198E0,-7.133523941E0,-2.267907619E0,1.444302201E0
2.988679907E0,-7.243657112E0,-2.220023632E0,1.405994892E0
2.991167615E0,-7.353790283E0,-2.167351007E0,1.353322506E0
2.993655323E0,-7.425616741E0,-2.138620615E0,1.295861721E0
2.996143032E0,-7.473500729E0,-2.114678621E0,1.238400817E0
2.998630740E0,-7.545326710E0,-2.100313425E0,1.156997919E0
3.001118448E0,-7.574057102E0,-2.085948229E0,1.080383539E0
3.003606157E0,-7.626729488E0,-2.057217836E0,1.013345838E0
3.006093865E0,-7.674613476E0,-2.052429438E0,9.510966539E-1
3.008581573E0,-7.703343868E0,-2.057217836E0,9.175778031E-1
3.011069282E0,-7.722497463E0,-2.062006235E0,8.984242082E-1
3.013556990E0,-7.727285862E0,-2.062006235E0,8.840589523E-1
3.016044698E0,-7.703343868E0,-2.076371431E0,8.696937561E-1
3.018532407E0,-7.684190273E0,-2.095525026E0,8.505401611E-1
3.021020115E0,-7.684190273E0,-2.076371431E0,8.457517624E-1
3.023507823E0,-7.688978672E0,-2.071583033E0,8.553285599E-1
3.025995532E0,-7.703343868E0,-2.042852640E0,8.744821548E-1
3.028483240E0,-7.732074261E0,-1.994968534E0,9.367313981E-1
3.030970948E0,-7.779958248E0,-1.961449742E0,1.013345838E0
3.033458657E0,-7.794323444E0,-1.918354154E0,1.109113932E0
3.035946365E0,-7.813477039E0,-1.870470047E0,1.214458823E0
3.038434073E0,-7.842207432E0,-1.827374458E0,1.281496406E0
3.040921782E0,-7.866149902E0,-1.769913554E0,1.358110905E0
3.043409490E0,-7.890091896E0,-1.726817966E0,1.439513803E0
3.045897198E0,-7.909245491E0,-1.664568782E0,1.501762986E0
3.048384907E0,-7.904457092E0,-1.611896276E0,1.568800688E0
3.050872615E0,-7.914033890E0,-1.554435492E0,1.640626669E0
3.053360323E0,-7.904457092E0,-1.516128182E0,1.678933978E0
3.055848084E0,-7.899668694E0,-1.473032594E0,1.707664371E0
3.058335844E0,-7.899668694E0,-1.444302201E0,1.750759959E0
3.060823605E0,-7.914033890E0,-1.429937005E0,1.789067268E0
3.063311365E0,-7.928399086E0,-1.420360208E0,1.822586060E0
3.065799125E0,-7.952341080E0,-1.405994892E0,1.841739655E0
3.068286886E0,-7.976283073E0,-1.401206493E0,1.841739655E0
3.070774646E0,-8.009801865E0,-1.434725404E0,1.851316452E0
3.073262407E0,-8.043320656E0,-1.473032594E0,1.836951256E0
3.075750167E0,-8.095993042E0,-1.525704980E0,1.841739655E0
3.078237928E0,-8.148665428E0,-1.568800688E0,1.860893250E0
3.080725688E0,-8.230068207E0,-1.611896276E0,1.832162857E0
3.083213448E0,-8.325836182E0,-1.659780383E0,1.822586060E0
3.085701209E0,-8.392873764E0,-1.693299174E0,1.803432465E0
3.088188969E0,-8.507795334E0,-1.736394763E0,1.793855667E0
3.090676730E0,-8.622717857E0,-1.760336757E0,1.774701953E0
3.093164490E0,-8.747216225E0,-1.774701953E0,1.760336757E0
3.095652250E0,-8.876502991E0,-1.789067268E0,1.736394763E0
3.098140011E0,-8.991424561E0,-1.803432465E0,1.731606364E0
3.100627771E0,-9.087192535E0,-1.827374458E0,1.712452769E0
3.103115532E0,-9.154230118E0,-1.841739655E0,1.693299174E0
3.105603292E0,-9.240421295E0,-1.865681648E0,1.669357181E0
3.108091053E0,-9.302670479E0,-1.884835243E0,1.650203466E0
3.110578813E0,-9.336189270E0,-1.889623642E0,1.654991984E0
3.113066573E0,-9.393650055E0,-1.880046844E0,1.678933978E0
3.115554334E0,-9.446322441E0,-1.899200439E0,1.683722377E0
3.118042094E0,-9.503783226E0,-1.889623642E0,1.726817966E0
3.120529855E0,-9.542090416E0,-1.899200439E0,1.760336757E0
3.123017615E0,-9.599552155E0,-1.875258446E0,1.779490471E0
3.125505375E0,-9.618705750E0,-1.841739655E0,1.774701953E0
3.127993136E0,-9.618705750E0,-1.817797661E0,1.765125155E0
3.130480896E0,-9.585186958E0,-1.803432465E0,1.745971560E0
3.132968657E0,-9.585186958E0,-1.789067268E0,1.745971560E0
3.135456417E0,-9.566033363E0,-1.774701953E0,1.722029567E0
3.137944178E0,-9.561244011E0,-1.769913554E0,1.683722377E0
3.140431938E0,-9.570821762E0,-1.741183162E0,1.645415068E0
3.142919698E0,-9.561244011E0,-1.726817966E0,1.616684675E0
3.145407459E0,-9.561244011E0,-1.702875972E0,1.592742682E0
3.147895219E0,-9.556455612E0,-1.664568782E0,1.568800688E0
3.150382980E0,-9.518148422E0,-1.659780383E0,1.559223890E0
3.152870740E0,-9.484629631E0,-1.650203466E0,1.549647093E0
3.155358500E0,-9.446322441E0,-1.674145579E0,1.535281897E0
3.157846261E0,-9.393650055E0,-1.702875972E0,1.525704980E0
3.160334021E0,-9.374496460E0,-1.750759959E0,1.501762986E0
3.162821782E0,-9.345766068E0,-1.789067268E0,1.492186189E0
3.165309542E0,-9.331400871E0,-1.803432465E0,1.496974587E0
3.167797303E0,-9.345766068E0,-1.851316452E0,1.473032594E0
3.170285063E0,-9.340977669E0,-1.889623642E0,1.482609391E0
3.172772823E0,-9.336189270E0,-1.913565755E0,1.482609391E0
3.175260584E0,-9.321824074E0,-1.937507749E0,1.506551385E0
3.177748344E0,-9.312247276E0,-1.951872945E0,1.496974587E0
3.180236105E0,-9.340977669E0,-1.980603337E0,1.492186189E0
3.182723865E0,-9.364919662E0,-2.009333849E0,1.496974587E0
3.185211625E0,-9.398438454E0,-2.033275843E0,1.511339784E0
3.187699386E0,-9.422380447E0,-2.081159830E0,1.525704980E0
3.190187146E0,-9.441534042E0,-2.143409014E0,1.535281897E0
3.192674907E0,-9.470264435E0,-2.181716204E0,1.535281897E0
3.195162667E0,-9.503783226E0,-2.196081400E0,1.516128182E0
3.197650428E0,-9.542090416E0,-2.220023632E0,1.492186189E0
3.200138188E0,-9.589975357E0,-2.253542423E0,1.449090600E0
3.202625948E0,-9.637859344E0,-2.263119221E0,1.449090600E0
3.205113709E0,-9.685743332E0,-2.243965626E0,1.410783410E0
3.207601469E0,-9.767146111E0,-2.224812031E0,1.362899303E0
3.210089230E0,-9.815030098E0,-2.205658197E0,1.310226917E0
3.212576990E0,-9.848548889E0,-2.162562609E0,1.252766013E0
3.215064750E0,-9.882067680E0,-2.129043818E0,1.238400817E0
3.217552511E0,-9.901221275E0,-2.105101824E0,1.214458823E0
3.220040271E0,-9.910798073E0,-2.090736628E0,1.214458823E0
3.222528032E0,-9.901221275E0,-2.047641039E0,1.219247222E0
3.225015792E0,-9.901221275E0,-2.028487444E0,1.252766013E0
3.227503553E0,-9.906009674E0,-2.014122248E0,1.281496406E0
3.229991313E0,-9.929951668E0,-2.023699045E0,1.338957310E0
3.232479073E0,-9.939528465E0,-2.009333849E0,1.386841297E0
3.234966834E0,-9.968258858E0,-1.961449742E0,1.405994892E0
3.237454594E0,-1.000656605E1,-1.961449742E0,1.434725404E0
3.239942355E0,-1.005445004E1,-1.937507749E0,1.468244195E0
3.242430115E0,-1.007839203E1,-1.927930951E0,1.496974587E0
3.244917875E0,-1.010233402E1,-1.923142552E0,1.568800688E0
3.247405636E0,-1.012627602E1,-1.937507749E0,1.626261473E0
3.249893396E0,-1.014064121E1,-1.956661344E0,1.683722377E0
3.252381157E0,-1.015500641E1,-1.994968534E0,1.712452769E0
3.254868917E0,-1.016458321E1,-2.038064241E0,1.745971560E0
3.257356678E0,-1.015021801E1,-2.095525026E0,1.765125155E0
3.259844438E0,-1.014064121E1,-2.133832216E0,1.774701953E0
3.262332198E0,-1.015021801E1,-2.167351007E0,1.765125155E0
3.264819959E0,-1.012627602E1,-2.215235233E0,1.798644066E0
3.267307719E0,-1.012148762E1,-2.239177227E0,1.798644066E0
3.269795480E0,-1.011669922E1,-2.258330822E0,1.817797661E0
3.272283240E0,-1.013106441E1,-2.296638012E0,1.817797661E0
3.274771000E0,-1.014064121E1,-2.306214809E0,1.841739655E0
3.277258761E0,-1.014542961E1,-2.334945202E0,1.846528053E0
3.279746521E0,-1.016458321E1,-2.358887196E0,1.865681648E0
3.282234282E0,-1.020767879E1,-2.387617588E0,1.884835243E0
3.284722042E0,-1.023162079E1,-2.425924778E0,1.908777356E0
3.287209803E0,-1.025556278E1,-2.464232206E0,1.913565755E0
3.289697563E0,-1.027950478E1,-2.516904593E0,1.913565755E0
3.292185323E0,-1.028429317E1,-2.574365377E0,1.894412041E0
3.294673084E0,-1.027950478E1,-2.612672567E0,1.889623642E0
3.297160844E0,-1.023640919E1,-2.670133352E0,1.860893250E0
3.299648605E0,-1.023162079E1,-2.698863983E0,1.846528053E0
3.302136365E0,-1.021725559E1,-2.737171173E0,1.875258446E0
3.304624125E0,-1.017894840E1,-2.780266762E0,1.870470047E0
3.307111886E0,-1.011191082E1,-2.785055161E0,1.860893250E0
3.309599646E0,-1.010233402E1,-2.761113167E0,1.817797661E0
3.312087407E0,-1.012627602E1,-2.713229179E0,1.808220863E0
3.314575167E0,-1.014064121E1,-2.689286947E0,1.813009262E0
3.317062928E0,-1.017416000E1,-2.660556555E0,1.827374458E0
3.319550688E0,-1.023162079E1,-2.650979757E0,1.841739655E0
3.322038448E0,-1.030823517E1,-2.631826162E0,1.875258446E0
3.324526209E0,-1.040400314E1,-2.593518972E0,1.913565755E0
3.327013969E0,-1.046146393E1,-2.569576979E0,1.966238141E0
3.329501730E0,-1.051892471E1,-2.512116194E0,2.014122248E0
3.331989490E0,-1.057159805E1,-2.483385801E0,2.033275843E0
3.334477250E0,-1.062427044E1,-2.464232206E0,2.081159830E0
3.336965011E0,-1.066736603E1,-2.449866772E0,2.100313425E0
3.339452771E0,-1.068651962E1,-2.445078373E0,2.109890223E0
3.341940532E0,-1.069609642E1,-2.459443808E0,2.129043818E0
3.344428292E0,-1.073440361E1,-2.473809004E0,2.133832216E0
3.346916053E0,-1.072482681E1,-2.483385801E0,2.138620615E0
3.349403813E0,-1.072482681E1,-2.483385801E0,2.157774210E0
3.351891573E0,-1.074876881E1,-2.521692991E0,2.129043818E0
3.354379334E0,-1.077271080E1,-2.545634985E0,2.133832216E0
3.356867094E0,-1.080144119E1,-2.560000181E0,2.148197412E0
3.359354855E0,-1.084453678E1,-2.588730574E0,2.162562609E0
3.361842615E0,-1.090199757E1,-2.612672567E0,2.196081400E0
3.364330375E0,-1.093551636E1,-2.622249365E0,2.210446835E0
3.366818136E0,-1.097861195E1,-2.636614561E0,2.229600430E0
3.369305896E0,-1.099297714E1,-2.646191359E0,2.253542423E0
3.371793657E0,-1.100734234E1,-2.660556555E0,2.301426411E0
3.374281365E0,-1.100255394E1,-2.670133352E0,2.339733601E0
3.376769073E0,-1.100255394E1,-2.689286947E0,2.397194386E0
3.379256782E0,-1.101691914E1,-2.694075346E0,2.430713177E0
3.381744490E0,-1.103128433E1,-2.689286947E0,2.497750998E0
3.384232198E0,-1.104086113E1,-2.674921751E0,2.540846586E0
3.386719907E0,-1.106001472E1,-2.674921751E0,2.569576979E0
3.389207615E0,-1.106001472E1,-2.684498549E0,2.598307371E0
3.391695323E0,-1.105043793E1,-2.670133352E0,2.607884169E0
3.394183032E0,-1.101691914E1,-2.679710150E0,2.612672567E0
3.396670740E0,-1.098818874E1,-2.660556555E0,2.603095770E0
3.399158448E0,-1.093072796E1,-2.679710150E0,2.574365377E0
3.401646157E0,-1.083974838E1,-2.684498549E0,2.560000181E0
3.404133865E0,-1.076792240E1,-2.689286947E0,2.569576979E0
3.406621573E0,-1.070567322E1,-2.694075346E0,2.564788580E0
3.409109282E0,-1.063863564E1,-2.679710150E0,2.550423384E0
3.411596990E0,-1.056680965E1,-2.670133352E0,2.531269789E0
3.414084698E0,-1.049977112E1,-2.670133352E0,2.521692991E0
3.416572407E0,-1.045188713E1,-2.670133352E0,2.492962599E0
3.419060115E0,-1.038963795E1,-2.679710150E0,2.469020605E0
3.421547823E0,-1.036090755E1,-2.689286947E0,2.464232206E0
3.424035532E0,-1.030823517E1,-2.708440781E0,2.454655409E0
3.426523240E0,-1.026035118E1,-2.741959572E0,2.440289974E0
3.429010948E0,-1.022204399E1,-2.765901566E0,2.430713177E0
3.431498657E0,-1.019810200E1,-2.804208755E0,2.401982784E0
3.433986365E0,-1.018373680E1,-2.842515945E0,2.373252392E0
3.436474073E0,-1.018852520E1,-2.871246338E0,2.368463993E0
3.438961782E0,-1.020767879E1,-2.885611534E0,2.354098797E0
3.441449490E0,-1.023640919E1,-2.895188332E0,2.349310398E0
3.443937198E0,-1.027950478E1,-2.895188332E0,2.373252392E0
3.446424907E0,-1.034654236E1,-2.876034737E0,2.425924778E0
3.448912615E0,-1.042315674E1,-2.842515945E0,2.483385801E0
3.451400375E0,-1.049019432E1,-2.789843559E0,2.531269789E0
3.453888136E0,-1.054765606E1,-2.732382774E0,2.569576979E0
3.456375896E0,-1.060032845E1,-2.684498549E0,2.627037764E0
3.458863657E0,-1.066736603E1,-2.650979757E0,2.674921751E0
3.461351417E0,-1.071046162E1,-2.617460966E0,2.703652382E0
3.463839178E0,-1.075834560E1,-2.603095770E0,2.737171173E0
3.466326938E0,-1.079665279E1,-2.588730574E0,2.756324768E0
3.468814698E0,-1.080144119E1,-2.603095770E0,2.746747971E0
3.471302459E0,-1.081101799E1,-2.617460966E0,2.746747971E0
3.473790219E0,-1.081101799E1,-2.627037764E0,2.727594376E0
3.476277980E0,-1.081101799E1,-2.641402960E0,2.698863983E0
3.478765740E0,-1.081580639E1,-2.650979757E0,2.660556555E0
3.481253500E0,-1.081580639E1,-2.670133352E0,2.665344954E0
3.483741261E0,-1.083974838E1,-2.665344954E0,2.636614561E0
3.486229021E0,-1.088763237E1,-2.670133352E0,2.617460966E0
3.488716782E0,-1.094030476E1,-2.679710150E0,2.598307371E0
3.491204542E0,-1.097861195E1,-2.636614561E0,2.579153776E0
3.493692303E0,-1.099776554E1,-2.612672567E0,2.583942175E0
3.496180063E0,-1.101213074E1,-2.588730574E0,2.588730574E0
3.498667823E0,-1.099776554E1,-2.540846586E0,2.593518972E0
3.501155584E0,-1.094988155E1,-2.512116194E0,2.574365377E0
3.503643344E0,-1.089242077E1,-2.483385801E0,2.545634985E0
3.506131105E0,-1.083974838E1,-2.459443808E0,2.502539396E0
3.508618865E0,-1.078707600E1,-2.445078373E0,2.464232206E0
3.511106625E0,-1.073440361E1,-2.440289974E0,2.449866772E0
3.513594386E0,-1.067215443E1,-2.440289974E0,2.421136379E0
3.516082146E0,-1.060032845E1,-2.445078373E0,2.401982784E0
3.518569907E0,-1.055723286E1,-2.440289974E0,2.387617588E0
3.521057667E0,-1.050455952E1,-2.454655409E0,2.378040791E0
3.523545428E0,-1.043752193E1,-2.449866772E0,2.354098797E0
3.526033188E0,-1.036569595E1,-2.421136379E0,2.320580006E0
3.528520948E0,-1.028429317E1,-2.406771183E0,2.291849613E0
3.531008709E0,-1.019810200E1,-2.382829189E0,2.253542423E0
3.533496469E0,-1.011191082E1,-2.358887196E0,2.243965626E0
3.535984230E0,-1.005923843E1,-2.354098797E0,2.229600430E0
3.538471990E0,-1.002571964E1,-2.363675594E0,2.200869799E0
3.540959750E0,-1.000177765E1,-2.368463993E0,2.191293001E0
3.543447511E0,-9.973047256E0,-2.363675594E0,2.176927805E0
3.545935271E0,-9.963470459E0,-2.382829189E0,2.167351007E0
3.548423032E0,-9.973047256E0,-2.397194386E0,2.162562609E0
3.550910792E0,-1.000177765E1,-2.416347980E0,2.181716204E0
3.553398553E0,-1.005445004E1,-2.430713177E0,2.191293001E0
3.555886313E0,-1.013106441E1,-2.464232206E0,2.248754025E0
3.558374073E0,-1.022204399E1,-2.502539396E0,2.296638012E0
3.560861834E0,-1.030823517E1,-2.526481390E0,2.354098797E0
3.563349594E0,-1.042315674E1,-2.536058187E0,2.411559582E0
3.565837355E0,-1.052371311E1,-2.516904593E0,2.497750998E0
3.568325115E0,-1.060511684E1,-2.469020605E0,2.598307371E0
3.570812875E0,-1.067694283E1,-2.416347980E0,2.674921751E0
3.573300636E0,-1.072003841E1,-2.339733601E0,2.684498549E0
3.575788396E0,-1.069609642E1,-2.258330822E0,2.722805977E0
3.578276157E0,-1.069609642E1,-2.191293001E0,2.741959572E0
3.580763917E0,-1.070088482E1,-2.114678621E0,2.689286947E0
3.583251678E0,-1.070567322E1,-2.057217836E0,2.622249365E0
3.585739438E0,-1.071525002E1,-2.014122248E0,2.550423384E0
3.588227198E0,-1.070567322E1,-1.951872945E0,2.449866772E0
3.590714959E0,-1.064342403E1,-1.903988957E0,2.358887196E0
3.593202719E0,-1.056202126E1,-1.908777356E0,2.258330822E0
3.595690480E0,-1.049498272E1,-1.913565755E0,2.129043818E0
3.598178240E0,-1.043273354E1,-1.918354154E0,2.009333849E0
3.600666000E0,-1.037527275E1,-1.956661344E0,1.903988957E0
3.603153761E0,-1.034175396E1,-1.985391736E0,1.822586060E0
3.605641521E0,-1.031302357E1,-2.038064241E0,1.745971560E0
3.608129282E0,-1.028908157E1,-2.071583033E0,1.707664371E0
3.610617042E0,-1.024119759E1,-2.105101824E0,1.678933978E0
3.613104803E0,-1.019331360E1,-2.152985811E0,1.650203466E0
3.615592563E0,-1.015500641E1,-2.200869799E0,1.616684675E0
3.618080323E0,-1.011669922E1,-2.248754025E0,1.578377485E0
3.620568084E0,-1.007360363E1,-2.301426411E0,1.578377485E0
3.623055844E0,-1.004487324E1,-2.354098797E0,1.587954283E0
3.625543605E0,-1.001614285E1,-2.378040791E0,1.573589087E0
3.628031365E0,-1.001614285E1,-2.406771183E0,1.578377485E0
3.630519125E0,-1.000656605E1,-2.445078373E0,1.621473074E0
3.633006886E0,-1.000177765E1,-2.478597403E0,1.650203466E0
3.635494646E0,-9.977835655E0,-2.497750998E0,1.659780383E0
3.637982407E0,-9.982624054E0,-2.540846586E0,1.683722377E0
3.640470167E0,-9.977835655E0,-2.569576979E0,1.693299174E0
3.642957928E0,-9.953893661E0,-2.569576979E0,1.712452769E0
3.645445688E0,-9.944316864E0,-2.612672567E0,1.736394763E0
3.647933448E0,-9.906009674E0,-2.607884169E0,1.789067268E0
3.650421209E0,-9.886856079E0,-2.583942175E0,1.836951256E0
3.652908969E0,-9.886856079E0,-2.555211782E0,1.899200439E0
3.655396730E0,-9.886856079E0,-2.521692991E0,1.975814939E0
3.657884490E0,-9.886856079E0,-2.492962599E0,2.057217836E0
3.660372250E0,-9.920374870E0,-2.454655409E0,2.143409014E0
3.662860011E0,-9.949105263E0,-2.425924778E0,2.234388828E0
3.665347771E0,-9.968258858E0,-2.373252392E0,2.311003208E0
3.667835532E0,-9.992200851E0,-2.330156803E0,2.354098797E0
3.670323292E0,-1.002093124E1,-2.282272816E0,2.382829189E0
3.672811053E0,-1.003050804E1,-2.215235233E0,2.401982784E0
3.675298813E0,-1.003529644E1,-2.157774210E0,2.392405987E0
3.677786573E0,-1.001614285E1,-2.090736628E0,2.392405987E0
3.680274334E0,-9.992200851E0,-2.018910646E0,2.401982784E0
3.682762094E0,-9.968258858E0,-1.961449742E0,2.382829189E0
3.685249855E0,-9.944316864E0,-1.903988957E0,2.382829189E0
3.687737615E0,-9.925163269E0,-1.870470047E0,2.373252392E0
3.690225375E0,-9.925163269E0,-1.841739655E0,2.349310398E0
3.692713136E0,-9.944316864E0,-1.817797661E0,2.320580006E0
3.695200896E0,-9.963470459E0,-1.798644066E0,2.296638012E0
3.697688657E0,-9.968258858E0,-1.793855667E0,2.277484417E0
3.700176417E0,-9.987412453E0,-1.813009262E0,2.243965626E0
3.702664178E0,-9.996989250E0,-1.832162857E0,2.186504602E0
3.705151938E0,-9.982624054E0,-1.875258446E0,2.114678621E0
3.707639698E0,-9.973047256E0,-1.927930951E0,2.057217836E0
3.710127459E0,-9.949105263E0,-1.971026540E0,1.961449742E0
3.712615219E0,-9.882067680E0,-2.004545450E0,1.875258446E0
3.715102980E0,-9.815030098E0,-2.047641039E0,1.793855667E0
3.717590740E0,-9.724050522E0,-2.090736628E0,1.712452769E0
3.720078500E0,-9.661801338E0,-2.133832216E0,1.645415068E0
3.722566261E0,-9.585186958E0,-2.172139406E0,1.587954283E0
3.725054021E0,-9.527725220E0,-2.210446835E0,1.525704980E0
3.727541782E0,-9.489418030E0,-2.248754025E0,1.468244195E0
3.730029542E0,-9.422380447E0,-2.301426411E0,1.415571809E0
3.732517303E0,-9.384073257E0,-2.330156803E0,1.362899303E0
3.735005063E0,-9.312247276E0,-2.406771183E0,1.295861721E0
3.737492823E0,-9.254786491E0,-2.473809004E0,1.219247222E0
3.739980584E0,-9.216479301E0,-2.526481390E0,1.152209520E0
3.742468344E0,-9.182960510E0,-2.598307371E0,1.104325533E0
3.744956105E0,-9.182960510E0,-2.641402960E0,1.066018343E0
3.747443813E0,-9.206902504E0,-2.698863983E0,1.066018343E0
3.749931521E0,-9.259574890E0,-2.732382774E0,1.070806742E0
3.752419230E0,-9.345766068E0,-2.751536369E0,1.089960337E0
3.754906938E0,-9.393650055E0,-2.765901566E0,1.156997919E0
3.757394646E0,-9.455899239E0,-2.775478363E0,1.247977614E0
3.759882355E0,-9.527725220E0,-2.789843559E0,1.338957310E0
3.762370063E0,-9.599552155E0,-2.770689964E0,1.439513803E0
3.764857771E0,-9.652224541E0,-2.746747971E0,1.564012289E0
3.767345480E0,-9.714473724E0,-2.708440781E0,1.678933978E0
3.769833188E0,-9.762357712E0,-2.650979757E0,1.808220863E0
3.772320896E0,-9.815030098E0,-2.588730574E0,1.961449742E0
3.774808605E0,-9.901221275E0,-2.540846586E0,2.090736628E0
3.777296313E0,-9.996989250E0,-2.478597403E0,2.200869799E0
3.779784021E0,-1.008796883E1,-2.421136379E0,2.311003208E0
3.782271730E0,-1.019331360E1,-2.392405987E0,2.373252392E0
3.784759438E0,-1.030823517E1,-2.334945202E0,2.445078373E0
3.787247146E0,-1.040879154E1,-2.287061214E0,2.507327795E0
3.789734855E0,-1.048540592E1,-2.224812031E0,2.593518972E0
3.792222563E0,-1.051413631E1,-2.138620615E0,2.703652382E0
3.794710271E0,-1.051892471E1,-2.057217836E0,2.818573952E0
3.797197980E0,-1.052371311E1,-2.004545450E0,2.895188332E0
3.799685688E0,-1.052371311E1,-1.966238141E0,2.928707123E0
3.802173396E0,-1.052371311E1,-1.927930951E0,2.933495522E0
3.804661105E0,-1.052850151E1,-1.899200439E0,2.923918724E0
3.807148813E0,-1.053328991E1,-1.884835243E0,2.871246338E0
3.809636521E0,-1.048061752E1,-1.913565755E0,2.818573952E0
3.812124230E0,-1.041357994E1,-1.918354154E0,2.732382774E0
3.814611938E0,-1.034654236E1,-1.951872945E0,2.694075346E0
3.817099646E0,-1.027471638E1,-2.033275843E0,2.650979757E0
3.819587355E0,-1.025556278E1,-2.148197412E0,2.660556555E0
3.822075063E0,-1.011191082E1,-2.363675594E0,2.746747971E0
3.824562823E0,-9.834183693E0,-2.574365377E0,2.761113167E0
3.827050584E0,-9.690531731E0,-2.579153776E0,2.516904593E0
3.829538344E0,-9.657012939E0,-2.445078373E0,2.152985811E0
3.832026105E0,-9.666589737E0,-2.306214809E0,1.923142552E0
3.834513865E0,-9.623494148E0,-2.215235233E0,1.750759959E0
3.837001625E0,-9.570821762E0,-2.205658197E0,1.650203466E0
3.839489386E0,-9.532513618E0,-2.253542423E0,1.602319479E0
3.841977146E0,-9.546878815E0,-2.325368404E0,1.616684675E0
3.844464907E0,-9.585186958E0,-2.378040791E0,1.693299174E0
3.846952667E0,-9.661801338E0,-2.411559582E0,1.817797661E0
3.849440428E0,-9.752780914E0,-2.397194386E0,1.956661344E0
3.851928188E0,-9.838972092E0,-2.392405987E0,2.129043818E0
3.854415948E0,-9.906009674E0,-2.378040791E0,2.258330822E0
3.856903709E0,-9.973047256E0,-2.358887196E0,2.368463993E0
3.859391469E0,-9.996989250E0,-2.339733601E0,2.488174200E0
3.861879230E0,-1.002571964E1,-2.320580006E0,2.603095770E0
3.864366990E0,-1.006881523E1,-2.287061214E0,2.670133352E0
3.866854750E0,-1.012627602E1,-2.272696018E0,2.708440781E0
3.869342511E0,-1.018373680E1,-2.248754025E0,2.756324768E0
3.871830271E0,-1.023640919E1,-2.234388828E0,2.765901566E0
3.874318032E0,-1.026992798E1,-2.234388828E0,2.785055161E0
3.876805792E0,-1.025077438E1,-2.200869799E0,2.761113167E0
3.879293553E0,-1.020289040E1,-2.186504602E0,2.761113167E0
3.881781313E0,-1.013585281E1,-2.172139406E0,2.756324768E0
3.884269073E0,-1.004966164E1,-2.167351007E0,2.722805977E0
3.886756834E0,-9.949105263E0,-2.157774210E0,2.689286947E0
3.889244594E0,-9.877279282E0,-2.148197412E0,2.665344954E0
3.891732355E0,-9.815030098E0,-2.152985811E0,2.641402960E0
3.894220115E0,-9.762357712E0,-2.143409014E0,2.655768156E0
3.896707875E0,-9.728838921E0,-2.152985811E0,2.670133352E0
3.899195636E0,-9.719262123E0,-2.157774210E0,2.665344954E0
3.901683396E0,-9.714473724E0,-2.172139406E0,2.660556555E0
3.904171157E0,-9.709685326E0,-2.205658197E0,2.641402960E0
3.906658917E0,-9.700108528E0,-2.243965626E0,2.627037764E0
3.909146678E0,-9.680954933E0,-2.277484417E0,2.593518972E0
3.911634438E0,-9.676166534E0,-2.330156803E0,2.574365377E0
3.914122198E0,-9.671378136E0,-2.354098797E0,2.540846586E0
3.916609959E0,-9.657012939E0,-2.363675594E0,2.526481390E0
3.919097719E0,-9.680954933E0,-2.363675594E0,2.521692991E0
3.921585480E0,-9.685743332E0,-2.354098797E0,2.521692991E0
3.924073240E0,-9.714473724E0,-2.330156803E0,2.521692991E0
3.926561000E0,-9.728838921E0,-2.311003208E0,2.512116194E0
3.929048761E0,-9.738415718E0,-2.296638012E0,2.512116194E0
3.931536521E0,-9.724050522E0,-2.296638012E0,2.497750998E0
3.934024282E0,-9.714473724E0,-2.272696018E0,2.488174200E0
3.936512042E0,-9.700108528E0,-2.263119221E0,2.488174200E0
3.938999803E0,-9.680954933E0,-2.243965626E0,2.483385801E0
3.941487563E0,-9.666589737E0,-2.243965626E0,2.488174200E0
3.943975323E0,-9.633070946E0,-2.234388828E0,2.464232206E0
3.946463084E0,-9.589975357E0,-2.248754025E0,2.454655409E0
3.948950844E0,-9.513360023E0,-2.263119221E0,2.459443808E0
3.951438605E0,-9.455899239E0,-2.272696018E0,2.459443808E0
3.953926365E0,-9.408015251E0,-2.287061214E0,2.449866772E0
3.956414125E0,-9.340977669E0,-2.296638012E0,2.445078373E0
3.958901886E0,-9.293093681E0,-2.296638012E0,2.445078373E0
3.961389646E0,-9.249998093E0,-2.291849613E0,2.464232206E0
3.963877407E0,-9.211690903E0,-2.267907619E0,2.483385801E0
3.966365167E0,-9.206902504E0,-2.248754025E0,2.516904593E0
3.968852928E0,-9.230844498E0,-2.210446835E0,2.569576979E0
3.971340688E0,-9.259574890E0,-2.186504602E0,2.593518972E0
3.973828448E0,-9.307458878E0,-2.152985811E0,2.641402960E0
3.976316209E0,-9.364919662E0,-2.119467020E0,2.684498549E0
3.978803969E0,-9.412803650E0,-2.119467020E0,2.722805977E0
3.981291730E0,-9.484629631E0,-2.114678621E0,2.732382774E0
3.983779490E0,-9.566033363E0,-2.119467020E0,2.741959572E0
3.986267250E0,-9.633070946E0,-2.138620615E0,2.732382774E0
3.988755011E0,-9.695320129E0,-2.119467020E0,2.718017578E0
3.991242771E0,-9.771934509E0,-2.119467020E0,2.703652382E0
3.993730532E0,-9.819818497E0,-2.076371431E0,2.679710150E0
3.996218292E0,-9.848548889E0,-2.023699045E0,2.646191359E0
3.998706053E0,-9.901221275E0,-1.980603337E0,2.603095770E0
4.001193813E0,-9.934740067E0,-1.923142552E0,2.550423384E0
4.003681573E0,-9.958682060E0,-1.875258446E0,2.502539396E0
4.006169334E0,-9.987412453E0,-1.841739655E0,2.473809004E0
4.008657094E0,-1.003050804E1,-1.813009262E0,2.445078373E0
4.011144855E0,-1.005445004E1,-1.784278870E0,2.406771183E0
4.013632615E0,-1.007839203E1,-1.765125155E0,2.320580006E0
4.016120375E0,-1.007839203E1,-1.760336757E0,2.239177227E0
4.018608136E0,-1.004008484E1,-1.745971560E0,2.196081400E0
4.021095896E0,-1.000656605E1,-1.712452769E0,2.138620615E0
4.023583657E0,-9.934740067E0,-1.688510776E0,2.100313425E0
4.026071417E0,-9.882067680E0,-1.654991984E0,2.057217836E0
4.028559178E0,-9.829395294E0,-1.631049871E0,2.028487444E0
4.031046938E0,-9.800664902E0,-1.621473074E0,2.018910646E0
4.033534698E0,-9.752780914E0,-1.583165884E0,1.999756932E0
4.036022459E0,-9.719262123E0,-1.568800688E0,1.994968534E0
4.038510219E0,-9.700108528E0,-1.578377485E0,2.009333849E0
4.040997980E0,-9.690531731E0,-1.602319479E0,2.009333849E0
4.043485740E0,-9.695320129E0,-1.611896276E0,2.014122248E0
4.045973500E0,-9.714473724E0,-1.621473074E0,2.038064241E0
4.048461261E0,-9.743204117E0,-1.650203466E0,2.076371431E0
4.050949021E0,-9.728838921E0,-1.640626669E0,2.133832216E0
4.053436782E0,-9.695320129E0,-1.678933978E0,2.191293001E0
4.055924542E0,-9.680954933E0,-1.707664371E0,2.234388828E0
4.058412303E0,-9.613917351E0,-1.736394763E0,2.272696018E0
4.060900063E0,-9.551667213E0,-1.779490471E0,2.325368404E0
4.063387823E0,-9.489418030E0,-1.851316452E0,2.354098797E0
4.065875584E0,-9.427168846E0,-1.918354154E0,2.392405987E0
4.068363344E0,-9.360131264E0,-1.975814939E0,2.416347980E0
4.070851105E0,-9.317035675E0,-2.033275843E0,2.464232206E0
4.073338865E0,-9.245209694E0,-2.090736628E0,2.512116194E0
4.075826625E0,-9.216479301E0,-2.143409014E0,2.550423384E0
4.078314386E0,-9.178172112E0,-2.172139406E0,2.603095770E0
4.080802146E0,-9.178172112E0,-2.210446835E0,2.646191359E0
4.083289907E0,-9.202114105E0,-2.234388828E0,2.684498549E0
4.085777667E0,-9.226056099E0,-2.239177227E0,2.698863983E0
4.088265428E0,-9.269151688E0,-2.243965626E0,2.727594376E0
4.090753188E0,-9.317035675E0,-2.239177227E0,2.746747971E0
4.093240948E0,-9.355342865E0,-2.210446835E0,2.761113167E0
4.095728709E0,-9.408015251E0,-2.157774210E0,2.770689964E0
4.098216469E0,-9.470264435E0,-2.129043818E0,2.765901566E0
4.100704178E0,-9.527725220E0,-2.090736628E0,2.737171173E0
4.103191886E0,-9.551667213E0,-2.042852640E0,2.698863983E0
4.105679594E0,-9.613917351E0,-1.985391736E0,2.660556555E0
4.108167303E0,-9.642647743E0,-1.966238141E0,2.612672567E0
4.110655011E0,-9.685743332E0,-1.942296147E0,2.531269789E0
4.113142719E0,-9.704896927E0,-1.913565755E0,2.459443808E0
4.115630428E0,-9.724050522E0,-1.908777356E0,2.392405987E0
4.118118136E0,-9.719262123E0,-1.932719350E0,2.339733601E0
4.120605844E0,-9.685743332E0,-1.975814939E0,2.272696018E0
4.123093553E0,-9.628282547E0,-2.018910646E0,2.215235233E0
4.125581261E0,-9.580398560E0,-2.109890223E0,2.172139406E0
4.128068969E0,-9.537302017E0,-2.172139406E0,2.109890223E0
4.130556678E0,-9.498994827E0,-2.263119221E0,2.042852640E0
4.133044386E0,-9.446322441E0,-2.339733601E0,1.990180135E0
4.135532094E0,-9.427168846E0,-2.406771183E0,1.947084546E0
4.138019803E0,-9.441534042E0,-2.478597403E0,1.927930951E0
4.140507511E0,-9.436745644E0,-2.550423384E0,1.927930951E0
4.142995219E0,-9.455899239E0,-2.593518972E0,1.956661344E0
4.145482928E0,-9.465476036E0,-2.622249365E0,1.999756932E0
4.147970636E0,-9.489418030E0,-2.650979757E0,2.042852640E0
4.150458344E0,-9.522936821E0,-2.670133352E0,2.095525026E0
4.152946053E0,-9.537302017E0,-2.689286947E0,2.129043818E0
4.155433761E0,-9.527725220E0,-2.674921751E0,2.181716204E0
4.157921469E0,-9.542090416E0,-2.674921751E0,2.272696018E0
4.160409178E0,-9.532513618E0,-2.631826162E0,2.378040791E0
4.162896886E0,-9.551667213E0,-2.579153776E0,2.473809004E0
4.165384594E0,-9.604340553E0,-2.521692991E0,2.569576979E0
4.167872303E0,-9.657012939E0,-2.478597403E0,2.650979757E0
4.170360011E0,-9.743204117E0,-2.445078373E0,2.732382774E0
4.172847719E0,-9.834183693E0,-2.421136379E0,2.808997154E0
4.175335428E0,-9.925163269E0,-2.401982784E0,2.876034737E0
4.177823136E0,-1.000656605E1,-2.378040791E0,2.919130325E0
4.180310896E0,-1.011191082E1,-2.358887196E0,2.976591349E0
4.182798657E0,-1.026513958E1,-2.358887196E0,2.995744944E0
4.185286417E0,-1.041836834E1,-2.354098797E0,3.014898539E0
4.187774178E0,-1.061469364E1,-2.287061214E0,3.081936121E0
4.190261938E0,-1.077749920E1,-2.196081400E0,3.216011524E0
4.192749698E0,-1.092593956E1,-2.081159830E0,3.302202702E0
4.195237459E0,-1.106959152E1,-1.956661344E0,3.340509892E0
4.197725219E0,-1.121803188E1,-1.851316452E0,3.330933094E0
4.200212980E0,-1.133295345E1,-1.755548358E0,3.268683910E0
4.202700740E0,-1.141914463E1,-1.698087573E0,3.182492495E0
4.205188500E0,-1.151491261E1,-1.650203466E0,3.110666513E0
4.207676261E0,-1.153406715E1,-1.616684675E0,3.010110140E0
4.210164021E0,-1.154843235E1,-1.616684675E0,2.909553528E0
4.212651782E0,-1.156279755E1,-1.621473074E0,2.808997154E0
4.215139542E0,-1.159631634E1,-1.631049871E0,2.684498549E0
4.217627303E0,-1.162504673E1,-1.626261473E0,2.593518972E0
4.220115063E0,-1.167293072E1,-1.621473074E0,2.507327795E0
4.222602823E0,-1.174475670E1,-1.669357181E0,2.440289974E0
4.225090584E0,-1.181658268E1,-1.717241168E0,2.392405987E0
4.227578344E0,-1.188840866E1,-1.793855667E0,2.325368404E0
4.230066105E0,-1.190756226E1,-1.875258446E0,2.301426411E0
4.232553865E0,-1.186446667E1,-1.951872945E0,2.224812031E0
4.235041625E0,-1.180221748E1,-2.014122248E0,2.124255419E0
4.237529386E0,-1.170166111E1,-2.071583033E0,2.033275843E0
4.240017146E0,-1.163462353E1,-2.114678621E0,1.985391736E0
4.242504907E0,-1.159631634E1,-2.172139406E0,1.951872945E0
4.244992667E0,-1.156279755E1,-2.239177227E0,1.913565755E0
4.247480428E0,-1.154364395E1,-2.296638012E0,1.884835243E0
4.249968188E0,-1.155322075E1,-2.354098797E0,1.865681648E0
4.252455948E0,-1.156758595E1,-2.397194386E0,1.884835243E0
4.254943709E0,-1.157716274E1,-2.421136379E0,1.913565755E0
4.257431469E0,-1.157237434E1,-2.473809004E0,1.985391736E0
4.259919230E0,-1.158673954E1,-2.531269789E0,2.028487444E0
4.262406990E0,-1.159152794E1,-2.569576979E0,2.062006235E0
4.264894750E0,-1.157237434E1,-2.627037764E0,2.076371431E0
4.267382511E0,-1.154843235E1,-2.655768156E0,2.076371431E0
4.269870271E0,-1.155322075E1,-2.660556555E0,2.100313425E0
4.272358032E0,-1.158195114E1,-2.665344954E0,2.133832216E0
4.274845792E0,-1.161068153E1,-2.670133352E0,2.167351007E0
4.277333553E0,-1.167293072E1,-2.670133352E0,2.196081400E0
4.279821313E0,-1.174954510E1,-2.674921751E0,2.191293001E0
4.282309073E0,-1.180700588E1,-2.679710150E0,2.220023632E0
4.284796834E0,-1.186925507E1,-2.689286947E0,2.243965626E0
4.287284594E0,-1.194108105E1,-2.713229179E0,2.306214809E0
4.289772355E0,-1.198896503E1,-2.708440781E0,2.349310398E0
4.292260115E0,-1.207036781E1,-2.684498549E0,2.378040791E0
4.294747875E0,-1.217571259E1,-2.631826162E0,2.430713177E0
4.297235636E0,-1.227626896E1,-2.574365377E0,2.469020605E0
4.299723396E0,-1.235767174E1,-2.478597403E0,2.512116194E0
4.302211157E0,-1.243428612E1,-2.387617588E0,2.555211782E0
4.304698917E0,-1.250132370E1,-2.306214809E0,2.579153776E0
4.307186678E0,-1.257793903E1,-2.248754025E0,2.569576979E0
4.309674438E0,-1.269286060E1,-2.181716204E0,2.564788580E0
4.312162198E0,-1.277905178E1,-2.114678621E0,2.555211782E0
4.314649959E0,-1.283651257E1,-2.042852640E0,2.531269789E0
4.317137719E0,-1.281257057E1,-2.004545450E0,2.512116194E0
4.319625480E0,-1.275989819E1,-1.990180135E0,2.497750998E0
4.322113240E0,-1.267370701E1,-2.028487444E0,2.440289974E0
4.324601000E0,-1.253484344E1,-2.090736628E0,2.411559582E0
4.327088761E0,-1.240555573E1,-2.172139406E0,2.387617588E0
4.329576521E0,-1.229063416E1,-2.258330822E0,2.368463993E0
4.332064282E0,-1.220444298E1,-2.368463993E0,2.401982784E0
4.334552042E0,-1.211346340E1,-2.492962599E0,2.464232206E0
4.337039803E0,-1.204163742E1,-2.598307371E0,2.516904593E0
4.339527563E0,-1.197938824E1,-2.718017578E0,2.550423384E0
4.342015323E0,-1.191235065E1,-2.823362350E0,2.593518972E0
4.344503084E0,-1.186446667E1,-2.899976730E0,2.660556555E0
4.346990844E0,-1.180221748E1,-2.967014551E0,2.708440781E0
4.349478605E0,-1.177827549E1,-3.048417330E0,2.751536369E0
4.351966365E0,-1.175433350E1,-3.110666513E0,2.813785553E0
4.354454125E0,-1.172560310E1,-3.148973703E0,2.890399933E0
4.356941886E0,-1.173517990E1,-3.192069530E0,2.967014551E0
4.359429646E0,-1.174954510E1,-3.244741917E0,3.048417330E0
4.361917407E0,-1.176391029E1,-3.278260708E0,3.125031710E0
4.364405167E0,-1.178306389E1,-3.311779499E0,3.192069530E0
4.366892928E0,-1.179742908E1,-3.354875088E0,3.216011524E0
4.369380688E0,-1.179742908E1,-3.393182278E0,3.239953518E0
4.371868448E0,-1.176391029E1,-3.412335873E0,3.211223125E0
4.374356209E0,-1.173039150E1,-3.412335873E0,3.182492495E0
4.376843969E0,-1.170166111E1,-3.421912670E0,3.134608507E0
4.379331730E0,-1.165377712E1,-3.421912670E0,3.081936121E0
4.381819490E0,-1.161546993E1,-3.431489468E0,3.014898539E0
4.384307250E0,-1.159152794E1,-3.417124271E0,2.971802950E0
4.386795011E0,-1.157716274E1,-3.393182278E0,2.909553528E0
4.389282771E0,-1.162025833E1,-3.364451885E0,2.861669540E0
4.391770532E0,-1.169208431E1,-3.335721493E0,2.813785553E0
4.394258292E0,-1.179264069E1,-3.259107113E0,2.746747971E0
4.396746053E0,-1.185967827E1,-3.182492495E0,2.660556555E0
4.399233813E0,-1.189319706E1,-3.129820108E0,2.574365377E0
4.401721573E0,-1.190277386E1,-3.053205729E0,2.483385801E0
4.404209334E0,-1.188362026E1,-2.986168146E0,2.354098797E0
4.406697094E0,-1.189319706E1,-2.943072557E0,2.258330822E0
4.409184855E0,-1.189798546E1,-2.904765129E0,2.157774210E0
4.411672615E0,-1.187883186E1,-2.890399933E0,2.100313425E0
4.414160375E0,-1.188840866E1,-2.880823135E0,2.114678621E0
4.416648136E0,-1.188840866E1,-2.866457939E0,2.138620615E0
4.419135896E0,-1.188840866E1,-2.847304344E0,2.196081400E0
4.421623657E0,-1.183573627E1,-2.847304344E0,2.243965626E0
4.424111417E0,-1.173039150E1,-2.852092743E0,2.306214809E0
4.426599178E0,-1.160110474E1,-2.871246338E0,2.368463993E0
4.429086938E0,-1.149575901E1,-2.909553528E0,2.430713177E0
4.431574698E0,-1.137126064E1,-2.947860956E0,2.516904593E0
4.434062459E0,-1.126112747E1,-2.995744944E0,2.603095770E0
4.436550219E0,-1.118451309E1,-3.034052134E0,2.670133352E0
4.439037980E0,-1.112705231E1,-3.091512918E0,2.746747971E0
4.441525740E0,-1.107437992E1,-3.134608507E0,2.837727547E0
4.444013500E0,-1.104564953E1,-3.172915697E0,2.909553528E0
4.446501261E0,-1.103607273E1,-3.182492495E0,2.967014551E0
4.448989021E0,-1.105043793E1,-3.196857929E0,3.019686937E0
4.451476730E0,-1.106959152E1,-3.201646328E0,3.053205729E0
4.453964438E0,-1.109353352E1,-3.192069530E0,3.091512918E0
4.456452146E0,-1.109832191E1,-3.187281132E0,3.081936121E0
4.458939855E0,-1.109832191E1,-3.172915697E0,3.077147722E0
4.461427563E0,-1.110311031E1,-3.168127298E0,3.081936121E0
4.463915271E0,-1.107916832E1,-3.177704096E0,3.057994127E0
4.466402980E0,-1.109832191E1,-3.192069530E0,3.024475336E0
4.468890688E0,-1.109832191E1,-3.225588322E0,3.000533342E0
4.471378396E0,-1.112226391E1,-3.244741917E0,2.967014551E0
4.473866105E0,-1.115099430E1,-3.244741917E0,2.943072557E0
4.476353813E0,-1.118451309E1,-3.196857929E0,2.943072557E0
4.478841521E0,-1.122282028E1,-3.139396906E0,2.919130325E0
4.481329230E0,-1.127549267E1,-3.067570925E0,2.895188332E0
4.483816938E0,-1.133295345E1,-3.005321741E0,2.914341927E0
4.486304646E0,-1.138083744E1,-2.947860956E0,2.909553528E0
4.488792355E0,-1.143350983E1,-2.890399933E0,2.923918724E0
4.491280063E0,-1.144308662E1,-2.828150749E0,2.938283920E0
4.493767771E0,-1.141435623E1,-2.775478363E0,2.914341927E0
4.496255480E0,-1.137126064E1,-2.722805977E0,2.914341927E0
4.498743188E0,-1.130422306E1,-2.684498549E0,2.880823135E0
4.501230896E0,-1.120366669E1,-2.674921751E0,2.828150749E0
4.503718605E0,-1.111268711E1,-2.689286947E0,2.799420357E0
4.506206313E0,-1.102649593E1,-2.727594376E0,2.765901566E0
4.508694021E0,-1.094030476E1,-2.775478363E0,2.775478363E0
4.511181730E0,-1.086369038E1,-2.842515945E0,2.804208755E0
4.513669438E0,-1.076792240E1,-2.914341927E0,2.842515945E0
4.516157146E0,-1.068173122E1,-2.947860956E0,2.923918724E0
4.518644855E0,-1.060032845E1,-2.981379747E0,2.990956545E0
4.521132563E0,-1.051413631E1,-2.995744944E0,3.057994127E0
4.523620271E0,-1.045188713E1,-3.010110140E0,3.105878115E0
4.526107980E0,-1.040879154E1,-2.995744944E0,3.182492495E0
4.528595688E0,-1.038006115E1,-2.990956545E0,3.254318714E0
4.531083448E0,-1.039921474E1,-2.976591349E0,3.302202702E0
4.533571209E0,-1.038484955E1,-2.933495522E0,3.369240284E0
4.536058969E0,-1.040879154E1,-2.885611534E0,3.431489468E0
4.538546730E0,-1.048061752E1,-2.828150749E0,3.498527288E0
4.541034490E0,-1.055244446E1,-2.727594376E0,3.575141668E0
4.543522250E0,-1.063384724E1,-2.622249365E0,3.608660460E0
4.546010011E0,-1.067694283E1,-2.512116194E0,3.579930067E0
4.548497771E0,-1.073440361E1,-2.430713177E0,3.512892485E0
4.550985532E0,-1.074398041E1,-2.363675594E0,3.374028683E0
4.553473292E0,-1.071525002E1,-2.339733601E0,3.235165119E0
4.555961053E0,-1.064821243E1,-2.334945202E0,3.057994127E0
4.558448813E0,-1.058596325E1,-2.334945202E0,2.890399933E0
4.560936573E0,-1.050455952E1,-2.349310398E0,2.741959572E0
4.563424334E0,-1.048061752E1,-2.387617588E0,2.622249365E0
4.565912094E0,-1.045188713E1,-2.425924778E0,2.540846586E0
4.568399855E0,-1.042315674E1,-2.445078373E0,2.512116194E0
4.570887615E0,-1.043273354E1,-2.445078373E0,2.502539396E0
4.573375375E0,-1.042315674E1,-2.430713177E0,2.536058187E0
4.575863136E0,-1.040879154E1,-2.378040791E0,2.545634985E0
4.578350896E0,-1.037048435E1,-2.349310398E0,2.536058187E0
4.580838657E0,-1.033217716E1,-2.315791607E0,2.502539396E0
4.583326417E0,-1.028429317E1,-2.301426411E0,2.469020605E0
4.585814178E0,-1.024119759E1,-2.267907619E0,2.440289974E0
4.588301938E0,-1.017416000E1,-2.248754025E0,2.416347980E0
4.590789698E0,-1.010712242E1,-2.234388828E0,2.425924778E0
4.593277459E0,-1.003529644E1,-2.220023632E0,2.449866772E0
4.595765219E0,-9.963470459E0,-2.205658197E0,2.464232206E0
4.598252980E0,-9.901221275E0,-2.191293001E0,2.512116194E0
4.600740740E0,-9.848548889E0,-2.181716204E0,2.574365377E0
4.603228500E0,-9.815030098E0,-2.148197412E0,2.650979757E0
4.605716261E0,-9.776722908E0,-2.114678621E0,2.713229179E0
4.608204021E0,-9.738415718E0,-2.095525026E0,2.794631958E0
4.610691782E0,-9.700108528E0,-2.066794634E0,2.861669540E0
4.613179542E0,-9.652224541E0,-2.038064241E0,2.919130325E0
4.615667303E0,-9.637859344E0,-2.018910646E0,2.995744944E0
4.618155063E0,-9.594763756E0,-1.971026540E0,3.062782526E0
4.620642823E0,-9.561244011E0,-1.951872945E0,3.139396906E0
4.623130584E0,-9.551667213E0,-1.942296147E0,3.168127298E0
4.625618344E0,-9.518148422E0,-1.913565755E0,3.182492495E0
4.628106105E0,-9.518148422E0,-1.865681648E0,3.201646328E0
4.630593865E0,-9.494206429E0,-1.822586060E0,3.211223125E0
4.633081625E0,-9.494206429E0,-1.755548358E0,3.211223125E0
4.635569386E0,-9.513360023E0,-1.717241168E0,3.177704096E0
4.638057146E0,-9.532513618E0,-1.674145579E0,3.153762102E0
4.640544907E0,-9.570821762E0,-1.611896276E0,3.110666513E0
4.643032667E0,-9.604340553E0,-1.564012289E0,3.057994127E0
4.645520428E0,-9.623494148E0,-1.544858694E0,2.986168146E0
4.648008188E0,-9.633070946E0,-1.525704980E0,2.871246338E0
4.650495948E0,-9.633070946E0,-1.496974587E0,2.761113167E0
4.652983709E0,-9.589975357E0,-1.449090600E0,2.655768156E0
4.655471469E0,-9.542090416E0,-1.439513803E0,2.516904593E0
4.657959230E0,-9.494206429E0,-1.439513803E0,2.382829189E0
4.660446990E0,-9.431957245E0,-1.453878999E0,2.243965626E0
4.662934750E0,-9.384073257E0,-1.453878999E0,2.119467020E0
4.665422511E0,-9.336189270E0,-1.458667397E0,1.966238141E0
4.667910271E0,-9.302670479E0,-1.463455796E0,1.846528053E0
4.670398032E0,-9.317035675E0,-1.487397790E0,1.765125155E0
4.672885792E0,-9.340977669E0,-1.496974587E0,1.683722377E0
4.675373553E0,-9.340977669E0,-1.453878999E0,1.631049871E0
4.677861313E0,-9.336189270E0,-1.420360208E0,1.592742682E0
4.680349073E0,-9.297882080E0,-1.405994892E0,1.578377485E0
4.682836834E0,-9.230844498E0,-1.405994892E0,1.554435492E0
4.685324594E0,-9.130288124E0,-1.453878999E0,1.492186189E0
4.687812355E0,-8.986636162E0,-1.520916581E0,1.444302201E0
4.690300115E0,-8.823830605E0,-1.597531080E0,1.410783410E0
4.692787875E0,-8.656236649E0,-1.693299174E0,1.396418095E0
4.695275636E0,-8.488641739E0,-1.755548358E0,1.372476101E0
4.697763396E0,-8.349778175E0,-1.827374458E0,1.353322506E0
4.700251157E0,-8.225279808E0,-1.884835243E0,1.358110905E0
4.702738917E0,-8.129511833E0,-1.951872945E0,1.353322506E0
4.705226678E0,-8.062474251E0,-1.980603337E0,1.377264500E0
4.707714438E0,-8.000225067E0,-1.994968534E0,1.410783410E0
4.710202198E0,-7.957129478E0,-1.980603337E0,1.463455796E0
4.712689959E0,-7.933187485E0,-1.971026540E0,1.530493379E0
4.715177719E0,-7.933187485E0,-1.923142552E0,1.602319479E0
4.717665480E0,-7.942764282E0,-1.894412041E0,1.664568782E0
4.720153240E0,-7.966706276E0,-1.860893250E0,1.736394763E0
4.722641000E0,-8.000225067E0,-1.832162857E0,1.798644066E0
4.725128761E0,-8.043320656E0,-1.779490471E0,1.851316452E0
4.727616521E0,-8.072051048E0,-1.722029567E0,1.865681648E0
4.730104282E0,-8.115146637E0,-1.664568782E0,1.860893250E0
4.732592042E0,-8.172607422E0,-1.621473074E0,1.884835243E0
4.735079803E0,-8.239645004E0,-1.559223890E0,1.899200439E0
4.737567563E0,-8.277952194E0,-1.482609391E0,1.903988957E0
4.740055323E0,-8.349778175E0,-1.401206493E0,1.913565755E0
4.742543084E0,-8.407238960E0,-1.310226917E0,1.908777356E0
4.745030844E0,-8.493430138E0,-1.180940032E0,1.875258446E0
4.747518605E0,-8.579621315E0,-1.051653147E0,1.841739655E0
4.750006365E0,-8.670601845E0,-9.415197968E-1,1.789067268E0
4.752494125E0,-8.742427826E0,-8.122329116E-1,1.678933978E0
4.754981886E0,-8.771158218E0,-7.164648771E-1,1.568800688E0
4.757469646E0,-8.799888611E0,-6.159083843E-1,1.487397790E0
4.759957407E0,-8.833407402E0,-5.297171474E-1,1.420360208E0
4.762445167E0,-8.838195801E0,-4.531026781E-1,1.334168911E0
4.764932928E0,-8.799888611E0,-3.956418335E-1,1.252766013E0
4.767420688E0,-8.756793022E0,-3.573346138E-1,1.200093627E0
4.769908448E0,-8.713697433E0,-3.142389655E-1,1.118690729E0
4.772396209E0,-8.651448250E0,-3.046621680E-1,1.022922635E0
4.774883969E0,-8.579621315E0,-3.429693878E-1,9.367313981E-1
4.777371730E0,-8.488641739E0,-4.243722558E-1,8.505401611E-1
4.779859490E0,-8.359354973E0,-5.249287486E-1,7.451952696E-1
4.782347250E0,-8.215703011E0,-6.254851818E-1,6.877344251E-1
4.784835011E0,-8.062474251E0,-7.116764784E-1,6.829460263E-1
4.787322771E0,-7.909245491E0,-8.218097091E-1,7.308300734E-1
4.789810480E0,-7.732074261E0,-9.510966539E-1,7.930793166E-1
4.792298188E0,-7.578845501E0,-1.066018343E0,8.265981078E-1
4.794785896E0,-7.463923931E0,-1.171363235E0,8.840589523E-1
4.797273605E0,-7.349001884E0,-1.252766013E0,9.032126069E-1
4.799761313E0,-7.277175903E0,-1.315015316E0,9.080010056E-1
4.802249021E0,-7.190984726E0,-1.362899303E0,9.175778031E-1
4.804736730E0,-7.147889137E0,-1.372476101E0,8.792705536E-1
4.807224438E0,-7.171831131E0,-1.391629696E0,8.265981078E-1
4.809712146E0,-7.200561523E0,-1.429937005E0,7.930793166E-1
4.812199855E0,-7.258022308E0,-1.458667397E0,7.787141204E-1
4.814687563E0,-7.339425087E0,-1.439513803E0,8.074445128E-1
4.817175271E0,-7.454347134E0,-1.396418095E0,8.361749649E-1
4.819662980E0,-7.588422298E0,-1.315015316E0,8.409633636E-1
4.822150688E0,-7.751227856E0,-1.214458823E0,8.457517624E-1
4.824638396E0,-7.899668694E0,-1.113902330E0,8.122329116E-1
4.827126105E0,-8.024167061E0,-9.894038439E-1,7.547720671E-1
4.829613813E0,-8.124723434E0,-8.313865662E-1,6.542156339E-1
4.832101521E0,-8.191761017E0,-6.685808301E-1,5.249287486E-1
4.834589230E0,-8.234856606E0,-5.153518915E-1,3.477577865E-1
4.837076938E0,-8.244433403E0,-3.812766075E-1,1.322796494E-1
4.839564646E0,-8.234856606E0,-2.711433470E-1,-7.841010392E-2
4.842052355E0,-8.220491409E0,-1.705868691E-1,-2.843114436E-1
4.844540063E0,-8.182184219E0,-9.876082093E-2,-4.614823759E-1
4.847027771E0,-8.115146637E0,-2.693476900E-2,-5.907692909E-1
4.849515480E0,-8.043320656E0,4.010287672E-2,-6.673837304E-1
4.852003188E0,-7.995436668E0,4.489128292E-2,-6.482301354E-1
4.854490896E0,-7.947552681E0,5.446808785E-2,-5.476736426E-1
4.856978605E0,-7.952341080E0,2.094926499E-2,-3.752911091E-1
4.859466313E0,-7.952341080E0,-4.608838260E-2,-1.741781682E-1
4.861954021E0,-7.909245491E0,-1.370680481E-1,4.129998013E-2
4.864441730E0,-7.832630634E0,-2.615665495E-1,2.711433470E-1
4.866929438E0,-7.736862659E0,-4.004302323E-1,4.674678743E-1
4.869417198E0,-7.621941090E0,-5.488707423E-1,6.781576276E-1
4.871904959E0,-7.487865925E0,-6.877344251E-1,8.601169586E-1
4.874392719E0,-7.349001884E0,-8.409633636E-1,1.013345838E0
4.876880480E0,-7.200561523E0,-1.008557439E0,1.161786318E0
4.879368240E0,-7.095216751E0,-1.166574836E0,1.262342811E0
4.881856000E0,-6.999448776E0,-1.315015316E0,1.377264500E0
4.884343761E0,-6.956353188E0,-1.449090600E0,1.492186189E0
4.886831521E0,-6.913257599E0,-1.530493379E0,1.611896276E0
4.889319282E0,-6.884527206E0,-1.611896276E0,1.726817966E0
4.891807042E0,-6.841431141E0,-1.626261473E0,1.856104851E0
4.894294803E0,-6.750451565E0,-1.635838270E0,1.932719350E0
4.896782563E0,-6.669048786E0,-1.621473074E0,2.004545450E0
4.899270323E0,-6.587646008E0,-1.573589087E0,2.042852640E0
4.901758084E0,-6.515820026E0,-1.530493379E0,2.042852640E0
4.904245844E0,-6.453570843E0,-1.487397790E0,2.057217836E0
4.906733605E0,-6.420052052E0,-1.439513803E0,2.033275843E0
4.909221365E0,-6.443994045E0,-1.410783410E0,1.994968534E0
4.911709125E0,-6.467936039E0,-1.377264500E0,1.956661344E0
4.914196886E0,-6.496666431E0,-1.319803715E0,1.889623642E0
4.916684646E0,-6.539762020E0,-1.267131209E0,1.822586060E0
4.919172407E0,-6.573280811E0,-1.204882026E0,1.731606364E0
4.921660167E0,-6.592434406E0,-1.118690729E0,1.654991984E0
4.924147928E0,-6.635529995E0,-1.013345838E0,1.559223890E0
4.926635688E0,-6.664260387E0,-9.463081956E-1,1.425148606E0
4.929123448E0,-6.697779179E0,-8.792705536E-1,1.286284804E0
4.931611209E0,-6.764816761E0,-8.122329116E-1,1.185728431E0
4.934098969E0,-6.836642742E0,-7.739257216E-1,1.075595140E0
4.936586730E0,-6.932411194E0,-7.547720671E-1,9.894038439E-1
4.939074490E0,-7.004237175E0,-7.451952696E-1,9.127894044E-1
4.941562250E0,-7.076063156E0,-7.451952696E-1,8.649053574E-1
4.944050011E0,-7.143100739E0,-7.164648771E-1,8.361749649E-1
4.946537771E0,-7.210138321E0,-6.781576276E-1,8.457517624E-1
4.949025532E0,-7.258022308E0,-6.302735806E-1,8.792705536E-1
4.951513292E0,-7.305906296E0,-6.111199856E-1,9.367313981E-1
4.954001053E0,-7.334636688E0,-5.680243373E-1,1.008557439E0
4.956488813E0,-7.339425087E0,-5.201402903E-1,1.051653147E0
4.958976573E0,-7.305906296E0,-5.105634928E-1,1.080383539E0
4.961464334E0,-7.277175903E0,-5.009866953E-1,1.094748735E0
4.963952094E0,-7.277175903E0,-5.153518915E-1,1.171363235E0
4.966439855E0,-7.281964302E0,-5.488707423E-1,1.291073322E0
4.968927615E0,-7.344213486E0,-5.871779919E-1,1.444302201E0
4.971415375E0,-7.439981937E0,-6.542156339E-1,1.626261473E0
4.973903136E0,-7.492654324E0,-7.451952696E-1,1.774701953E0
4.976390896E0,-7.535749912E0,-8.505401611E-1,1.856104851E0
4.978878657E0,-7.516596317E0,-9.606734514E-1,1.903988957E0
4.981366417E0,-7.444770336E0,-1.085171938E0,1.899200439E0
4.983854178E0,-7.329848289E0,-1.190516829E0,1.870470047E0
4.986341938E0,-7.171831131E0,-1.315015316E0,1.827374458E0
4.988829698E0,-7.009025574E0,-1.429937005E0,1.769913554E0
4.991317459E0,-6.855796337E0,-1.549647093E0,1.702875972E0
4.993805219E0,-6.697779179E0,-1.674145579E0,1.645415068E0
4.996292980E0,-6.539762020E0,-1.769913554E0,1.578377485E0
4.998780740E0,-6.391321659E0,-1.870470047E0,1.506551385E0
5.001268500E0,-6.252457619E0,-1.918354154E0,1.449090600E0
5.003756261E0,-6.137536049E0,-1.937507749E0,1.420360208E0
5.006244021E0,-6.060921669E0,-1.951872945E0,1.401206493E0
5.008731782E0,-6.027402878E0,-1.927930951E0,1.410783410E0
5.011219542E0,-6.013037682E0,-1.875258446E0,1.401206493E0
5.013707303E0,-6.013037682E0,-1.789067268E0,1.386841297E0
5.016195063E0,-6.022614479E0,-1.707664371E0,1.367687702E0
5.018682823E0,-6.084863663E0,-1.616684675E0,1.377264500E0
5.021170584E0,-6.094440460E0,-1.487397790E0,1.367687702E0
5.023658344E0,-6.132747650E0,-1.382052898E0,1.391629696E0
5.026146105E0,-6.147112846E0,-1.315015316E0,1.415571809E0
5.028633865E0,-6.161478043E0,-1.267131209E0,1.468244195E0
5.031121625E0,-6.185420036E0,-1.267131209E0,1.525704980E0
5.033609386E0,-6.209362030E0,-1.262342811E0,1.597531080E0
5.036097146E0,-6.209362030E0,-1.281496406E0,1.664568782E0
5.038584907E0,-6.233304024E0,-1.305438519E0,1.717241168E0
5.041072667E0,-6.305130005E0,-1.281496406E0,1.765125155E0
5.043560428E0,-6.429628849E0,-1.209670424E0,1.798644066E0
5.046048188E0,-6.534973621E0,-1.094748735E0,1.841739655E0
5.048535948E0,-6.654683590E0,-9.846154451E-1,1.889623642E0
5.051023709E0,-6.779181957E0,-8.984242082E-1,1.961449742E0
5.053511469E0,-6.908469200E0,-8.170213103E-1,2.018910646E0
5.055999230E0,-7.032967567E0,-7.691373229E-1,2.014122248E0
5.058486990E0,-7.162254333E0,-7.404068708E-1,1.951872945E0
5.060974750E0,-7.253233910E0,-6.973112226E-1,1.846528053E0
5.063462511E0,-7.253233910E0,-6.398503780E-1,1.674145579E0
5.065950271E0,-7.200561523E0,-5.440823436E-1,1.482609391E0
5.068438032E0,-7.143100739E0,-3.860650361E-1,1.295861721E0
5.070925792E0,-7.076063156E0,-1.801636815E-1,1.133055925E0
5.073413553E0,-6.994660378E0,1.616086066E-2,9.798270464E-1
5.075901313E0,-6.836642742E0,1.693897694E-1,8.888474107E-1
5.078389073E0,-6.640318394E0,2.699462473E-1,7.835025191E-1
5.080876834E0,-6.410475254E0,2.555810213E-1,7.404068708E-1
5.083364594E0,-6.228515625E0,1.502361596E-1,7.116764784E-1
5.085852355E0,-6.022614479E0,-1.735796221E-2,6.877344251E-1
5.088340115E0,-5.797559261E0,-1.993172914E-1,7.260416746E-1
5.090827875E0,-5.567716122E0,-4.578910768E-1,7.547720671E-1
5.093315636E0,-5.333084106E0,-7.451952696E-1,8.026561141E-1
5.095803396E0,-5.055356979E0,-1.085171938E0,9.080010056E-1
5.098291157E0,-4.701014996E0,-1.401206493E0,1.022922635E0
5.100778917E0,-4.341884613E0,-1.707664371E0,1.161786318E0
5.103266678E0,-3.949235678E0,-1.980603337E0,1.291073322E0
5.105754438E0,-3.580528736E0,-2.210446835E0,1.439513803E0
5.108242198E0,-3.230975151E0,-2.416347980E0,1.611896276E0
5.110729959E0,-2.886210203E0,-2.598307371E0,1.755548358E0
5.113217667E0,-2.579752445E0,-2.732382774E0,1.894412041E0
5.115705375E0,-2.297236443E0,-2.842515945E0,2.004545450E0
5.118193084E0,-2.091335297E0,-2.914341927E0,2.057217836E0
5.120680792E0,-1.976413488E0,-2.928707123E0,2.052429438E0
5.123168500E0,-1.966836691E0,-2.899976730E0,1.990180135E0
5.125656209E0,-2.033874273E0,-2.818573952E0,1.851316452E0
5.128143917E0,-2.182314873E0,-2.698863983E0,1.669357181E0
5.130631625E0,-2.364274263E0,-2.502539396E0,1.492186189E0
