"Time (s)","Gyroscope x (rad/s)","Gyroscope y (rad/s)","Gyroscope z (rad/s)"
8.092954200E-2,4.101264849E-2,1.291632187E-2,4.380896688E-2
8.347954200E-2,3.462106735E-2,1.078579482E-2,4.913528636E-2
8.602954200E-2,2.609895915E-2,7.590003312E-3,5.446160212E-2
8.857954200E-2,1.651158556E-2,2.263685223E-3,6.085318699E-2
9.112954200E-2,4.793686327E-3,-3.062632866E-3,6.831002980E-2
9.367954200E-2,-7.989477366E-3,-9.454214945E-3,7.576687634E-2
9.622954200E-2,-2.183790505E-2,-1.478053257E-2,8.535424620E-2
9.877954200E-2,-3.781685978E-2,-2.330264263E-2,9.494162351E-2
1.013295420E-1,-5.592634156E-2,-3.075948730E-2,1.045289934E-1
1.038795420E-1,-7.510108501E-2,-3.928159550E-2,1.141163707E-1
1.064295420E-1,-9.427583218E-2,-4.780370742E-2,1.226384789E-1
1.089795420E-1,-1.145158410E-1,-5.632581562E-2,1.311605871E-1
1.115295420E-1,-1.347558498E-1,-6.378266215E-2,1.386174262E-1
1.140795420E-1,-1.528653353E-1,-7.123950869E-2,1.439437568E-1
1.166295420E-1,-1.699095517E-1,-7.763108611E-2,1.492700726E-1
1.191795420E-1,-1.848232448E-1,-8.402267098E-2,1.535311192E-1
1.217295420E-1,-1.954758763E-1,-8.934898674E-2,1.556616426E-1
1.242795420E-1,-2.050632536E-1,-9.574057162E-2,1.567269117E-1
1.268295420E-1,-2.114548385E-1,-1.010668874E-1,1.567269117E-1
1.293795420E-1,-2.157158852E-1,-1.053279415E-1,1.556616426E-1
1.319295420E-1,-2.178464085E-1,-1.106542572E-1,1.535311192E-1
1.344795420E-1,-2.178464085E-1,-1.127847880E-1,1.492700726E-1
1.370295420E-1,-2.135853618E-1,-1.149153188E-1,1.439437568E-1
1.395795420E-1,-2.082590461E-1,-1.159805804E-1,1.386174262E-1
1.421295420E-1,-2.008021921E-1,-1.159805804E-1,1.322258562E-1
1.446795420E-1,-1.901495606E-1,-1.149153188E-1,1.247690022E-1
1.472295420E-1,-1.784316599E-1,-1.127847880E-1,1.162468940E-1
1.497795420E-1,-1.645832360E-1,-1.095889956E-1,1.066595241E-1
1.523295420E-1,-1.496695429E-1,-1.063932031E-1,9.707214683E-2
1.548795420E-1,-1.347558498E-1,-1.021321490E-1,8.641951531E-2
1.574295420E-1,-1.187768951E-1,-9.680583328E-2,7.683213800E-2
1.599795420E-1,-1.027979404E-1,-9.041424841E-2,6.617950648E-2
1.625295420E-1,-8.681898564E-2,-8.508793265E-2,5.659212917E-2
1.650777190E-1,-7.084003091E-2,-7.869634777E-2,4.700475931E-2
1.675654800E-1,-5.486107618E-2,-7.337003201E-2,3.741738573E-2
1.700532400E-1,-3.994738683E-2,-6.910897791E-2,3.102580272E-2
1.725410000E-1,-2.609895915E-2,-6.484792382E-2,2.356895804E-2
1.750287610E-1,-1.225053146E-2,-6.271740049E-2,1.824264042E-2
1.775165210E-1,-5.326318205E-4,-6.058686972E-2,1.398158539E-2
1.800042820E-1,9.054740891E-3,-6.058686972E-2,8.655266836E-3
1.824920420E-1,1.651158556E-2,-5.952160433E-2,4.394212738E-3
1.849798030E-1,2.290316857E-2,-5.845634267E-2,1.198421582E-3
1.874675630E-1,2.716422267E-2,-5.739107728E-2,-1.997369342E-3
1.899553230E-1,2.822948620E-2,-5.419528857E-2,-4.127896391E-3
1.924430840E-1,3.036001325E-2,-5.313002318E-2,-6.258423906E-3
1.949308440E-1,3.249054030E-2,-4.993423447E-2,-7.323687430E-3
1.974186050E-1,3.355580568E-2,-4.780370742E-2,-7.323687430E-3
1.999063650E-1,3.355580568E-2,-4.673844203E-2,-7.323687430E-3
2.023941250E-1,3.355580568E-2,-4.567318037E-2,-6.258423906E-3
2.048818860E-1,3.355580568E-2,-4.567318037E-2,-5.193160381E-3
2.073696460E-1,3.036001325E-2,-4.567318037E-2,-3.062632866E-3
2.098574070E-1,2.716422267E-2,-4.567318037E-2,-1.997369342E-3
2.123451670E-1,2.077264152E-2,-4.673844203E-2,-9.321057005E-4
2.148329280E-1,1.438105945E-2,-4.780370742E-2,1.198421582E-3
2.173206880E-1,6.924213842E-3,-4.886896908E-2,1.198421582E-3
2.198084480E-1,-5.326318205E-4,-4.886896908E-2,3.328948980E-3
2.222962090E-1,-7.989477366E-3,-4.886896908E-2,3.328948980E-3
2.247839690E-1,-1.438105945E-2,-4.886896908E-2,4.394212738E-3
2.272717300E-1,-2.077264152E-2,-4.886896908E-2,5.459476262E-3
2.297594900E-1,-2.716422267E-2,-4.886896908E-2,6.524739787E-3
2.322472500E-1,-3.249054030E-2,-4.780370742E-2,7.590003312E-3
2.347350110E-1,-3.675159439E-2,-4.673844203E-2,8.655266836E-3
2.372227710E-1,-4.207791388E-2,-4.567318037E-2,1.078579482E-2
2.397105320E-1,-4.633896798E-2,-4.247738793E-2,1.185105834E-2
2.421982920E-1,-4.846949503E-2,-3.928159550E-2,1.291632187E-2
2.446860530E-1,-5.060002208E-2,-3.395527974E-2,1.398158539E-2
2.471738130E-1,-5.060002208E-2,-2.862896025E-2,1.504684892E-2
2.496615730E-1,-4.953476042E-2,-2.223737910E-2,1.717737690E-2
2.521493340E-1,-4.740423337E-2,-1.478053257E-2,1.824264042E-2
2.546370940E-1,-4.207791388E-2,-6.258423906E-3,1.824264042E-2
2.571248550E-1,-3.568633273E-2,2.263685223E-3,1.824264042E-2
2.596126150E-1,-2.716422267E-2,1.078579482E-2,1.930790395E-2
2.621003750E-1,-1.864211448E-2,1.930790395E-2,1.824264042E-2
2.645881360E-1,-9.054740891E-3,2.676474862E-2,1.717737690E-2
2.670758960E-1,1.597895520E-3,3.422159329E-2,1.717737690E-2
2.695636570E-1,1.225053146E-2,4.061317816E-2,1.717737690E-2
2.720514170E-1,2.290316857E-2,4.593949392E-2,1.611211337E-2
2.745391780E-1,3.462106735E-2,5.126581341E-2,1.504684892E-2
2.770269380E-1,4.527370632E-2,5.659212917E-2,1.291632187E-2
2.795146980E-1,5.379581451E-2,6.191844866E-2,1.078579482E-2
2.820024590E-1,6.125266105E-2,6.617950648E-2,8.655266836E-3
2.844902190E-1,6.870950758E-2,7.150582224E-2,4.394212738E-3
2.869779800E-1,7.616634667E-2,7.683213800E-2,1.198421582E-3
2.894657400E-1,8.255793154E-2,8.322372288E-2,-4.127896391E-3
2.919535000E-1,8.894951642E-2,9.068056941E-2,-7.323687430E-3
2.944412610E-1,9.747162461E-2,9.813741595E-2,-1.158474199E-2
2.969290210E-1,1.049284711E-1,1.077247858E-1,-1.584579609E-2
2.994167820E-1,1.145158410E-1,1.173121557E-1,-2.010685205E-2
3.019045420E-1,1.230379492E-1,1.258342713E-1,-2.649843320E-2
3.043923030E-1,1.326253265E-1,1.354216337E-1,-3.075948730E-2
3.068800630E-1,1.432779580E-1,1.428784877E-1,-3.502054140E-2
3.093678230E-1,1.528653353E-1,1.503353268E-1,-4.141212255E-2
3.118555840E-1,1.624527127E-1,1.567269117E-1,-4.673844203E-2
3.143433440E-1,1.709748209E-1,1.620532274E-1,-5.206476152E-2
3.168311050E-1,1.794969290E-1,1.663142890E-1,-5.632581562E-2
3.193188650E-1,1.880190372E-1,1.695100814E-1,-5.952160433E-2
3.218066250E-1,1.944106072E-1,1.716406047E-1,-6.165213138E-2
3.242943860E-1,1.997369379E-1,1.727058738E-1,-6.378266215E-2
3.267821460E-1,2.050632536E-1,1.748363972E-1,-6.484792382E-2
3.292699070E-1,2.093243003E-1,1.790974438E-1,-6.378266215E-2
3.317576670E-1,2.125200927E-1,1.844237745E-1,-6.271740049E-2
3.342454280E-1,2.157158852E-1,1.940111369E-1,-6.165213138E-2
3.367331880E-1,2.199769467E-1,2.057290375E-1,-5.952160433E-2
3.392209480E-1,2.242379934E-1,2.217079997E-1,-5.739107728E-2
3.417087090E-1,2.284990549E-1,2.398174703E-1,-5.526055023E-2
3.441964690E-1,2.338253707E-1,2.621880174E-1,-5.206476152E-2
3.466842300E-1,2.402169555E-1,2.866890728E-1,-4.886896908E-2
3.491719900E-1,2.455432713E-1,3.122554123E-1,-4.567318037E-2
3.516597500E-1,2.530001104E-1,3.399522603E-1,-4.141212255E-2
3.541475110E-1,2.604569495E-1,3.708449006E-1,-3.821633384E-2
3.566352710E-1,2.689790726E-1,4.017375410E-1,-3.289001435E-2
3.591230320E-1,2.785664499E-1,4.347607195E-1,-2.649843320E-2
3.616107920E-1,2.881538272E-1,4.688491523E-1,-2.117211558E-2
3.640985530E-1,2.966759205E-1,5.018723607E-1,-1.478053257E-2
3.665863130E-1,3.051980436E-1,5.370260477E-1,-8.388951421E-3
3.690740730E-1,3.126548827E-1,5.711144805E-1,-4.127896391E-3
3.715618340E-1,3.179811835E-1,6.062681675E-1,1.331579551E-4
3.740495940E-1,3.233075142E-1,6.414218545E-1,4.394212738E-3
3.765373550E-1,3.286338449E-1,6.776408553E-1,6.524739787E-3
3.790251150E-1,3.339601457E-1,7.149250507E-1,8.655266836E-3
3.815128750E-1,3.414169848E-1,7.532745600E-1,8.655266836E-3
3.840006360E-1,3.510043621E-1,7.937545776E-1,8.655266836E-3
3.864883960E-1,3.637875319E-1,8.342345953E-1,9.720530361E-3
3.889761570E-1,3.797664940E-1,8.757798672E-1,9.720530361E-3
3.914639170E-1,3.968107104E-1,9.183903933E-1,1.078579482E-2
3.939516780E-1,4.170507193E-1,9.599357247E-1,1.291632187E-2
3.964394380E-1,4.372907281E-1,9.993504286E-1,1.504684892E-2
3.989271980E-1,4.564654827E-1,1.034504175E0,1.717737690E-2
4.014149590E-1,4.745749533E-1,1.061135769E0,2.037316747E-2
4.039027190E-1,4.916191697E-1,1.080310464E0,2.143843099E-2
4.063904800E-1,5.044023395E-1,1.089897871E0,2.250369452E-2
4.088782400E-1,5.150549412E-1,1.093093634E0,2.143843099E-2
4.113660000E-1,5.225118399E-1,1.088832617E0,1.717737690E-2
4.138537610E-1,5.289034247E-1,1.079245210E0,1.078579482E-2
4.163415210E-1,5.342296958E-1,1.067527294E0,4.394212738E-3
4.188292820E-1,5.395560265E-1,1.053678870E0,-5.193160381E-3
4.213170420E-1,5.470128655E-1,1.039830446E0,-1.478053257E-2
4.238048030E-1,5.555350184E-1,1.028112531E0,-2.436790615E-2
4.262925630E-1,5.640571117E-1,1.016394615E0,-3.289001435E-2
4.287803230E-1,5.725792050E-1,1.005742073E0,-4.034686089E-2
4.312680840E-1,5.811012983E-1,9.940241575E-1,-4.886896908E-2
4.337558440E-1,5.874928832E-1,9.833714962E-1,-5.526055023E-2
4.362436050E-1,5.928192139E-1,9.705883265E-1,-6.271740049E-2
4.387313650E-1,5.960150361E-1,9.556746483E-1,-7.017423958E-2
4.412191250E-1,5.960150361E-1,9.407609701E-1,-7.763108611E-2
4.437068860E-1,5.949497223E-1,9.247819781E-1,-8.615319431E-2
4.461946460E-1,5.938844681E-1,9.077377915E-1,-9.467530251E-2
4.486824070E-1,5.906887054E-1,8.917587996E-1,-1.021321490E-1
4.511701670E-1,5.885581374E-1,8.789756894E-1,-1.095889956E-1
4.536579280E-1,5.874928832E-1,8.683230281E-1,-1.181111038E-1
4.561456880E-1,5.896234512E-1,8.629966974E-1,-1.266332120E-1
4.586334480E-1,5.949497223E-1,8.619314432E-1,-1.362205893E-1
4.611212090E-1,6.045371294E-1,8.661925197E-1,-1.458079666E-1
4.636089690E-1,6.173202991E-1,8.768451214E-1,-1.553953290E-1
4.660967300E-1,6.343644857E-1,8.938893676E-1,-1.639174372E-1
4.685844900E-1,6.535392404E-1,9.162598848E-1,-1.713742912E-1
4.710722500E-1,6.769750714E-1,9.439567327E-1,-1.756353378E-1
4.735600110E-1,7.025413513E-1,9.780451655E-1,-1.798963994E-1
4.760477710E-1,7.313035131E-1,1.016394615E0,-1.809616536E-1
4.785355320E-1,7.590003610E-1,1.057940006E0,-1.809616536E-1
4.810232920E-1,7.888277173E-1,1.102681041E0,-1.777658761E-1
4.835110530E-1,8.197203875E-1,1.148487329E0,-1.735048145E-1
4.859988130E-1,8.484824896E-1,1.198554754E0,-1.681784987E-1
4.884865730E-1,8.751140833E-1,1.249687433E0,-1.596563905E-1
4.909743340E-1,8.985498548E-1,1.300820112E0,-1.511342824E-1
4.934620940E-1,9.166593552E-1,1.349822164E0,-1.394163817E-1
4.959498550E-1,9.294425249E-1,1.394563317E0,-1.287637353E-1
4.984376150E-1,9.368993640E-1,1.430782199E0,-1.191763729E-1
5.009253750E-1,9.390298724E-1,1.456348538E0,-1.117195264E-1
5.034131360E-1,9.337036014E-1,1.470196962E0,-1.063932031E-1
5.059008960E-1,9.209204316E-1,1.471262217E0,-1.021321490E-1
5.083886570E-1,9.028109312E-1,1.460609555E0,-1.000016257E-1
5.108764170E-1,8.783098459E-1,1.438239098E0,-9.893636405E-2
5.133641780E-1,8.516782522E-1,1.405215859E0,-9.787109494E-2
5.158519380E-1,8.218508959E-1,1.362605333E0,-9.574057162E-2
5.183396980E-1,7.920235395E-1,1.311472654E0,-9.254477918E-2
5.208274590E-1,7.621961236E-1,1.251817942E0,-8.934898674E-2
5.233152190E-1,7.344992757E-1,1.187902093E0,-8.295740932E-2
5.258029800E-1,7.078676820E-1,1.120790482E0,-7.656582445E-2
5.282907400E-1,6.844319105E-1,1.055809379E0,-6.697845459E-2
5.307785000E-1,6.620613337E-1,9.950894117E-1,-5.526055023E-2
5.332662610E-1,6.428865790E-1,9.354346395E-1,-4.460791498E-2
5.357540210E-1,6.237118840E-1,8.811061978E-1,-3.289001435E-2
5.382417820E-1,6.066676378E-1,8.299735188E-1,-2.117211558E-2
5.407295420E-1,5.906887054E-1,7.841671705E-1,-1.265000552E-2
5.432173030E-1,5.747097135E-1,7.436871529E-1,-1.997369342E-3
5.457050630E-1,5.597960353E-1,7.085334659E-1,6.524739787E-3
5.481928230E-1,5.459476113E-1,6.797713637E-1,1.504684892E-2
5.506805840E-1,5.331644416E-1,6.574008465E-1,2.463422157E-2
5.531683440E-1,5.235770941E-1,6.414218545E-1,3.528685868E-2
5.556561050E-1,5.150549412E-1,6.307692528E-1,4.700475931E-2
5.581438650E-1,5.107939243E-1,6.265081763E-1,6.085318699E-2
5.606316250E-1,5.086634159E-1,6.275734305E-1,7.470161468E-2
5.631193340E-1,5.086634159E-1,6.339650154E-1,8.961530030E-2
5.656070420E-1,5.107939243E-1,6.467481852E-1,1.055942550E-1
5.680947500E-1,5.139896870E-1,6.637924314E-1,1.215732098E-1
5.705824590E-1,5.182507634E-1,6.850976944E-1,1.375521719E-1
5.730701670E-1,5.225118399E-1,7.095987201E-1,1.545963883E-1
5.755578750E-1,5.267728567E-1,7.351650596E-1,1.695100814E-1
5.780455840E-1,5.289034247E-1,7.596661448E-1,1.854890287E-1
5.805332920E-1,5.289034247E-1,7.831019163E-1,1.982721984E-1
5.830210000E-1,5.267728567E-1,8.033419251E-1,2.099900991E-1
5.855087090E-1,5.214465261E-1,8.171903491E-1,2.195774615E-1
5.879964170E-1,5.139896870E-1,8.246471882E-1,2.270343155E-1
5.904841250E-1,5.022718310E-1,8.246471882E-1,2.323606312E-1
5.929718340E-1,4.884233773E-1,8.171903491E-1,2.355564237E-1
5.954595420E-1,4.703139067E-1,8.012114167E-1,2.376869470E-1
5.979472500E-1,4.511391521E-1,7.777756453E-1,2.376869470E-1
6.004349590E-1,4.308991432E-1,7.479482293E-1,2.355564237E-1
6.029226670E-1,4.095938802E-1,7.127945423E-1,2.323606312E-1
6.054103750E-1,3.861580789E-1,6.733797789E-1,2.270343155E-1
6.078980840E-1,3.648527861E-1,6.328997612E-1,2.206427306E-1
6.103857920E-1,3.435475230E-1,5.913544893E-1,2.142511457E-1
6.128735000E-1,3.233075142E-1,5.519397259E-1,2.067943066E-1
6.153612090E-1,3.051980436E-1,5.125249624E-1,1.993374527E-1
6.178489170E-1,2.913496196E-1,4.773712754E-1,1.897500902E-1
6.203366250E-1,2.796317041E-1,4.454133511E-1,1.801627129E-1
6.228243340E-1,2.732401192E-1,4.177165031E-1,1.695100814E-1
6.253120940E-1,2.711096108E-1,3.964112401E-1,1.588574350E-1
6.277998550E-1,2.711096108E-1,3.793670237E-1,1.471395344E-1
6.302876150E-1,2.743053734E-1,3.687143922E-1,1.354216337E-1
6.327753750E-1,2.806969583E-1,3.623228073E-1,1.226384789E-1
6.352631360E-1,2.902843356E-1,3.612575233E-1,1.109205782E-1
6.377508960E-1,3.030675054E-1,3.633880615E-1,9.920267761E-2
6.402386570E-1,3.190464675E-1,3.687143922E-1,8.748477697E-2
6.427264170E-1,3.360906839E-1,3.772364855E-1,7.896266878E-2
6.452141780E-1,3.573959470E-1,3.889544010E-1,6.937529147E-2
6.477019380E-1,3.797664940E-1,4.038680792E-1,6.191844866E-2
6.501896980E-1,4.053328037E-1,4.219775498E-1,5.446160212E-2
6.526774590E-1,4.319643974E-1,4.411523044E-1,4.913528636E-2
6.551652190E-1,4.585959911E-1,4.624575675E-1,4.380896688E-2
6.576529800E-1,4.862928391E-1,4.869586527E-1,3.741738573E-2
6.601407400E-1,5.107939243E-1,5.114597082E-1,3.209106624E-2
6.626285000E-1,5.352949500E-1,5.370260477E-1,2.676474862E-2
6.651162610E-1,5.566002727E-1,5.625923872E-1,2.250369452E-2
6.676040210E-1,5.779055357E-1,5.860281587E-1,1.717737690E-2
6.700917820E-1,5.970802903E-1,6.083986759E-1,1.291632187E-2
6.725795420E-1,6.151897311E-1,6.265081763E-1,7.590003312E-3
6.750673030E-1,6.311687231E-1,6.414218545E-1,4.394212738E-3
6.775550630E-1,6.450171471E-1,6.520745158E-1,1.331579551E-4
6.800428230E-1,6.546044946E-1,6.574008465E-1,-3.062632866E-3
6.825305840E-1,6.588655710E-1,6.595313549E-1,-6.258423906E-3
6.850183440E-1,6.599308252E-1,6.563355327E-1,-8.388951421E-3
6.875061050E-1,6.567350626E-1,6.488786936E-1,-9.454214945E-3
6.899938650E-1,6.503434777E-1,6.360955238E-1,-1.051947847E-2
6.924816250E-1,6.396908164E-1,6.190513372E-1,-1.158474199E-2
6.949693860E-1,6.247771382E-1,5.988113284E-1,-1.158474199E-2
6.974571460E-1,6.077328920E-1,5.753754973E-1,-1.051947847E-2
6.999449070E-1,5.906887054E-1,5.519397259E-1,-8.388951421E-3
7.024326670E-1,5.715139508E-1,5.274386406E-1,-4.127896391E-3
7.049204280E-1,5.523391962E-1,5.040028691E-1,1.198421582E-3
7.074081880E-1,5.331644416E-1,4.805670679E-1,6.524739787E-3
7.098959480E-1,5.107939243E-1,4.592617750E-1,1.291632187E-2
7.123837090E-1,4.884233773E-1,4.390217662E-1,2.037316747E-2
7.148714690E-1,4.649875760E-1,4.209122956E-1,2.889527567E-2
7.173592300E-1,4.415517747E-1,4.049333334E-1,3.741738573E-2
7.198469900E-1,4.181159735E-1,3.921501637E-1,4.700475931E-2
7.223347500E-1,3.957454562E-1,3.846933246E-1,5.765739456E-2
7.248225110E-1,3.744401634E-1,3.814975321E-1,6.937529147E-2
7.273102710E-1,3.573959470E-1,3.814975321E-1,8.109319210E-2
7.297980320E-1,3.424822688E-1,3.857586086E-1,9.387636185E-2
7.322857920E-1,3.286338449E-1,3.932154477E-1,1.055942550E-1
7.347735530E-1,3.169159293E-1,4.038680792E-1,1.173121557E-1
7.372613130E-1,3.062632978E-1,4.177165031E-1,1.279647946E-1
7.397490730E-1,2.966759205E-1,4.326302111E-1,1.386174262E-1
7.422368340E-1,2.860232890E-1,4.496744275E-1,1.471395344E-1
7.447245940E-1,2.785664499E-1,4.677838981E-1,1.545963883E-1
7.472123550E-1,2.711096108E-1,4.848281145E-1,1.620532274E-1
7.497001150E-1,2.657832801E-1,5.008070469E-1,1.684448123E-1
7.521878750E-1,2.636527419E-1,5.157207847E-1,1.748363972E-1
7.546756360E-1,2.615222335E-1,5.295692086E-1,1.801627129E-1
7.571633960E-1,2.636527419E-1,5.423523784E-1,1.854890287E-1
7.596511570E-1,2.668485343E-1,5.540702343E-1,1.886848211E-1
7.621389170E-1,2.700443268E-1,5.647228956E-1,1.929458827E-1
7.646266780E-1,2.743053734E-1,5.732449889E-1,1.940111369E-1
7.671144380E-1,2.785664499E-1,5.785713196E-1,1.929458827E-1
7.696021980E-1,2.817622423E-1,5.807018280E-1,1.897500902E-1
7.720899590E-1,2.849580348E-1,5.796365738E-1,1.844237745E-1
7.745777190E-1,2.881538272E-1,5.753754973E-1,1.780321896E-1
7.770654800E-1,2.924148738E-1,5.657881498E-1,1.705753356E-1
7.795532400E-1,2.956106663E-1,5.530049801E-1,1.620532274E-1
7.820410000E-1,2.998717129E-1,5.359607935E-1,1.535311192E-1
7.845287610E-1,3.020022511E-1,5.178512931E-1,1.450090110E-1
7.870165210E-1,3.041327596E-1,4.986765385E-1,1.375521719E-1
7.895042820E-1,3.041327596E-1,4.795017838E-1,1.300953180E-1
7.919920420E-1,3.041327596E-1,4.613923132E-1,1.237037405E-1
7.944798030E-1,3.009369671E-1,4.443480968E-1,1.173121557E-1
7.969675630E-1,2.977411747E-1,4.294344187E-1,1.119858399E-1
7.994553230E-1,2.924148738E-1,4.155859649E-1,1.077247858E-1
8.019430840E-1,2.860232890E-1,4.038680792E-1,1.045289934E-1
8.044308440E-1,2.775011659E-1,3.932154477E-1,1.023984700E-1
8.069186050E-1,2.679138184E-1,3.857586086E-1,1.002679393E-1
8.094063650E-1,2.572611570E-1,3.804322779E-1,1.002679393E-1
8.118941250E-1,2.476737946E-1,3.772364855E-1,1.013332009E-1
8.143818860E-1,2.370211631E-1,3.761712313E-1,1.045289934E-1
8.168696460E-1,2.274337858E-1,3.761712313E-1,1.087900475E-1
8.193574070E-1,2.178464085E-1,3.793670237E-1,1.141163707E-1
8.218451670E-1,2.082590461E-1,3.836280704E-1,1.205079481E-1
8.243329280E-1,1.997369379E-1,3.900196552E-1,1.268995255E-1
8.268206880E-1,1.922800839E-1,3.996070325E-1,1.343563795E-1
8.293084480E-1,1.848232448E-1,4.102596641E-1,1.418132186E-1
8.317962090E-1,1.784316599E-1,4.241080880E-1,1.492700726E-1
8.342839690E-1,1.741705984E-1,4.379565120E-1,1.577921808E-1
8.367717300E-1,1.731053442E-1,4.539354742E-1,1.663142890E-1
8.392594900E-1,1.731053442E-1,4.699144363E-1,1.748363972E-1
8.417472500E-1,1.763011366E-1,4.869586527E-1,1.812279820E-1
8.442350110E-1,1.794969290E-1,5.029376149E-1,1.876195520E-1
8.467227710E-1,1.848232448E-1,5.178512931E-1,1.918806136E-1
8.492105320E-1,1.901495606E-1,5.295692086E-1,1.950764060E-1
8.516982920E-1,1.944106072E-1,5.402218103E-1,1.972069293E-1
8.541860530E-1,1.997369379E-1,5.466133952E-1,1.972069293E-1
8.566738130E-1,2.039979845E-1,5.498092175E-1,1.982721984E-1
8.591615730E-1,2.082590461E-1,5.487439036E-1,2.004027218E-1
8.616493340E-1,2.114548385E-1,5.444828868E-1,2.004027218E-1
8.641370940E-1,2.146506310E-1,5.380913019E-1,2.004027218E-1
8.666248550E-1,2.199769467E-1,5.295692086E-1,1.993374527E-1
8.691126150E-1,2.253032625E-1,5.199818015E-1,1.982721984E-1
8.716003750E-1,2.295643091E-1,5.093291998E-1,1.972069293E-1
8.740881360E-1,2.338253707E-1,4.976112843E-1,1.950764060E-1
8.765758960E-1,2.380864173E-1,4.869586527E-1,1.918806136E-1
8.790636570E-1,2.402169555E-1,4.752407372E-1,1.897500902E-1
8.815514170E-1,2.423474789E-1,4.645881057E-1,1.865542978E-1
8.840391780E-1,2.434127480E-1,4.528702199E-1,1.833585054E-1
8.865269380E-1,2.434127480E-1,4.411523044E-1,1.812279820E-1
8.890146980E-1,2.434127480E-1,4.315649271E-1,1.801627129E-1
8.915024590E-1,2.434127480E-1,4.209122956E-1,1.790974438E-1
8.939902190E-1,2.423474789E-1,4.113249183E-1,1.801627129E-1
8.964779800E-1,2.412822098E-1,4.028028250E-1,1.822932363E-1
8.989657400E-1,2.402169555E-1,3.942807019E-1,1.854890287E-1
9.014535000E-1,2.380864173E-1,3.878891170E-1,1.897500902E-1
9.039412610E-1,2.348906398E-1,3.814975321E-1,1.950764060E-1
9.064290210E-1,2.306295782E-1,3.761712313E-1,2.035985142E-1
9.089167820E-1,2.263685167E-1,3.729754388E-1,2.131858915E-1
9.114045420E-1,2.199769467E-1,3.719101548E-1,2.227732539E-1
9.138923030E-1,2.135853618E-1,3.708449006E-1,2.344911546E-1
9.163800630E-1,2.050632536E-1,3.729754388E-1,2.472743243E-1
9.188678230E-1,1.965411454E-1,3.761712313E-1,2.600574791E-1
9.213555840E-1,1.858884990E-1,3.814975321E-1,2.739059031E-1
9.238433440E-1,1.731053442E-1,3.889544010E-1,2.877543271E-1
9.263311050E-1,1.581916511E-1,3.985417485E-1,3.005374968E-1
9.288188650E-1,1.422126889E-1,4.091944098E-1,3.122554123E-1
9.313066250E-1,1.230379492E-1,4.198470414E-1,3.207775056E-1
9.337943860E-1,1.006674170E-1,4.294344187E-1,3.282343447E-1
9.362821460E-1,7.829687744E-2,4.390217662E-1,3.314301372E-1
9.387699070E-1,5.379581451E-2,4.464786351E-1,3.314301372E-1
9.412576670E-1,2.822948620E-2,4.507396817E-1,3.292996287E-1
9.437454280E-1,3.728422802E-3,4.518049359E-1,3.250385821E-1
9.462331880E-1,-1.864211448E-2,4.507396817E-1,3.175817132E-1
9.487209480E-1,-3.888212144E-2,4.486091435E-1,3.101248741E-1
9.512087090E-1,-5.592634156E-2,4.432828426E-1,3.005374968E-1
9.536964690E-1,-7.084003091E-2,4.358259737E-1,2.888196111E-1
9.561842300E-1,-8.362319320E-2,4.283691347E-1,2.771016955E-1
9.586719900E-1,-9.427583218E-2,4.187817574E-1,2.643185556E-1
9.611597500E-1,-1.027979404E-1,4.091944098E-1,2.504701018E-1
9.636475110E-1,-1.113200486E-1,3.996070325E-1,2.376869470E-1
9.661352710E-1,-1.187768951E-1,3.889544010E-1,2.249037921E-1
9.686230320E-1,-1.262337416E-1,3.804322779E-1,2.121206224E-1
9.711107920E-1,-1.326253265E-1,3.719101548E-1,2.004027218E-1
9.735985530E-1,-1.390169114E-1,3.655185997E-1,1.886848211E-1
9.760863130E-1,-1.454084814E-1,3.591270149E-1,1.790974438E-1
9.785740730E-1,-1.528653353E-1,3.548659384E-1,1.705753356E-1
9.810618340E-1,-1.603221744E-1,3.516701460E-1,1.641837656E-1
9.835495940E-1,-1.677790284E-1,3.506048918E-1,1.599227041E-1
9.860373550E-1,-1.752358675E-1,3.495396376E-1,1.567269117E-1
9.885251150E-1,-1.826927215E-1,3.495396376E-1,1.567269117E-1
9.910128750E-1,-1.880190372E-1,3.506048918E-1,1.567269117E-1
9.935006360E-1,-1.944106072E-1,3.516701460E-1,1.567269117E-1
9.959883960E-1,-1.997369379E-1,3.527354300E-1,1.588574350E-1
9.984761570E-1,-2.029327303E-1,3.538006842E-1,1.599227041E-1
1.000963917E0,-2.050632536E-1,3.559312224E-1,1.620532274E-1
1.003451678E0,-2.050632536E-1,3.580617309E-1,1.652490199E-1
1.005939438E0,-2.029327303E-1,3.612575233E-1,1.695100814E-1
1.008427198E0,-1.997369379E-1,3.644533157E-1,1.737711281E-1
1.010914959E0,-1.944106072E-1,3.676491082E-1,1.769669205E-1
1.013402719E0,-1.848232448E-1,3.719101548E-1,1.812279820E-1
1.015890480E0,-1.731053442E-1,3.772364855E-1,1.854890287E-1
1.018378240E0,-1.613874435E-1,3.846933246E-1,1.908153445E-1
1.020866000E0,-1.464737505E-1,3.910849094E-1,1.940111369E-1
1.023353761E0,-1.304948032E-1,3.996070325E-1,1.972069293E-1
1.025841521E0,-1.145158410E-1,4.102596641E-1,1.993374527E-1
1.028329282E0,-9.534109384E-2,4.209122956E-1,2.004027218E-1
1.030817042E0,-7.616634667E-2,4.304996729E-1,1.993374527E-1
1.033304803E0,-5.592634156E-2,4.411523044E-1,1.972069293E-1
1.035792563E0,-3.568633273E-2,4.518049359E-1,1.950764060E-1
1.038280323E0,-1.651158556E-2,4.613923132E-1,1.908153445E-1
1.040768084E0,3.728422802E-3,4.720449448E-1,1.865542978E-1
1.043255844E0,2.183790505E-2,4.816323221E-1,1.812279820E-1
1.045743605E0,3.994738683E-2,4.922849536E-1,1.748363972E-1
1.048231365E0,5.699160323E-2,5.008070469E-1,1.663142890E-1
1.050719125E0,7.297056168E-2,5.093291998E-1,1.567269117E-1
1.053206886E0,8.894951642E-2,5.157207847E-1,1.471395344E-1
1.055694646E0,1.038632020E-1,5.199818015E-1,1.354216337E-1
1.058182407E0,1.187768951E-1,5.210470557E-1,1.237037405E-1
1.060670167E0,1.326253265E-1,5.199818015E-1,1.109205782E-1
1.063157928E0,1.454084814E-1,5.157207847E-1,9.813741595E-2
1.065645688E0,1.581916511E-1,5.082638860E-1,8.535424620E-2
1.068133448E0,1.699095517E-1,4.986765385E-1,7.257108390E-2
1.070621209E0,1.816274524E-1,4.890891612E-1,5.872265995E-2
1.073108969E0,1.901495606E-1,4.773712754E-1,4.700475931E-2
1.075596730E0,1.976063997E-1,4.645881057E-1,3.528685868E-2
1.078084490E0,2.018674612E-1,4.518049359E-1,2.356895804E-2
1.080572250E0,2.050632536E-1,4.400870502E-1,1.398158539E-2
1.083060011E0,2.050632536E-1,4.304996729E-1,3.328948980E-3
1.085547771E0,2.029327303E-1,4.209122956E-1,-3.062632866E-3
1.088035532E0,1.997369379E-1,4.155859649E-1,-8.388951421E-3
1.090523292E0,1.965411454E-1,4.113249183E-1,-9.454214945E-3
1.093011053E0,1.922800839E-1,4.102596641E-1,-8.388951421E-3
1.095498813E0,1.880190372E-1,4.113249183E-1,-3.062632866E-3
1.097986573E0,1.837579757E-1,4.145207107E-1,6.524739787E-3
1.100474334E0,1.773663908E-1,4.187817574E-1,1.930790395E-2
1.102962094E0,1.699095517E-1,4.241080880E-1,3.528685868E-2
1.105449855E0,1.592569202E-1,4.304996729E-1,5.446160212E-2
1.107937615E0,1.475390196E-1,4.379565120E-1,7.683213800E-2
1.110425375E0,1.326253265E-1,4.454133511E-1,1.023984700E-1
1.112913136E0,1.145158410E-1,4.528702199E-1,1.300953180E-1
1.115400896E0,9.427583218E-2,4.603270590E-1,1.599227041E-1
1.117888657E0,7.190529257E-2,4.667186439E-1,1.897500902E-1
1.120376417E0,4.633896798E-2,4.731102288E-1,2.174469382E-1
1.122864178E0,2.183790505E-2,4.784365296E-1,2.451438010E-1
1.125351938E0,-5.858949851E-3,4.826975763E-1,2.696448565E-1
1.127839698E0,-3.462106735E-2,4.858933687E-1,2.909501195E-1
1.130327459E0,-6.338318437E-2,4.880239069E-1,3.090596199E-1
1.132815219E0,-9.214530140E-2,4.869586527E-1,3.239732981E-1
1.135302980E0,-1.209074259E-1,4.858933687E-1,3.356912136E-1
1.137790740E0,-1.464737505E-1,4.837628603E-1,3.452785909E-1
1.140278500E0,-1.688442826E-1,4.816323221E-1,3.527354300E-1
1.142766261E0,-1.890842915E-1,4.784365296E-1,3.569964767E-1
1.145254021E0,-2.071937770E-1,4.752407372E-1,3.601922691E-1
1.147741782E0,-2.210422009E-1,4.709796906E-1,3.601922691E-1
1.150229542E0,-2.327601016E-1,4.667186439E-1,3.591270149E-1
1.152717303E0,-2.423474789E-1,4.603270590E-1,3.548659384E-1
1.155205063E0,-2.508696020E-1,4.539354742E-1,3.495396376E-1
1.157692823E0,-2.572611570E-1,4.454133511E-1,3.431480527E-1
1.160180584E0,-2.615222335E-1,4.368912578E-1,3.346259296E-1
1.162668344E0,-2.625874877E-1,4.283691347E-1,3.250385821E-1
1.165156105E0,-2.625874877E-1,4.187817574E-1,3.143859208E-1
1.167643865E0,-2.593916953E-1,4.113249183E-1,3.047985733E-1
1.170131625E0,-2.530001104E-1,4.038680792E-1,2.941459119E-1
1.172619386E0,-2.423474789E-1,3.985417485E-1,2.845585644E-1
1.175107146E0,-2.284990549E-1,3.953459561E-1,2.749711871E-1
1.177594907E0,-2.114548385E-1,3.942807019E-1,2.653838098E-1
1.180082667E0,-1.912148297E-1,3.942807019E-1,2.589922249E-1
1.182570428E0,-1.709748209E-1,3.953459561E-1,2.526006401E-1
1.185058188E0,-1.507348120E-1,3.996070325E-1,2.483395934E-1
1.187545948E0,-1.304948032E-1,4.038680792E-1,2.472743243E-1
1.190033709E0,-1.134505793E-1,4.102596641E-1,2.483395934E-1
1.192521469E0,-9.960214794E-2,4.177165031E-1,2.547311783E-1
1.195009230E0,-8.894951642E-2,4.273038805E-1,2.643185556E-1
1.197496990E0,-8.362319320E-2,4.379565120E-1,2.792322338E-1
1.199984750E0,-8.575372398E-2,4.486091435E-1,2.973417044E-1
1.202472511E0,-9.534109384E-2,4.603270590E-1,3.207775056E-1
1.204960271E0,-1.134505793E-1,4.699144363E-1,3.452785909E-1
1.207448032E0,-1.411474347E-1,4.763059914E-1,3.729754388E-1
1.209935792E0,-1.752358675E-1,4.784365296E-1,4.028028250E-1
1.212423553E0,-2.189116776E-1,4.763059914E-1,4.336954653E-1
1.214911313E0,-2.679138184E-1,4.699144363E-1,4.656533599E-1
1.217399073E0,-3.222422600E-1,4.603270590E-1,4.965460002E-1
1.219886834E0,-3.808317482E-1,4.486091435E-1,5.274386406E-1
1.222374594E0,-4.415517747E-1,4.336954653E-1,5.572660565E-1
1.224862355E0,-5.022718310E-1,4.177165031E-1,5.870934129E-1
1.227350115E0,-5.629918575E-1,4.017375410E-1,6.147902608E-1
1.229837875E0,-6.194508076E-1,3.857586086E-1,6.424871087E-1
1.232325636E0,-6.705834866E-1,3.697796464E-1,6.669881940E-1
1.234813396E0,-7.153245211E-1,3.559312224E-1,6.893587112E-1
1.237301157E0,-7.515435219E-1,3.420827985E-1,7.085334659E-1
1.239788917E0,-7.792403698E-1,3.292996287E-1,7.255777121E-1
1.242276678E0,-7.994803786E-1,3.175817132E-1,7.383608818E-1
1.244764438E0,-8.101329803E-1,3.069290817E-1,7.468829751E-1
1.247252198E0,-8.133288026E-1,2.973417044E-1,7.532745600E-1
1.249739959E0,-8.069372177E-1,2.898848653E-1,7.543398142E-1
1.252227719E0,-7.941540480E-1,2.824280262E-1,7.522093058E-1
1.254715480E0,-7.739140391E-1,2.771016955E-1,7.468829751E-1
1.257203240E0,-7.494129539E-1,2.749711871E-1,7.383608818E-1
1.259691000E0,-7.195855975E-1,2.749711871E-1,7.277082205E-1
1.262178761E0,-6.865624189E-1,2.771016955E-1,7.159903049E-1
1.264666521E0,-6.492781639E-1,2.813627720E-1,7.032071352E-1
1.267154282E0,-6.087981462E-1,2.866890728E-1,6.904240251E-1
1.269642042E0,-5.661876202E-1,2.920154035E-1,6.787061095E-1
1.272129803E0,-5.214465261E-1,2.973417044E-1,6.680534482E-1
1.274617563E0,-4.767054915E-1,3.016027808E-1,6.584661007E-1
1.277105323E0,-4.319643974E-1,3.058638275E-1,6.499440074E-1
1.279593084E0,-3.893538713E-1,3.090596199E-1,6.435524225E-1
1.282080844E0,-3.510043621E-1,3.101248741E-1,6.371608377E-1
1.284568605E0,-3.169159293E-1,3.090596199E-1,6.328997612E-1
1.287056365E0,-2.881538272E-1,3.047985733E-1,6.286386847E-1
1.289544125E0,-2.636527419E-1,2.973417044E-1,6.243776679E-1
1.292031886E0,-2.444780022E-1,2.866890728E-1,6.222470999E-1
1.294519646E0,-2.316948473E-1,2.739059031E-1,6.222470999E-1
1.297007407E0,-2.242379934E-1,2.579269707E-1,6.222470999E-1
1.299495167E0,-2.199769467E-1,2.387522161E-1,6.254429221E-1
1.301982928E0,-2.199769467E-1,2.185122073E-1,6.297039986E-1
1.304470688E0,-2.242379934E-1,1.972069293E-1,6.360955238E-1
1.306958448E0,-2.306295782E-1,1.737711281E-1,6.446176767E-1
1.309446209E0,-2.380864173E-1,1.514005959E-1,6.510092616E-1
1.311933969E0,-2.455432713E-1,1.279647946E-1,6.574008465E-1
1.314421730E0,-2.519348562E-1,1.034637317E-1,6.616618633E-1
1.316909490E0,-2.572611570E-1,7.789740711E-2,6.648576856E-1
1.319397250E0,-2.604569495E-1,5.126581341E-2,6.637924314E-1
1.321885011E0,-2.604569495E-1,2.356895804E-2,6.616618633E-1
1.324372771E0,-2.572611570E-1,-4.127896391E-3,6.552702785E-1
1.326860532E0,-2.508696020E-1,-3.182475269E-2,6.456829309E-1
1.329348292E0,-2.402169555E-1,-5.845634267E-2,6.307692528E-1
1.331836053E0,-2.263685167E-1,-8.402267098E-2,6.094639897E-1
1.334323813E0,-2.093243003E-1,-1.074584723E-1,5.838976502E-1
1.336811573E0,-1.890842915E-1,-1.287637353E-1,5.519397259E-1
1.339299334E0,-1.645832360E-1,-1.458079666E-1,5.135902166E-1
1.341787094E0,-1.379516423E-1,-1.585911214E-1,4.688491523E-1
1.344274855E0,-1.081242561E-1,-1.681784987E-1,4.187817574E-1
1.346762615E0,-7.616634667E-2,-1.735048145E-1,3.644533157E-1
1.349250375E0,-4.207791388E-2,-1.777658761E-1,3.058638275E-1
1.351738136E0,-6.924213842E-3,-1.777658761E-1,2.440785319E-1
1.354225896E0,2.716422267E-2,-1.777658761E-1,1.822932363E-1
1.356713657E0,6.231792271E-2,-1.756353378E-1,1.205079481E-1
1.359201417E0,9.640636295E-2,-1.735048145E-1,5.872265995E-2
1.361689178E0,1.283642650E-1,-1.713742912E-1,-3.062632866E-3
1.364176938E0,1.603221744E-1,-1.692437679E-1,-6.378266215E-2
1.366664698E0,1.912148297E-1,-1.692437679E-1,-1.223721579E-1
1.369152459E0,2.199769467E-1,-1.692437679E-1,-1.788311303E-1
1.371640219E0,2.487390637E-1,-1.724395454E-1,-2.320943177E-1
1.374127980E0,2.743053734E-1,-1.767006069E-1,-2.853575051E-1
1.376615740E0,2.988064587E-1,-1.830921918E-1,-3.343596160E-1
1.379103500E0,3.233075142E-1,-1.916143000E-1,-3.812312186E-1
1.381591261E0,3.467433155E-1,-2.012016773E-1,-4.259723127E-1
1.384079021E0,3.691138625E-1,-2.118543088E-1,-4.653870463E-1
1.386566782E0,3.914843798E-1,-2.214416862E-1,-5.016059875E-1
1.389054542E0,4.138549268E-1,-2.310290486E-1,-5.346291661E-1
1.391542303E0,4.351601899E-1,-2.384859025E-1,-5.644565821E-1
1.394030063E0,4.575307369E-1,-2.448774725E-1,-5.910881758E-1
1.396517823E0,4.809665382E-1,-2.491385341E-1,-6.155892015E-1
1.399005584E0,5.044023395E-1,-2.533995807E-1,-6.368945241E-1
1.401493344E0,5.278381109E-1,-2.544648647E-1,-6.560692191E-1
1.403981105E0,5.502086878E-1,-2.533995807E-1,-6.709829569E-1
1.406468865E0,5.704486966E-1,-2.512690723E-1,-6.827008128E-1
1.408956625E0,5.885581374E-1,-2.459427416E-1,-6.901576519E-1
1.411444386E0,6.034718752E-1,-2.406164259E-1,-6.922882199E-1
1.413932146E0,6.130592227E-1,-2.342248410E-1,-6.890923977E-1
1.416419907E0,6.183855534E-1,-2.278332561E-1,-6.784397960E-1
1.418907667E0,6.151897311E-1,-2.203764170E-1,-6.624608040E-1
1.421395428E0,6.056023836E-1,-2.129195631E-1,-6.379597783E-1
1.423883188E0,5.885581374E-1,-2.043974549E-1,-6.091976166E-1
1.426370948E0,5.640571117E-1,-1.969406158E-1,-5.740439296E-1
1.428858709E0,5.320991874E-1,-1.905490309E-1,-5.346291661E-1
1.431346469E0,4.916191697E-1,-1.852227151E-1,-4.898881316E-1
1.433834230E0,4.447475672E-1,-1.830921918E-1,-4.419512451E-1
1.436321990E0,3.936149180E-1,-1.841574460E-1,-3.918838501E-1
1.438809750E0,3.382211924E-1,-1.873532385E-1,-3.375554085E-1
1.441297511E0,2.806969583E-1,-1.937448233E-1,-2.810964286E-1
1.443785271E0,2.221074700E-1,-2.043974549E-1,-2.246374637E-1
1.446273032E0,1.645832360E-1,-2.171806246E-1,-1.649827063E-1
1.448760792E0,1.081242561E-1,-2.310290486E-1,-1.031974182E-1
1.451248553E0,5.273054913E-2,-2.448774725E-1,-3.928159550E-2
1.453736313E0,2.663159044E-3,-2.597911656E-1,2.569948509E-2
1.456224073E0,-4.420844093E-2,-2.715090811E-1,9.068056941E-2
1.458711834E0,-8.681898564E-2,-2.832269669E-1,1.535311192E-1
1.461199594E0,-1.230379492E-1,-2.928143442E-1,2.153164148E-1
1.463687355E0,-1.539305896E-1,-3.002711833E-1,2.739059031E-1
1.466175115E0,-1.816274524E-1,-3.055975139E-1,3.282343447E-1
1.468662875E0,-2.029327303E-1,-3.098585606E-1,3.783017397E-1
1.471150636E0,-2.189116776E-1,-3.109238148E-1,4.251733422E-1
1.473638396E0,-2.284990549E-1,-3.098585606E-1,4.656533599E-1
1.476126157E0,-2.338253707E-1,-3.055975139E-1,5.008070469E-1
1.478613917E0,-2.306295782E-1,-2.981406748E-1,5.306344628E-1
1.481101678E0,-2.231727391E-1,-2.874880135E-1,5.530049801E-1
1.483589438E0,-2.093243003E-1,-2.725743353E-1,5.689839721E-1
1.486077198E0,-1.890842915E-1,-2.555301189E-1,5.785713196E-1
1.488564959E0,-1.645832360E-1,-2.352901101E-1,5.828323960E-1
1.491052719E0,-1.347558498E-1,-2.118543088E-1,5.807018280E-1
1.493540480E0,-1.006674170E-1,-1.862879843E-1,5.732449889E-1
1.496028240E0,-6.338318437E-2,-1.585911214E-1,5.604618192E-1
1.498516000E0,-2.290316857E-2,-1.298290044E-1,5.434176326E-1
1.501003761E0,1.757685095E-2,-1.000016257E-1,5.221123695E-1
1.503491521E0,5.912213027E-2,-7.230477035E-2,4.965460002E-1
1.505979282E0,9.960214794E-2,-4.460791498E-2,4.688491523E-1
1.508467042E0,1.379516423E-1,-1.584579609E-2,4.411523044E-1
1.510954803E0,1.741705984E-1,1.078579482E-2,4.113249183E-1
1.513442563E0,2.050632536E-1,3.635212034E-2,3.825628161E-1
1.515930323E0,2.316948473E-1,6.085318699E-2,3.548659384E-1
1.518418084E0,2.530001104E-1,8.428898454E-2,3.292996287E-1
1.520905844E0,2.657832801E-1,1.055942550E-1,3.069290817E-1
1.523393605E0,2.721748650E-1,1.247690022E-1,2.888196111E-1
1.525881365E0,2.721748650E-1,1.396826953E-1,2.728406489E-1
1.528369125E0,2.636527419E-1,1.545963883E-1,2.589922249E-1
1.530856886E0,2.476737946E-1,1.652490199E-1,2.494048476E-1
1.533344646E0,2.253032625E-1,1.737711281E-1,2.430132627E-1
1.535832407E0,1.965411454E-1,1.790974438E-1,2.366216928E-1
1.538320167E0,1.635179669E-1,1.812279820E-1,2.334259003E-1
1.540807875E0,1.262337416E-1,1.801627129E-1,2.302301079E-1
1.543295584E0,8.575372398E-2,1.780321896E-1,2.302301079E-1
1.545783292E0,4.527370632E-2,1.727058738E-1,2.291648388E-1
1.548271000E0,6.924213842E-3,1.663142890E-1,2.291648388E-1
1.550758709E0,-3.142527863E-2,1.588574350E-1,2.291648388E-1
1.553246417E0,-6.657897681E-2,1.514005959E-1,2.291648388E-1
1.555734125E0,-9.640636295E-2,1.450090110E-1,2.291648388E-1
1.558221834E0,-1.219726875E-1,1.386174262E-1,2.291648388E-1
1.560709542E0,-1.422126889E-1,1.343563795E-1,2.280995846E-1
1.563197250E0,-1.560611278E-1,1.311605871E-1,2.259690464E-1
1.565684959E0,-1.656484902E-1,1.322258562E-1,2.238385230E-1
1.568172667E0,-1.688442826E-1,1.332911104E-1,2.195774615E-1
1.570660375E0,-1.667137593E-1,1.386174262E-1,2.131858915E-1
1.573148084E0,-1.603221744E-1,1.450090110E-1,2.057290375E-1
1.575635792E0,-1.496695429E-1,1.535311192E-1,1.972069293E-1
1.578123500E0,-1.358211190E-1,1.641837656E-1,1.876195520E-1
1.580611209E0,-1.187768951E-1,1.748363972E-1,1.769669205E-1
1.583098917E0,-9.960214794E-2,1.854890287E-1,1.652490199E-1
1.585586625E0,-7.829687744E-2,1.972069293E-1,1.524658650E-1
1.588074334E0,-5.592634156E-2,2.089248300E-1,1.396826953E-1
1.590562042E0,-3.355580568E-2,2.217079997E-1,1.258342713E-1
1.593049750E0,-1.225053146E-2,2.334259003E-1,1.119858399E-1
1.595537459E0,9.054740891E-3,2.462090552E-1,9.813741595E-2
1.598025167E0,2.929474972E-2,2.589922249E-1,8.322372288E-2
1.600512875E0,4.846949503E-2,2.728406489E-1,6.937529147E-2
1.603000584E0,6.657897681E-2,2.877543271E-1,5.659212917E-2
1.605488292E0,8.255793154E-2,3.016027808E-1,4.487423226E-2
1.607976053E0,9.747162461E-2,3.175817132E-1,3.422159329E-2
1.610463813E0,1.102547869E-1,3.314301372E-1,2.463422157E-2
1.612951573E0,1.219726875E-1,3.452785909E-1,1.717737690E-2
1.615439334E0,1.304948032E-1,3.591270149E-1,1.185105834E-2
1.617927094E0,1.390169114E-1,3.708449006E-1,8.655266836E-3
1.620414855E0,1.454084814E-1,3.836280704E-1,5.459476262E-3
1.622902615E0,1.496695429E-1,3.953459561E-1,3.328948980E-3
1.625390375E0,1.507348120E-1,4.059986174E-1,3.328948980E-3
1.627878136E0,1.496695429E-1,4.155859649E-1,2.263685223E-3
1.630365896E0,1.454084814E-1,4.230428338E-1,1.331579551E-4
1.632853657E0,1.379516423E-1,4.283691347E-1,1.331579551E-4
1.635341417E0,1.272990108E-1,4.315649271E-1,1.331579551E-4
1.637829178E0,1.134505793E-1,4.326302111E-1,1.331579551E-4
1.640316938E0,9.747162461E-2,4.315649271E-1,1.198421582E-3
1.642804698E0,7.936213911E-2,4.283691347E-1,3.328948980E-3
1.645292459E0,5.805686861E-2,4.241080880E-1,6.524739787E-3
1.647780219E0,3.355580568E-2,4.198470414E-1,1.078579482E-2
1.650267980E0,6.924213842E-3,4.155859649E-1,1.717737690E-2
1.652755740E0,-2.290316857E-2,4.102596641E-1,2.356895804E-2
1.655243500E0,-5.379581451E-2,4.028028250E-1,3.102580272E-2
1.657731261E0,-8.788424730E-2,3.953459561E-1,3.954791278E-2
1.660219021E0,-1.230379492E-1,3.878891170E-1,4.913528636E-2
1.662706782E0,-1.592569202E-1,3.783017397E-1,5.872265995E-2
1.665194542E0,-1.954758763E-1,3.665838540E-1,6.937529147E-2
1.667682303E0,-2.316948473E-1,3.548659384E-1,7.789740711E-2
1.670170063E0,-2.679138184E-1,3.420827985E-1,8.641951531E-2
1.672657823E0,-3.020022511E-1,3.282343447E-1,9.387636185E-2
1.675145584E0,-3.339601457E-1,3.143859208E-1,1.013332009E-1
1.677633344E0,-3.637875319E-1,3.016027808E-1,1.077247858E-1
1.680121105E0,-3.904191256E-1,2.888196111E-1,1.119858399E-1
1.682608865E0,-4.149201810E-1,2.771016955E-1,1.162468940E-1
1.685096625E0,-4.362254739E-1,2.653838098E-1,1.183774248E-1
1.687584386E0,-4.532696903E-1,2.557964325E-1,1.183774248E-1
1.690072146E0,-4.681833684E-1,2.462090552E-1,1.173121557E-1
1.692559907E0,-4.777707458E-1,2.366216928E-1,1.162468940E-1
1.695047667E0,-4.841623306E-1,2.280995846E-1,1.130511016E-1
1.697535428E0,-4.862928391E-1,2.206427306E-1,1.077247858E-1
1.700023188E0,-4.862928391E-1,2.121206224E-1,1.023984700E-1
1.702510948E0,-4.820317924E-1,2.035985142E-1,9.600688517E-2
1.704998709E0,-4.745749533E-1,1.961416751E-1,8.855003864E-2
1.707486469E0,-4.628570378E-1,1.886848211E-1,7.896266878E-2
1.709974230E0,-4.500738978E-1,1.801627129E-1,7.150582224E-2
1.712461990E0,-4.340949357E-1,1.727058738E-1,6.298371404E-2
1.714949750E0,-4.170507193E-1,1.641837656E-1,5.446160212E-2
1.717437511E0,-3.957454562E-1,1.567269117E-1,4.593949392E-2
1.719925271E0,-3.733749092E-1,1.492700726E-1,3.848264739E-2
1.722413032E0,-3.488738537E-1,1.428784877E-1,3.315633163E-2
1.724900792E0,-3.211769760E-1,1.386174262E-1,2.783001214E-2
1.727388553E0,-2.913496196E-1,1.343563795E-1,2.356895804E-2
1.729876313E0,-2.593916953E-1,1.332911104E-1,1.930790395E-2
1.732364073E0,-2.231727391E-1,1.354216337E-1,1.504684892E-2
1.734851834E0,-1.858884990E-1,1.396826953E-1,1.078579482E-2
1.737339594E0,-1.454084814E-1,1.460742801E-1,8.655266836E-3
1.739827355E0,-1.038632020E-1,1.556616426E-1,5.459476262E-3
1.742315115E0,-5.912213027E-2,1.652490199E-1,2.263685223E-3
1.744802875E0,-1.118526794E-2,1.759016514E-1,1.331579551E-4
1.747290636E0,3.675159439E-2,1.886848211E-1,-4.127896391E-3
1.749778396E0,8.575372398E-2,2.004027218E-1,-1.051947847E-2
1.752266157E0,1.347558498E-1,2.121206224E-1,-1.797632314E-2
1.754753917E0,1.848232448E-1,2.238385230E-1,-2.862896025E-2
1.757241678E0,2.327601016E-1,2.344911546E-1,-3.928159550E-2
1.759729438E0,2.796317041E-1,2.462090552E-1,-5.313002318E-2
1.762217198E0,3.254380524E-1,2.579269707E-1,-6.804371625E-2
1.764704959E0,3.680485785E-1,2.696448565E-1,-8.402267098E-2
1.767192719E0,4.085285962E-1,2.813627720E-1,-1.010668874E-1
1.769680480E0,4.468781054E-1,2.920154035E-1,-1.191763729E-1
1.772168240E0,4.852275848E-1,3.026680350E-1,-1.372858584E-1
1.774656000E0,5.193160176E-1,3.133206666E-1,-1.553953290E-1
1.777143761E0,5.512739420E-1,3.239732981E-1,-1.745700836E-1
1.779631521E0,5.821665525E-1,3.324954212E-1,-1.916143000E-1
1.782119282E0,6.098634601E-1,3.410175145E-1,-2.086585164E-1
1.784607042E0,6.332992315E-1,3.474090993E-1,-2.235722095E-1
1.787094803E0,6.556697488E-1,3.516701460E-1,-2.384859025E-1
1.789582563E0,6.737792492E-1,3.548659384E-1,-2.523343265E-1
1.792070323E0,6.876276731E-1,3.559312224E-1,-2.640522122E-1
1.794558084E0,6.982803345E-1,3.548659384E-1,-2.747048736E-1
1.797045844E0,7.036066055E-1,3.527354300E-1,-2.842922211E-1
1.799533605E0,7.046719193E-1,3.495396376E-1,-2.917490900E-1
1.802021365E0,7.014760971E-1,3.442133069E-1,-2.981406748E-1
1.804509125E0,6.940192580E-1,3.367564678E-1,-3.024017215E-1
1.806996886E0,6.823013425E-1,3.292996287E-1,-3.066627681E-1
1.809484646E0,6.673876643E-1,3.207775056E-1,-3.087933064E-1
1.811972407E0,6.482129097E-1,3.111901283E-1,-3.109238148E-1
1.814460167E0,6.258423924E-1,3.005374968E-1,-3.109238148E-1
1.816947928E0,6.002760530E-1,2.909501195E-1,-3.109238148E-1
1.819435688E0,5.736444592E-1,2.792322338E-1,-3.098585606E-1
1.821923448E0,5.459476113E-1,2.685796022E-1,-3.066627681E-1
1.824411209E0,5.171855092E-1,2.589922249E-1,-3.002711833E-1
1.826898969E0,4.873581231E-1,2.494048476E-1,-2.949448824E-1
1.829386730E0,4.575307369E-1,2.419480085E-1,-2.864227593E-1
1.831874490E0,4.298338890E-1,2.355564237E-1,-2.757701278E-1
1.834362250E0,4.032022953E-1,2.312953621E-1,-2.619217038E-1
1.836850011E0,3.787012100E-1,2.291648388E-1,-2.438122183E-1
1.839337771E0,3.563306928E-1,2.302301079E-1,-2.257027328E-1
1.841825532E0,3.360906839E-1,2.323606312E-1,-2.033322006E-1
1.844313292E0,3.158506751E-1,2.366216928E-1,-1.809616536E-1
1.846801053E0,2.966759205E-1,2.419480085E-1,-1.575258672E-1
1.849288813E0,2.775011659E-1,2.483395934E-1,-1.330247968E-1
1.851776573E0,2.572611570E-1,2.557964325E-1,-1.085237339E-1
1.854264334E0,2.348906398E-1,2.632532716E-1,-8.402267098E-2
1.856752094E0,2.103895694E-1,2.717753947E-1,-6.058686972E-2
1.859239855E0,1.837579757E-1,2.792322338E-1,-3.821633384E-2
1.861727615E0,1.560611278E-1,2.877543271E-1,-1.584579609E-2
1.864215375E0,1.241032109E-1,2.941459119E-1,3.328948980E-3
1.866703136E0,9.108003974E-2,3.016027808E-1,2.250369452E-2
1.869190896E0,5.592634156E-2,3.079943359E-1,4.061317816E-2
1.871678657E0,1.970737800E-2,3.133206666E-1,5.765739456E-2
1.874166417E0,-1.651158556E-2,3.165164590E-1,7.257108390E-2
1.876654178E0,-5.379581451E-2,3.197122514E-1,8.855003864E-2
1.879141938E0,-9.214530140E-2,3.207775056E-1,1.023984700E-1
1.881629698E0,-1.283642650E-1,3.207775056E-1,1.162468940E-1
1.884117459E0,-1.645832360E-1,3.197122514E-1,1.300953180E-1
1.886605219E0,-1.976063997E-1,3.165164590E-1,1.439437568E-1
1.889092980E0,-2.306295782E-1,3.122554123E-1,1.577921808E-1
1.891580740E0,-2.615222335E-1,3.090596199E-1,1.705753356E-1
1.894068500E0,-2.892190814E-1,3.037332892E-1,1.833585054E-1
1.896556261E0,-3.147853911E-1,3.005374968E-1,1.950764060E-1
1.899044021E0,-3.360906839E-1,2.962764502E-1,2.078595608E-1
1.901531782E0,-3.552654386E-1,2.930806577E-1,2.185122073E-1
1.904019542E0,-3.712443709E-1,2.898848653E-1,2.280995846E-1
1.906507303E0,-3.829622865E-1,2.866890728E-1,2.344911546E-1
1.908995063E0,-3.925496638E-1,2.834932804E-1,2.408827394E-1
1.911482823E0,-3.989412189E-1,2.813627720E-1,2.451438010E-1
1.913970584E0,-4.032022953E-1,2.792322338E-1,2.472743243E-1
1.916458344E0,-4.063980877E-1,2.760364413E-1,2.472743243E-1
1.918946105E0,-4.085285962E-1,2.728406489E-1,2.462090552E-1
1.921433865E0,-4.095938802E-1,2.696448565E-1,2.430132627E-1
1.923921625E0,-4.095938802E-1,2.653838098E-1,2.376869470E-1
1.926409386E0,-4.085285962E-1,2.611227632E-1,2.323606312E-1
1.928897146E0,-4.074633420E-1,2.568616867E-1,2.270343155E-1
1.931384907E0,-4.053328037E-1,2.526006401E-1,2.206427306E-1
1.933872667E0,-4.010717571E-1,2.483395934E-1,2.163816839E-1
1.936360428E0,-3.957454562E-1,2.430132627E-1,2.110553533E-1
1.938848188E0,-3.904191256E-1,2.376869470E-1,2.078595608E-1
1.941335948E0,-3.818970025E-1,2.302301079E-1,2.035985142E-1
1.943823709E0,-3.723096550E-1,2.238385230E-1,1.993374527E-1
1.946311469E0,-3.605917394E-1,2.174469382E-1,1.972069293E-1
1.948799230E0,-3.478085697E-1,2.110553533E-1,1.929458827E-1
1.951286990E0,-3.350254297E-1,2.046637833E-1,1.886848211E-1
1.953774750E0,-3.222422600E-1,1.961416751E-1,1.854890287E-1
1.956262511E0,-3.083938360E-1,1.876195520E-1,1.812279820E-1
1.958750271E0,-2.945453823E-1,1.790974438E-1,1.769669205E-1
1.961238032E0,-2.806969583E-1,1.705753356E-1,1.716406047E-1
1.963725792E0,-2.657832801E-1,1.620532274E-1,1.652490199E-1
1.966213553E0,-2.519348562E-1,1.556616426E-1,1.588574350E-1
1.968701313E0,-2.359558940E-1,1.471395344E-1,1.503353268E-1
1.971189073E0,-2.189116776E-1,1.407479644E-1,1.418132186E-1
1.973676834E0,-2.018674612E-1,1.343563795E-1,1.332911104E-1
1.976164594E0,-1.837579757E-1,1.290300637E-1,1.226384789E-1
1.978652355E0,-1.656484902E-1,1.226384789E-1,1.130511016E-1
1.981140115E0,-1.486042738E-1,1.173121557E-1,1.034637317E-1
1.983627875E0,-1.304948032E-1,1.130511016E-1,9.387636185E-2
1.986115636E0,-1.123853177E-1,1.087900475E-1,8.428898454E-2
1.988603396E0,-9.427583218E-2,1.045289934E-1,7.576687634E-2
1.991091157E0,-7.723161578E-2,1.013332009E-1,6.831002980E-2
1.993578917E0,-6.018739566E-2,9.813741595E-2,6.085318699E-2
1.996066678E0,-4.420844093E-2,9.494162351E-2,5.552686751E-2
1.998554438E0,-2.822948620E-2,9.281109273E-2,5.020054802E-2
2.001042198E0,-1.331579592E-2,8.961530030E-2,4.700475931E-2
2.003529959E0,1.597895520E-3,8.748477697E-2,4.380896688E-2
2.006017719E0,1.331579592E-2,8.641951531E-2,4.167843983E-2
2.008505480E0,2.609895915E-2,8.428898454E-2,4.061317816E-2
2.010993240E0,3.675159439E-2,8.322372288E-2,3.848264739E-2
2.013481000E0,4.527370632E-2,8.215846121E-2,3.741738573E-2
2.015968761E0,5.273054913E-2,7.896266878E-2,3.635212034E-2
2.018456521E0,5.805686861E-2,7.576687634E-2,3.422159329E-2
2.020944282E0,6.338318437E-2,7.150582224E-2,3.315633163E-2
2.023432042E0,6.657897681E-2,6.617950648E-2,3.209106624E-2
2.025919803E0,6.870950758E-2,6.191844866E-2,3.102580272E-2
2.028407563E0,6.977476925E-2,5.765739456E-2,2.996053919E-2
2.030895323E0,6.977476925E-2,5.339634046E-2,2.889527567E-2
2.033383084E0,6.870950758E-2,5.020054802E-2,2.783001214E-2
2.035870844E0,6.764423847E-2,4.593949392E-2,2.783001214E-2
2.038358605E0,6.764423847E-2,4.274370521E-2,2.783001214E-2
2.040846365E0,6.551371515E-2,3.954791278E-2,2.783001214E-2
2.043334125E0,6.338318437E-2,3.741738573E-2,2.889527567E-2
2.045821886E0,6.231792271E-2,3.528685868E-2,2.889527567E-2
2.048309646E0,6.018739566E-2,3.422159329E-2,2.889527567E-2
2.050797407E0,5.699160323E-2,3.422159329E-2,2.783001214E-2
2.053285167E0,5.379581451E-2,3.528685868E-2,2.783001214E-2
2.055772928E0,5.166528746E-2,3.741738573E-2,2.569948509E-2
2.058260688E0,4.953476042E-2,4.061317816E-2,2.463422157E-2
2.060748448E0,4.633896798E-2,4.380896688E-2,2.143843099E-2
2.063236209E0,4.420844093E-2,4.913528636E-2,1.824264042E-2
2.065723969E0,4.207791388E-2,5.446160212E-2,1.398158539E-2
2.068211730E0,3.994738683E-2,5.978792161E-2,9.720530361E-3
2.070699490E0,3.781685978E-2,6.404897571E-2,5.459476262E-3
2.073187250E0,3.568633273E-2,6.831002980E-2,-9.321057005E-4
2.075675011E0,3.355580568E-2,7.044056058E-2,-7.323687430E-3
2.078162771E0,3.036001325E-2,7.150582224E-2,-1.478053257E-2
2.080650532E0,2.609895915E-2,7.044056058E-2,-2.223737910E-2
2.083138292E0,2.183790505E-2,6.617950648E-2,-3.075948730E-2
2.085626053E0,1.651158556E-2,5.978792161E-2,-3.715106845E-2
2.088113813E0,9.054740891E-3,5.126581341E-2,-4.460791498E-2
2.090601573E0,1.597895520E-3,3.848264739E-2,-5.099949613E-2
2.093089334E0,-7.989477366E-3,2.356895804E-2,-5.739107728E-2
2.095577094E0,-1.864211448E-2,5.459476262E-3,-6.378266215E-2
2.098064803E0,-3.036001325E-2,-1.371526904E-2,-6.910897791E-2
2.100552511E0,-4.420844093E-2,-3.502054140E-2,-7.337003201E-2
2.103040219E0,-5.805686861E-2,-5.952160433E-2,-7.656582445E-2
2.105527928E0,-7.403582335E-2,-8.615319431E-2,-7.656582445E-2
2.108015636E0,-9.108003974E-2,-1.138500497E-1,-7.656582445E-2
2.110503344E0,-1.081242561E-1,-1.426121742E-1,-7.230477035E-2
2.112991053E0,-1.251684725E-1,-1.713742912E-1,-6.804371625E-2
2.115478761E0,-1.432779580E-1,-2.022669315E-1,-6.165213138E-2
2.117966469E0,-1.603221744E-1,-2.331595868E-1,-5.206476152E-2
2.120454178E0,-1.784316599E-1,-2.619217038E-1,-4.141212255E-2
2.122941886E0,-1.954758763E-1,-2.906838059E-1,-2.862896025E-2
2.125429594E0,-2.125200927E-1,-3.194459379E-1,-1.478053257E-2
2.127917303E0,-2.274337858E-1,-3.471427858E-1,1.198421582E-3
2.130405011E0,-2.412822098E-1,-3.737743795E-1,1.824264042E-2
2.132892719E0,-2.530001104E-1,-3.993407190E-1,3.422159329E-2
2.135380428E0,-2.625874877E-1,-4.238417745E-1,5.126581341E-2
2.137868136E0,-2.711096108E-1,-4.451470375E-1,6.937529147E-2
2.140355844E0,-2.775011659E-1,-4.653870463E-1,8.535424620E-2
2.142843553E0,-2.806969583E-1,-4.834965467E-1,1.002679393E-1
2.145331261E0,-2.817622423E-1,-4.984102249E-1,1.130511016E-1
2.147818969E0,-2.806969583E-1,-5.111933947E-1,1.237037405E-1
2.150306678E0,-2.753706574E-1,-5.197154880E-1,1.322258562E-1
2.152794386E0,-2.689790726E-1,-5.261070728E-1,1.386174262E-1
2.155282094E0,-2.604569495E-1,-5.282375813E-1,1.418132186E-1
2.157769803E0,-2.476737946E-1,-5.282375813E-1,1.450090110E-1
2.160257511E0,-2.338253707E-1,-5.239765644E-1,1.450090110E-1
2.162745219E0,-2.167811543E-1,-5.186502337E-1,1.428784877E-1
2.165232928E0,-1.965411454E-1,-5.101281404E-1,1.396826953E-1
2.167720688E0,-1.741705984E-1,-4.984102249E-1,1.343563795E-1
2.170208448E0,-1.475390196E-1,-4.845618010E-1,1.279647946E-1
2.172696209E0,-1.198421568E-1,-4.696480930E-1,1.194426864E-1
2.175183969E0,-8.681898564E-2,-4.515386224E-1,1.098553166E-1
2.177671730E0,-5.166528746E-2,-4.312986135E-1,9.813741595E-2
2.180159490E0,-1.331579592E-2,-4.099933505E-1,8.641951531E-2
2.182647250E0,2.609895915E-2,-3.876228034E-1,7.257108390E-2
2.185135011E0,6.977476925E-2,-3.631217480E-1,5.659212917E-2
2.187622771E0,1.134505793E-1,-3.375554085E-1,3.954791278E-2
2.190110532E0,1.592569202E-1,-3.087933064E-1,2.143843099E-2
2.192598292E0,2.071937770E-1,-2.810964286E-1,2.263685223E-3
2.195086053E0,2.561959028E-1,-2.512690723E-1,-1.797632314E-2
2.197573813E0,3.062632978E-1,-2.203764170E-1,-3.821633384E-2
2.200061573E0,3.573959470E-1,-1.905490309E-1,-5.952160433E-2
2.202549334E0,4.085285962E-1,-1.596563905E-1,-8.082687855E-2
2.205037094E0,4.585959911E-1,-1.287637353E-1,-1.042626798E-1
2.207524855E0,5.097286701E-1,-9.680583328E-2,-1.276984811E-1
2.210012615E0,5.597960353E-1,-6.484792382E-2,-1.521995366E-1
2.212500375E0,6.087981462E-1,-3.289001435E-2,-1.756353378E-1
2.214988136E0,6.546044946E-1,-9.321057005E-4,-2.012016773E-1
2.217475896E0,6.993455887E-1,3.102580272E-2,-2.257027328E-1
2.219963657E0,7.419561148E-1,6.298371404E-2,-2.512690723E-1
2.222451417E0,7.813708782E-1,9.600688517E-2,-2.768353820E-1
2.224939178E0,8.175898194E-1,1.279647946E-1,-3.013364673E-1
2.227426938E0,8.516782522E-1,1.609879732E-1,-3.269027770E-1
2.229914698E0,8.825709224E-1,1.929458827E-1,-3.514038324E-1
2.232402459E0,9.092025161E-1,2.238385230E-1,-3.769701719E-1
2.234890219E0,9.337036014E-1,2.547311783E-1,-4.014712274E-1
2.237377980E0,9.550088644E-1,2.834932804E-1,-4.259723127E-1
2.239865740E0,9.741836190E-1,3.090596199E-1,-4.483428299E-1
2.242353500E0,9.912278056E-1,3.324954212E-1,-4.696480930E-1
2.244841261E0,1.005076289E0,3.527354300E-1,-4.898881316E-1
2.247329021E0,1.014663577E0,3.708449006E-1,-5.079975724E-1
2.249816782E0,1.023185730E0,3.846933246E-1,-5.261070728E-1
2.252304542E0,1.028512001E0,3.953459561E-1,-5.420860648E-1
2.254792303E0,1.031707883E0,4.038680792E-1,-5.569997430E-1
2.257280063E0,1.032773137E0,4.091944098E-1,-5.708481669E-1
2.259767823E0,1.031707883E0,4.113249183E-1,-5.836313367E-1
2.262255584E0,1.027446747E0,4.113249183E-1,-5.953491926E-1
2.264743344E0,1.023185730E0,4.091944098E-1,-6.081323624E-1
2.267231105E0,1.017859459E0,4.038680792E-1,-6.198502779E-1
2.269718865E0,1.011467814E0,3.964112401E-1,-6.305029392E-1
2.272206625E0,1.004011035E0,3.878891170E-1,-6.400902867E-1
2.274694386E0,9.976193905E-1,3.761712313E-1,-6.496776342E-1
2.277182146E0,9.890972972E-1,3.633880615E-1,-6.581997871E-1
2.279669907E0,9.805752039E-1,3.474090993E-1,-6.645913720E-1
2.282157667E0,9.709877968E-1,3.314301372E-1,-6.709829569E-1
2.284645428E0,9.603351951E-1,3.133206666E-1,-6.763092279E-1
2.287133188E0,9.475520253E-1,2.952111959E-1,-6.784397960E-1
2.289620948E0,9.326383471E-1,2.760364413E-1,-6.784397960E-1
2.292108709E0,9.155941010E-1,2.568616867E-1,-6.763092279E-1
2.294596469E0,8.964193463E-1,2.376869470E-1,-6.720482111E-1
2.297084230E0,8.740488291E-1,2.185122073E-1,-6.645913720E-1
2.299571990E0,8.484824896E-1,2.004027218E-1,-6.550039649E-1
2.302059750E0,8.207856417E-1,1.833585054E-1,-6.432861090E-1
2.304547511E0,7.877624631E-1,1.684448123E-1,-6.273071170E-1
2.307035271E0,7.504782081E-1,1.535311192E-1,-6.081323624E-1
2.309523032E0,7.089329362E-1,1.407479644E-1,-5.846965909E-1
2.312010792E0,6.620613337E-1,1.290300637E-1,-5.580649972E-1
2.314498553E0,6.119939685E-1,1.183774248E-1,-5.271723270E-1
2.316986313E0,5.555350184E-1,1.077247858E-1,-4.920186400E-1
2.319474073E0,4.948149621E-1,9.813741595E-2,-4.536691606E-1
2.321961834E0,4.287686050E-1,8.961530030E-2,-4.121238589E-1
2.324449594E0,3.563306928E-1,8.215846121E-2,-3.652522564E-1
2.326937355E0,2.785664499E-1,7.576687634E-2,-3.173153996E-1
2.329425115E0,1.976063997E-1,7.150582224E-2,-2.651174963E-1
2.331912875E0,1.113200486E-1,6.724476814E-2,-2.097237855E-1
2.334400636E0,2.290316857E-2,6.511423737E-2,-1.521995366E-1
2.336888396E0,-6.870950758E-2,6.191844866E-2,-9.254477918E-2
2.339376157E0,-1.635179669E-1,5.978792161E-2,-3.075948730E-2
2.341863917E0,-2.593916953E-1,5.765739456E-2,3.209106624E-2
2.344351678E0,-3.563306928E-1,5.446160212E-2,9.600688517E-2
2.346839438E0,-4.522044063E-1,5.020054802E-2,1.609879732E-1
2.349327198E0,-5.480781198E-1,4.593949392E-2,2.249037921E-1
2.351814959E0,-6.428865790E-1,4.167843983E-2,2.888196111E-1
2.354302719E0,-7.344992757E-1,3.635212034E-2,3.506048918E-1
2.356790480E0,-8.218508959E-1,2.996053919E-2,4.091944098E-1
2.359278240E0,-9.049414396E-1,2.356895804E-2,4.667186439E-1
2.361766000E0,-9.837709665E-1,1.611211337E-2,5.199818015E-1
2.364253761E0,-1.057274222E0,7.590003312E-3,5.679186583E-1
2.366741521E0,-1.124385715E0,1.331579551E-4,6.137250066E-1
2.369229282E0,-1.187236309E0,-8.388951421E-3,6.542050242E-1
2.371717042E0,-1.244760513E0,-1.584579609E-2,6.914892793E-1
2.374204803E0,-1.294827938E0,-2.436790615E-2,7.234471440E-1
2.376692563E0,-1.339568973E0,-3.182475269E-2,7.522093058E-1
2.379180323E0,-1.375787973E0,-4.034686089E-2,7.767103314E-1
2.381668084E0,-1.404550076E0,-4.780370742E-2,7.948198318E-1
2.384155844E0,-1.426920652E0,-5.419528857E-2,8.086682558E-1
2.386643605E0,-1.439703822E0,-6.058686972E-2,8.171903491E-1
2.389131365E0,-1.442899585E0,-6.591318548E-2,8.193209171E-1
2.391619125E0,-1.438638568E0,-7.123950869E-2,8.150598407E-1
2.394106886E0,-1.424790144E0,-7.443529367E-2,8.033419251E-1
2.396594646E0,-1.401354313E0,-7.656582445E-2,7.884282470E-1
2.399082407E0,-1.369396448E0,-7.763108611E-2,7.671229839E-1
2.401570167E0,-1.327851176E0,-7.550056279E-2,7.404913902E-1
2.404057928E0,-1.277783751E0,-7.337003201E-2,7.095987201E-1
2.406545688E0,-1.220259547E0,-6.804371625E-2,6.744450331E-1
2.409033448E0,-1.156343699E0,-6.271740049E-2,6.360955238E-1
2.411521209E0,-1.086036325E0,-5.313002318E-2,5.956155062E-1
2.414008969E0,-1.009337306E0,-4.247738793E-2,5.519397259E-1
2.416496730E0,-9.283772707E-1,-2.969422378E-2,5.061333776E-1
2.418984490E0,-8.442214131E-1,-1.584579609E-2,4.592617750E-1
2.421472250E0,-7.568697929E-1,-1.997369342E-3,4.113249183E-1
2.423960011E0,-6.673876643E-1,1.398158539E-2,3.623228073E-1
2.426447771E0,-5.768402815E-1,2.996053919E-2,3.133206666E-1
2.428935532E0,-4.862928391E-1,4.593949392E-2,2.643185556E-1
2.431423292E0,-3.968107104E-1,6.298371404E-2,2.163816839E-1
2.433911053E0,-3.105243444E-1,7.896266878E-2,1.684448123E-1
2.436398813E0,-2.274337858E-1,9.494162351E-2,1.226384789E-1
2.438886573E0,-1.496695429E-1,1.109205782E-1,7.896266878E-2
2.441374334E0,-7.723161578E-2,1.247690022E-1,3.635212034E-2
2.443862094E0,-1.118526794E-2,1.386174262E-1,-1.997369342E-3
2.446349855E0,4.846949503E-2,1.503353268E-1,-3.715106845E-2
2.448837615E0,1.017326787E-1,1.609879732E-1,-6.910897791E-2
2.451325375E0,1.486042738E-1,1.705753356E-1,-9.680583328E-2
2.453813136E0,1.901495606E-1,1.780321896E-1,-1.213068962E-1
2.456300896E0,2.263685167E-1,1.844237745E-1,-1.426121742E-1
2.458788657E0,2.561959028E-1,1.897500902E-1,-1.596563905E-1
2.461276417E0,2.796317041E-1,1.940111369E-1,-1.724395454E-1
2.463764178E0,2.977411747E-1,1.972069293E-1,-1.809616536E-1
2.466251938E0,3.105243444E-1,1.982721984E-1,-1.873532385E-1
2.468739698E0,3.169159293E-1,1.982721984E-1,-1.894837767E-1
2.471227459E0,3.179811835E-1,1.961416751E-1,-1.884185076E-1
2.473715219E0,3.126548827E-1,1.918806136E-1,-1.830921918E-1
2.476202980E0,3.030675054E-1,1.865542978E-1,-1.745700836E-1
2.478690740E0,2.870885432E-1,1.801627129E-1,-1.649827063E-1
2.481178500E0,2.679138184E-1,1.727058738E-1,-1.511342824E-1
2.483666261E0,2.434127480E-1,1.641837656E-1,-1.362205893E-1
2.486154021E0,2.157158852E-1,1.535311192E-1,-1.181111038E-1
2.488641782E0,1.848232448E-1,1.428784877E-1,-1.010668874E-1
2.491129542E0,1.507348120E-1,1.322258562E-1,-8.189214021E-2
2.493617303E0,1.145158410E-1,1.194426864E-1,-6.058686972E-2
2.496105063E0,7.510108501E-2,1.066595241E-1,-3.928159550E-2
2.498592823E0,3.675159439E-2,9.387636185E-2,-1.691105962E-2
2.501080584E0,-3.728422802E-3,7.896266878E-2,6.524739787E-3
2.503568344E0,-4.527370632E-2,6.404897571E-2,2.996053919E-2
2.506056105E0,-8.575372398E-2,4.700475931E-2,5.339634046E-2
2.508543865E0,-1.251684725E-1,3.209106624E-2,7.683213800E-2
2.511031625E0,-1.645832360E-1,1.611211337E-2,1.002679393E-1
2.513519386E0,-2.018674612E-1,2.263685223E-3,1.215732098E-1
2.516007146E0,-2.370211631E-1,-1.158474199E-2,1.428784877E-1
2.518494907E0,-2.689790726E-1,-2.436790615E-2,1.620532274E-1
2.520982667E0,-2.956106663E-1,-3.502054140E-2,1.812279820E-1
2.523470428E0,-3.190464675E-1,-4.354264960E-2,1.982721984E-1
2.525958188E0,-3.371559381E-1,-5.099949613E-2,2.131858915E-1
2.528445948E0,-3.499391079E-1,-5.632581562E-2,2.259690464E-1
2.530933709E0,-3.563306928E-1,-5.845634267E-2,2.376869470E-1
2.533421469E0,-3.595264852E-1,-5.845634267E-2,2.472743243E-1
2.535909230E0,-3.563306928E-1,-5.739107728E-2,2.536658943E-1
2.538396990E0,-3.488738537E-1,-5.419528857E-2,2.589922249E-1
2.540884750E0,-3.382211924E-1,-4.993423447E-2,2.611227632E-1
2.543372511E0,-3.243727684E-1,-4.460791498E-2,2.611227632E-1
2.545860271E0,-3.073285520E-1,-3.821633384E-2,2.589922249E-1
2.548348032E0,-2.881538272E-1,-3.182475269E-2,2.536658943E-1
2.550835792E0,-2.657832801E-1,-2.330264263E-2,2.472743243E-1
2.553323553E0,-2.412822098E-1,-1.478053257E-2,2.387522161E-1
2.555811313E0,-2.135853618E-1,-4.127896391E-3,2.291648388E-1
2.558299073E0,-1.837579757E-1,5.459476262E-3,2.163816839E-1
2.560786834E0,-1.507348120E-1,1.504684892E-2,2.035985142E-1
2.563274594E0,-1.177116334E-1,2.463422157E-2,1.876195520E-1
2.565762303E0,-8.255793154E-2,3.422159329E-2,1.727058738E-1
2.568250011E0,-4.527370632E-2,4.487423226E-2,1.567269117E-1
2.570737719E0,-7.989477366E-3,5.339634046E-2,1.386174262E-1
2.573225428E0,3.036001325E-2,6.404897571E-2,1.205079481E-1
2.575713136E0,6.657897681E-2,7.257108390E-2,1.013332009E-1
2.578200844E0,1.027979404E-1,8.002793044E-2,8.215846121E-2
2.580688553E0,1.379516423E-1,8.641951531E-2,6.191844866E-2
2.583176261E0,1.709748209E-1,9.174583107E-2,4.061317816E-2
2.585663969E0,2.039979845E-1,9.600688517E-2,1.930790395E-2
2.588151678E0,2.348906398E-1,1.002679393E-1,-9.321057005E-4
2.590639386E0,2.647180259E-1,1.023984700E-1,-2.223737910E-2
2.593127094E0,2.945453823E-1,1.045289934E-1,-4.247738793E-2
2.595614803E0,3.233075142E-1,1.055942550E-1,-6.165213138E-2
2.598102511E0,3.510043621E-1,1.087900475E-1,-7.976161689E-2
2.600590219E0,3.776359558E-1,1.109205782E-1,-9.787109494E-2
2.603077928E0,4.042675495E-1,1.130511016E-1,-1.138500497E-1
2.605565636E0,4.308991432E-1,1.162468940E-1,-1.276984811E-1
2.608053344E0,4.564654827E-1,1.205079481E-1,-1.415469050E-1
2.610541053E0,4.820317924E-1,1.247690022E-1,-1.543300748E-1
2.613028761E0,5.075981021E-1,1.290300637E-1,-1.681784987E-1
2.615516469E0,5.342296958E-1,1.354216337E-1,-1.798963994E-1
2.618004178E0,5.608612895E-1,1.428784877E-1,-1.905490309E-1
2.620491886E0,5.864276290E-1,1.492700726E-1,-2.012016773E-1
2.622979594E0,6.119939685E-1,1.577921808E-1,-2.118543088E-1
2.625467303E0,6.364950538E-1,1.652490199E-1,-2.225069404E-1
2.627955011E0,6.609960794E-1,1.737711281E-1,-2.331595868E-1
2.630442719E0,6.854971647E-1,1.812279820E-1,-2.438122183E-1
2.632930428E0,7.089329362E-1,1.886848211E-1,-2.544648647E-1
2.635418136E0,7.323687673E-1,1.961416751E-1,-2.640522122E-1
2.637905896E0,7.536740303E-1,2.035985142E-1,-2.747048736E-1
2.640393657E0,7.739140391E-1,2.099900991E-1,-2.853575051E-1
2.642881417E0,7.941540480E-1,2.163816839E-1,-2.970753908E-1
2.645369178E0,8.143940568E-1,2.206427306E-1,-3.087933064E-1
2.647856938E0,8.325035572E-1,2.249037921E-1,-3.215764761E-1
2.650344698E0,8.495477438E-1,2.302301079E-1,-3.343596160E-1
2.652832459E0,8.665919900E-1,2.344911546E-1,-3.482080400E-1
2.655320219E0,8.815056682E-1,2.398174703E-1,-3.620564938E-1
2.657807980E0,8.953540921E-1,2.440785319E-1,-3.759049177E-1
2.660295740E0,9.092025161E-1,2.483395934E-1,-3.908185959E-1
2.662783500E0,9.230509400E-1,2.515353858E-1,-4.046670198E-1
2.665271261E0,9.347688556E-1,2.547311783E-1,-4.185154438E-1
2.667759021E0,9.443562031E-1,2.568616867E-1,-4.302333593E-1
2.670246782E0,9.550088644E-1,2.579269707E-1,-4.419512451E-1
2.672734542E0,9.624657035E-1,2.568616867E-1,-4.536691606E-1
2.675222303E0,9.688572884E-1,2.568616867E-1,-4.632565379E-1
2.677710063E0,9.731183648E-1,2.547311783E-1,-4.717786312E-1
2.680197823E0,9.763141274E-1,2.536658943E-1,-4.781702161E-1
2.682685584E0,9.763141274E-1,2.515353858E-1,-4.824312627E-1
2.685173344E0,9.763141274E-1,2.494048476E-1,-4.845618010E-1
2.687661105E0,9.741836190E-1,2.472743243E-1,-4.845618010E-1
2.690148865E0,9.709877968E-1,2.462090552E-1,-4.834965467E-1
2.692636625E0,9.667267799E-1,2.451438010E-1,-4.792354703E-1
2.695124386E0,9.624657035E-1,2.462090552E-1,-4.739091694E-1
2.697612146E0,9.571393728E-1,2.462090552E-1,-4.664523304E-1
2.700099907E0,9.518130422E-1,2.472743243E-1,-4.579302073E-1
2.702587667E0,9.454214573E-1,2.483395934E-1,-4.483428299E-1
2.705075428E0,9.390298724E-1,2.494048476E-1,-4.387554526E-1
2.707563188E0,9.315730333E-1,2.504701018E-1,-4.281028211E-1
2.710050948E0,9.230509400E-1,2.526006401E-1,-4.174501896E-1
2.712538709E0,9.155941010E-1,2.526006401E-1,-4.067975581E-1
2.715026469E0,9.060067534E-1,2.536658943E-1,-3.961449265E-1
2.717514230E0,8.964193463E-1,2.526006401E-1,-3.876228034E-1
2.720001990E0,8.868319988E-1,2.526006401E-1,-3.780354261E-1
2.722489750E0,8.772445917E-1,2.515353858E-1,-3.705785871E-1
2.724977511E0,8.697877526E-1,2.494048476E-1,-3.631217480E-1
2.727465271E0,8.623309135E-1,2.483395934E-1,-3.567301631E-1
2.729953032E0,8.548740745E-1,2.472743243E-1,-3.514038324E-1
2.732440792E0,8.495477438E-1,2.451438010E-1,-3.482080400E-1
2.734928553E0,8.442214131E-1,2.440785319E-1,-3.450122476E-1
2.737416313E0,8.399603963E-1,2.408827394E-1,-3.428817391E-1
2.739904073E0,8.378298283E-1,2.387522161E-1,-3.418164849E-1
2.742391834E0,8.356993198E-1,2.366216928E-1,-3.407512009E-1
2.744879594E0,8.335688114E-1,2.355564237E-1,-3.407512009E-1
2.747367355E0,8.335688114E-1,2.334259003E-1,-3.407512009E-1
2.749855115E0,8.335688114E-1,2.334259003E-1,-3.407512009E-1
2.752342875E0,8.335688114E-1,2.334259003E-1,-3.407512009E-1
2.754830636E0,8.335688114E-1,2.355564237E-1,-3.407512009E-1
2.757318396E0,8.346340656E-1,2.387522161E-1,-3.407512009E-1
2.759806157E0,8.346340656E-1,2.440785319E-1,-3.418164849E-1
2.762293917E0,8.335688114E-1,2.504701018E-1,-3.418164849E-1
2.764781678E0,8.325035572E-1,2.611227632E-1,-3.428817391E-1
2.767269438E0,8.293077350E-1,2.717753947E-1,-3.428817391E-1
2.769757198E0,8.239814043E-1,2.856238186E-1,-3.428817391E-1
2.772244959E0,8.175898194E-1,2.984069884E-1,-3.418164849E-1
2.774732719E0,8.101329803E-1,3.133206666E-1,-3.407512009E-1
2.777220480E0,8.005456328E-1,3.282343447E-1,-3.407512009E-1
2.779708240E0,7.898929715E-1,3.420827985E-1,-3.418164849E-1
2.782196000E0,7.771098018E-1,3.538006842E-1,-3.428817391E-1
2.784683761E0,7.611308694E-1,3.623228073E-1,-3.450122476E-1
2.787171521E0,7.440866828E-1,3.687143922E-1,-3.471427858E-1
2.789659282E0,7.270424366E-1,3.708449006E-1,-3.503385782E-1
2.792147042E0,7.078676820E-1,3.697796464E-1,-3.524691164E-1
2.794634803E0,6.897581816E-1,3.644533157E-1,-3.545996249E-1
2.797122563E0,6.705834866E-1,3.548659384E-1,-3.556649089E-1
2.799610323E0,6.514087319E-1,3.420827985E-1,-3.577954173E-1
2.802098084E0,6.322339773E-1,3.250385821E-1,-3.577954173E-1
2.804585844E0,6.130592227E-1,3.037332892E-1,-3.588607013E-1
2.807073605E0,5.960150361E-1,2.792322338E-1,-3.588607013E-1
2.809561365E0,5.800360441E-1,2.504701018E-1,-3.588607013E-1
2.812049125E0,5.651223660E-1,2.185122073E-1,-3.588607013E-1
2.814536886E0,5.512739420E-1,1.854890287E-1,-3.588607013E-1
2.817024646E0,5.416865349E-1,1.514005959E-1,-3.588607013E-1
2.819512407E0,5.331644416E-1,1.183774248E-1,-3.588607013E-1
2.822000167E0,5.267728567E-1,8.641951531E-2,-3.588607013E-1
2.824487928E0,5.225118399E-1,5.765739456E-2,-3.588607013E-1
2.826975688E0,5.203812718E-1,3.209106624E-2,-3.599259555E-1
2.829463448E0,5.203812718E-1,1.078579482E-2,-3.609912097E-1
2.831951209E0,5.214465261E-1,-6.258423906E-3,-3.599259555E-1
2.834438969E0,5.246423483E-1,-2.010685205E-2,-3.599259555E-1
2.836926730E0,5.289034247E-1,-2.862896025E-2,-3.599259555E-1
2.839414490E0,5.342296958E-1,-3.502054140E-2,-3.567301631E-1
2.841902250E0,5.406212807E-1,-3.608580679E-2,-3.545996249E-1
2.844390011E0,5.491434336E-1,-3.395527974E-2,-3.503385782E-1
2.846877771E0,5.576655269E-1,-2.969422378E-2,-3.450122476E-1
2.849365532E0,5.661876202E-1,-2.223737910E-2,-3.386206925E-1
2.851853292E0,5.757750273E-1,-1.371526904E-2,-3.300985694E-1
2.854341053E0,5.853623748E-1,-3.062632866E-3,-3.205111921E-1
2.856828813E0,5.960150361E-1,8.655266836E-3,-3.098585606E-1
2.859316573E0,6.045371294E-1,1.930790395E-2,-2.992059290E-1
2.861804334E0,6.141244769E-1,3.102580272E-2,-2.874880135E-1
2.864292094E0,6.215813160E-1,4.380896688E-2,-2.736395895E-1
2.866779855E0,6.290381551E-1,5.765739456E-2,-2.597911656E-1
2.869267615E0,6.332992315E-1,7.150582224E-2,-2.459427416E-1
2.871755375E0,6.364950538E-1,8.535424620E-2,-2.320943177E-1
2.874243136E0,6.375603080E-1,9.707214683E-2,-2.171806246E-1
2.876730896E0,6.354297400E-1,1.077247858E-1,-2.012016773E-1
2.879218657E0,6.311687231E-1,1.162468940E-1,-1.841574460E-1
2.881706417E0,6.226465702E-1,1.237037405E-1,-1.660479754E-1
2.884194178E0,6.109287143E-1,1.290300637E-1,-1.468732208E-1
2.886681938E0,5.949497223E-1,1.343563795E-1,-1.255679578E-1
2.889169698E0,5.768402815E-1,1.386174262E-1,-1.042626798E-1
2.891657459E0,5.544697046E-1,1.428784877E-1,-8.082687855E-2
2.894145219E0,5.289034247E-1,1.460742801E-1,-5.739107728E-2
2.896632980E0,4.990760088E-1,1.482048035E-1,-3.289001435E-2
2.899120740E0,4.671181142E-1,1.492700726E-1,-9.454214945E-3
2.901608500E0,4.330296814E-1,1.492700726E-1,1.504684892E-2
2.904096261E0,3.968107104E-1,1.471395344E-1,3.848264739E-2
2.906584021E0,3.595264852E-1,1.428784877E-1,6.085318699E-2
2.909071782E0,3.211769760E-1,1.364869028E-1,8.109319210E-2
2.911559542E0,2.817622423E-1,1.290300637E-1,1.013332009E-1
2.914047303E0,2.423474789E-1,1.194426864E-1,1.205079481E-1
2.916535063E0,2.029327303E-1,1.087900475E-1,1.364869028E-1
2.919022823E0,1.656484902E-1,9.600688517E-2,1.514005959E-1
2.921510584E0,1.294295341E-1,8.215846121E-2,1.641837656E-1
2.923998344E0,9.534109384E-2,6.724476814E-2,1.748363972E-1
2.926486105E0,6.444845349E-2,5.233107507E-2,1.854890287E-1
2.928973865E0,3.675159439E-2,3.528685868E-2,1.929458827E-1
2.931461625E0,1.331579592E-2,2.037316747E-2,2.004027218E-1
2.933949386E0,-6.924213842E-3,5.459476262E-3,2.035985142E-1
2.936437146E0,-2.183790505E-2,-8.388951421E-3,2.046637833E-1
2.938924907E0,-3.462106735E-2,-2.223737910E-2,2.046637833E-1
2.941412667E0,-4.207791388E-2,-3.395527974E-2,2.014679909E-1
2.943900428E0,-4.740423337E-2,-4.460791498E-2,1.961416751E-1
2.946388188E0,-4.953476042E-2,-5.313002318E-2,1.886848211E-1
2.948875948E0,-4.740423337E-2,-6.058686972E-2,1.801627129E-1
2.951363709E0,-4.314317927E-2,-6.484792382E-2,1.684448123E-1
2.953851469E0,-3.568633273E-2,-6.910897791E-2,1.556616426E-1
2.956339230E0,-2.609895915E-2,-7.230477035E-2,1.407479644E-1
2.958826990E0,-1.225053146E-2,-7.337003201E-2,1.247690022E-1
2.961314750E0,2.663159044E-3,-7.230477035E-2,1.077247858E-1
2.963802511E0,2.077264152E-2,-6.910897791E-2,8.855003864E-2
2.966290271E0,3.994738683E-2,-6.378266215E-2,6.937529147E-2
2.968778032E0,6.125266105E-2,-5.739107728E-2,4.807002097E-2
2.971265792E0,8.255793154E-2,-4.780370742E-2,2.676474862E-2
2.973753553E0,1.059937328E-1,-3.608580679E-2,4.394212738E-3
2.976241313E0,1.272990108E-1,-2.543316968E-2,-1.478053257E-2
2.978729073E0,1.496695429E-1,-1.478053257E-2,-3.502054140E-2
2.981216782E0,1.720400751E-1,-5.193160381E-3,-5.313002318E-2
2.983704490E0,1.912148297E-1,2.263685223E-3,-6.910897791E-2
2.986192198E0,2.103895694E-1,5.459476262E-3,-8.295740932E-2
2.988679907E0,2.263685167E-1,7.590003312E-3,-9.574057162E-2
2.991167615E0,2.402169555E-1,6.524739787E-3,-1.053279415E-1
2.993655323E0,2.498043180E-1,2.263685223E-3,-1.138500497E-1
2.996143032E0,2.572611570E-1,-3.062632866E-3,-1.202416345E-1
2.998630740E0,2.604569495E-1,-9.454214945E-3,-1.245026886E-1
3.001118448E0,2.604569495E-1,-1.691105962E-2,-1.276984811E-1
3.003606157E0,2.561959028E-1,-2.436790615E-2,-1.308942735E-1
3.006093865E0,2.476737946E-1,-3.395527974E-2,-1.330247968E-1
3.008581573E0,2.359558940E-1,-4.354264960E-2,-1.351553202E-1
3.011069282E0,2.221074700E-1,-5.526055023E-2,-1.372858584E-1
3.013556990E0,2.050632536E-1,-6.804371625E-2,-1.394163817E-1
3.016044698E0,1.837579757E-1,-8.295740932E-2,-1.426121742E-1
3.018532407E0,1.603221744E-1,-9.893636405E-2,-1.468732208E-1
3.021020115E0,1.347558498E-1,-1.159805804E-1,-1.521995366E-1
3.023507823E0,1.049284711E-1,-1.340900660E-1,-1.585911214E-1
3.025995532E0,7.403582335E-2,-1.521995366E-1,-1.649827063E-1
3.028483240E0,4.207791388E-2,-1.703090221E-1,-1.745700836E-1
3.030970948E0,1.012000442E-2,-1.894837767E-1,-1.820269227E-1
3.033458657E0,-1.970737800E-2,-2.075932473E-1,-1.905490309E-1
3.035946365E0,-4.740423337E-2,-2.257027328E-1,-1.980058849E-1
3.038434073E0,-7.403582335E-2,-2.427469492E-1,-2.054627240E-1
3.040921782E0,-9.640636295E-2,-2.597911656E-1,-2.107890397E-1
3.043409490E0,-1.166463718E-1,-2.747048736E-1,-2.171806246E-1
3.045897198E0,-1.315600574E-1,-2.885532975E-1,-2.225069404E-1
3.048384907E0,-1.432779580E-1,-3.002711833E-1,-2.267680019E-1
3.050872615E0,-1.507348120E-1,-3.109238148E-1,-2.299637944E-1
3.053360323E0,-1.539305896E-1,-3.183806837E-1,-2.320943177E-1
3.055848084E0,-1.507348120E-1,-3.237069845E-1,-2.342248410E-1
3.058335844E0,-1.432779580E-1,-3.269027770E-1,-2.342248410E-1
3.060823605E0,-1.315600574E-1,-3.269027770E-1,-2.331595868E-1
3.063311365E0,-1.166463718E-1,-3.258375227E-1,-2.320943177E-1
3.065799125E0,-9.534109384E-2,-3.215764761E-1,-2.299637944E-1
3.068286886E0,-7.297056168E-2,-3.141196072E-1,-2.278332561E-1
3.070774646E0,-4.633896798E-2,-3.045322299E-1,-2.257027328E-1
3.073262407E0,-1.757685095E-2,-2.938795984E-1,-2.246374637E-1
3.075750167E0,1.331579592E-2,-2.810964286E-1,-2.246374637E-1
3.078237928E0,4.527370632E-2,-2.683132887E-1,-2.257027328E-1
3.080725688E0,7.723161578E-2,-2.555301189E-1,-2.267680019E-1
3.083213448E0,1.102547869E-1,-2.416816950E-1,-2.299637944E-1
3.085701209E0,1.432779580E-1,-2.288985252E-1,-2.352901101E-1
3.088188969E0,1.763011366E-1,-2.171806246E-1,-2.416816950E-1
3.090676730E0,2.061285079E-1,-2.054627240E-1,-2.480732650E-1
3.093164490E0,2.348906398E-1,-1.937448233E-1,-2.544648647E-1
3.095652250E0,2.625874877E-1,-1.841574460E-1,-2.608564198E-1
3.098140011E0,2.881538272E-1,-1.756353378E-1,-2.661827505E-1
3.100627771E0,3.094590902E-1,-1.671132296E-1,-2.704437971E-1
3.103115532E0,3.286338449E-1,-1.607216448E-1,-2.747048736E-1
3.105603292E0,3.446127772E-1,-1.575258672E-1,-2.800311744E-1
3.108091053E0,3.563306928E-1,-1.543300748E-1,-2.832269669E-1
3.110578813E0,3.659180701E-1,-1.532648057E-1,-2.864227593E-1
3.113066573E0,3.723096550E-1,-1.543300748E-1,-2.896185517E-1
3.115554334E0,3.755054474E-1,-1.564605981E-1,-2.917490900E-1
3.118042094E0,3.755054474E-1,-1.607216448E-1,-2.938795984E-1
3.120529855E0,3.733749092E-1,-1.660479754E-1,-2.960101366E-1
3.123017615E0,3.691138625E-1,-1.745700836E-1,-2.970753908E-1
3.125505375E0,3.627222776E-1,-1.852227151E-1,-2.981406748E-1
3.127993136E0,3.542001545E-1,-1.969406158E-1,-2.970753908E-1
3.130480896E0,3.446127772E-1,-2.097237855E-1,-2.970753908E-1
3.132968657E0,3.339601457E-1,-2.257027328E-1,-2.949448824E-1
3.135456417E0,3.222422600E-1,-2.406164259E-1,-2.938795984E-1
3.137944178E0,3.094590902E-1,-2.544648647E-1,-2.906838059E-1
3.140431938E0,2.966759205E-1,-2.683132887E-1,-2.874880135E-1
3.142919698E0,2.828274965E-1,-2.800311744E-1,-2.842922211E-1
3.145407459E0,2.689790726E-1,-2.917490900E-1,-2.800311744E-1
3.147895219E0,2.551306486E-1,-3.013364673E-1,-2.757701278E-1
3.150382980E0,2.412822098E-1,-3.087933064E-1,-2.704437971E-1
3.152870740E0,2.284990549E-1,-3.151848912E-1,-2.651174963E-1
3.155358500E0,2.167811543E-1,-3.194459379E-1,-2.597911656E-1
3.157846261E0,2.061285079E-1,-3.226417303E-1,-2.555301189E-1
3.160334021E0,1.965411454E-1,-3.247722387E-1,-2.512690723E-1
3.162821782E0,1.880190372E-1,-3.258375227E-1,-2.480732650E-1
3.165309542E0,1.794969290E-1,-3.258375227E-1,-2.438122183E-1
3.167797303E0,1.720400751E-1,-3.258375227E-1,-2.416816950E-1
3.170285063E0,1.645832360E-1,-3.237069845E-1,-2.406164259E-1
3.172772823E0,1.592569202E-1,-3.194459379E-1,-2.384859025E-1
3.175260584E0,1.549958587E-1,-3.151848912E-1,-2.374206334E-1
3.177748344E0,1.518000662E-1,-3.109238148E-1,-2.363553643E-1
3.180236105E0,1.507348120E-1,-3.045322299E-1,-2.352901101E-1
3.182723865E0,1.507348120E-1,-2.992059290E-1,-2.352901101E-1
3.185211625E0,1.507348120E-1,-2.917490900E-1,-2.352901101E-1
3.187699386E0,1.528653353E-1,-2.842922211E-1,-2.352901101E-1
3.190187146E0,1.549958587E-1,-2.757701278E-1,-2.363553643E-1
3.192674907E0,1.581916511E-1,-2.672480047E-1,-2.384859025E-1
3.195162667E0,1.624527127E-1,-2.576606572E-1,-2.406164259E-1
3.197650428E0,1.656484902E-1,-2.502037883E-1,-2.438122183E-1
3.200138188E0,1.699095517E-1,-2.416816950E-1,-2.480732650E-1
3.202625948E0,1.731053442E-1,-2.342248410E-1,-2.533995807E-1
3.205113709E0,1.763011366E-1,-2.267680019E-1,-2.597911656E-1
3.207601469E0,1.773663908E-1,-2.182458937E-1,-2.651174963E-1
3.210089230E0,1.763011366E-1,-2.107890397E-1,-2.693785429E-1
3.212576990E0,1.741705984E-1,-2.012016773E-1,-2.725743353E-1
3.215064750E0,1.720400751E-1,-1.926795542E-1,-2.757701278E-1
3.217552511E0,1.677790284E-1,-1.830921918E-1,-2.768353820E-1
3.220040271E0,1.613874435E-1,-1.724395454E-1,-2.768353820E-1
3.222528032E0,1.539305896E-1,-1.607216448E-1,-2.757701278E-1
3.225015792E0,1.454084814E-1,-1.490037590E-1,-2.736395895E-1
3.227503553E0,1.358211190E-1,-1.394163817E-1,-2.715090811E-1
3.229991313E0,1.251684725E-1,-1.298290044E-1,-2.693785429E-1
3.232479073E0,1.134505793E-1,-1.223721579E-1,-2.672480047E-1
3.234966834E0,1.006674170E-1,-1.170458421E-1,-2.640522122E-1
3.237454594E0,8.788424730E-2,-1.127847880E-1,-2.608564198E-1
3.239942355E0,7.616634667E-2,-1.085237339E-1,-2.565953732E-1
3.242430115E0,6.231792271E-2,-1.053279415E-1,-2.533995807E-1
3.244917875E0,4.846949503E-2,-1.021321490E-1,-2.480732650E-1
3.247405636E0,3.568633273E-2,-1.010668874E-1,-2.427469492E-1
3.249893396E0,2.503369562E-2,-1.000016257E-1,-2.363553643E-1
3.252381157E0,1.331579592E-2,-9.893636405E-2,-2.310290486E-1
3.254868917E0,3.728422802E-3,-9.893636405E-2,-2.246374637E-1
3.257356678E0,-4.793686327E-3,-9.893636405E-2,-2.203764170E-1
3.259844438E0,-1.331579592E-2,-9.893636405E-2,-2.150501013E-1
3.262332198E0,-2.183790505E-2,-1.000016257E-1,-2.118543088E-1
3.264819959E0,-2.929474972E-2,-1.021321490E-1,-2.097237855E-1
3.267307719E0,-3.675159439E-2,-1.031974182E-1,-2.075932473E-1
3.269795480E0,-4.420844093E-2,-1.031974182E-1,-2.075932473E-1
3.272283240E0,-5.166528746E-2,-1.053279415E-1,-2.075932473E-1
3.274771000E0,-5.912213027E-2,-1.074584723E-1,-2.086585164E-1
3.277258761E0,-6.657897681E-2,-1.085237339E-1,-2.097237855E-1
3.279746521E0,-7.190529257E-2,-1.106542572E-1,-2.097237855E-1
3.282234282E0,-7.723161578E-2,-1.127847880E-1,-2.107890397E-1
3.284722042E0,-8.255793154E-2,-1.138500497E-1,-2.118543088E-1
3.287209803E0,-8.681898564E-2,-1.149153188E-1,-2.107890397E-1
3.289697563E0,-9.214530140E-2,-1.170458421E-1,-2.097237855E-1
3.292185323E0,-9.640636295E-2,-1.191763729E-1,-2.097237855E-1
3.294673084E0,-1.017326787E-1,-1.223721579E-1,-2.097237855E-1
3.297160844E0,-1.081242561E-1,-1.255679578E-1,-2.097237855E-1
3.299648605E0,-1.155811027E-1,-1.308942735E-1,-2.107890397E-1
3.302136365E0,-1.241032109E-1,-1.362205893E-1,-2.118543088E-1
3.304624125E0,-1.336905807E-1,-1.447426975E-1,-2.118543088E-1
3.307111886E0,-1.432779580E-1,-1.532648057E-1,-2.139848322E-1
3.309599646E0,-1.539305896E-1,-1.628521830E-1,-2.171806246E-1
3.312087407E0,-1.656484902E-1,-1.713742912E-1,-2.214416862E-1
3.314575167E0,-1.773663908E-1,-1.777658761E-1,-2.246374637E-1
3.317062928E0,-1.880190372E-1,-1.830921918E-1,-2.288985252E-1
3.319550688E0,-2.008021921E-1,-1.862879843E-1,-2.320943177E-1
3.322038448E0,-2.114548385E-1,-1.894837767E-1,-2.342248410E-1
3.324526209E0,-2.210422009E-1,-1.905490309E-1,-2.352901101E-1
3.327013969E0,-2.295643091E-1,-1.916143000E-1,-2.363553643E-1
3.329501730E0,-2.359558940E-1,-1.916143000E-1,-2.352901101E-1
3.331989490E0,-2.423474789E-1,-1.916143000E-1,-2.331595868E-1
3.334477250E0,-2.466085255E-1,-1.905490309E-1,-2.310290486E-1
3.336965011E0,-2.487390637E-1,-1.905490309E-1,-2.267680019E-1
3.339452771E0,-2.498043180E-1,-1.884185076E-1,-2.225069404E-1
3.341940532E0,-2.487390637E-1,-1.862879843E-1,-2.182458937E-1
3.344428292E0,-2.487390637E-1,-1.830921918E-1,-2.118543088E-1
3.346916053E0,-2.466085255E-1,-1.809616536E-1,-2.065279931E-1
3.349403813E0,-2.444780022E-1,-1.777658761E-1,-2.012016773E-1
3.351891573E0,-2.434127480E-1,-1.735048145E-1,-1.969406158E-1
3.354379334E0,-2.412822098E-1,-1.703090221E-1,-1.916143000E-1
3.356867094E0,-2.391516864E-1,-1.660479754E-1,-1.884185076E-1
3.359354855E0,-2.380864173E-1,-1.628521830E-1,-1.841574460E-1
3.361842615E0,-2.370211631E-1,-1.585911214E-1,-1.809616536E-1
3.364330375E0,-2.359558940E-1,-1.553953290E-1,-1.777658761E-1
3.366818136E0,-2.348906398E-1,-1.500690132E-1,-1.745700836E-1
3.369305896E0,-2.338253707E-1,-1.458079666E-1,-1.713742912E-1
3.371793657E0,-2.327601016E-1,-1.415469050E-1,-1.671132296E-1
3.374281365E0,-2.316948473E-1,-1.372858584E-1,-1.628521830E-1
3.376769073E0,-2.295643091E-1,-1.330247968E-1,-1.596563905E-1
3.379256782E0,-2.263685167E-1,-1.276984811E-1,-1.553953290E-1
3.381744490E0,-2.221074700E-1,-1.234374270E-1,-1.511342824E-1
3.384232198E0,-2.189116776E-1,-1.191763729E-1,-1.468732208E-1
3.386719907E0,-2.135853618E-1,-1.159805804E-1,-1.426121742E-1
3.389207615E0,-2.061285079E-1,-1.138500497E-1,-1.383511126E-1
3.391695323E0,-1.986716688E-1,-1.117195264E-1,-1.340900660E-1
3.394183032E0,-1.890842915E-1,-1.095889956E-1,-1.287637353E-1
3.396670740E0,-1.784316599E-1,-1.063932031E-1,-1.234374270E-1
3.399158448E0,-1.688442826E-1,-1.031974182E-1,-1.181111038E-1
3.401646157E0,-1.581916511E-1,-1.000016257E-1,-1.127847880E-1
3.404133865E0,-1.486042738E-1,-9.787109494E-2,-1.074584723E-1
3.406621573E0,-1.379516423E-1,-9.467530251E-2,-1.031974182E-1
3.409109282E0,-1.283642650E-1,-9.254477918E-2,-9.893636405E-2
3.411596990E0,-1.187768951E-1,-9.041424841E-2,-9.574057162E-2
3.414084698E0,-1.102547869E-1,-8.828372508E-2,-9.361004084E-2
3.416572407E0,-1.017326787E-1,-8.828372508E-2,-9.147951752E-2
3.419060115E0,-9.427583218E-2,-8.721846342E-2,-8.934898674E-2
3.421547823E0,-8.788424730E-2,-8.615319431E-2,-8.828372508E-2
3.424035532E0,-8.255793154E-2,-8.508793265E-2,-8.615319431E-2
3.426523240E0,-7.829687744E-2,-8.402267098E-2,-8.402267098E-2
3.429010948E0,-7.403582335E-2,-8.295740932E-2,-8.189214021E-2
3.431498657E0,-6.977476925E-2,-8.189214021E-2,-7.976161689E-2
3.433986365E0,-6.764423847E-2,-7.869634777E-2,-7.869634777E-2
3.436474073E0,-6.657897681E-2,-7.656582445E-2,-7.869634777E-2
3.438961782E0,-6.551371515E-2,-7.230477035E-2,-8.189214021E-2
3.441449490E0,-6.657897681E-2,-6.804371625E-2,-8.295740932E-2
3.443937198E0,-6.657897681E-2,-6.378266215E-2,-8.508793265E-2
3.446424907E0,-6.764423847E-2,-5.845634267E-2,-8.828372508E-2
3.448912615E0,-6.764423847E-2,-5.313002318E-2,-9.041424841E-2
3.451400375E0,-6.657897681E-2,-4.673844203E-2,-9.254477918E-2
3.453888136E0,-6.551371515E-2,-4.141212255E-2,-9.361004084E-2
3.456375896E0,-6.338318437E-2,-3.502054140E-2,-9.361004084E-2
3.458863657E0,-5.805686861E-2,-2.969422378E-2,-9.254477918E-2
3.461351417E0,-5.273054913E-2,-2.436790615E-2,-9.041424841E-2
3.463839178E0,-4.527370632E-2,-2.010685205E-2,-8.615319431E-2
3.466326938E0,-3.568633273E-2,-1.584579609E-2,-8.189214021E-2
3.468814698E0,-2.609895915E-2,-1.158474199E-2,-7.869634777E-2
3.471302459E0,-1.544632297E-2,-7.323687430E-3,-7.337003201E-2
3.473790219E0,-4.793686327E-3,-4.127896391E-3,-6.910897791E-2
3.476277980E0,4.793686327E-3,1.331579551E-4,-6.484792382E-2
3.478765740E0,1.651158556E-2,3.328948980E-3,-6.058686972E-2
3.481253500E0,2.716422267E-2,6.524739787E-3,-5.739107728E-2
3.483741261E0,3.675159439E-2,9.720530361E-3,-5.526055023E-2
3.486229021E0,4.633896798E-2,1.398158539E-2,-5.313002318E-2
3.488716782E0,5.486107618E-2,1.824264042E-2,-5.099949613E-2
3.491204542E0,6.231792271E-2,2.250369452E-2,-4.780370742E-2
3.493692303E0,6.977476925E-2,2.676474862E-2,-4.567318037E-2
3.496180063E0,7.616634667E-2,2.889527567E-2,-4.247738793E-2
3.498667823E0,8.149266988E-2,2.996053919E-2,-3.928159550E-2
3.501155584E0,8.681898564E-2,3.102580272E-2,-3.502054140E-2
3.503643344E0,9.108003974E-2,2.996053919E-2,-2.969422378E-2
3.506131105E0,9.321057051E-2,2.783001214E-2,-2.330264263E-2
3.508618865E0,9.534109384E-2,2.569948509E-2,-1.691105962E-2
3.511106625E0,9.747162461E-2,2.250369452E-2,-9.454214945E-3
3.513594386E0,9.853688627E-2,2.037316747E-2,-1.997369342E-3
3.516082146E0,9.960214794E-2,1.824264042E-2,5.459476262E-3
3.518569907E0,1.006674170E-1,1.717737690E-2,1.291632187E-2
3.521057667E0,1.017326787E-1,1.717737690E-2,1.824264042E-2
3.523545428E0,1.027979404E-1,1.611211337E-2,2.463422157E-2
3.526033188E0,1.027979404E-1,1.504684892E-2,2.996053919E-2
3.528520948E0,1.038632020E-1,1.504684892E-2,3.315633163E-2
3.531008709E0,1.038632020E-1,1.398158539E-2,3.741738573E-2
3.533496469E0,1.049284711E-1,1.398158539E-2,4.061317816E-2
3.535984230E0,1.049284711E-1,1.611211337E-2,4.274370521E-2
3.538471990E0,1.049284711E-1,1.824264042E-2,4.593949392E-2
3.540959750E0,1.049284711E-1,2.356895804E-2,4.807002097E-2
3.543447511E0,1.049284711E-1,2.889527567E-2,5.020054802E-2
3.545935271E0,1.038632020E-1,3.848264739E-2,5.126581341E-2
3.548423032E0,1.038632020E-1,4.807002097E-2,5.126581341E-2
3.550910792E0,1.027979404E-1,5.978792161E-2,5.233107507E-2
3.553398553E0,1.017326787E-1,7.257108390E-2,5.339634046E-2
3.555886313E0,1.006674170E-1,8.535424620E-2,5.446160212E-2
3.558374073E0,9.853688627E-2,9.707214683E-2,5.446160212E-2
3.560861834E0,9.640636295E-2,1.087900475E-1,5.339634046E-2
3.563349594E0,9.321057051E-2,1.162468940E-1,5.233107507E-2
3.565837355E0,8.894951642E-2,1.226384789E-1,5.126581341E-2
3.568325115E0,8.362319320E-2,1.247690022E-1,4.913528636E-2
3.570812875E0,7.829687744E-2,1.215732098E-1,4.700475931E-2
3.573300636E0,7.190529257E-2,1.151816323E-1,4.487423226E-2
3.575788396E0,6.338318437E-2,1.034637317E-1,4.274370521E-2
3.578276157E0,5.592634156E-2,8.855003864E-2,4.167843983E-2
3.580763917E0,4.740423337E-2,6.937529147E-2,4.274370521E-2
3.583251678E0,3.781685978E-2,4.593949392E-2,4.487423226E-2
3.585739438E0,2.716422267E-2,2.250369452E-2,4.807002097E-2
3.588227198E0,1.544632297E-2,-4.127896391E-3,5.339634046E-2
3.590714959E0,2.663159044E-3,-3.182475269E-2,5.978792161E-2
3.593202719E0,-1.118526794E-2,-5.845634267E-2,6.831002980E-2
3.595690480E0,-2.503369562E-2,-8.295740932E-2,7.789740711E-2
3.598178240E0,-3.994738683E-2,-1.063932031E-1,8.855003864E-2
3.600666000E0,-5.379581451E-2,-1.255679578E-1,9.920267761E-2
3.603153761E0,-6.977476925E-2,-1.404816359E-1,1.087900475E-1
3.605641521E0,-8.575372398E-2,-1.521995366E-1,1.183774248E-1
3.608129282E0,-9.960214794E-2,-1.607216448E-1,1.279647946E-1
3.610617042E0,-1.134505793E-1,-1.660479754E-1,1.364869028E-1
3.613104803E0,-1.262337416E-1,-1.692437679E-1,1.450090110E-1
3.615592563E0,-1.368863732E-1,-1.692437679E-1,1.514005959E-1
3.618080323E0,-1.464737505E-1,-1.681784987E-1,1.577921808E-1
3.620568084E0,-1.539305896E-1,-1.639174372E-1,1.631184965E-1
3.623055844E0,-1.603221744E-1,-1.585911214E-1,1.663142890E-1
3.625543605E0,-1.645832360E-1,-1.500690132E-1,1.695100814E-1
3.628031365E0,-1.667137593E-1,-1.394163817E-1,1.716406047E-1
3.630519125E0,-1.677790284E-1,-1.276984811E-1,1.737711281E-1
3.633006886E0,-1.656484902E-1,-1.138500497E-1,1.737711281E-1
3.635494646E0,-1.624527127E-1,-9.893636405E-2,1.727058738E-1
3.637982407E0,-1.592569202E-1,-8.189214021E-2,1.716406047E-1
3.640470167E0,-1.549958587E-1,-6.591318548E-2,1.695100814E-1
3.642957928E0,-1.507348120E-1,-4.780370742E-2,1.663142890E-1
3.645445688E0,-1.464737505E-1,-3.075948730E-2,1.620532274E-1
3.647933448E0,-1.432779580E-1,-1.478053257E-2,1.577921808E-1
3.650421209E0,-1.400821656E-1,1.198421582E-3,1.524658650E-1
3.652908969E0,-1.368863732E-1,1.504684892E-2,1.460742801E-1
3.655396730E0,-1.336905807E-1,2.676474862E-2,1.418132186E-1
3.657884490E0,-1.315600574E-1,3.741738573E-2,1.354216337E-1
3.660372250E0,-1.294295341E-1,4.487423226E-2,1.290300637E-1
3.662860011E0,-1.262337416E-1,5.126581341E-2,1.226384789E-1
3.665347771E0,-1.241032109E-1,5.233107507E-2,1.151816323E-1
3.667835532E0,-1.209074259E-1,5.020054802E-2,1.077247858E-1
3.670323292E0,-1.177116334E-1,4.487423226E-2,1.002679393E-1
3.672811053E0,-1.155811027E-1,3.741738573E-2,9.494162351E-2
3.675298813E0,-1.123853177E-1,2.676474862E-2,8.855003864E-2
3.677786573E0,-1.091895252E-1,1.398158539E-2,8.535424620E-2
3.680274334E0,-1.049284711E-1,-9.321057005E-4,8.428898454E-2
3.682762094E0,-1.006674170E-1,-1.584579609E-2,8.322372288E-2
3.685249855E0,-9.534109384E-2,-3.075948730E-2,8.535424620E-2
3.687737615E0,-8.788424730E-2,-4.354264960E-2,8.855003864E-2
3.690225375E0,-8.042740822E-2,-5.526055023E-2,9.387636185E-2
3.692713136E0,-6.977476925E-2,-6.484792382E-2,9.920267761E-2
3.695200896E0,-5.805686861E-2,-7.230477035E-2,1.045289934E-1
3.697688657E0,-4.527370632E-2,-7.656582445E-2,1.109205782E-1
3.700176417E0,-3.036001325E-2,-7.976161689E-2,1.173121557E-1
3.702664178E0,-1.225053146E-2,-8.295740932E-2,1.237037405E-1
3.705151938E0,6.924213842E-3,-8.402267098E-2,1.300953180E-1
3.707639698E0,2.503369562E-2,-8.508793265E-2,1.364869028E-1
3.710127459E0,4.420844093E-2,-8.721846342E-2,1.428784877E-1
3.712615219E0,6.444845349E-2,-8.828372508E-2,1.471395344E-1
3.715102980E0,8.362319320E-2,-8.828372508E-2,1.503353268E-1
3.717590740E0,1.017326787E-1,-8.721846342E-2,1.545963883E-1
3.720078500E0,1.198421568E-1,-8.508793265E-2,1.577921808E-1
3.722566261E0,1.379516423E-1,-7.976161689E-2,1.599227041E-1
3.725054021E0,1.539305896E-1,-7.337003201E-2,1.609879732E-1
3.727541782E0,1.688442826E-1,-6.484792382E-2,1.620532274E-1
3.730029542E0,1.837579757E-1,-5.632581562E-2,1.620532274E-1
3.732517303E0,1.976063997E-1,-4.567318037E-2,1.609879732E-1
3.735005063E0,2.082590461E-1,-3.289001435E-2,1.599227041E-1
3.737492823E0,2.178464085E-1,-1.797632314E-2,1.588574350E-1
3.739980584E0,2.253032625E-1,-1.997369342E-3,1.567269117E-1
3.742468344E0,2.295643091E-1,1.611211337E-2,1.524658650E-1
3.744956105E0,2.316948473E-1,3.635212034E-2,1.471395344E-1
3.747443813E0,2.295643091E-1,5.978792161E-2,1.418132186E-1
3.749931521E0,2.253032625E-1,8.322372288E-2,1.343563795E-1
3.752419230E0,2.167811543E-1,1.098553166E-1,1.247690022E-1
3.754906938E0,2.061285079E-1,1.354216337E-1,1.151816323E-1
3.757394646E0,1.922800839E-1,1.588574350E-1,1.034637317E-1
3.759882355E0,1.752358675E-1,1.812279820E-1,9.174583107E-2
3.762370063E0,1.560611278E-1,2.004027218E-1,7.896266878E-2
3.764857771E0,1.358211190E-1,2.153164148E-1,6.617950648E-2
3.767345480E0,1.134505793E-1,2.280995846E-1,5.233107507E-2
3.769833188E0,9.108003974E-2,2.387522161E-1,3.848264739E-2
3.772320896E0,6.977476925E-2,2.451438010E-1,2.569948509E-2
3.774808605E0,4.953476042E-2,2.472743243E-1,1.398158539E-2
3.777296313E0,3.036001325E-2,2.472743243E-1,3.328948980E-3
3.779784021E0,1.438105945E-2,2.451438010E-1,-6.258423906E-3
3.782271730E0,-1.597895520E-3,2.398174703E-1,-1.478053257E-2
3.784759438E0,-1.544632297E-2,2.312953621E-1,-2.223737910E-2
3.787247146E0,-2.716422267E-2,2.195774615E-1,-2.756369673E-2
3.789734855E0,-3.675159439E-2,2.057290375E-1,-3.182475269E-2
3.792222563E0,-4.314317927E-2,1.886848211E-1,-3.502054140E-2
3.794710271E0,-4.740423337E-2,1.684448123E-1,-3.502054140E-2
3.797197980E0,-4.953476042E-2,1.450090110E-1,-3.289001435E-2
3.799685688E0,-4.740423337E-2,1.173121557E-1,-2.862896025E-2
3.802173396E0,-4.207791388E-2,8.748477697E-2,-2.223737910E-2
3.804661105E0,-3.462106735E-2,5.659212917E-2,-1.478053257E-2
3.807148813E0,-2.609895915E-2,2.676474862E-2,-5.193160381E-3
3.809636521E0,-1.331579592E-2,-1.997369342E-3,4.394212738E-3
3.812124230E0,5.326318205E-4,-2.756369673E-2,1.611211337E-2
3.814611938E0,1.544632297E-2,-5.099949613E-2,2.783001214E-2
3.817099646E0,3.142527863E-2,-7.123950869E-2,3.848264739E-2
3.819587355E0,4.846949503E-2,-8.934898674E-2,4.913528636E-2
3.822075063E0,6.764423847E-2,-1.085237339E-1,5.872265995E-2
3.824562823E0,9.001477808E-2,-1.287637353E-1,6.511423737E-2
3.827050584E0,1.145158410E-1,-1.458079666E-1,6.724476814E-2
3.829538344E0,1.411474347E-1,-1.543300748E-1,6.404897571E-2
3.832026105E0,1.667137593E-1,-1.532648057E-1,5.765739456E-2
3.834513865E0,1.869537681E-1,-1.426121742E-1,4.913528636E-2
3.837001625E0,2.018674612E-1,-1.245026886E-1,3.954791278E-2
3.839489386E0,2.114548385E-1,-9.893636405E-2,3.209106624E-2
3.841977146E0,2.157158852E-1,-6.804371625E-2,2.569948509E-2
3.844464907E0,2.178464085E-1,-3.395527974E-2,2.037316747E-2
3.846952667E0,2.157158852E-1,1.331579551E-4,1.717737690E-2
3.849440428E0,2.114548385E-1,3.315633163E-2,1.504684892E-2
3.851928188E0,2.061285079E-1,5.978792161E-2,1.291632187E-2
3.854415948E0,1.986716688E-1,8.002793044E-2,9.720530361E-3
3.856903709E0,1.901495606E-1,9.174583107E-2,6.524739787E-3
3.859391469E0,1.805621833E-1,9.707214683E-2,2.263685223E-3
3.861879230E0,1.688442826E-1,9.600688517E-2,-1.997369342E-3
3.864366990E0,1.560611278E-1,8.855003864E-2,-8.388951421E-3
3.866854750E0,1.422126889E-1,7.683213800E-2,-1.584579609E-2
3.869342511E0,1.262337416E-1,5.978792161E-2,-2.223737910E-2
3.871830271E0,1.091895252E-1,3.954791278E-2,-2.756369673E-2
3.874318032E0,9.108003974E-2,1.717737690E-2,-2.969422378E-2
3.876805792E0,7.190529257E-2,-7.323687430E-3,-3.075948730E-2
3.879293553E0,5.166528746E-2,-3.395527974E-2,-3.075948730E-2
3.881781313E0,3.142527863E-2,-6.165213138E-2,-2.756369673E-2
3.884269073E0,1.331579592E-2,-9.041424841E-2,-2.330264263E-2
3.886756834E0,-5.858949851E-3,-1.170458421E-1,-1.904158667E-2
3.889244594E0,-2.396843210E-2,-1.436774284E-1,-1.265000552E-2
3.891732355E0,-3.781685978E-2,-1.681784987E-1,-6.258423906E-3
3.894220115E0,-5.060002208E-2,-1.884185076E-1,1.198421582E-3
3.896707875E0,-6.018739566E-2,-2.065279931E-1,9.720530361E-3
3.899195636E0,-6.551371515E-2,-2.203764170E-1,1.824264042E-2
3.901683396E0,-6.764423847E-2,-2.288985252E-1,2.676474862E-2
3.904171157E0,-6.551371515E-2,-2.342248410E-1,3.528685868E-2
3.906658917E0,-6.018739566E-2,-2.352901101E-1,4.274370521E-2
3.909146678E0,-4.953476042E-2,-2.342248410E-1,4.807002097E-2
3.911634438E0,-3.781685978E-2,-2.299637944E-1,5.126581341E-2
3.914122198E0,-2.290316857E-2,-2.225069404E-1,5.233107507E-2
3.916609959E0,-4.793686327E-3,-2.129195631E-1,5.233107507E-2
3.919097719E0,1.438105945E-2,-2.012016773E-1,5.020054802E-2
3.921585480E0,3.568633273E-2,-1.873532385E-1,4.913528636E-2
3.924073240E0,5.805686861E-2,-1.713742912E-1,4.700475931E-2
3.926561000E0,8.255793154E-2,-1.543300748E-1,4.593949392E-2
3.929048761E0,1.070589945E-1,-1.351553202E-1,4.487423226E-2
3.931536521E0,1.315600574E-1,-1.159805804E-1,4.380896688E-2
3.934024282E0,1.560611278E-1,-9.574057162E-2,4.274370521E-2
3.936512042E0,1.784316599E-1,-7.443529367E-2,4.167843983E-2
3.938999803E0,1.976063997E-1,-5.419528857E-2,4.061317816E-2
3.941487563E0,2.167811543E-1,-3.395527974E-2,4.061317816E-2
3.943975323E0,2.316948473E-1,-1.691105962E-2,3.954791278E-2
3.946463084E0,2.444780022E-1,1.331579551E-4,3.848264739E-2
3.948950844E0,2.530001104E-1,1.398158539E-2,3.635212034E-2
3.951438605E0,2.583264410E-1,2.569948509E-2,3.528685868E-2
3.953926365E0,2.593916953E-1,3.315633163E-2,3.102580272E-2
3.956414125E0,2.561959028E-1,3.848264739E-2,2.783001214E-2
3.958901886E0,2.498043180E-1,4.061317816E-2,2.250369452E-2
3.961389646E0,2.402169555E-1,3.954791278E-2,1.717737690E-2
3.963877407E0,2.274337858E-1,3.741738573E-2,9.720530361E-3
3.966365167E0,2.125200927E-1,3.209106624E-2,2.263685223E-3
3.968852928E0,1.954758763E-1,2.569948509E-2,-6.258423906E-3
3.971340688E0,1.773663908E-1,1.824264042E-2,-1.478053257E-2
3.973828448E0,1.592569202E-1,8.655266836E-3,-2.330264263E-2
3.976316209E0,1.411474347E-1,-3.062632866E-3,-3.075948730E-2
3.978803969E0,1.230379492E-1,-1.478053257E-2,-3.821633384E-2
3.981291730E0,1.059937328E-1,-2.756369673E-2,-4.460791498E-2
3.983779490E0,9.001477808E-2,-4.141212255E-2,-5.099949613E-2
3.986267250E0,7.510108501E-2,-5.526055023E-2,-5.632581562E-2
3.988755011E0,6.125266105E-2,-6.804371625E-2,-6.058686972E-2
3.991242771E0,5.060002208E-2,-8.082687855E-2,-6.378266215E-2
3.993730532E0,4.101264849E-2,-9.361004084E-2,-6.697845459E-2
3.996218292E0,3.355580568E-2,-1.042626798E-1,-6.910897791E-2
3.998706053E0,2.716422267E-2,-1.127847880E-1,-6.910897791E-2
4.001193813E0,2.396843210E-2,-1.202416345E-1,-6.804371625E-2
4.003681573E0,2.077264152E-2,-1.255679578E-1,-6.591318548E-2
4.006169334E0,1.970737800E-2,-1.298290044E-1,-6.271740049E-2
4.008657094E0,2.077264152E-2,-1.308942735E-1,-5.739107728E-2
4.011144855E0,2.183790505E-2,-1.298290044E-1,-5.099949613E-2
4.013632615E0,2.290316857E-2,-1.276984811E-1,-4.354264960E-2
4.016120375E0,2.503369562E-2,-1.223721579E-1,-3.289001435E-2
4.018608136E0,2.716422267E-2,-1.149153188E-1,-2.223737910E-2
4.021095896E0,2.822948620E-2,-1.063932031E-1,-9.454214945E-3
4.023583657E0,2.822948620E-2,-9.680583328E-2,2.263685223E-3
4.026071417E0,2.716422267E-2,-8.615319431E-2,1.398158539E-2
4.028559178E0,2.503369562E-2,-7.656582445E-2,2.569948509E-2
4.031046938E0,2.183790505E-2,-6.591318548E-2,3.635212034E-2
4.033534698E0,1.651158556E-2,-5.632581562E-2,4.700475931E-2
4.036022459E0,9.054740891E-3,-4.780370742E-2,5.552686751E-2
4.038510219E0,5.326318205E-4,-4.034686089E-2,6.511423737E-2
4.040997980E0,-1.012000442E-2,-3.395527974E-2,7.363634557E-2
4.043485740E0,-2.183790505E-2,-2.756369673E-2,8.109319210E-2
4.045973500E0,-3.462106735E-2,-2.330264263E-2,8.748477697E-2
4.048461261E0,-4.740423337E-2,-2.010685205E-2,9.494162351E-2
4.050949021E0,-6.018739566E-2,-1.797632314E-2,1.013332009E-1
4.053436782E0,-7.510108501E-2,-1.691105962E-2,1.066595241E-1
4.055924542E0,-8.788424730E-2,-1.904158667E-2,1.130511016E-1
4.058412303E0,-1.006674170E-1,-2.117211558E-2,1.183774248E-1
4.060900063E0,-1.134505793E-1,-2.543316968E-2,1.237037405E-1
4.063387823E0,-1.262337416E-1,-3.075948730E-2,1.268995255E-1
4.065875584E0,-1.358211190E-1,-3.608580679E-2,1.311605871E-1
4.068363344E0,-1.464737505E-1,-4.247738793E-2,1.322258562E-1
4.070851105E0,-1.560611278E-1,-4.886896908E-2,1.332911104E-1
4.073338865E0,-1.635179669E-1,-5.419528857E-2,1.322258562E-1
4.075826625E0,-1.688442826E-1,-5.845634267E-2,1.300953180E-1
4.078314386E0,-1.741705984E-1,-6.378266215E-2,1.268995255E-1
4.080802146E0,-1.773663908E-1,-6.697845459E-2,1.226384789E-1
4.083289907E0,-1.794969290E-1,-7.017423958E-2,1.162468940E-1
4.085777667E0,-1.794969290E-1,-7.337003201E-2,1.098553166E-1
4.088265428E0,-1.773663908E-1,-7.550056279E-2,1.045289934E-1
4.090753188E0,-1.731053442E-1,-7.763108611E-2,9.813741595E-2
4.093240948E0,-1.688442826E-1,-7.976161689E-2,9.387636185E-2
4.095728709E0,-1.635179669E-1,-8.295740932E-2,8.855003864E-2
4.098216469E0,-1.571263820E-1,-8.615319431E-2,8.535424620E-2
4.100704178E0,-1.507348120E-1,-9.041424841E-2,8.428898454E-2
4.103191886E0,-1.443432271E-1,-9.467530251E-2,8.428898454E-2
4.105679594E0,-1.379516423E-1,-9.893636405E-2,8.535424620E-2
4.108167303E0,-1.326253265E-1,-1.021321490E-1,8.855003864E-2
4.110655011E0,-1.272990108E-1,-1.042626798E-1,9.387636185E-2
4.113142719E0,-1.241032109E-1,-1.074584723E-1,1.002679393E-1
4.115630428E0,-1.219726875E-1,-1.095889956E-1,1.077247858E-1
4.118118136E0,-1.209074259E-1,-1.117195264E-1,1.162468940E-1
4.120605844E0,-1.219726875E-1,-1.159805804E-1,1.237037405E-1
4.123093553E0,-1.230379492E-1,-1.213068962E-1,1.311605871E-1
4.125581261E0,-1.272990108E-1,-1.266332120E-1,1.375521719E-1
4.128068969E0,-1.336905807E-1,-1.351553202E-1,1.418132186E-1
4.130556678E0,-1.411474347E-1,-1.436774284E-1,1.439437568E-1
4.133044386E0,-1.507348120E-1,-1.521995366E-1,1.439437568E-1
4.135532094E0,-1.613874435E-1,-1.607216448E-1,1.407479644E-1
4.138019803E0,-1.731053442E-1,-1.692437679E-1,1.343563795E-1
4.140507511E0,-1.869537681E-1,-1.777658761E-1,1.258342713E-1
4.142995219E0,-2.018674612E-1,-1.884185076E-1,1.151816323E-1
4.145482928E0,-2.167811543E-1,-1.990711391E-1,1.023984700E-1
4.147970636E0,-2.327601016E-1,-2.118543088E-1,8.748477697E-2
4.150458344E0,-2.476737946E-1,-2.246374637E-1,7.150582224E-2
4.152946053E0,-2.615222335E-1,-2.374206334E-1,5.552686751E-2
4.155433761E0,-2.743053734E-1,-2.502037883E-1,3.954791278E-2
4.157921469E0,-2.860232890E-1,-2.619217038E-1,2.356895804E-2
4.160409178E0,-2.945453823E-1,-2.725743353E-1,7.590003312E-3
4.162896886E0,-3.009369671E-1,-2.821617126E-1,-8.388951421E-3
4.165384594E0,-3.030675054E-1,-2.896185517E-1,-2.543316968E-2
4.167872303E0,-3.009369671E-1,-2.970753908E-1,-4.141212255E-2
4.170360011E0,-2.956106663E-1,-3.024017215E-1,-5.739107728E-2
4.172847719E0,-2.892190814E-1,-3.066627681E-1,-7.337003201E-2
4.175335428E0,-2.775011659E-1,-3.109238148E-1,-8.828372508E-2
4.177823136E0,-2.636527419E-1,-3.119890988E-1,-1.021321490E-1
4.180310896E0,-2.466085255E-1,-3.141196072E-1,-1.170458421E-1
4.182798657E0,-2.263685167E-1,-3.151848912E-1,-1.287637353E-1
4.185286417E0,-2.050632536E-1,-3.151848912E-1,-1.404816359E-1
4.187774178E0,-1.805621833E-1,-3.141196072E-1,-1.500690132E-1
4.190261938E0,-1.549958587E-1,-3.119890988E-1,-1.596563905E-1
4.192749698E0,-1.272990108E-1,-3.087933064E-1,-1.681784987E-1
4.195237459E0,-9.640636295E-2,-3.045322299E-1,-1.745700836E-1
4.197725219E0,-6.444845349E-2,-3.002711833E-1,-1.788311303E-1
4.200212980E0,-3.036001325E-2,-2.981406748E-1,-1.788311303E-1
4.202700740E0,3.728422802E-3,-2.949448824E-1,-1.745700836E-1
4.205188500E0,3.675159439E-2,-2.928143442E-1,-1.660479754E-1
4.207676261E0,6.977476925E-2,-2.906838059E-1,-1.553953290E-1
4.210164021E0,9.960214794E-2,-2.874880135E-1,-1.415469050E-1
4.212651782E0,1.272990108E-1,-2.832269669E-1,-1.266332120E-1
4.215139542E0,1.518000662E-1,-2.789659202E-1,-1.095889956E-1
4.217627303E0,1.720400751E-1,-2.725743353E-1,-9.041424841E-2
4.220115063E0,1.890842915E-1,-2.640522122E-1,-7.230477035E-2
4.222602823E0,2.039979845E-1,-2.565953732E-1,-5.526055023E-2
4.225090584E0,2.135853618E-1,-2.491385341E-1,-3.715106845E-2
4.227578344E0,2.210422009E-1,-2.438122183E-1,-2.010685205E-2
4.230066105E0,2.242379934E-1,-2.416816950E-1,-4.127896391E-3
4.232553865E0,2.231727391E-1,-2.406164259E-1,1.078579482E-2
4.235041625E0,2.189116776E-1,-2.427469492E-1,2.569948509E-2
4.237529386E0,2.103895694E-1,-2.459427416E-1,3.848264739E-2
4.240017146E0,1.997369379E-1,-2.502037883E-1,4.913528636E-2
4.242504907E0,1.869537681E-1,-2.555301189E-1,5.765739456E-2
4.244992667E0,1.720400751E-1,-2.587259114E-1,6.298371404E-2
4.247480428E0,1.571263820E-1,-2.608564198E-1,6.617950648E-2
4.249968188E0,1.400821656E-1,-2.608564198E-1,6.617950648E-2
4.252455948E0,1.230379492E-1,-2.587259114E-1,6.511423737E-2
4.254943709E0,1.070589945E-1,-2.555301189E-1,6.085318699E-2
4.257431469E0,9.321057051E-2,-2.502037883E-1,5.552686751E-2
4.259919230E0,8.149266988E-2,-2.459427416E-1,4.913528636E-2
4.262406990E0,7.084003091E-2,-2.416816950E-1,4.380896688E-2
4.264894750E0,6.231792271E-2,-2.352901101E-1,3.741738573E-2
4.267382511E0,5.699160323E-2,-2.288985252E-1,2.996053919E-2
4.269870271E0,5.166528746E-2,-2.203764170E-1,2.356895804E-2
4.272358032E0,4.846949503E-2,-2.107890397E-1,1.717737690E-2
4.274845792E0,4.633896798E-2,-1.990711391E-1,1.185105834E-2
4.277333553E0,4.420844093E-2,-1.852227151E-1,6.524739787E-3
4.279821313E0,4.314317927E-2,-1.692437679E-1,1.198421582E-3
4.282309073E0,4.207791388E-2,-1.521995366E-1,-3.062632866E-3
4.284796834E0,4.101264849E-2,-1.330247968E-1,-7.323687430E-3
4.287284594E0,3.994738683E-2,-1.149153188E-1,-1.158474199E-2
4.289772355E0,3.888212144E-2,-9.680583328E-2,-1.478053257E-2
4.292260115E0,3.675159439E-2,-7.763108611E-2,-1.584579609E-2
4.294747875E0,3.355580568E-2,-6.165213138E-2,-1.691105962E-2
4.297235636E0,2.929474972E-2,-4.673844203E-2,-1.584579609E-2
4.299723396E0,2.396843210E-2,-3.289001435E-2,-1.265000552E-2
4.302211157E0,1.970737800E-2,-2.010685205E-2,-7.323687430E-3
4.304698917E0,1.331579592E-2,-8.388951421E-3,1.331579551E-4
4.307186678E0,7.989477366E-3,3.328948980E-3,9.720530361E-3
4.309674438E0,2.663159044E-3,1.611211337E-2,2.250369452E-2
4.312162198E0,-3.728422802E-3,2.889527567E-2,3.635212034E-2
4.314649959E0,-1.225053146E-2,4.061317816E-2,5.339634046E-2
4.317137719E0,-1.970737800E-2,5.233107507E-2,7.257108390E-2
4.319625480E0,-3.036001325E-2,6.298371404E-2,9.387636185E-2
4.322113240E0,-4.101264849E-2,7.150582224E-2,1.173121557E-1
4.324601000E0,-5.273054913E-2,7.896266878E-2,1.407479644E-1
4.327088761E0,-6.764423847E-2,8.641951531E-2,1.631184965E-1
4.329576521E0,-8.362319320E-2,9.174583107E-2,1.822932363E-1
4.332064282E0,-1.017326787E-1,9.600688517E-2,1.993374527E-1
4.334552042E0,-1.198421568E-1,9.920267761E-2,2.131858915E-1
4.337039803E0,-1.390169114E-1,1.002679393E-1,2.249037921E-1
4.339527563E0,-1.581916511E-1,9.707214683E-2,2.312953621E-1
4.342015323E0,-1.763011366E-1,9.281109273E-2,2.344911546E-1
4.344503084E0,-1.944106072E-1,8.748477697E-2,2.344911546E-1
4.346990844E0,-2.093243003E-1,8.109319210E-2,2.312953621E-1
4.349478605E0,-2.231727391E-1,7.470161468E-2,2.270343155E-1
4.351966365E0,-2.348906398E-1,6.831002980E-2,2.195774615E-1
4.354454125E0,-2.434127480E-1,6.404897571E-2,2.121206224E-1
4.356941886E0,-2.476737946E-1,5.978792161E-2,2.025332451E-1
4.359429646E0,-2.498043180E-1,5.765739456E-2,1.918806136E-1
4.361917407E0,-2.476737946E-1,5.552686751E-2,1.801627129E-1
4.364405167E0,-2.423474789E-1,5.339634046E-2,1.684448123E-1
4.366892928E0,-2.338253707E-1,5.339634046E-2,1.577921808E-1
4.369380688E0,-2.221074700E-1,5.339634046E-2,1.460742801E-1
4.371868448E0,-2.082590461E-1,5.446160212E-2,1.343563795E-1
4.374356209E0,-1.922800839E-1,5.765739456E-2,1.247690022E-1
4.376843969E0,-1.741705984E-1,6.085318699E-2,1.151816323E-1
4.379331730E0,-1.549958587E-1,6.617950648E-2,1.066595241E-1
4.381819490E0,-1.358211190E-1,7.363634557E-2,9.920267761E-2
4.384307250E0,-1.145158410E-1,8.428898454E-2,9.174583107E-2
4.386795011E0,-9.214530140E-2,9.813741595E-2,8.428898454E-2
4.389282771E0,-6.870950758E-2,1.141163707E-1,7.683213800E-2
4.391770532E0,-4.527370632E-2,1.332911104E-1,7.044056058E-2
4.394258292E0,-2.290316857E-2,1.545963883E-1,6.511423737E-2
4.396746053E0,-1.597895520E-3,1.780321896E-1,6.085318699E-2
4.399233813E0,1.864211448E-2,1.993374527E-1,5.978792161E-2
4.401721573E0,3.568633273E-2,2.217079997E-1,5.978792161E-2
4.404209334E0,4.846949503E-2,2.451438010E-1,6.298371404E-2
4.406697094E0,5.592634156E-2,2.664490640E-1,6.831002980E-2
4.409184855E0,5.805686861E-2,2.877543271E-1,7.576687634E-2
4.411672615E0,5.486107618E-2,3.090596199E-1,8.428898454E-2
4.414160375E0,4.633896798E-2,3.282343447E-1,9.281109273E-2
4.416648136E0,3.249054030E-2,3.442133069E-1,1.034637317E-1
4.419135896E0,1.331579592E-2,3.569964767E-1,1.141163707E-1
4.421623657E0,-9.054740891E-3,3.655185997E-1,1.247690022E-1
4.424111417E0,-3.568633273E-2,3.697796464E-1,1.364869028E-1
4.426599178E0,-6.657897681E-2,3.687143922E-1,1.482048035E-1
4.429086938E0,-9.960214794E-2,3.623228073E-1,1.577921808E-1
4.431574698E0,-1.336905807E-1,3.506048918E-1,1.652490199E-1
4.434062459E0,-1.699095517E-1,3.346259296E-1,1.716406047E-1
4.436550219E0,-2.050632536E-1,3.165164590E-1,1.748363972E-1
4.439037980E0,-2.402169555E-1,2.952111959E-1,1.748363972E-1
4.441525740E0,-2.753706574E-1,2.739059031E-1,1.727058738E-1
4.444013500E0,-3.073285520E-1,2.504701018E-1,1.684448123E-1
4.446501261E0,-3.360906839E-1,2.259690464E-1,1.620532274E-1
4.448989021E0,-3.627222776E-1,2.014679909E-1,1.535311192E-1
4.451476730E0,-3.850927949E-1,1.780321896E-1,1.450090110E-1
4.453964438E0,-4.042675495E-1,1.545963883E-1,1.364869028E-1
4.456452146E0,-4.181159735E-1,1.343563795E-1,1.268995255E-1
4.458939855E0,-4.277033508E-1,1.173121557E-1,1.183774248E-1
4.461427563E0,-4.308991432E-1,1.034637317E-1,1.109205782E-1
4.463915271E0,-4.298338890E-1,9.281109273E-2,1.023984700E-1
4.466402980E0,-4.255728126E-1,8.748477697E-2,9.494162351E-2
4.468890688E0,-4.170507193E-1,8.641951531E-2,8.641951531E-2
4.471378396E0,-4.053328037E-1,8.961530030E-2,7.789740711E-2
4.473866105E0,-3.904191256E-1,9.600688517E-2,6.831002980E-2
4.476353813E0,-3.733749092E-1,1.055942550E-1,5.872265995E-2
4.478841521E0,-3.542001545E-1,1.173121557E-1,5.126581341E-2
4.481329230E0,-3.328948915E-1,1.322258562E-1,4.487423226E-2
4.483816938E0,-3.094590902E-1,1.503353268E-1,4.061317816E-2
4.486304646E0,-2.849580348E-1,1.727058738E-1,3.741738573E-2
4.488792355E0,-2.561959028E-1,1.961416751E-1,3.741738573E-2
4.491280063E0,-2.274337858E-1,2.227732539E-1,3.954791278E-2
4.493767771E0,-1.976063997E-1,2.515353858E-1,4.380896688E-2
4.496255480E0,-1.688442826E-1,2.802974880E-1,4.913528636E-2
4.498743188E0,-1.411474347E-1,3.090596199E-1,5.659212917E-2
4.501230896E0,-1.134505793E-1,3.367564678E-1,6.617950648E-2
4.503718605E0,-8.894951642E-2,3.644533157E-1,7.683213800E-2
4.506206313E0,-6.764423847E-2,3.889544010E-1,8.748477697E-2
4.508694021E0,-4.953476042E-2,4.123901725E-1,9.707214683E-2
4.511181730E0,-3.568633273E-2,4.326302111E-1,1.066595241E-1
4.513669438E0,-2.609895915E-2,4.507396817E-1,1.151816323E-1
4.516157146E0,-2.183790505E-2,4.656533599E-1,1.215732098E-1
4.518644855E0,-1.970737800E-2,4.741754830E-1,1.258342713E-1
4.521132563E0,-2.183790505E-2,4.784365296E-1,1.279647946E-1
4.523620271E0,-2.716422267E-2,4.795017838E-1,1.268995255E-1
4.526107980E0,-3.462106735E-2,4.752407372E-1,1.237037405E-1
4.528595688E0,-4.527370632E-2,4.656533599E-1,1.194426864E-1
4.531083448E0,-5.805686861E-2,4.539354742E-1,1.119858399E-1
4.533571209E0,-7.084003091E-2,4.379565120E-1,1.055942550E-1
4.536058969E0,-8.468846232E-2,4.198470414E-1,9.600688517E-2
4.538546730E0,-9.853688627E-2,3.985417485E-1,8.855003864E-2
4.541034490E0,-1.123853177E-1,3.740406930E-1,8.002793044E-2
4.543522250E0,-1.251684725E-1,3.474090993E-1,7.257108390E-2
4.546010011E0,-1.379516423E-1,3.186469972E-1,6.724476814E-2
4.548497771E0,-1.496695429E-1,2.888196111E-1,6.511423737E-2
4.550985532E0,-1.592569202E-1,2.589922249E-1,6.298371404E-2
4.553473292E0,-1.709748209E-1,2.302301079E-1,6.404897571E-2
4.555961053E0,-1.805621833E-1,2.046637833E-1,6.724476814E-2
4.558448813E0,-1.912148297E-1,1.812279820E-1,7.044056058E-2
4.560936573E0,-2.029327303E-1,1.609879732E-1,7.470161468E-2
4.563424334E0,-2.135853618E-1,1.450090110E-1,7.789740711E-2
4.565912094E0,-2.253032625E-1,1.322258562E-1,8.109319210E-2
4.568399855E0,-2.359558940E-1,1.247690022E-1,8.322372288E-2
4.570887615E0,-2.455432713E-1,1.194426864E-1,8.535424620E-2
4.573375375E0,-2.540653646E-1,1.183774248E-1,8.641951531E-2
4.575863136E0,-2.583264410E-1,1.194426864E-1,8.855003864E-2
4.578350896E0,-2.593916953E-1,1.237037405E-1,9.068056941E-2
4.580838657E0,-2.583264410E-1,1.311605871E-1,9.174583107E-2
4.583326417E0,-2.561959028E-1,1.407479644E-1,9.281109273E-2
4.585814178E0,-2.508696020E-1,1.535311192E-1,9.494162351E-2
4.588301938E0,-2.444780022E-1,1.705753356E-1,9.707214683E-2
4.590789698E0,-2.370211631E-1,1.886848211E-1,1.013332009E-1
4.593277459E0,-2.284990549E-1,2.078595608E-1,1.045289934E-1
4.595765219E0,-2.189116776E-1,2.280995846E-1,1.077247858E-1
4.598252980E0,-2.082590461E-1,2.483395934E-1,1.109205782E-1
4.600740740E0,-1.986716688E-1,2.685796022E-1,1.119858399E-1
4.603228500E0,-1.890842915E-1,2.866890728E-1,1.141163707E-1
4.605716261E0,-1.794969290E-1,3.026680350E-1,1.151816323E-1
4.608204021E0,-1.699095517E-1,3.175817132E-1,1.162468940E-1
4.610691782E0,-1.592569202E-1,3.282343447E-1,1.151816323E-1
4.613179542E0,-1.475390196E-1,3.367564678E-1,1.151816323E-1
4.615667303E0,-1.368863732E-1,3.431480527E-1,1.141163707E-1
4.618155063E0,-1.241032109E-1,3.463438451E-1,1.119858399E-1
4.620642823E0,-1.113200486E-1,3.463438451E-1,1.098553166E-1
4.623130584E0,-9.853688627E-2,3.442133069E-1,1.066595241E-1
4.625618344E0,-8.575372398E-2,3.399522603E-1,1.045289934E-1
4.628106105E0,-7.190529257E-2,3.335606754E-1,1.013332009E-1
4.630593865E0,-5.805686861E-2,3.261038363E-1,9.813741595E-2
4.633081625E0,-4.420844093E-2,3.165164590E-1,9.387636185E-2
4.635569386E0,-3.036001325E-2,3.047985733E-1,9.068056941E-2
4.638057146E0,-1.757685095E-2,2.930806577E-1,8.748477697E-2
4.640544907E0,-4.793686327E-3,2.802974880E-1,8.535424620E-2
4.643032667E0,6.924213842E-3,2.653838098E-1,8.428898454E-2
4.645520428E0,1.757685095E-2,2.504701018E-1,8.428898454E-2
4.648008188E0,2.822948620E-2,2.344911546E-1,8.535424620E-2
4.650495948E0,3.675159439E-2,2.174469382E-1,8.748477697E-2
4.652983709E0,4.420844093E-2,2.025332451E-1,9.068056941E-2
4.655471469E0,5.060002208E-2,1.886848211E-1,9.494162351E-2
4.657959230E0,5.592634156E-2,1.769669205E-1,1.013332009E-1
4.660446990E0,5.912213027E-2,1.673795432E-1,1.087900475E-1
4.662934750E0,6.231792271E-2,1.620532274E-1,1.173121557E-1
4.665422511E0,6.338318437E-2,1.599227041E-1,1.258342713E-1
4.667910271E0,6.444845349E-2,1.609879732E-1,1.343563795E-1
4.670398032E0,6.338318437E-2,1.641837656E-1,1.428784877E-1
4.672885792E0,6.125266105E-2,1.716406047E-1,1.524658650E-1
4.675373553E0,5.699160323E-2,1.812279820E-1,1.631184965E-1
4.677861313E0,5.379581451E-2,1.918806136E-1,1.737711281E-1
4.680349073E0,5.060002208E-2,2.035985142E-1,1.876195520E-1
4.682836834E0,4.740423337E-2,2.163816839E-1,2.014679909E-1
4.685324594E0,4.420844093E-2,2.291648388E-1,2.185122073E-1
4.687812355E0,3.994738683E-2,2.430132627E-1,2.334259003E-1
4.690300115E0,3.568633273E-2,2.568616867E-1,2.483395934E-1
4.692787875E0,2.929474972E-2,2.685796022E-1,2.621880174E-1
4.695275636E0,2.183790505E-2,2.792322338E-1,2.728406489E-1
4.697763396E0,1.331579592E-2,2.877543271E-1,2.813627720E-1
4.700251157E0,3.728422802E-3,2.952111959E-1,2.888196111E-1
4.702738917E0,-7.989477366E-3,2.994722426E-1,2.909501195E-1
4.705226678E0,-1.864211448E-2,3.037332892E-1,2.909501195E-1
4.707714438E0,-2.929474972E-2,3.069290817E-1,2.888196111E-1
4.710202198E0,-3.888212144E-2,3.079943359E-1,2.845585644E-1
4.712689959E0,-4.740423337E-2,3.090596199E-1,2.781669796E-1
4.715177719E0,-5.273054913E-2,3.090596199E-1,2.707101107E-1
4.717665480E0,-5.699160323E-2,3.090596199E-1,2.611227632E-1
4.720153240E0,-5.805686861E-2,3.090596199E-1,2.515353858E-1
4.722641000E0,-5.592634156E-2,3.079943359E-1,2.419480085E-1
4.725128761E0,-5.060002208E-2,3.058638275E-1,2.312953621E-1
4.727616521E0,-4.314317927E-2,3.047985733E-1,2.206427306E-1
4.730104282E0,-3.355580568E-2,3.026680350E-1,2.099900991E-1
4.732592042E0,-2.183790505E-2,2.994722426E-1,1.993374527E-1
4.735079803E0,-1.012000442E-2,2.952111959E-1,1.897500902E-1
4.737567563E0,2.663159044E-3,2.898848653E-1,1.790974438E-1
4.740055323E0,1.651158556E-2,2.824280262E-1,1.684448123E-1
4.742543084E0,2.929474972E-2,2.739059031E-1,1.599227041E-1
4.745030844E0,4.420844093E-2,2.653838098E-1,1.524658650E-1
4.747518605E0,5.699160323E-2,2.557964325E-1,1.471395344E-1
4.750006365E0,6.977476925E-2,2.462090552E-1,1.439437568E-1
4.752494125E0,8.255793154E-2,2.376869470E-1,1.428784877E-1
4.754981886E0,9.321057051E-2,2.302301079E-1,1.460742801E-1
4.757469646E0,1.027979404E-1,2.238385230E-1,1.514005959E-1
4.759957407E0,1.102547869E-1,2.185122073E-1,1.599227041E-1
4.762445167E0,1.166463718E-1,2.163816839E-1,1.716406047E-1
4.764932928E0,1.209074259E-1,2.131858915E-1,1.854890287E-1
4.767420688E0,1.230379492E-1,2.121206224E-1,2.025332451E-1
4.769908448E0,1.230379492E-1,2.121206224E-1,2.206427306E-1
4.772396209E0,1.219726875E-1,2.131858915E-1,2.398174703E-1
4.774883969E0,1.177116334E-1,2.163816839E-1,2.600574791E-1
4.777371730E0,1.113200486E-1,2.206427306E-1,2.824280262E-1
4.779859490E0,1.017326787E-1,2.259690464E-1,3.037332892E-1
4.782347250E0,9.001477808E-2,2.323606312E-1,3.261038363E-1
4.784835011E0,7.723161578E-2,2.398174703E-1,3.463438451E-1
4.787322771E0,6.338318437E-2,2.472743243E-1,3.655185997E-1
4.789810480E0,4.953476042E-2,2.526006401E-1,3.814975321E-1
4.792298188E0,3.568633273E-2,2.568616867E-1,3.932154477E-1
4.794785896E0,2.290316857E-2,2.611227632E-1,4.017375410E-1
4.797273605E0,1.118526794E-2,2.621880174E-1,4.059986174E-1
4.799761313E0,1.597895520E-3,2.621880174E-1,4.059986174E-1
4.802249021E0,-4.793686327E-3,2.632532716E-1,4.038680792E-1
4.804736730E0,-1.012000442E-2,2.632532716E-1,3.985417485E-1
4.807224438E0,-1.225053146E-2,2.643185556E-1,3.921501637E-1
4.809712146E0,-1.438105945E-2,2.664490640E-1,3.825628161E-1
4.812199855E0,-1.438105945E-2,2.685796022E-1,3.729754388E-1
4.814687563E0,-1.118526794E-2,2.739059031E-1,3.612575233E-1
4.817175271E0,-7.989477366E-3,2.802974880E-1,3.495396376E-1
4.819662980E0,-2.663159044E-3,2.866890728E-1,3.378217220E-1
4.822150688E0,5.858949851E-3,2.930806577E-1,3.271690905E-1
4.824638396E0,1.331579592E-2,2.994722426E-1,3.186469972E-1
4.827126105E0,2.290316857E-2,3.058638275E-1,3.122554123E-1
4.829613813E0,3.142527863E-2,3.122554123E-1,3.090596199E-1
4.832101521E0,3.888212144E-2,3.175817132E-1,3.069290817E-1
4.834589230E0,4.420844093E-2,3.229080439E-1,3.090596199E-1
4.837076938E0,4.527370632E-2,3.292996287E-1,3.143859208E-1
4.839564646E0,3.994738683E-2,3.356912136E-1,3.229080439E-1
4.842052355E0,2.822948620E-2,3.420827985E-1,3.356912136E-1
4.844540063E0,9.054740891E-3,3.506048918E-1,3.506048918E-1
4.847027771E0,-1.757685095E-2,3.580617309E-1,3.697796464E-1
4.849515480E0,-5.166528746E-2,3.676491082E-1,3.900196552E-1
4.852003188E0,-9.427583218E-2,3.761712313E-1,4.134554565E-1
4.854490896E0,-1.422126889E-1,3.846933246E-1,4.390217662E-1
4.856978605E0,-1.944106072E-1,3.910849094E-1,4.645881057E-1
4.859466313E0,-2.498043180E-1,3.964112401E-1,4.912196994E-1
4.861954021E0,-3.062632978E-1,3.974764943E-1,5.178512931E-1
4.864441730E0,-3.616569936E-1,3.964112401E-1,5.444828868E-1
4.866929438E0,-4.149201810E-1,3.921501637E-1,5.689839721E-1
4.869417198E0,-4.639223218E-1,3.868238628E-1,5.924197435E-1
4.871904959E0,-5.107939243E-1,3.804322779E-1,6.137250066E-1
4.874392719E0,-5.523391962E-1,3.719101548E-1,6.318345070E-1
4.876880480E0,-5.885581374E-1,3.612575233E-1,6.456829309E-1
4.879368240E0,-6.215813160E-1,3.516701460E-1,6.563355327E-1
4.881856000E0,-6.482129097E-1,3.399522603E-1,6.616618633E-1
4.884343761E0,-6.695181727E-1,3.292996287E-1,6.627271175E-1
4.886831521E0,-6.865624189E-1,3.186469972E-1,6.627271175E-1
4.889319282E0,-6.972150803E-1,3.079943359E-1,6.584661007E-1
4.891807042E0,-7.025413513E-1,2.984069884E-1,6.520745158E-1
4.894294803E0,-7.004108429E-1,2.888196111E-1,6.446176767E-1
4.896782563E0,-6.918887496E-1,2.813627720E-1,6.339650154E-1
4.899270323E0,-6.780403256E-1,2.749711871E-1,6.222470999E-1
4.901758084E0,-6.588655710E-1,2.685796022E-1,6.105292439E-1
4.904245844E0,-6.354297400E-1,2.643185556E-1,5.977460742E-1
4.906733605E0,-6.098634601E-1,2.611227632E-1,5.849629045E-1
4.909221365E0,-5.821665525E-1,2.579269707E-1,5.721797347E-1
4.911709125E0,-5.544697046E-1,2.547311783E-1,5.583313107E-1
4.914196886E0,-5.257076025E-1,2.515353858E-1,5.455481410E-1
4.916684646E0,-4.990760088E-1,2.483395934E-1,5.327649713E-1
4.919172407E0,-4.735096991E-1,2.451438010E-1,5.210470557E-1
4.921660167E0,-4.500738978E-1,2.398174703E-1,5.103944540E-1
4.924147928E0,-4.287686050E-1,2.355564237E-1,5.008070469E-1
4.926635688E0,-4.106591344E-1,2.291648388E-1,4.922849536E-1
4.929123448E0,-3.968107104E-1,2.238385230E-1,4.858933687E-1
4.931611209E0,-3.840275407E-1,2.195774615E-1,4.805670679E-1
4.934098969E0,-3.755054474E-1,2.153164148E-1,4.773712754E-1
4.936586730E0,-3.691138625E-1,2.142511457E-1,4.752407372E-1
4.939074490E0,-3.648527861E-1,2.153164148E-1,4.752407372E-1
4.941562250E0,-3.627222776E-1,2.185122073E-1,4.763059914E-1
4.944050011E0,-3.627222776E-1,2.238385230E-1,4.773712754E-1
4.946537771E0,-3.648527861E-1,2.291648388E-1,4.816323221E-1
4.949025532E0,-3.691138625E-1,2.366216928E-1,4.869586527E-1
4.951513292E0,-3.733749092E-1,2.430132627E-1,4.933502376E-1
4.954001053E0,-3.776359558E-1,2.504701018E-1,5.008070469E-1
4.956488813E0,-3.818970025E-1,2.579269707E-1,5.103944540E-1
4.958976573E0,-3.872233331E-1,2.643185556E-1,5.210470557E-1
4.961464334E0,-3.914843798E-1,2.717753947E-1,5.316997170E-1
4.963952094E0,-3.978759646E-1,2.802974880E-1,5.412870646E-1
4.966439855E0,-4.053328037E-1,2.888196111E-1,5.508744717E-1
4.968927615E0,-4.138549268E-1,2.962764502E-1,5.593965650E-1
4.971415375E0,-4.213117659E-1,2.994722426E-1,5.657881498E-1
4.973903136E0,-4.298338890E-1,2.994722426E-1,5.721797347E-1
4.976390896E0,-4.394212663E-1,2.930806577E-1,5.775060654E-1
4.978878657E0,-4.479433596E-1,2.834932804E-1,5.838976502E-1
4.981366417E0,-4.564654827E-1,2.685796022E-1,5.902892351E-1
4.983854178E0,-4.649875760E-1,2.526006401E-1,5.956155062E-1
4.986341938E0,-4.745749533E-1,2.344911546E-1,5.998765826E-1
4.988829698E0,-4.852275848E-1,2.153164148E-1,6.030724049E-1
4.991317459E0,-4.958802164E-1,1.950764060E-1,6.030724049E-1
4.993805219E0,-5.075981021E-1,1.759016514E-1,5.998765826E-1
4.996292980E0,-5.193160176E-1,1.577921808E-1,5.913544893E-1
4.998780740E0,-5.320991874E-1,1.407479644E-1,5.817670822E-1
5.001268500E0,-5.448823571E-1,1.247690022E-1,5.679186583E-1
5.003756261E0,-5.587307811E-1,1.098553166E-1,5.508744717E-1
5.006244021E0,-5.736444592E-1,9.494162351E-2,5.316997170E-1
5.008731782E0,-5.874928832E-1,8.002793044E-2,5.114597082E-1
5.011219542E0,-6.034718752E-1,6.298371404E-2,4.901544452E-1
5.013707303E0,-6.194508076E-1,4.700475931E-2,4.688491523E-1
5.016195063E0,-6.343644857E-1,2.996053919E-2,4.496744275E-1
5.018682823E0,-6.492781639E-1,1.504684892E-2,4.326302111E-1
5.021170584E0,-6.641919017E-1,-9.321057005E-4,4.177165031E-1
5.023658344E0,-6.780403256E-1,-1.478053257E-2,4.059986174E-1
5.026146105E0,-6.918887496E-1,-2.756369673E-2,3.974764943E-1
