"Time (s)","Gyroscope x (rad/s)","Gyroscope y (rad/s)","Gyroscope z (rad/s)"
2.744402200E-2,5.352949724E-2,-3.049317189E-2,-1.624527015E-2
2.993178200E-2,5.246423557E-2,-2.836264484E-2,-1.624527015E-2
3.241954300E-2,5.033370852E-2,-2.623211779E-2,-1.624527015E-2
3.490730300E-2,4.820318148E-2,-2.410159074E-2,-1.731053367E-2
3.739506400E-2,4.394212365E-2,-2.197106183E-2,-1.731053367E-2
3.988282400E-2,4.074633494E-2,-1.877527125E-2,-1.624527015E-2
4.237058400E-2,3.542001545E-2,-1.664474420E-2,-1.518000662E-2
4.485834500E-2,3.115896136E-2,-1.451421715E-2,-1.411474310E-2
4.734610500E-2,2.689790726E-2,-1.238369010E-2,-1.198421605E-2
4.983386600E-2,2.157158963E-2,-9.187898599E-3,-8.788425475E-3
5.232162600E-2,1.624527015E-2,-7.057371549E-3,-6.657897960E-3
5.480938700E-2,1.198421605E-2,-5.992108025E-3,-2.396843163E-3
5.729714700E-2,6.657897960E-3,-3.861580743E-3,1.864211401E-3
5.978490700E-2,1.331579522E-3,-2.796316985E-3,6.125265732E-3
6.227266800E-2,-1.864211401E-3,-6.657897611E-4,1.145158429E-2
6.476042800E-2,-6.125265732E-3,3.994738800E-4,1.677790284E-2
6.724818900E-2,-9.321057238E-3,2.530001104E-3,2.316948399E-2
6.973594900E-2,-1.251684781E-2,4.660528619E-3,2.849580161E-2
7.222370900E-2,-1.358211134E-2,6.791055668E-3,3.275685757E-2
7.471147000E-2,-1.571263932E-2,8.921583183E-3,3.808317333E-2
7.719923000E-2,-1.677790284E-2,1.105211023E-2,4.234423116E-2
7.968699100E-2,-1.784316637E-2,1.318263728E-2,4.767054692E-2
8.217475100E-2,-1.677790284E-2,1.637842879E-2,5.193160102E-2
8.466251200E-2,-1.677790284E-2,1.957421936E-2,5.619265884E-2
8.715027200E-2,-1.571263932E-2,2.170474641E-2,6.045371294E-2
8.963803200E-2,-1.464737486E-2,2.490053698E-2,6.364950538E-2
9.212579300E-2,-1.251684781E-2,2.809632942E-2,6.684529036E-2
9.461355300E-2,-1.145158429E-2,3.129211813E-2,6.791055948E-2
9.710131400E-2,-9.321057238E-3,3.235738352E-2,7.004108280E-2
9.958907400E-2,-8.255792782E-3,3.342264518E-2,7.110634446E-2
1.020768340E-1,-6.125265732E-3,3.448791057E-2,7.110634446E-2
1.045645950E-1,-3.994738683E-3,3.448791057E-2,7.110634446E-2
1.070523550E-1,-2.929474926E-3,3.342264518E-2,7.004108280E-2
1.095401160E-1,-7.989477599E-4,3.235738352E-2,6.897582114E-2
1.120278760E-1,2.663159103E-4,3.022685647E-2,6.897582114E-2
1.145156370E-1,2.663159103E-4,2.916159295E-2,6.684529036E-2
1.170033970E-1,2.663159103E-4,2.596580051E-2,6.578002870E-2
1.194911570E-1,2.663159103E-4,2.383527346E-2,6.364950538E-2
1.219789180E-1,2.663159103E-4,2.063948289E-2,6.045371294E-2
1.244666780E-1,2.663159103E-4,1.744369231E-2,5.938844755E-2
1.269544390E-1,-7.989477599E-4,1.424790081E-2,5.619265884E-2
1.294421990E-1,-1.864211401E-3,1.105211023E-2,5.299686641E-2
1.319299590E-1,-2.929474926E-3,6.791055668E-3,4.873581231E-2
1.344177200E-1,-3.994738683E-3,3.595264861E-3,4.554001987E-2
1.369054800E-1,-3.994738683E-3,3.994738800E-4,4.127896577E-2
1.393932410E-1,-5.060002208E-3,-3.861580743E-3,3.808317333E-2
1.418810010E-1,-6.125265732E-3,-5.992108025E-3,3.382211924E-2
1.443687620E-1,-7.190529723E-3,-9.187898599E-3,3.062633052E-2
1.468565220E-1,-8.255792782E-3,-1.344895363E-2,2.636527456E-2
1.493442820E-1,-8.255792782E-3,-1.664474420E-2,2.210422046E-2
1.518320430E-1,-8.255792782E-3,-2.090579830E-2,1.784316637E-2
1.543198030E-1,-8.255792782E-3,-2.516685426E-2,1.358211134E-2
1.568075640E-1,-7.190529723E-3,-2.942790836E-2,9.321057238E-3
1.592953240E-1,-6.125265732E-3,-3.262370080E-2,5.060002208E-3
1.617830840E-1,-3.994738683E-3,-3.581948951E-2,7.989477599E-4
1.642708450E-1,-2.929474926E-3,-3.901528195E-2,-2.396843163E-3
1.667586050E-1,-7.989477599E-4,-4.008054361E-2,-5.592633970E-3
1.692463660E-1,1.331579522E-3,-4.114580899E-2,-8.788425475E-3
1.717341260E-1,3.462106921E-3,-4.221107066E-2,-1.304947957E-2
1.742219390E-1,5.592633970E-3,-4.327633604E-2,-1.518000662E-2
1.767097510E-1,6.657897960E-3,-4.327633604E-2,-1.837579720E-2
1.791975640E-1,7.723161485E-3,-4.327633604E-2,-2.157158963E-2
1.816853760E-1,8.788425475E-3,-4.327633604E-2,-2.370211668E-2
1.841731890E-1,9.853689000E-3,-4.327633604E-2,-2.583264373E-2
1.866610010E-1,8.788425475E-3,-4.221107066E-2,-2.796317078E-2
1.891488140E-1,8.788425475E-3,-4.221107066E-2,-2.902843431E-2
1.916366260E-1,8.788425475E-3,-4.221107066E-2,-3.115896136E-2
1.941244390E-1,7.723161485E-3,-4.221107066E-2,-3.222422674E-2
1.966122510E-1,5.592633970E-3,-4.221107066E-2,-3.222422674E-2
1.991000640E-1,3.462106921E-3,-4.114580899E-2,-3.222422674E-2
2.015878760E-1,1.331579522E-3,-4.114580899E-2,-3.115896136E-2
2.040756890E-1,-7.989477599E-4,-4.008054361E-2,-3.009369783E-2
2.065635010E-1,-3.994738683E-3,-3.901528195E-2,-2.796317078E-2
2.090513140E-1,-6.125265732E-3,-3.795001656E-2,-2.583264373E-2
2.115391260E-1,-9.321057238E-3,-3.688475490E-2,-2.476738021E-2
2.140269390E-1,-1.145158429E-2,-3.581948951E-2,-2.263685316E-2
2.165147510E-1,-1.464737486E-2,-3.581948951E-2,-1.944106072E-2
2.190025640E-1,-1.784316637E-2,-3.475422785E-2,-1.624527015E-2
2.214903760E-1,-2.210422046E-2,-3.475422785E-2,-1.304947957E-2
2.239781890E-1,-2.423474751E-2,-3.475422785E-2,-9.853689000E-3
2.264660010E-1,-2.743053809E-2,-3.368896246E-2,-6.657897960E-3
2.289538140E-1,-2.956106514E-2,-3.368896246E-2,-2.396843163E-3
2.314416260E-1,-3.062633052E-2,-3.262370080E-2,7.989477599E-4
2.339294390E-1,-3.169159219E-2,-3.155843541E-2,5.060002208E-3
2.364172510E-1,-3.275685757E-2,-3.049317189E-2,8.255792782E-3
2.389050640E-1,-3.169159219E-2,-2.942790836E-2,1.251684781E-2
2.413928760E-1,-3.169159219E-2,-2.836264484E-2,1.464737486E-2
2.438806890E-1,-2.956106514E-2,-2.729738131E-2,1.677790284E-2
2.463685010E-1,-2.743053809E-2,-2.516685426E-2,1.997369342E-2
2.488563140E-1,-2.423474751E-2,-2.303632535E-2,2.210422046E-2
2.513441260E-1,-2.210422046E-2,-2.090579830E-2,2.316948399E-2
2.538319390E-1,-1.784316637E-2,-1.771000773E-2,2.423474751E-2
2.563197510E-1,-1.464737486E-2,-1.451421715E-2,2.530001104E-2
2.588075640E-1,-1.038632076E-2,-1.238369010E-2,2.530001104E-2
2.612953760E-1,-5.060002208E-3,-1.025316212E-2,2.423474751E-2
2.637831890E-1,-7.989477599E-4,-8.122635074E-3,2.316948399E-2
2.662710010E-1,3.462106921E-3,-5.992108025E-3,2.103895694E-2
2.687588140E-1,7.723161485E-3,-4.926844500E-3,1.997369342E-2
2.712466260E-1,1.091895252E-2,-3.861580743E-3,1.677790284E-2
2.737344390E-1,1.411474310E-2,-3.861580743E-3,1.251684781E-2
2.762222510E-1,1.731053367E-2,-4.926844500E-3,9.321057238E-3
2.787100120E-1,1.944106072E-2,-5.992108025E-3,6.125265732E-3
2.811977720E-1,2.157158963E-2,-7.057371549E-3,2.929474926E-3
2.836855320E-1,2.370211668E-2,-9.187898599E-3,-1.331579522E-3
2.861732930E-1,2.476738021E-2,-1.025316212E-2,-4.527370445E-3
2.886610530E-1,2.476738021E-2,-1.238369010E-2,-7.723161485E-3
2.911488140E-1,2.476738021E-2,-1.344895363E-2,-1.198421605E-2
2.936365740E-1,2.476738021E-2,-1.451421715E-2,-1.411474310E-2
2.961243340E-1,2.370211668E-2,-1.557948068E-2,-1.731053367E-2
2.986120950E-1,2.263685316E-2,-1.451421715E-2,-2.157158963E-2
3.010998550E-1,1.944106072E-2,-1.451421715E-2,-2.370211668E-2
3.035876160E-1,1.624527015E-2,-1.344895363E-2,-2.583264373E-2
3.060753760E-1,1.304947957E-2,-1.131842658E-2,-2.796317078E-2
3.085631370E-1,9.853689000E-3,-1.025316212E-2,-2.902843431E-2
3.110508970E-1,6.657897960E-3,-8.122635074E-3,-3.009369783E-2
3.135386570E-1,2.396843163E-3,-5.992108025E-3,-3.009369783E-2
3.160264180E-1,-1.864211401E-3,-3.861580743E-3,-3.009369783E-2
3.185141780E-1,-6.125265732E-3,-6.657897611E-4,-3.009369783E-2
3.210019390E-1,-9.321057238E-3,2.530001104E-3,-2.796317078E-2
3.234896990E-1,-1.251684781E-2,4.660528619E-3,-2.583264373E-2
3.259774590E-1,-1.677790284E-2,6.791055668E-3,-2.476738021E-2
3.284652200E-1,-1.890842989E-2,9.986846708E-3,-2.157158963E-2
3.309529800E-1,-2.210422046E-2,1.211737376E-2,-1.837579720E-2
3.334407410E-1,-2.423474751E-2,1.318263728E-2,-1.624527015E-2
3.359285010E-1,-2.530001104E-2,1.424790081E-2,-1.304947957E-2
3.384162620E-1,-2.743053809E-2,1.531316526E-2,-9.853689000E-3
3.409040220E-1,-2.743053809E-2,1.531316526E-2,-5.592633970E-3
3.433917820E-1,-2.743053809E-2,1.531316526E-2,-3.462106921E-3
3.458795430E-1,-2.636527456E-2,1.318263728E-2,7.989477599E-4
3.483673030E-1,-2.530001104E-2,1.105211023E-2,2.929474926E-3
3.508550640E-1,-2.316948399E-2,9.986846708E-3,5.060002208E-3
3.533428240E-1,-2.103895694E-2,7.856319658E-3,7.190529723E-3
3.558305840E-1,-1.997369342E-2,5.725792143E-3,9.321057238E-3
3.583183450E-1,-1.677790284E-2,4.660528619E-3,1.145158429E-2
3.608061050E-1,-1.358211134E-2,2.530001104E-3,1.251684781E-2
3.632938660E-1,-9.321057238E-3,1.464737463E-3,1.251684781E-2
3.657816260E-1,-6.125265732E-3,-6.657897611E-4,1.251684781E-2
3.682693870E-1,-2.929474926E-3,-1.731053460E-3,1.145158429E-2
3.707571470E-1,2.663159103E-4,-3.861580743E-3,1.145158429E-2
3.732449070E-1,3.462106921E-3,-5.992108025E-3,1.038632076E-2
3.757326680E-1,6.657897960E-3,-7.057371549E-3,9.321057238E-3
3.782204280E-1,9.853689000E-3,-9.187898599E-3,7.190529723E-3
3.807081890E-1,1.198421605E-2,-1.131842658E-2,5.060002208E-3
3.831959490E-1,1.518000662E-2,-1.344895363E-2,2.929474926E-3
3.856837090E-1,1.837579720E-2,-1.451421715E-2,7.989477599E-4
3.881714700E-1,2.157158963E-2,-1.771000773E-2,-1.331579522E-3
3.906592300E-1,2.263685316E-2,-1.984053478E-2,-3.462106921E-3
3.931469910E-1,2.476738021E-2,-2.303632535E-2,-5.592633970E-3
3.956347510E-1,2.689790726E-2,-2.623211779E-2,-7.723161485E-3
3.981225120E-1,2.796317078E-2,-2.942790836E-2,-9.853689000E-3
4.006102720E-1,2.902843431E-2,-3.155843541E-2,-1.198421605E-2
4.030980320E-1,2.902843431E-2,-3.475422785E-2,-1.411474310E-2
4.055857930E-1,3.009369783E-2,-3.581948951E-2,-1.518000662E-2
4.080735530E-1,3.009369783E-2,-3.688475490E-2,-1.731053367E-2
4.105613140E-1,3.009369783E-2,-3.795001656E-2,-2.050632425E-2
4.130490740E-1,3.115896136E-2,-3.688475490E-2,-2.157158963E-2
4.155368870E-1,3.115896136E-2,-3.688475490E-2,-2.370211668E-2
4.180246990E-1,3.115896136E-2,-3.581948951E-2,-2.689790726E-2
4.205125120E-1,3.115896136E-2,-3.475422785E-2,-2.902843431E-2
4.230003240E-1,3.009369783E-2,-3.262370080E-2,-3.009369783E-2
4.254881370E-1,3.009369783E-2,-3.155843541E-2,-3.222422674E-2
4.279759490E-1,3.009369783E-2,-3.049317189E-2,-3.435475379E-2
4.304637620E-1,3.009369783E-2,-2.836264484E-2,-3.542001545E-2
4.329515740E-1,2.902843431E-2,-2.623211779E-2,-3.755054250E-2
4.354393870E-1,2.796317078E-2,-2.410159074E-2,-3.968106955E-2
4.379271990E-1,2.689790726E-2,-2.197106183E-2,-4.074633494E-2
4.404150120E-1,2.583264373E-2,-1.984053478E-2,-4.287686199E-2
4.429028240E-1,2.370211668E-2,-1.771000773E-2,-4.394212365E-2
4.453906370E-1,2.157158963E-2,-1.451421715E-2,-4.607265070E-2
4.478784490E-1,2.050632425E-2,-1.238369010E-2,-4.713791609E-2
4.503662620E-1,1.731053367E-2,-1.025316212E-2,-4.713791609E-2
4.528540740E-1,1.518000662E-2,-8.122635074E-3,-4.820318148E-2
4.553418870E-1,1.091895252E-2,-5.992108025E-3,-4.820318148E-2
4.578296990E-1,8.788425475E-3,-3.861580743E-3,-4.713791609E-2
4.603175120E-1,4.527370445E-3,-2.796316985E-3,-4.713791609E-2
4.628053240E-1,1.331579522E-3,-6.657897611E-4,-4.607265070E-2
4.652931370E-1,-3.994738683E-3,3.994738800E-4,-4.607265070E-2
4.677809490E-1,-7.190529723E-3,3.994738800E-4,-4.500738904E-2
4.702687620E-1,-1.145158429E-2,3.994738800E-4,-4.394212365E-2
4.727565740E-1,-1.464737486E-2,3.994738800E-4,-4.181159660E-2
4.752443870E-1,-1.784316637E-2,3.994738800E-4,-4.074633494E-2
4.777321990E-1,-2.210422046E-2,-6.657897611E-4,-3.861580789E-2
4.802200120E-1,-2.423474751E-2,-6.657897611E-4,-3.648528084E-2
4.827078240E-1,-2.636527456E-2,-1.731053460E-3,-3.542001545E-2
4.851956370E-1,-2.743053809E-2,-1.731053460E-3,-3.328948840E-2
4.876834490E-1,-2.849580161E-2,-2.796316985E-3,-3.222422674E-2
4.901712620E-1,-2.956106514E-2,-2.796316985E-3,-3.009369783E-2
4.926590740E-1,-2.849580161E-2,-3.861580743E-3,-2.796317078E-2
4.951468870E-1,-2.636527456E-2,-4.926844500E-3,-2.689790726E-2
4.976346990E-1,-2.530001104E-2,-5.992108025E-3,-2.476738021E-2
5.001225120E-1,-2.210422046E-2,-8.122635074E-3,-2.263685316E-2
5.026103240E-1,-1.890842989E-2,-1.025316212E-2,-2.157158963E-2
5.050981370E-1,-1.571263932E-2,-1.238369010E-2,-1.944106072E-2
5.075859490E-1,-1.145158429E-2,-1.451421715E-2,-1.837579720E-2
5.100737620E-1,-6.125265732E-3,-1.771000773E-2,-1.624527015E-2
5.125615740E-1,-7.989477599E-4,-2.090579830E-2,-1.411474310E-2
5.150493870E-1,3.462106921E-3,-2.303632535E-2,-1.198421605E-2
5.175371990E-1,8.788425475E-3,-2.623211779E-2,-1.091895252E-2
5.200250120E-1,1.411474310E-2,-2.942790836E-2,-9.853689000E-3
5.225128240E-1,1.944106072E-2,-3.262370080E-2,-8.788425475E-3
5.250006370E-1,2.476738021E-2,-3.475422785E-2,-7.723161485E-3
5.274883970E-1,3.009369783E-2,-3.795001656E-2,-7.723161485E-3
5.299761570E-1,3.648528084E-2,-4.008054361E-2,-6.657897960E-3
5.324639180E-1,4.074633494E-2,-4.221107066E-2,-7.723161485E-3
5.349516780E-1,4.500738904E-2,-4.434159771E-2,-7.723161485E-3
5.374394390E-1,4.926844314E-2,-4.540686309E-2,-8.788425475E-3
5.399271990E-1,5.139897019E-2,-4.540686309E-2,-9.853689000E-3
5.424149590E-1,5.459476262E-2,-4.434159771E-2,-1.198421605E-2
5.449027200E-1,5.566002429E-2,-4.327633604E-2,-1.304947957E-2
5.473904800E-1,5.672528967E-2,-4.114580899E-2,-1.518000662E-2
5.498782410E-1,5.672528967E-2,-3.901528195E-2,-1.731053367E-2
5.523660010E-1,5.672528967E-2,-3.581948951E-2,-1.944106072E-2
5.548537620E-1,5.672528967E-2,-3.262370080E-2,-2.157158963E-2
5.573415220E-1,5.566002429E-2,-2.942790836E-2,-2.263685316E-2
5.598292820E-1,5.246423557E-2,-2.516685426E-2,-2.370211668E-2
5.623170430E-1,4.926844314E-2,-2.090579830E-2,-2.583264373E-2
5.648048030E-1,4.607265070E-2,-1.664474420E-2,-2.689790726E-2
5.672925640E-1,4.181159660E-2,-1.025316212E-2,-2.689790726E-2
5.697803240E-1,3.755054250E-2,-4.926844500E-3,-2.796317078E-2
5.722680840E-1,3.328948840E-2,1.464737463E-3,-2.902843431E-2
5.747558450E-1,2.796317078E-2,7.856319658E-3,-2.796317078E-2
5.772436050E-1,2.263685316E-2,1.424790081E-2,-2.689790726E-2
5.797313660E-1,1.624527015E-2,1.957421936E-2,-2.583264373E-2
5.822191260E-1,9.853689000E-3,2.490053698E-2,-2.476738021E-2
5.847074070E-1,3.462106921E-3,2.916159295E-2,-2.263685316E-2
5.871952200E-1,-2.929474926E-3,3.235738352E-2,-1.944106072E-2
5.896830320E-1,-8.255792782E-3,3.555317223E-2,-1.624527015E-2
5.921707930E-1,-1.464737486E-2,3.768370301E-2,-1.304947957E-2
5.946585530E-1,-1.997369342E-2,3.874896467E-2,-9.853689000E-3
5.971463140E-1,-2.530001104E-2,3.981423005E-2,-7.723161485E-3
5.996340740E-1,-2.956106514E-2,4.087949172E-2,-3.462106921E-3
6.021218340E-1,-3.382211924E-2,4.087949172E-2,-1.331579522E-3
6.046095950E-1,-3.595264629E-2,3.981423005E-2,7.989477599E-4
6.070973550E-1,-3.914843872E-2,3.981423005E-2,3.994738683E-3
6.095851160E-1,-4.021370411E-2,3.874896467E-2,6.125265732E-3
6.120728760E-1,-4.021370411E-2,3.661843762E-2,7.190529723E-3
6.145606370E-1,-4.021370411E-2,3.555317223E-2,9.321057238E-3
6.170483970E-1,-3.914843872E-2,3.448791057E-2,1.038632076E-2
6.195361570E-1,-3.808317333E-2,3.342264518E-2,1.038632076E-2
6.220239180E-1,-3.488738462E-2,3.129211813E-2,1.145158429E-2
6.245116780E-1,-3.169159219E-2,2.916159295E-2,1.145158429E-2
6.269994390E-1,-2.743053809E-2,2.703106403E-2,1.145158429E-2
6.294871990E-1,-2.423474751E-2,2.490053698E-2,1.145158429E-2
6.319749590E-1,-1.997369342E-2,2.170474641E-2,1.145158429E-2
6.344627200E-1,-1.464737486E-2,1.957421936E-2,1.145158429E-2
6.369504800E-1,-1.038632076E-2,1.744369231E-2,1.145158429E-2
6.394382410E-1,-5.060002208E-3,1.531316526E-2,1.038632076E-2
6.419260010E-1,1.331579522E-3,1.318263728E-2,9.321057238E-3
6.444137620E-1,6.657897960E-3,9.986846708E-3,8.255792782E-3
6.469015220E-1,1.198421605E-2,6.791055668E-3,8.255792782E-3
6.493892820E-1,1.731053367E-2,3.595264861E-3,7.190529723E-3
6.518770430E-1,2.263685316E-2,3.994738800E-4,6.125265732E-3
6.543648030E-1,2.796317078E-2,-2.796316985E-3,5.060002208E-3
6.568525640E-1,3.328948840E-2,-7.057371549E-3,3.994738683E-3
6.593403240E-1,3.648528084E-2,-1.131842658E-2,2.929474926E-3
6.618280840E-1,4.074633494E-2,-1.344895363E-2,7.989477599E-4
6.643158450E-1,4.287686199E-2,-1.664474420E-2,7.989477599E-4
6.668036050E-1,4.607265070E-2,-1.877527125E-2,-1.331579522E-3
6.692913660E-1,4.713791609E-2,-2.090579830E-2,-2.396843163E-3
6.717791260E-1,4.820318148E-2,-2.303632535E-2,-2.396843163E-3
6.742668870E-1,4.820318148E-2,-2.410159074E-2,-3.462106921E-3
6.767546470E-1,4.820318148E-2,-2.410159074E-2,-4.527370445E-3
6.792424070E-1,4.713791609E-2,-2.516685426E-2,-6.657897960E-3
6.817301680E-1,4.607265070E-2,-2.410159074E-2,-6.657897960E-3
6.842179280E-1,4.394212365E-2,-2.303632535E-2,-7.723161485E-3
6.867056890E-1,4.181159660E-2,-2.303632535E-2,-7.723161485E-3
6.891934490E-1,3.861580789E-2,-2.197106183E-2,-8.788425475E-3
6.916812090E-1,3.542001545E-2,-2.090579830E-2,-9.853689000E-3
6.941689700E-1,3.115896136E-2,-1.984053478E-2,-9.853689000E-3
6.966567300E-1,2.689790726E-2,-1.877527125E-2,-1.091895252E-2
6.991444910E-1,2.370211668E-2,-1.664474420E-2,-1.091895252E-2
7.016322510E-1,1.944106072E-2,-1.451421715E-2,-1.091895252E-2
7.041200120E-1,1.411474310E-2,-1.238369010E-2,-1.198421605E-2
7.066077720E-1,9.853689000E-3,-1.025316212E-2,-1.198421605E-2
7.090955320E-1,5.592633970E-3,-7.057371549E-3,-1.198421605E-2
7.115832930E-1,1.331579522E-3,-3.861580743E-3,-1.198421605E-2
7.140710530E-1,-1.864211401E-3,3.994738800E-4,-1.198421605E-2
7.165588140E-1,-5.060002208E-3,3.595264861E-3,-1.198421605E-2
7.190466260E-1,-8.255792782E-3,6.791055668E-3,-1.198421605E-2
7.215344390E-1,-9.321057238E-3,1.105211023E-2,-1.091895252E-2
7.240222510E-1,-1.145158429E-2,1.318263728E-2,-1.091895252E-2
7.265100640E-1,-1.251684781E-2,1.637842879E-2,-1.091895252E-2
7.289978760E-1,-1.358211134E-2,1.850895584E-2,-1.198421605E-2
7.314856890E-1,-1.358211134E-2,2.063948289E-2,-1.198421605E-2
7.339735010E-1,-1.464737486E-2,2.170474641E-2,-1.091895252E-2
7.364613140E-1,-1.464737486E-2,2.277000993E-2,-1.091895252E-2
7.389491260E-1,-1.464737486E-2,2.383527346E-2,-1.091895252E-2
7.414369390E-1,-1.358211134E-2,2.383527346E-2,-9.853689000E-3
7.439247510E-1,-1.251684781E-2,2.383527346E-2,-9.853689000E-3
7.464125640E-1,-1.251684781E-2,2.277000993E-2,-9.853689000E-3
7.489003760E-1,-1.145158429E-2,2.063948289E-2,-9.853689000E-3
7.513881890E-1,-9.321057238E-3,1.850895584E-2,-9.853689000E-3
7.538760010E-1,-7.190529723E-3,1.744369231E-2,-9.853689000E-3
7.563638140E-1,-6.125265732E-3,1.424790081E-2,-9.853689000E-3
7.588516260E-1,-3.994738683E-3,1.105211023E-2,-9.853689000E-3
7.613394390E-1,-7.989477599E-4,8.921583183E-3,-1.091895252E-2
7.638272510E-1,2.396843163E-3,6.791055668E-3,-9.853689000E-3
7.663150640E-1,5.592633970E-3,3.595264861E-3,-9.853689000E-3
7.688028760E-1,6.657897960E-3,1.464737463E-3,-9.853689000E-3
7.712906890E-1,9.853689000E-3,-6.657897611E-4,-9.853689000E-3
7.737785010E-1,1.304947957E-2,-2.796316985E-3,-9.853689000E-3
7.762663140E-1,1.518000662E-2,-3.861580743E-3,-9.853689000E-3
7.787541260E-1,1.731053367E-2,-4.926844500E-3,-9.853689000E-3
7.812419390E-1,1.837579720E-2,-5.992108025E-3,-1.091895252E-2
7.837297510E-1,1.944106072E-2,-7.057371549E-3,-1.091895252E-2
7.862175640E-1,2.050632425E-2,-5.992108025E-3,-1.091895252E-2
7.887053760E-1,2.263685316E-2,-5.992108025E-3,-1.198421605E-2
7.911931890E-1,2.263685316E-2,-4.926844500E-3,-1.198421605E-2
7.936810010E-1,2.370211668E-2,-4.926844500E-3,-1.304947957E-2
7.961688140E-1,2.370211668E-2,-3.861580743E-3,-1.304947957E-2
7.986566260E-1,2.370211668E-2,-2.796316985E-3,-1.304947957E-2
8.011444390E-1,2.263685316E-2,-1.731053460E-3,-1.304947957E-2
8.036322510E-1,2.157158963E-2,-6.657897611E-4,-1.198421605E-2
8.061200640E-1,2.050632425E-2,3.994738800E-4,-1.198421605E-2
8.086078760E-1,1.837579720E-2,1.464737463E-3,-1.091895252E-2
8.110956890E-1,1.624527015E-2,3.595264861E-3,-9.853689000E-3
8.135835010E-1,1.304947957E-2,3.595264861E-3,-8.788425475E-3
8.160713140E-1,9.853689000E-3,4.660528619E-3,-7.723161485E-3
8.185591260E-1,6.657897960E-3,4.660528619E-3,-5.592633970E-3
8.210469390E-1,3.462106921E-3,4.660528619E-3,-4.527370445E-3
8.235347510E-1,2.663159103E-4,3.595264861E-3,-2.396843163E-3
8.260225640E-1,-2.929474926E-3,2.530001104E-3,-2.663159103E-4
8.285103760E-1,-6.125265732E-3,3.994738800E-4,7.989477599E-4
8.309981890E-1,-8.255792782E-3,-6.657897611E-4,2.929474926E-3
8.334860010E-1,-1.038632076E-2,-1.731053460E-3,5.060002208E-3
8.359738140E-1,-1.251684781E-2,-2.796316985E-3,6.125265732E-3
8.384615740E-1,-1.358211134E-2,-2.796316985E-3,7.190529723E-3
8.409493340E-1,-1.358211134E-2,-2.796316985E-3,7.190529723E-3
8.434370950E-1,-1.251684781E-2,-2.796316985E-3,7.190529723E-3
8.459248550E-1,-1.145158429E-2,-1.731053460E-3,7.190529723E-3
8.484126160E-1,-9.321057238E-3,-1.731053460E-3,7.190529723E-3
8.509003760E-1,-7.190529723E-3,-6.657897611E-4,7.190529723E-3
8.533881370E-1,-3.994738683E-3,3.994738800E-4,6.125265732E-3
8.558758970E-1,-1.864211401E-3,3.994738800E-4,6.125265732E-3
8.583636570E-1,1.331579522E-3,3.994738800E-4,6.125265732E-3
8.608514180E-1,4.527370445E-3,-6.657897611E-4,6.125265732E-3
8.633391780E-1,7.723161485E-3,-6.657897611E-4,6.125265732E-3
8.658269390E-1,1.091895252E-2,-1.731053460E-3,6.125265732E-3
8.683146990E-1,1.411474310E-2,-1.731053460E-3,6.125265732E-3
8.708024590E-1,1.624527015E-2,-2.796316985E-3,6.125265732E-3
8.732902200E-1,1.837579720E-2,-2.796316985E-3,6.125265732E-3
8.757779800E-1,2.157158963E-2,-3.861580743E-3,7.190529723E-3
8.782657410E-1,2.370211668E-2,-3.861580743E-3,8.255792782E-3
8.807535010E-1,2.583264373E-2,-4.926844500E-3,8.255792782E-3
8.832412620E-1,2.796317078E-2,-5.992108025E-3,9.321057238E-3
8.857290220E-1,3.009369783E-2,-7.057371549E-3,1.145158429E-2
8.882167820E-1,3.009369783E-2,-8.122635074E-3,1.251684781E-2
8.907045430E-1,3.222422674E-2,-9.187898599E-3,1.358211134E-2
8.931923030E-1,3.328948840E-2,-1.025316212E-2,1.571263932E-2
8.956800640E-1,3.435475379E-2,-1.131842658E-2,1.571263932E-2
8.981678240E-1,3.435475379E-2,-1.238369010E-2,1.784316637E-2
9.006555840E-1,3.435475379E-2,-1.238369010E-2,1.784316637E-2
9.031433450E-1,3.435475379E-2,-1.344895363E-2,1.890842989E-2
9.056311050E-1,3.328948840E-2,-1.451421715E-2,1.997369342E-2
9.081188660E-1,3.222422674E-2,-1.664474420E-2,1.997369342E-2
9.106066260E-1,3.115896136E-2,-1.771000773E-2,1.890842989E-2
9.130943870E-1,3.009369783E-2,-1.877527125E-2,1.890842989E-2
9.155821470E-1,2.902843431E-2,-1.984053478E-2,1.890842989E-2
9.180699070E-1,2.583264373E-2,-2.197106183E-2,1.890842989E-2
9.205576680E-1,2.476738021E-2,-2.410159074E-2,1.784316637E-2
9.230454280E-1,2.370211668E-2,-2.516685426E-2,1.677790284E-2
9.255331890E-1,2.157158963E-2,-2.623211779E-2,1.571263932E-2
9.280209490E-1,1.944106072E-2,-2.729738131E-2,1.358211134E-2
9.305087090E-1,1.837579720E-2,-2.836264484E-2,1.251684781E-2
9.329964700E-1,1.731053367E-2,-2.836264484E-2,1.038632076E-2
9.354842300E-1,1.518000662E-2,-2.942790836E-2,9.321057238E-3
9.379719910E-1,1.411474310E-2,-2.942790836E-2,8.255792782E-3
9.404597510E-1,1.411474310E-2,-2.836264484E-2,6.125265732E-3
9.429475120E-1,1.411474310E-2,-2.836264484E-2,5.060002208E-3
9.454352720E-1,1.304947957E-2,-2.729738131E-2,3.994738683E-3
9.479230320E-1,1.304947957E-2,-2.516685426E-2,3.994738683E-3
9.504107930E-1,1.091895252E-2,-2.197106183E-2,2.929474926E-3
9.528985530E-1,9.853689000E-3,-1.877527125E-2,7.989477599E-4
9.553863140E-1,8.788425475E-3,-1.664474420E-2,7.989477599E-4
9.578741260E-1,6.657897960E-3,-1.344895363E-2,7.989477599E-4
9.603619390E-1,4.527370445E-3,-9.187898599E-3,-2.663159103E-4
9.628497510E-1,1.331579522E-3,-4.926844500E-3,-1.331579522E-3
9.653375640E-1,2.663159103E-4,-1.731053460E-3,-1.331579522E-3
9.678253760E-1,-1.864211401E-3,1.464737463E-3,-1.331579522E-3
9.703131890E-1,-3.994738683E-3,4.660528619E-3,-1.331579522E-3
9.728010010E-1,-6.125265732E-3,5.725792143E-3,-2.396843163E-3
9.752888140E-1,-8.255792782E-3,7.856319658E-3,-2.396843163E-3
9.777766260E-1,-1.038632076E-2,9.986846708E-3,-2.396843163E-3
9.802644390E-1,-1.145158429E-2,1.211737376E-2,-2.396843163E-3
9.827522510E-1,-1.251684781E-2,1.318263728E-2,-2.396843163E-3
9.852400640E-1,-1.464737486E-2,1.531316526E-2,-2.396843163E-3
9.877278760E-1,-1.677790284E-2,1.531316526E-2,-3.462106921E-3
9.902156890E-1,-1.677790284E-2,1.531316526E-2,-3.462106921E-3
9.927035010E-1,-1.784316637E-2,1.531316526E-2,-4.527370445E-3
9.951913140E-1,-1.784316637E-2,1.424790081E-2,-4.527370445E-3
9.976791260E-1,-1.784316637E-2,1.424790081E-2,-4.527370445E-3
1.000166939E0,-1.784316637E-2,1.318263728E-2,-4.527370445E-3
1.002654751E0,-1.677790284E-2,1.105211023E-2,-4.527370445E-3
1.005142564E0,-1.677790284E-2,8.921583183E-3,-4.527370445E-3
1.007630376E0,-1.464737486E-2,6.791055668E-3,-4.527370445E-3
1.010118189E0,-1.358211134E-2,3.595264861E-3,-4.527370445E-3
1.012606001E0,-1.145158429E-2,3.994738800E-4,-3.462106921E-3
1.015093814E0,-1.038632076E-2,-3.861580743E-3,-3.462106921E-3
1.017581626E0,-9.321057238E-3,-7.057371549E-3,-3.462106921E-3
1.020069439E0,-6.125265732E-3,-1.025316212E-2,-3.462106921E-3
1.022557251E0,-3.994738683E-3,-1.344895363E-2,-3.462106921E-3
1.025045064E0,-1.864211401E-3,-1.557948068E-2,-3.462106921E-3
1.027532876E0,1.331579522E-3,-1.771000773E-2,-4.527370445E-3
1.030020689E0,4.527370445E-3,-1.877527125E-2,-3.462106921E-3
1.032508501E0,7.723161485E-3,-1.984053478E-2,-4.527370445E-3
1.034996314E0,9.853689000E-3,-2.090579830E-2,-4.527370445E-3
1.037484126E0,1.304947957E-2,-2.197106183E-2,-4.527370445E-3
1.039971939E0,1.624527015E-2,-2.303632535E-2,-5.592633970E-3
1.042459751E0,1.944106072E-2,-2.303632535E-2,-5.592633970E-3
1.044947564E0,2.157158963E-2,-2.410159074E-2,-5.592633970E-3
1.047435376E0,2.370211668E-2,-2.303632535E-2,-4.527370445E-3
1.049923189E0,2.689790726E-2,-2.410159074E-2,-4.527370445E-3
1.052411001E0,2.902843431E-2,-2.410159074E-2,-4.527370445E-3
1.054898814E0,3.115896136E-2,-2.303632535E-2,-5.592633970E-3
1.057386626E0,3.328948840E-2,-2.197106183E-2,-5.592633970E-3
1.059874439E0,3.435475379E-2,-2.090579830E-2,-5.592633970E-3
1.062362251E0,3.435475379E-2,-1.984053478E-2,-4.527370445E-3
1.064850064E0,3.542001545E-2,-1.877527125E-2,-4.527370445E-3
1.067337876E0,3.648528084E-2,-1.771000773E-2,-4.527370445E-3
1.069825689E0,3.542001545E-2,-1.664474420E-2,-4.527370445E-3
1.072313501E0,3.435475379E-2,-1.557948068E-2,-3.462106921E-3
1.074801314E0,3.328948840E-2,-1.451421715E-2,-3.462106921E-3
1.077289126E0,3.222422674E-2,-1.344895363E-2,-3.462106921E-3
1.079776939E0,3.009369783E-2,-1.238369010E-2,-2.396843163E-3
1.082264751E0,2.796317078E-2,-1.131842658E-2,-3.462106921E-3
1.084752512E0,2.583264373E-2,-9.187898599E-3,-2.396843163E-3
1.087240272E0,2.370211668E-2,-8.122635074E-3,-2.396843163E-3
1.089728032E0,2.157158963E-2,-7.057371549E-3,-2.396843163E-3
1.092215793E0,1.944106072E-2,-7.057371549E-3,-2.396843163E-3
1.094703553E0,1.731053367E-2,-7.057371549E-3,-2.396843163E-3
1.097191314E0,1.411474310E-2,-7.057371549E-3,-2.396843163E-3
1.099679074E0,1.198421605E-2,-7.057371549E-3,-1.331579522E-3
1.102166834E0,1.091895252E-2,-7.057371549E-3,-1.331579522E-3
1.104654595E0,8.788425475E-3,-8.122635074E-3,-1.331579522E-3
1.107142355E0,7.723161485E-3,-8.122635074E-3,-1.331579522E-3
1.109630116E0,5.592633970E-3,-9.187898599E-3,-1.331579522E-3
1.112117876E0,4.527370445E-3,-9.187898599E-3,-2.663159103E-4
1.114605637E0,4.527370445E-3,-9.187898599E-3,-2.663159103E-4
1.117093397E0,3.462106921E-3,-1.025316212E-2,-2.663159103E-4
1.119581157E0,3.462106921E-3,-1.131842658E-2,7.989477599E-4
1.122068918E0,3.462106921E-3,-1.131842658E-2,-2.663159103E-4
1.124556678E0,4.527370445E-3,-1.131842658E-2,7.989477599E-4
1.127044439E0,3.462106921E-3,-1.025316212E-2,7.989477599E-4
1.129532199E0,2.396843163E-3,-1.131842658E-2,7.989477599E-4
1.132019959E0,3.462106921E-3,-1.131842658E-2,7.989477599E-4
1.134507720E0,2.396843163E-3,-1.131842658E-2,7.989477599E-4
1.136995480E0,2.396843163E-3,-1.025316212E-2,7.989477599E-4
1.139483241E0,2.396843163E-3,-1.025316212E-2,-2.663159103E-4
1.141971001E0,2.396843163E-3,-9.187898599E-3,-2.663159103E-4
1.144458762E0,2.396843163E-3,-9.187898599E-3,-2.396843163E-3
1.146946522E0,1.331579522E-3,-9.187898599E-3,-3.462106921E-3
1.149434282E0,2.663159103E-4,-9.187898599E-3,-5.592633970E-3
1.151922043E0,-7.989477599E-4,-9.187898599E-3,-8.788425475E-3
1.154409803E0,-1.864211401E-3,-1.025316212E-2,-1.091895252E-2
1.156897564E0,-2.929474926E-3,-1.131842658E-2,-1.411474310E-2
1.159385324E0,-3.994738683E-3,-1.238369010E-2,-1.731053367E-2
1.161873084E0,-5.060002208E-3,-1.344895363E-2,-2.157158963E-2
1.164360845E0,-7.190529723E-3,-1.557948068E-2,-2.476738021E-2
1.166848605E0,-8.255792782E-3,-1.771000773E-2,-2.902843431E-2
1.169336366E0,-9.321057238E-3,-1.877527125E-2,-3.328948840E-2
1.171824126E0,-1.145158429E-2,-1.984053478E-2,-3.648528084E-2
1.174311887E0,-1.358211134E-2,-2.197106183E-2,-3.968106955E-2
1.176799647E0,-1.571263932E-2,-2.303632535E-2,-4.287686199E-2
1.179287407E0,-1.890842989E-2,-2.410159074E-2,-4.500738904E-2
1.181775168E0,-1.997369342E-2,-2.410159074E-2,-4.820318148E-2
1.184262928E0,-2.316948399E-2,-2.410159074E-2,-4.926844314E-2
1.186750689E0,-2.530001104E-2,-2.410159074E-2,-5.033370852E-2
1.189238449E0,-2.849580161E-2,-2.516685426E-2,-5.139897019E-2
1.191726209E0,-3.062633052E-2,-2.623211779E-2,-5.139897019E-2
1.194213970E0,-3.275685757E-2,-2.623211779E-2,-5.139897019E-2
1.196701730E0,-3.488738462E-2,-2.623211779E-2,-5.139897019E-2
1.199189491E0,-3.595264629E-2,-2.516685426E-2,-5.033370852E-2
1.201677303E0,-3.701791167E-2,-2.516685426E-2,-4.926844314E-2
1.204165116E0,-3.808317333E-2,-2.303632535E-2,-4.713791609E-2
1.206652928E0,-3.914843872E-2,-2.197106183E-2,-4.500738904E-2
1.209140741E0,-3.914843872E-2,-2.090579830E-2,-4.394212365E-2
1.211628553E0,-3.914843872E-2,-1.877527125E-2,-4.287686199E-2
1.214116366E0,-3.914843872E-2,-1.771000773E-2,-4.074633494E-2
1.216604178E0,-3.808317333E-2,-1.557948068E-2,-3.861580789E-2
1.219091991E0,-3.701791167E-2,-1.451421715E-2,-3.755054250E-2
1.221579803E0,-3.488738462E-2,-1.344895363E-2,-3.648528084E-2
1.224067616E0,-3.275685757E-2,-1.238369010E-2,-3.435475379E-2
1.226555428E0,-3.062633052E-2,-1.238369010E-2,-3.222422674E-2
1.229043241E0,-2.636527456E-2,-1.131842658E-2,-3.115896136E-2
1.231531053E0,-2.210422046E-2,-1.131842658E-2,-2.902843431E-2
1.234018866E0,-1.784316637E-2,-1.131842658E-2,-2.796317078E-2
1.236506678E0,-1.358211134E-2,-1.131842658E-2,-2.689790726E-2
1.238994491E0,-8.255792782E-3,-1.131842658E-2,-2.476738021E-2
1.241482303E0,-2.929474926E-3,-1.131842658E-2,-2.476738021E-2
1.243970116E0,1.331579522E-3,-1.131842658E-2,-2.263685316E-2
1.246457928E0,5.592633970E-3,-1.131842658E-2,-2.263685316E-2
1.248945741E0,9.853689000E-3,-1.131842658E-2,-2.157158963E-2
1.251433553E0,1.411474310E-2,-1.131842658E-2,-2.050632425E-2
1.253921366E0,1.837579720E-2,-1.131842658E-2,-1.944106072E-2
1.256409178E0,2.263685316E-2,-1.238369010E-2,-1.731053367E-2
1.258896991E0,2.476738021E-2,-1.238369010E-2,-1.624527015E-2
1.261384803E0,2.796317078E-2,-1.344895363E-2,-1.411474310E-2
1.263872616E0,2.902843431E-2,-1.344895363E-2,-1.304947957E-2
1.266360428E0,3.009369783E-2,-1.451421715E-2,-1.091895252E-2
1.268848241E0,3.009369783E-2,-1.451421715E-2,-8.788425475E-3
1.271336053E0,3.009369783E-2,-1.451421715E-2,-7.723161485E-3
1.273823866E0,2.902843431E-2,-1.451421715E-2,-4.527370445E-3
1.276311678E0,2.796317078E-2,-1.451421715E-2,-2.396843163E-3
1.278799491E0,2.689790726E-2,-1.451421715E-2,-2.663159103E-4
1.281287303E0,2.476738021E-2,-1.451421715E-2,2.929474926E-3
1.283775116E0,2.370211668E-2,-1.451421715E-2,6.125265732E-3
1.286262928E0,2.157158963E-2,-1.344895363E-2,7.190529723E-3
1.288750741E0,1.944106072E-2,-1.238369010E-2,1.038632076E-2
1.291238553E0,1.731053367E-2,-1.131842658E-2,1.251684781E-2
1.293726366E0,1.624527015E-2,-1.131842658E-2,1.464737486E-2
1.296214178E0,1.304947957E-2,-1.131842658E-2,1.571263932E-2
1.298701991E0,1.091895252E-2,-1.131842658E-2,1.677790284E-2
1.301189803E0,8.788425475E-3,-1.238369010E-2,1.784316637E-2
1.303677616E0,6.657897960E-3,-1.344895363E-2,1.890842989E-2
1.306165428E0,5.592633970E-3,-1.557948068E-2,1.997369342E-2
1.308653241E0,3.462106921E-3,-1.877527125E-2,1.890842989E-2
1.311141053E0,2.396843163E-3,-2.090579830E-2,1.890842989E-2
1.313628866E0,1.331579522E-3,-2.410159074E-2,1.890842989E-2
1.316116678E0,2.663159103E-4,-2.729738131E-2,1.890842989E-2
1.318604491E0,2.663159103E-4,-2.942790836E-2,1.890842989E-2
1.321092303E0,1.331579522E-3,-3.155843541E-2,1.890842989E-2
1.323580116E0,2.396843163E-3,-3.368896246E-2,1.890842989E-2
1.326067928E0,2.396843163E-3,-3.581948951E-2,1.784316637E-2
1.328555741E0,3.462106921E-3,-3.795001656E-2,1.677790284E-2
1.331043501E0,4.527370445E-3,-3.901528195E-2,1.677790284E-2
1.333531262E0,5.592633970E-3,-4.008054361E-2,1.571263932E-2
1.336019022E0,7.723161485E-3,-4.114580899E-2,1.464737486E-2
1.338506782E0,1.091895252E-2,-4.114580899E-2,1.464737486E-2
1.340994543E0,1.304947957E-2,-4.008054361E-2,1.464737486E-2
1.343482303E0,1.518000662E-2,-3.901528195E-2,1.464737486E-2
1.345970064E0,1.837579720E-2,-3.901528195E-2,1.358211134E-2
1.348457824E0,2.050632425E-2,-3.688475490E-2,1.358211134E-2
1.350945584E0,2.263685316E-2,-3.475422785E-2,1.358211134E-2
1.353433345E0,2.476738021E-2,-3.368896246E-2,1.358211134E-2
1.355921105E0,2.583264373E-2,-3.262370080E-2,1.358211134E-2
1.358408866E0,2.689790726E-2,-3.049317189E-2,1.464737486E-2
1.360896626E0,2.796317078E-2,-2.836264484E-2,1.571263932E-2
1.363384387E0,2.796317078E-2,-2.623211779E-2,1.784316637E-2
1.365872147E0,2.796317078E-2,-2.410159074E-2,1.890842989E-2
1.368359907E0,2.796317078E-2,-2.090579830E-2,1.997369342E-2
1.370847668E0,2.689790726E-2,-1.984053478E-2,2.210422046E-2
1.373335428E0,2.583264373E-2,-1.771000773E-2,2.423474751E-2
1.375823189E0,2.370211668E-2,-1.557948068E-2,2.636527456E-2
1.378310949E0,2.263685316E-2,-1.344895363E-2,2.743053809E-2
1.380798709E0,2.050632425E-2,-1.238369010E-2,2.956106514E-2
1.383286470E0,1.837579720E-2,-1.025316212E-2,3.062633052E-2
1.385774230E0,1.624527015E-2,-9.187898599E-3,3.169159219E-2
1.388261991E0,1.304947957E-2,-8.122635074E-3,3.275685757E-2
1.390749751E0,1.091895252E-2,-7.057371549E-3,3.275685757E-2
1.393237512E0,9.853689000E-3,-7.057371549E-3,3.275685757E-2
1.395725272E0,8.788425475E-3,-7.057371549E-3,3.275685757E-2
1.398213032E0,7.723161485E-3,-8.122635074E-3,3.275685757E-2
1.400700793E0,5.592633970E-3,-9.187898599E-3,3.169159219E-2
1.403188553E0,3.462106921E-3,-1.025316212E-2,2.956106514E-2
1.405676314E0,2.396843163E-3,-1.238369010E-2,2.849580161E-2
1.408164074E0,2.396843163E-3,-1.451421715E-2,2.636527456E-2
1.410651834E0,2.396843163E-3,-1.771000773E-2,2.530001104E-2
1.413139595E0,2.396843163E-3,-1.984053478E-2,2.316948399E-2
1.415627355E0,3.462106921E-3,-2.197106183E-2,1.997369342E-2
1.418115116E0,4.527370445E-3,-2.303632535E-2,1.784316637E-2
1.420602876E0,5.592633970E-3,-2.516685426E-2,1.464737486E-2
1.423090637E0,7.723161485E-3,-2.729738131E-2,1.251684781E-2
1.425578397E0,8.788425475E-3,-2.836264484E-2,9.321057238E-3
1.428066157E0,9.853689000E-3,-2.942790836E-2,6.125265732E-3
1.430553918E0,1.091895252E-2,-3.049317189E-2,2.929474926E-3
1.433041678E0,1.304947957E-2,-3.155843541E-2,7.989477599E-4
1.435529439E0,1.411474310E-2,-3.368896246E-2,-1.331579522E-3
1.438017199E0,1.518000662E-2,-3.368896246E-2,-3.462106921E-3
1.440504959E0,1.624527015E-2,-3.475422785E-2,-5.592633970E-3
1.442992720E0,1.731053367E-2,-3.581948951E-2,-6.657897960E-3
1.445480532E0,1.837579720E-2,-3.688475490E-2,-8.788425475E-3
1.447968345E0,1.837579720E-2,-3.688475490E-2,-9.853689000E-3
1.450456157E0,1.944106072E-2,-3.688475490E-2,-1.091895252E-2
1.452943970E0,1.837579720E-2,-3.688475490E-2,-1.198421605E-2
1.455431782E0,1.837579720E-2,-3.688475490E-2,-1.411474310E-2
1.457919595E0,1.837579720E-2,-3.581948951E-2,-1.518000662E-2
1.460407407E0,1.731053367E-2,-3.475422785E-2,-1.624527015E-2
1.462895220E0,1.624527015E-2,-3.368896246E-2,-1.624527015E-2
1.465383032E0,1.518000662E-2,-3.262370080E-2,-1.731053367E-2
1.467870845E0,1.304947957E-2,-3.155843541E-2,-1.731053367E-2
1.470358657E0,1.198421605E-2,-3.049317189E-2,-1.837579720E-2
1.472846470E0,8.788425475E-3,-2.942790836E-2,-1.837579720E-2
1.475334282E0,6.657897960E-3,-2.836264484E-2,-1.837579720E-2
1.477822095E0,3.462106921E-3,-2.729738131E-2,-1.944106072E-2
1.480309907E0,1.331579522E-3,-2.516685426E-2,-1.944106072E-2
1.482797720E0,-7.989477599E-4,-2.410159074E-2,-2.050632425E-2
1.485285532E0,-2.929474926E-3,-2.303632535E-2,-1.944106072E-2
1.487773345E0,-5.060002208E-3,-2.090579830E-2,-1.944106072E-2
1.490261157E0,-6.125265732E-3,-1.984053478E-2,-1.944106072E-2
1.492748970E0,-8.255792782E-3,-1.771000773E-2,-2.050632425E-2
1.495236782E0,-9.321057238E-3,-1.664474420E-2,-1.944106072E-2
1.497724595E0,-1.038632076E-2,-1.451421715E-2,-1.837579720E-2
1.500212407E0,-1.145158429E-2,-1.238369010E-2,-1.731053367E-2
1.502700220E0,-1.251684781E-2,-1.025316212E-2,-1.731053367E-2
1.505188032E0,-1.358211134E-2,-9.187898599E-3,-1.518000662E-2
1.507675845E0,-1.464737486E-2,-8.122635074E-3,-1.411474310E-2
1.510163657E0,-1.464737486E-2,-7.057371549E-3,-1.304947957E-2
1.512651470E0,-1.464737486E-2,-7.057371549E-3,-1.198421605E-2
1.515139282E0,-1.571263932E-2,-7.057371549E-3,-1.091895252E-2
1.517627095E0,-1.464737486E-2,-7.057371549E-3,-8.788425475E-3
1.520114907E0,-1.464737486E-2,-8.122635074E-3,-7.723161485E-3
1.522602720E0,-1.464737486E-2,-8.122635074E-3,-6.657897960E-3
1.525090532E0,-1.358211134E-2,-9.187898599E-3,-4.527370445E-3
1.527578345E0,-1.358211134E-2,-9.187898599E-3,-2.396843163E-3
1.530066157E0,-1.358211134E-2,-1.025316212E-2,-1.331579522E-3
1.532553970E0,-1.251684781E-2,-1.131842658E-2,7.989477599E-4
1.535041782E0,-1.145158429E-2,-1.238369010E-2,2.929474926E-3
1.537529595E0,-1.038632076E-2,-1.344895363E-2,5.060002208E-3
1.540017407E0,-9.321057238E-3,-1.451421715E-2,7.190529723E-3
1.542505220E0,-8.255792782E-3,-1.664474420E-2,1.038632076E-2
1.544993032E0,-6.125265732E-3,-1.771000773E-2,1.251684781E-2
1.547480845E0,-3.994738683E-3,-1.877527125E-2,1.464737486E-2
1.549968657E0,-7.989477599E-4,-1.984053478E-2,1.571263932E-2
1.552456470E0,1.331579522E-3,-2.090579830E-2,1.784316637E-2
1.554944282E0,3.462106921E-3,-2.197106183E-2,1.997369342E-2
1.557432095E0,5.592633970E-3,-2.303632535E-2,2.210422046E-2
1.559919907E0,7.723161485E-3,-2.410159074E-2,2.423474751E-2
1.562407720E0,1.091895252E-2,-2.623211779E-2,2.636527456E-2
1.564895532E0,1.411474310E-2,-2.729738131E-2,2.743053809E-2
1.567383345E0,1.731053367E-2,-2.836264484E-2,2.743053809E-2
1.569871157E0,1.944106072E-2,-2.942790836E-2,2.849580161E-2
1.572358970E0,2.263685316E-2,-3.049317189E-2,2.743053809E-2
1.574846730E0,2.476738021E-2,-3.155843541E-2,2.743053809E-2
1.577334491E0,2.796317078E-2,-3.262370080E-2,2.636527456E-2
1.579822251E0,3.009369783E-2,-3.368896246E-2,2.530001104E-2
1.582310012E0,3.115896136E-2,-3.368896246E-2,2.210422046E-2
1.584797772E0,3.328948840E-2,-3.368896246E-2,2.103895694E-2
1.587285532E0,3.435475379E-2,-3.368896246E-2,1.997369342E-2
1.589773293E0,3.542001545E-2,-3.475422785E-2,1.784316637E-2
1.592261053E0,3.648528084E-2,-3.475422785E-2,1.677790284E-2
1.594748814E0,3.755054250E-2,-3.475422785E-2,1.464737486E-2
1.597236574E0,3.648528084E-2,-3.475422785E-2,1.358211134E-2
1.599724334E0,3.542001545E-2,-3.368896246E-2,1.145158429E-2
1.602212095E0,3.435475379E-2,-3.368896246E-2,1.038632076E-2
1.604699855E0,3.328948840E-2,-3.262370080E-2,9.321057238E-3
1.607187616E0,3.222422674E-2,-3.155843541E-2,7.190529723E-3
1.609675376E0,3.009369783E-2,-3.155843541E-2,7.190529723E-3
1.612163137E0,2.796317078E-2,-3.155843541E-2,6.125265732E-3
1.614650897E0,2.689790726E-2,-3.155843541E-2,6.125265732E-3
1.617138657E0,2.476738021E-2,-3.049317189E-2,6.125265732E-3
1.619626418E0,2.263685316E-2,-3.049317189E-2,6.125265732E-3
1.622114178E0,2.050632425E-2,-3.049317189E-2,7.190529723E-3
1.624601939E0,1.837579720E-2,-2.942790836E-2,7.190529723E-3
1.627091626E0,1.624527015E-2,-2.942790836E-2,7.190529723E-3
1.629578084E0,1.411474310E-2,-2.942790836E-2,7.190529723E-3
1.632064595E0,1.198421605E-2,-2.942790836E-2,7.190529723E-3
1.634551157E0,9.853689000E-3,-2.942790836E-2,7.190529723E-3
1.637037824E0,8.788425475E-3,-2.942790836E-2,7.190529723E-3
1.639524647E0,7.723161485E-3,-3.049317189E-2,7.190529723E-3
1.642011678E0,6.657897960E-3,-3.049317189E-2,6.125265732E-3
1.644498918E0,4.527370445E-3,-3.049317189E-2,5.060002208E-3
1.646986366E0,3.462106921E-3,-3.049317189E-2,5.060002208E-3
1.649474074E0,2.396843163E-3,-2.942790836E-2,3.994738683E-3
1.651961991E0,2.396843163E-3,-2.942790836E-2,3.994738683E-3
1.654450116E0,1.331579522E-3,-2.836264484E-2,2.929474926E-3
1.656938449E0,1.331579522E-3,-2.836264484E-2,2.929474926E-3
1.659426939E0,2.663159103E-4,-2.729738131E-2,1.864211401E-3
1.661915532E0,-7.989477599E-4,-2.623211779E-2,7.989477599E-4
1.664404230E0,-2.929474926E-3,-2.516685426E-2,7.989477599E-4
1.666892980E0,-2.929474926E-3,-2.303632535E-2,7.989477599E-4
1.669381730E0,-3.994738683E-3,-2.090579830E-2,7.989477599E-4
1.671870480E0,-3.994738683E-3,-1.984053478E-2,7.989477599E-4
1.674358241E0,-5.060002208E-3,-1.771000773E-2,7.989477599E-4
1.676846001E0,-5.060002208E-3,-1.664474420E-2,7.989477599E-4
1.679333762E0,-5.060002208E-3,-1.664474420E-2,1.864211401E-3
1.681821522E0,-5.060002208E-3,-1.557948068E-2,3.994738683E-3
1.684309282E0,-5.060002208E-3,-1.557948068E-2,5.060002208E-3
1.686797043E0,-3.994738683E-3,-1.664474420E-2,7.190529723E-3
1.689284803E0,-3.994738683E-3,-1.771000773E-2,8.255792782E-3
1.691772564E0,-2.929474926E-3,-1.877527125E-2,9.321057238E-3
1.694260324E0,-1.864211401E-3,-1.984053478E-2,1.145158429E-2
1.696748084E0,-7.989477599E-4,-2.090579830E-2,1.251684781E-2
1.699235845E0,2.663159103E-4,-2.197106183E-2,1.358211134E-2
1.701723605E0,2.396843163E-3,-2.410159074E-2,1.464737486E-2
1.704211366E0,4.527370445E-3,-2.516685426E-2,1.571263932E-2
1.706699126E0,5.592633970E-3,-2.623211779E-2,1.677790284E-2
1.709186887E0,8.788425475E-3,-2.729738131E-2,1.784316637E-2
1.711674647E0,1.091895252E-2,-2.729738131E-2,1.890842989E-2
1.714162407E0,1.304947957E-2,-2.836264484E-2,1.890842989E-2
1.716650168E0,1.518000662E-2,-2.942790836E-2,1.890842989E-2
1.719137928E0,1.731053367E-2,-3.049317189E-2,1.784316637E-2
1.721625689E0,1.944106072E-2,-3.155843541E-2,1.784316637E-2
1.724113449E0,2.263685316E-2,-3.262370080E-2,1.784316637E-2
1.726601209E0,2.370211668E-2,-3.262370080E-2,1.677790284E-2
1.729088970E0,2.583264373E-2,-3.368896246E-2,1.677790284E-2
1.731576730E0,2.796317078E-2,-3.368896246E-2,1.571263932E-2
1.734064491E0,3.009369783E-2,-3.368896246E-2,1.464737486E-2
1.736552251E0,3.009369783E-2,-3.368896246E-2,1.358211134E-2
1.739040012E0,3.222422674E-2,-3.262370080E-2,1.251684781E-2
1.741527772E0,3.222422674E-2,-3.155843541E-2,1.145158429E-2
1.744015532E0,3.222422674E-2,-3.049317189E-2,1.038632076E-2
1.746503293E0,3.222422674E-2,-2.942790836E-2,9.321057238E-3
1.748991053E0,3.222422674E-2,-2.942790836E-2,8.255792782E-3
1.751478814E0,3.115896136E-2,-2.836264484E-2,7.190529723E-3
1.753966574E0,3.009369783E-2,-2.729738131E-2,6.125265732E-3
1.756454334E0,2.902843431E-2,-2.623211779E-2,6.125265732E-3
1.758942095E0,2.796317078E-2,-2.623211779E-2,6.125265732E-3
1.761429855E0,2.583264373E-2,-2.516685426E-2,5.060002208E-3
1.763917616E0,2.370211668E-2,-2.410159074E-2,3.994738683E-3
1.766405376E0,2.263685316E-2,-2.197106183E-2,3.994738683E-3
1.768893137E0,2.050632425E-2,-2.090579830E-2,1.864211401E-3
1.771380897E0,1.837579720E-2,-1.877527125E-2,7.989477599E-4
1.773868657E0,1.731053367E-2,-1.664474420E-2,7.989477599E-4
1.776356418E0,1.518000662E-2,-1.557948068E-2,7.989477599E-4
1.778844178E0,1.304947957E-2,-1.344895363E-2,-2.663159103E-4
1.781331939E0,1.198421605E-2,-1.238369010E-2,-2.663159103E-4
1.783819699E0,9.853689000E-3,-1.131842658E-2,-1.331579522E-3
1.786307459E0,8.788425475E-3,-1.025316212E-2,-1.331579522E-3
1.788795220E0,6.657897960E-3,-9.187898599E-3,-1.331579522E-3
1.791283032E0,4.527370445E-3,-8.122635074E-3,-1.331579522E-3
1.793770845E0,3.462106921E-3,-8.122635074E-3,-2.663159103E-4
1.796258657E0,2.663159103E-4,-7.057371549E-3,-2.663159103E-4
1.798746470E0,-7.989477599E-4,-7.057371549E-3,-2.663159103E-4
1.801234282E0,-1.864211401E-3,-8.122635074E-3,7.989477599E-4
1.803722095E0,-2.929474926E-3,-9.187898599E-3,7.989477599E-4
1.806209907E0,-3.994738683E-3,-9.187898599E-3,7.989477599E-4
1.808697720E0,-5.060002208E-3,-1.025316212E-2,7.989477599E-4
1.811185532E0,-6.125265732E-3,-1.131842658E-2,7.989477599E-4
1.813673345E0,-6.125265732E-3,-1.344895363E-2,-2.663159103E-4
1.816161157E0,-6.125265732E-3,-1.451421715E-2,-2.663159103E-4
1.818648970E0,-6.125265732E-3,-1.557948068E-2,7.989477599E-4
1.821136782E0,-5.060002208E-3,-1.557948068E-2,-2.663159103E-4
1.823624595E0,-5.060002208E-3,-1.664474420E-2,-1.331579522E-3
1.826112407E0,-3.994738683E-3,-1.664474420E-2,-2.396843163E-3
1.828600220E0,-2.929474926E-3,-1.664474420E-2,-3.462106921E-3
1.831088032E0,-7.989477599E-4,-1.664474420E-2,-4.527370445E-3
1.833575845E0,2.663159103E-4,-1.451421715E-2,-5.592633970E-3
1.836063657E0,2.396843163E-3,-1.238369010E-2,-7.723161485E-3
1.838551470E0,5.592633970E-3,-1.025316212E-2,-8.788425475E-3
1.841039282E0,7.723161485E-3,-7.057371549E-3,-9.853689000E-3
1.843527095E0,9.853689000E-3,-4.926844500E-3,-1.091895252E-2
1.846014907E0,1.198421605E-2,-1.731053460E-3,-1.198421605E-2
1.848502720E0,1.411474310E-2,1.464737463E-3,-1.304947957E-2
1.850990532E0,1.624527015E-2,3.595264861E-3,-1.411474310E-2
1.853478345E0,1.837579720E-2,6.791055668E-3,-1.518000662E-2
1.855966157E0,1.944106072E-2,8.921583183E-3,-1.518000662E-2
1.858453970E0,2.050632425E-2,1.105211023E-2,-1.624527015E-2
1.860941782E0,2.157158963E-2,1.211737376E-2,-1.624527015E-2
1.863429595E0,2.050632425E-2,1.318263728E-2,-1.624527015E-2
1.865917407E0,2.050632425E-2,1.424790081E-2,-1.518000662E-2
1.868405220E0,2.050632425E-2,1.424790081E-2,-1.518000662E-2
1.870893032E0,2.050632425E-2,1.424790081E-2,-1.411474310E-2
1.873380845E0,1.944106072E-2,1.424790081E-2,-1.304947957E-2
1.875868657E0,1.837579720E-2,1.318263728E-2,-1.091895252E-2
1.878356470E0,1.731053367E-2,1.211737376E-2,-9.853689000E-3
1.880844282E0,1.624527015E-2,1.105211023E-2,-8.788425475E-3
1.883332095E0,1.518000662E-2,9.986846708E-3,-7.723161485E-3
1.885819907E0,1.304947957E-2,8.921583183E-3,-5.592633970E-3
1.888307720E0,1.198421605E-2,6.791055668E-3,-3.462106921E-3
1.890795532E0,1.091895252E-2,5.725792143E-3,-2.396843163E-3
1.893283345E0,9.853689000E-3,4.660528619E-3,-2.396843163E-3
1.895771157E0,7.723161485E-3,3.595264861E-3,-1.331579522E-3
1.898258970E0,6.657897960E-3,1.464737463E-3,-2.663159103E-4
1.900746782E0,5.592633970E-3,3.994738800E-4,7.989477599E-4
1.903234595E0,3.462106921E-3,-1.731053460E-3,1.864211401E-3
1.905722407E0,2.396843163E-3,-2.796316985E-3,2.929474926E-3
1.908210220E0,1.331579522E-3,-4.926844500E-3,3.994738683E-3
1.910698032E0,1.331579522E-3,-5.992108025E-3,6.125265732E-3
1.913185845E0,2.663159103E-4,-7.057371549E-3,7.190529723E-3
1.915673605E0,-7.989477599E-4,-8.122635074E-3,8.255792782E-3
1.918161366E0,-1.864211401E-3,-9.187898599E-3,9.321057238E-3
1.920649126E0,-1.864211401E-3,-1.025316212E-2,9.321057238E-3
1.923136887E0,-7.989477599E-4,-1.025316212E-2,1.145158429E-2
1.925624647E0,2.663159103E-4,-1.025316212E-2,1.251684781E-2
1.928112407E0,2.663159103E-4,-9.187898599E-3,1.251684781E-2
1.930600168E0,1.331579522E-3,-9.187898599E-3,1.358211134E-2
1.933087928E0,3.462106921E-3,-9.187898599E-3,1.464737486E-2
1.935575689E0,4.527370445E-3,-8.122635074E-3,1.464737486E-2
1.938063449E0,5.592633970E-3,-8.122635074E-3,1.571263932E-2
1.940551209E0,7.723161485E-3,-7.057371549E-3,1.571263932E-2
1.943038970E0,9.853689000E-3,-7.057371549E-3,1.677790284E-2
1.945526730E0,1.198421605E-2,-7.057371549E-3,1.571263932E-2
1.948014491E0,1.411474310E-2,-7.057371549E-3,1.571263932E-2
1.950502251E0,1.731053367E-2,-9.187898599E-3,1.464737486E-2
1.952990012E0,1.944106072E-2,-9.187898599E-3,1.358211134E-2
1.955477772E0,2.157158963E-2,-1.025316212E-2,1.251684781E-2
1.957965532E0,2.370211668E-2,-1.025316212E-2,1.038632076E-2
1.960453293E0,2.583264373E-2,-1.025316212E-2,9.321057238E-3
1.962941053E0,2.796317078E-2,-1.025316212E-2,7.190529723E-3
1.965428814E0,2.902843431E-2,-1.025316212E-2,5.060002208E-3
1.967916574E0,2.902843431E-2,-1.025316212E-2,2.929474926E-3
1.970404334E0,3.009369783E-2,-1.025316212E-2,-2.663159103E-4
1.972892095E0,3.009369783E-2,-1.025316212E-2,-3.462106921E-3
1.975379855E0,2.902843431E-2,-1.025316212E-2,-5.592633970E-3
1.977867616E0,2.796317078E-2,-1.131842658E-2,-7.723161485E-3
1.980355376E0,2.583264373E-2,-1.238369010E-2,-8.788425475E-3
1.982843137E0,2.370211668E-2,-1.238369010E-2,-1.091895252E-2
1.985330897E0,2.263685316E-2,-1.344895363E-2,-1.304947957E-2
1.987818657E0,2.050632425E-2,-1.451421715E-2,-1.411474310E-2
1.990306418E0,1.731053367E-2,-1.557948068E-2,-1.411474310E-2
1.992794178E0,1.518000662E-2,-1.557948068E-2,-1.518000662E-2
1.995281939E0,1.198421605E-2,-1.664474420E-2,-1.624527015E-2
1.997769699E0,9.853689000E-3,-1.771000773E-2,-1.624527015E-2
2.000257459E0,7.723161485E-3,-1.664474420E-2,-1.518000662E-2
2.002745220E0,6.657897960E-3,-1.664474420E-2,-1.518000662E-2
2.005232980E0,4.527370445E-3,-1.557948068E-2,-1.411474310E-2
2.007720741E0,2.396843163E-3,-1.451421715E-2,-1.411474310E-2
2.010208501E0,1.331579522E-3,-1.238369010E-2,-1.304947957E-2
2.012696262E0,2.663159103E-4,-1.025316212E-2,-1.198421605E-2
2.015184022E0,2.663159103E-4,-9.187898599E-3,-1.091895252E-2
2.017671782E0,-1.864211401E-3,-7.057371549E-3,-8.788425475E-3
2.020159543E0,-1.864211401E-3,-4.926844500E-3,-6.657897960E-3
2.022647303E0,-2.929474926E-3,-2.796316985E-3,-4.527370445E-3
2.025135064E0,-2.929474926E-3,-1.731053460E-3,-2.396843163E-3
2.027622824E0,-2.929474926E-3,3.994738800E-4,-1.331579522E-3
2.030110584E0,-1.864211401E-3,2.530001104E-3,1.864211401E-3
2.032598345E0,-1.864211401E-3,4.660528619E-3,5.060002208E-3
2.035086157E0,-1.864211401E-3,5.725792143E-3,6.125265732E-3
2.037573970E0,-7.989477599E-4,7.856319658E-3,8.255792782E-3
2.040061782E0,2.663159103E-4,8.921583183E-3,1.145158429E-2
2.042549595E0,2.663159103E-4,9.986846708E-3,1.358211134E-2
2.045037407E0,2.396843163E-3,9.986846708E-3,1.571263932E-2
2.047525220E0,3.462106921E-3,1.105211023E-2,1.784316637E-2
2.050013032E0,5.592633970E-3,1.105211023E-2,1.890842989E-2
2.052500845E0,7.723161485E-3,1.105211023E-2,1.890842989E-2
2.054988657E0,9.853689000E-3,1.211737376E-2,1.997369342E-2
2.057476470E0,1.198421605E-2,1.211737376E-2,1.997369342E-2
2.059964282E0,1.518000662E-2,1.318263728E-2,1.997369342E-2
2.062452095E0,1.731053367E-2,1.318263728E-2,1.997369342E-2
2.064939907E0,1.944106072E-2,1.318263728E-2,1.890842989E-2
2.067427720E0,2.050632425E-2,1.211737376E-2,1.784316637E-2
2.069915532E0,2.263685316E-2,1.105211023E-2,1.677790284E-2
2.072403345E0,2.370211668E-2,9.986846708E-3,1.571263932E-2
2.074891157E0,2.476738021E-2,8.921583183E-3,1.464737486E-2
2.077378970E0,2.583264373E-2,5.725792143E-3,1.251684781E-2
2.079866782E0,2.689790726E-2,3.595264861E-3,1.145158429E-2
2.082354595E0,2.689790726E-2,3.994738800E-4,1.038632076E-2
2.084842407E0,2.583264373E-2,-2.796316985E-3,8.255792782E-3
2.087330220E0,2.583264373E-2,-7.057371549E-3,7.190529723E-3
2.089818032E0,2.476738021E-2,-1.238369010E-2,7.190529723E-3
2.092305845E0,2.476738021E-2,-1.771000773E-2,6.125265732E-3
2.094793657E0,2.370211668E-2,-2.197106183E-2,5.060002208E-3
2.097281470E0,2.263685316E-2,-2.623211779E-2,3.994738683E-3
2.099769282E0,2.157158963E-2,-3.155843541E-2,3.994738683E-3
2.102257095E0,2.157158963E-2,-3.475422785E-2,1.864211401E-3
2.104744907E0,2.157158963E-2,-3.688475490E-2,-2.663159103E-4
2.107232720E0,2.263685316E-2,-3.901528195E-2,-1.331579522E-3
2.109720532E0,2.263685316E-2,-4.008054361E-2,-2.396843163E-3
2.112208345E0,2.370211668E-2,-4.008054361E-2,-4.527370445E-3
2.114696157E0,2.476738021E-2,-3.901528195E-2,-6.657897960E-3
2.117183970E0,2.583264373E-2,-3.795001656E-2,-8.788425475E-3
2.119671782E0,2.689790726E-2,-3.581948951E-2,-1.091895252E-2
2.122159595E0,2.902843431E-2,-3.368896246E-2,-1.304947957E-2
2.124647407E0,2.902843431E-2,-3.049317189E-2,-1.518000662E-2
2.127135220E0,3.009369783E-2,-2.729738131E-2,-1.731053367E-2
2.129623918E0,3.009369783E-2,-2.303632535E-2,-1.944106072E-2
2.132111053E0,3.009369783E-2,-1.984053478E-2,-2.157158963E-2
2.134598189E0,3.009369783E-2,-1.557948068E-2,-2.263685316E-2
2.137085324E0,3.009369783E-2,-1.238369010E-2,-2.370211668E-2
2.139572512E0,2.902843431E-2,-9.187898599E-3,-2.476738021E-2
2.142059751E0,2.796317078E-2,-7.057371549E-3,-2.583264373E-2
2.144547095E0,2.689790726E-2,-4.926844500E-3,-2.583264373E-2
2.147034543E0,2.476738021E-2,-2.796316985E-3,-2.583264373E-2
2.149522095E0,2.263685316E-2,-1.731053460E-3,-2.583264373E-2
2.152009751E0,2.050632425E-2,-6.657897611E-4,-2.476738021E-2
2.154497512E0,1.731053367E-2,-6.657897611E-4,-2.370211668E-2
2.156985376E0,1.411474310E-2,-6.657897611E-4,-2.157158963E-2
2.159473345E0,1.091895252E-2,-1.731053460E-3,-1.837579720E-2
2.161961418E0,7.723161485E-3,-2.796316985E-3,-1.518000662E-2
2.164449595E0,3.462106921E-3,-2.796316985E-3,-1.304947957E-2
2.166937824E0,1.331579522E-3,-3.861580743E-3,-9.853689000E-3
2.169426105E0,-1.864211401E-3,-5.992108025E-3,-6.657897960E-3
2.171914387E0,-3.994738683E-3,-5.992108025E-3,-3.462106921E-3
2.174402668E0,-6.125265732E-3,-8.122635074E-3,-2.663159103E-4
2.176890949E0,-8.255792782E-3,-1.025316212E-2,3.994738683E-3
2.179378970E0,-9.321057238E-3,-1.238369010E-2,7.190529723E-3
2.181866730E0,-1.038632076E-2,-1.451421715E-2,1.038632076E-2
2.184354491E0,-1.038632076E-2,-1.664474420E-2,1.251684781E-2
2.186842251E0,-8.255792782E-3,-1.877527125E-2,1.464737486E-2
2.189330012E0,-7.190529723E-3,-2.090579830E-2,1.677790284E-2
2.191817772E0,-5.060002208E-3,-2.303632535E-2,1.784316637E-2
2.194305532E0,-7.989477599E-4,-2.410159074E-2,1.890842989E-2
2.196793293E0,2.396843163E-3,-2.623211779E-2,1.997369342E-2
2.199281053E0,7.723161485E-3,-2.836264484E-2,1.997369342E-2
2.201768814E0,1.198421605E-2,-2.942790836E-2,1.890842989E-2
2.204256574E0,1.731053367E-2,-2.942790836E-2,1.890842989E-2
2.206744334E0,2.157158963E-2,-2.942790836E-2,1.784316637E-2
2.209232095E0,2.689790726E-2,-2.836264484E-2,1.677790284E-2
2.211719855E0,3.328948840E-2,-2.836264484E-2,1.677790284E-2
2.214207616E0,3.861580789E-2,-2.623211779E-2,1.571263932E-2
2.216695376E0,4.394212365E-2,-2.516685426E-2,1.464737486E-2
2.219183137E0,4.820318148E-2,-2.303632535E-2,1.358211134E-2
2.221670897E0,5.352949724E-2,-2.090579830E-2,1.145158429E-2
2.224158657E0,5.672528967E-2,-1.771000773E-2,9.321057238E-3
2.226646418E0,6.098634377E-2,-1.557948068E-2,9.321057238E-3
2.229134178E0,6.311687082E-2,-1.451421715E-2,8.255792782E-3
2.231621939E0,6.524740160E-2,-1.238369010E-2,7.190529723E-3
2.234109699E0,6.631266326E-2,-1.238369010E-2,6.125265732E-3
2.236597459E0,6.631266326E-2,-1.238369010E-2,5.060002208E-3
2.239085220E0,6.631266326E-2,-1.344895363E-2,3.994738683E-3
2.241572980E0,6.524740160E-2,-1.451421715E-2,2.929474926E-3
2.244060741E0,6.311687082E-2,-1.664474420E-2,1.864211401E-3
2.246548501E0,6.098634377E-2,-1.877527125E-2,7.989477599E-4
2.249036262E0,5.885581672E-2,-1.984053478E-2,-2.663159103E-4
2.251524022E0,5.459476262E-2,-1.984053478E-2,-1.331579522E-3
2.254011782E0,5.033370852E-2,-1.984053478E-2,-2.396843163E-3
2.256499543E0,4.607265070E-2,-1.984053478E-2,-2.396843163E-3
2.258987303E0,4.181159660E-2,-2.090579830E-2,-4.527370445E-3
2.261475064E0,3.648528084E-2,-2.090579830E-2,-7.723161485E-3
2.263962824E0,3.222422674E-2,-1.984053478E-2,-8.788425475E-3
2.266450584E0,2.583264373E-2,-1.984053478E-2,-8.788425475E-3
2.268938345E0,2.050632425E-2,-1.984053478E-2,-9.853689000E-3
2.271426105E0,1.518000662E-2,-1.984053478E-2,-1.091895252E-2
2.273913866E0,9.853689000E-3,-1.984053478E-2,-1.198421605E-2
2.276401626E0,4.527370445E-3,-1.877527125E-2,-1.304947957E-2
2.278889387E0,2.663159103E-4,-1.877527125E-2,-1.411474310E-2
2.281377147E0,-5.060002208E-3,-1.984053478E-2,-1.411474310E-2
2.283864907E0,-8.255792782E-3,-1.984053478E-2,-1.411474310E-2
2.286352668E0,-1.251684781E-2,-1.984053478E-2,-1.411474310E-2
2.288840428E0,-1.464737486E-2,-2.090579830E-2,-1.411474310E-2
2.291328189E0,-1.784316637E-2,-2.090579830E-2,-1.411474310E-2
2.293815949E0,-1.890842989E-2,-2.090579830E-2,-1.304947957E-2
2.296303709E0,-2.103895694E-2,-2.090579830E-2,-1.198421605E-2
2.298791470E0,-2.210422046E-2,-1.984053478E-2,-9.853689000E-3
2.301279230E0,-2.316948399E-2,-1.877527125E-2,-9.853689000E-3
2.303766991E0,-2.316948399E-2,-1.771000773E-2,-7.723161485E-3
2.306254751E0,-2.316948399E-2,-1.664474420E-2,-7.723161485E-3
2.308742512E0,-2.210422046E-2,-1.451421715E-2,-5.592633970E-3
2.311230272E0,-2.103895694E-2,-1.344895363E-2,-5.592633970E-3
2.313718032E0,-1.890842989E-2,-1.131842658E-2,-4.527370445E-3
2.316205845E0,-1.677790284E-2,-9.187898599E-3,-4.527370445E-3
2.318693657E0,-1.571263932E-2,-7.057371549E-3,-4.527370445E-3
2.321181470E0,-1.358211134E-2,-4.926844500E-3,-3.462106921E-3
2.323669282E0,-1.038632076E-2,-3.861580743E-3,-3.462106921E-3
2.326157095E0,-8.255792782E-3,-2.796316985E-3,-4.527370445E-3
2.328644907E0,-7.190529723E-3,-1.731053460E-3,-5.592633970E-3
2.331132720E0,-3.994738683E-3,-6.657897611E-4,-5.592633970E-3
2.333620532E0,-2.929474926E-3,-6.657897611E-4,-6.657897960E-3
2.336108345E0,-7.989477599E-4,-6.657897611E-4,-6.657897960E-3
2.338596157E0,1.331579522E-3,-1.731053460E-3,-7.723161485E-3
2.341083970E0,2.396843163E-3,-2.796316985E-3,-8.788425475E-3
2.343571782E0,4.527370445E-3,-3.861580743E-3,-9.853689000E-3
2.346059595E0,5.592633970E-3,-5.992108025E-3,-9.853689000E-3
2.348547407E0,6.657897960E-3,-8.122635074E-3,-9.853689000E-3
2.351035220E0,8.788425475E-3,-1.025316212E-2,-1.091895252E-2
2.353523032E0,9.853689000E-3,-1.131842658E-2,-1.198421605E-2
2.356010845E0,1.198421605E-2,-1.344895363E-2,-1.198421605E-2
2.358498657E0,1.304947957E-2,-1.557948068E-2,-1.198421605E-2
2.360986470E0,1.411474310E-2,-1.664474420E-2,-1.304947957E-2
2.363474282E0,1.518000662E-2,-1.877527125E-2,-1.198421605E-2
2.365962095E0,1.518000662E-2,-1.984053478E-2,-1.198421605E-2
2.368449907E0,1.518000662E-2,-2.090579830E-2,-1.304947957E-2
2.370937720E0,1.518000662E-2,-2.303632535E-2,-1.304947957E-2
2.373425532E0,1.518000662E-2,-2.410159074E-2,-1.198421605E-2
2.375913345E0,1.518000662E-2,-2.410159074E-2,-1.091895252E-2
2.378401157E0,1.518000662E-2,-2.410159074E-2,-9.853689000E-3
2.380888970E0,1.411474310E-2,-2.410159074E-2,-9.853689000E-3
2.383376782E0,1.411474310E-2,-2.303632535E-2,-9.853689000E-3
2.385864595E0,1.304947957E-2,-2.090579830E-2,-8.788425475E-3
2.388352407E0,1.304947957E-2,-1.984053478E-2,-7.723161485E-3
2.390840220E0,1.198421605E-2,-1.877527125E-2,-5.592633970E-3
2.393328032E0,1.091895252E-2,-1.664474420E-2,-5.592633970E-3
2.395815845E0,9.853689000E-3,-1.451421715E-2,-3.462106921E-3
2.398303657E0,8.788425475E-3,-1.238369010E-2,-3.462106921E-3
2.400791470E0,6.657897960E-3,-1.025316212E-2,-1.331579522E-3
2.403279282E0,5.592633970E-3,-8.122635074E-3,-2.663159103E-4
2.405767095E0,4.527370445E-3,-5.992108025E-3,7.989477599E-4
2.408254907E0,3.462106921E-3,-3.861580743E-3,2.929474926E-3
2.410742720E0,2.396843163E-3,-2.796316985E-3,3.994738683E-3
2.413230532E0,1.331579522E-3,-1.731053460E-3,5.060002208E-3
2.415718345E0,1.331579522E-3,-6.657897611E-4,7.190529723E-3
2.418206157E0,2.663159103E-4,3.994738800E-4,7.190529723E-3
2.420693970E0,-1.864211401E-3,3.994738800E-4,9.321057238E-3
2.423181730E0,-1.864211401E-3,3.994738800E-4,9.321057238E-3
2.425669491E0,-2.929474926E-3,3.994738800E-4,1.038632076E-2
2.428157251E0,-3.994738683E-3,-6.657897611E-4,1.145158429E-2
2.430645012E0,-5.060002208E-3,-6.657897611E-4,1.251684781E-2
2.433132772E0,-6.125265732E-3,-2.796316985E-3,1.358211134E-2
2.435620532E0,-6.125265732E-3,-4.926844500E-3,1.464737486E-2
2.438108293E0,-7.190529723E-3,-7.057371549E-3,1.571263932E-2
2.440596053E0,-8.255792782E-3,-1.025316212E-2,1.677790284E-2
2.443083814E0,-9.321057238E-3,-1.344895363E-2,1.784316637E-2
2.445571574E0,-9.321057238E-3,-1.557948068E-2,1.890842989E-2
2.448059334E0,-9.321057238E-3,-1.877527125E-2,1.997369342E-2
2.450547095E0,-8.255792782E-3,-2.090579830E-2,2.103895694E-2
2.453034855E0,-7.190529723E-3,-2.303632535E-2,2.103895694E-2
2.455522616E0,-5.060002208E-3,-2.516685426E-2,2.210422046E-2
2.458010376E0,-2.929474926E-3,-2.729738131E-2,2.210422046E-2
2.460498137E0,-7.989477599E-4,-2.836264484E-2,2.210422046E-2
2.462985897E0,2.396843163E-3,-2.836264484E-2,2.210422046E-2
2.465473657E0,5.592633970E-3,-2.836264484E-2,2.103895694E-2
2.467961418E0,9.853689000E-3,-2.836264484E-2,1.997369342E-2
2.470449178E0,1.411474310E-2,-2.729738131E-2,1.890842989E-2
2.472936939E0,1.837579720E-2,-2.516685426E-2,1.677790284E-2
2.475424699E0,2.263685316E-2,-2.410159074E-2,1.464737486E-2
2.477912459E0,2.689790726E-2,-2.303632535E-2,1.251684781E-2
2.480400220E0,3.222422674E-2,-2.197106183E-2,1.038632076E-2
2.482887980E0,3.542001545E-2,-2.090579830E-2,8.255792782E-3
2.485375741E0,3.861580789E-2,-2.090579830E-2,6.125265732E-3
2.487863501E0,4.287686199E-2,-1.984053478E-2,3.994738683E-3
2.490351262E0,4.500738904E-2,-1.771000773E-2,7.989477599E-4
2.492839022E0,4.713791609E-2,-1.771000773E-2,-2.663159103E-4
2.495326782E0,4.926844314E-2,-1.771000773E-2,-2.396843163E-3
2.497814543E0,4.926844314E-2,-1.557948068E-2,-4.527370445E-3
2.500302303E0,4.926844314E-2,-1.557948068E-2,-5.592633970E-3
2.502790064E0,4.820318148E-2,-1.451421715E-2,-6.657897960E-3
2.505277824E0,4.607265070E-2,-1.344895363E-2,-8.788425475E-3
2.507765584E0,4.394212365E-2,-1.238369010E-2,-9.853689000E-3
2.510253345E0,4.074633494E-2,-1.131842658E-2,-9.853689000E-3
2.512741105E0,3.648528084E-2,-1.025316212E-2,-1.091895252E-2
2.515228866E0,3.222422674E-2,-9.187898599E-3,-9.853689000E-3
2.517716626E0,2.796317078E-2,-7.057371549E-3,-1.091895252E-2
2.520204387E0,2.263685316E-2,-5.992108025E-3,-1.198421605E-2
2.522692147E0,1.624527015E-2,-4.926844500E-3,-1.198421605E-2
2.525179907E0,9.853689000E-3,-2.796316985E-3,-1.304947957E-2
2.527667668E0,4.527370445E-3,-1.731053460E-3,-1.411474310E-2
2.530155428E0,-7.989477599E-4,-6.657897611E-4,-1.518000662E-2
2.532643189E0,-6.125265732E-3,3.994738800E-4,-1.518000662E-2
2.535130949E0,-1.038632076E-2,1.464737463E-3,-1.518000662E-2
2.537618709E0,-1.571263932E-2,2.530001104E-3,-1.518000662E-2
2.540106470E0,-1.997369342E-2,3.595264861E-3,-1.518000662E-2
2.542594230E0,-2.316948399E-2,4.660528619E-3,-1.411474310E-2
2.545081991E0,-2.636527456E-2,5.725792143E-3,-1.411474310E-2
2.547569751E0,-2.849580161E-2,5.725792143E-3,-1.304947957E-2
2.550057512E0,-2.956106514E-2,5.725792143E-3,-1.198421605E-2
2.552545272E0,-3.062633052E-2,5.725792143E-3,-1.091895252E-2
2.555033032E0,-3.062633052E-2,4.660528619E-3,-9.853689000E-3
2.557520793E0,-3.062633052E-2,4.660528619E-3,-7.723161485E-3
2.560008553E0,-2.956106514E-2,3.595264861E-3,-6.657897960E-3
2.562496314E0,-2.743053809E-2,2.530001104E-3,-4.527370445E-3
2.564984074E0,-2.530001104E-2,1.464737463E-3,-3.462106921E-3
2.567471834E0,-2.210422046E-2,3.994738800E-4,-2.396843163E-3
2.569959647E0,-1.890842989E-2,-1.731053460E-3,-1.331579522E-3
2.572447459E0,-1.571263932E-2,-2.796316985E-3,-1.331579522E-3
2.574935272E0,-1.251684781E-2,-3.861580743E-3,-2.663159103E-4
2.577423084E0,-8.255792782E-3,-4.926844500E-3,7.989477599E-4
2.579910897E0,-5.060002208E-3,-5.992108025E-3,7.989477599E-4
2.582398709E0,-7.989477599E-4,-7.057371549E-3,7.989477599E-4
2.584886522E0,3.462106921E-3,-7.057371549E-3,7.989477599E-4
2.587374334E0,6.657897960E-3,-7.057371549E-3,-2.663159103E-4
2.589862147E0,9.853689000E-3,-8.122635074E-3,-2.663159103E-4
2.592349959E0,1.411474310E-2,-8.122635074E-3,-1.331579522E-3
2.594837772E0,1.731053367E-2,-9.187898599E-3,-2.396843163E-3
2.597325584E0,1.944106072E-2,-8.122635074E-3,-4.527370445E-3
2.599813397E0,2.263685316E-2,-8.122635074E-3,-5.592633970E-3
2.602301209E0,2.476738021E-2,-5.992108025E-3,-6.657897960E-3
2.604789022E0,2.689790726E-2,-4.926844500E-3,-7.723161485E-3
2.607276834E0,2.796317078E-2,-3.861580743E-3,-9.853689000E-3
2.609764647E0,2.902843431E-2,-1.731053460E-3,-9.853689000E-3
2.612252459E0,3.009369783E-2,-6.657897611E-4,-9.853689000E-3
2.614740272E0,3.115896136E-2,1.464737463E-3,-9.853689000E-3
2.617228084E0,3.115896136E-2,2.530001104E-3,-9.853689000E-3
2.619715897E0,3.115896136E-2,3.595264861E-3,-8.788425475E-3
2.622203709E0,3.115896136E-2,4.660528619E-3,-8.788425475E-3
2.624691522E0,3.009369783E-2,5.725792143E-3,-7.723161485E-3
2.627179334E0,2.902843431E-2,6.791055668E-3,-7.723161485E-3
2.629667928E0,2.796317078E-2,7.856319658E-3,-8.788425475E-3
2.632155376E0,2.689790726E-2,7.856319658E-3,-8.788425475E-3
2.634642824E0,2.583264373E-2,7.856319658E-3,-9.853689000E-3
2.637130272E0,2.476738021E-2,6.791055668E-3,-1.091895252E-2
2.639617720E0,2.263685316E-2,4.660528619E-3,-1.198421605E-2
2.642105220E0,2.050632425E-2,3.595264861E-3,-1.411474310E-2
2.644592772E0,1.944106072E-2,1.464737463E-3,-1.518000662E-2
2.647080376E0,1.624527015E-2,-1.731053460E-3,-1.731053367E-2
2.649568032E0,1.411474310E-2,-3.861580743E-3,-1.944106072E-2
2.652055741E0,1.198421605E-2,-5.992108025E-3,-2.263685316E-2
2.654543501E0,9.853689000E-3,-8.122635074E-3,-2.583264373E-2
2.657031314E0,6.657897960E-3,-1.025316212E-2,-2.796317078E-2
2.659519178E0,3.462106921E-3,-1.238369010E-2,-3.115896136E-2
2.662007095E0,1.331579522E-3,-1.451421715E-2,-3.222422674E-2
2.664495064E0,-2.929474926E-3,-1.451421715E-2,-3.435475379E-2
2.666983084E0,-5.060002208E-3,-1.664474420E-2,-3.542001545E-2
2.669471105E0,-8.255792782E-3,-1.771000773E-2,-3.435475379E-2
2.671959126E0,-1.038632076E-2,-1.877527125E-2,-3.328948840E-2
2.674447147E0,-1.251684781E-2,-1.877527125E-2,-3.222422674E-2
2.676935168E0,-1.464737486E-2,-1.984053478E-2,-3.222422674E-2
2.679423189E0,-1.571263932E-2,-2.090579830E-2,-2.902843431E-2
2.681911001E0,-1.677790284E-2,-2.090579830E-2,-2.689790726E-2
2.684398762E0,-1.784316637E-2,-2.197106183E-2,-2.370211668E-2
2.686886522E0,-1.784316637E-2,-2.197106183E-2,-2.050632425E-2
2.689374282E0,-1.784316637E-2,-2.090579830E-2,-1.731053367E-2
2.691862043E0,-1.571263932E-2,-2.090579830E-2,-1.304947957E-2
2.694349803E0,-1.358211134E-2,-1.984053478E-2,-9.853689000E-3
2.696837564E0,-1.145158429E-2,-1.984053478E-2,-6.657897960E-3
2.699325324E0,-8.255792782E-3,-1.877527125E-2,-3.462106921E-3
2.701813084E0,-5.060002208E-3,-1.664474420E-2,-1.331579522E-3
2.704300845E0,-7.989477599E-4,-1.557948068E-2,7.989477599E-4
2.706788605E0,2.396843163E-3,-1.344895363E-2,2.929474926E-3
2.709276366E0,6.657897960E-3,-1.344895363E-2,5.060002208E-3
2.711764126E0,1.198421605E-2,-1.238369010E-2,7.190529723E-3
2.714251887E0,1.518000662E-2,-1.131842658E-2,7.190529723E-3
2.716739647E0,1.944106072E-2,-1.025316212E-2,8.255792782E-3
2.719227407E0,2.370211668E-2,-9.187898599E-3,8.255792782E-3
2.721715168E0,2.689790726E-2,-7.057371549E-3,8.255792782E-3
2.724202928E0,3.009369783E-2,-5.992108025E-3,9.321057238E-3
2.726690689E0,3.222422674E-2,-3.861580743E-3,9.321057238E-3
2.729178449E0,3.435475379E-2,-1.731053460E-3,8.255792782E-3
2.731666209E0,3.542001545E-2,3.994738800E-4,8.255792782E-3
2.734153970E0,3.648528084E-2,2.530001104E-3,7.190529723E-3
2.736641730E0,3.648528084E-2,3.595264861E-3,7.190529723E-3
2.739129491E0,3.542001545E-2,3.595264861E-3,5.060002208E-3
2.741617251E0,3.435475379E-2,3.595264861E-3,3.994738683E-3
2.744105012E0,3.328948840E-2,2.530001104E-3,2.929474926E-3
2.746592772E0,3.115896136E-2,1.464737463E-3,7.989477599E-4
2.749080532E0,2.902843431E-2,1.464737463E-3,-2.663159103E-4
2.751568293E0,2.689790726E-2,-6.657897611E-4,-1.331579522E-3
2.754056053E0,2.476738021E-2,-2.796316985E-3,-2.396843163E-3
2.756543814E0,2.263685316E-2,-4.926844500E-3,-3.462106921E-3
2.759031574E0,1.944106072E-2,-7.057371549E-3,-4.527370445E-3
2.761519334E0,1.624527015E-2,-9.187898599E-3,-6.657897960E-3
2.764007095E0,1.304947957E-2,-1.131842658E-2,-7.723161485E-3
2.766494855E0,9.853689000E-3,-1.344895363E-2,-9.853689000E-3
2.768982616E0,7.723161485E-3,-1.451421715E-2,-1.091895252E-2
2.771470376E0,5.592633970E-3,-1.664474420E-2,-1.198421605E-2
2.773958137E0,3.462106921E-3,-1.771000773E-2,-1.411474310E-2
2.776445897E0,2.396843163E-3,-1.984053478E-2,-1.518000662E-2
2.778933657E0,2.663159103E-4,-2.090579830E-2,-1.624527015E-2
2.781421418E0,2.663159103E-4,-2.303632535E-2,-1.837579720E-2
2.783909178E0,-7.989477599E-4,-2.410159074E-2,-1.837579720E-2
2.786396939E0,-7.989477599E-4,-2.516685426E-2,-1.837579720E-2
2.788884699E0,-1.864211401E-3,-2.623211779E-2,-1.837579720E-2
2.791372459E0,-7.989477599E-4,-2.836264484E-2,-1.944106072E-2
2.793860220E0,-7.989477599E-4,-2.942790836E-2,-1.944106072E-2
2.796347980E0,2.663159103E-4,-3.049317189E-2,-1.837579720E-2
2.798835741E0,2.663159103E-4,-3.049317189E-2,-1.731053367E-2
2.801323501E0,2.396843163E-3,-3.049317189E-2,-1.731053367E-2
2.803811262E0,4.527370445E-3,-3.049317189E-2,-1.731053367E-2
2.806299022E0,6.657897960E-3,-3.155843541E-2,-1.624527015E-2
2.808786782E0,7.723161485E-3,-3.049317189E-2,-1.624527015E-2
2.811274543E0,1.091895252E-2,-2.942790836E-2,-1.518000662E-2
2.813762303E0,1.304947957E-2,-2.729738131E-2,-1.411474310E-2
2.816250064E0,1.624527015E-2,-2.623211779E-2,-1.411474310E-2
2.818737824E0,1.944106072E-2,-2.410159074E-2,-1.411474310E-2
2.821225584E0,2.263685316E-2,-2.197106183E-2,-1.411474310E-2
2.823713345E0,2.476738021E-2,-1.984053478E-2,-1.304947957E-2
2.826201105E0,2.796317078E-2,-1.664474420E-2,-1.304947957E-2
2.828688866E0,3.009369783E-2,-1.451421715E-2,-1.411474310E-2
2.831176626E0,3.222422674E-2,-1.238369010E-2,-1.411474310E-2
2.833664387E0,3.328948840E-2,-1.025316212E-2,-1.518000662E-2
2.836152147E0,3.542001545E-2,-7.057371549E-3,-1.411474310E-2
2.838639907E0,3.542001545E-2,-5.992108025E-3,-1.411474310E-2
2.841127668E0,3.648528084E-2,-3.861580743E-3,-1.411474310E-2
2.843615428E0,3.648528084E-2,-1.731053460E-3,-1.304947957E-2
2.846103189E0,3.542001545E-2,3.994738800E-4,-1.304947957E-2
2.848590949E0,3.435475379E-2,2.530001104E-3,-1.198421605E-2
2.851078709E0,3.328948840E-2,4.660528619E-3,-9.853689000E-3
2.853566522E0,3.222422674E-2,6.791055668E-3,-8.788425475E-3
2.856054334E0,3.009369783E-2,7.856319658E-3,-8.788425475E-3
2.858542147E0,2.902843431E-2,9.986846708E-3,-7.723161485E-3
2.861029959E0,2.796317078E-2,9.986846708E-3,-6.657897960E-3
2.863517772E0,2.583264373E-2,9.986846708E-3,-6.657897960E-3
2.866005584E0,2.370211668E-2,9.986846708E-3,-5.592633970E-3
2.868493397E0,2.157158963E-2,7.856319658E-3,-4.527370445E-3
2.870981209E0,2.050632425E-2,5.725792143E-3,-3.462106921E-3
2.873469022E0,1.837579720E-2,2.530001104E-3,-2.396843163E-3
2.875956834E0,1.731053367E-2,3.994738800E-4,-2.396843163E-3
2.878444647E0,1.518000662E-2,-2.796316985E-3,-1.331579522E-3
2.880932459E0,1.411474310E-2,-5.992108025E-3,-2.663159103E-4
2.883420272E0,1.411474310E-2,-1.025316212E-2,7.989477599E-4
2.885908084E0,1.304947957E-2,-1.344895363E-2,1.864211401E-3
2.888395897E0,1.304947957E-2,-1.664474420E-2,2.929474926E-3
2.890883709E0,1.304947957E-2,-1.877527125E-2,3.994738683E-3
2.893371522E0,1.304947957E-2,-2.197106183E-2,3.994738683E-3
2.895859334E0,1.304947957E-2,-2.410159074E-2,3.994738683E-3
2.898347147E0,1.411474310E-2,-2.516685426E-2,3.994738683E-3
2.900834959E0,1.411474310E-2,-2.623211779E-2,5.060002208E-3
2.903322772E0,1.518000662E-2,-2.729738131E-2,5.060002208E-3
2.905810584E0,1.731053367E-2,-2.836264484E-2,5.060002208E-3
2.908298397E0,1.837579720E-2,-2.942790836E-2,5.060002208E-3
2.910786209E0,1.944106072E-2,-2.836264484E-2,5.060002208E-3
2.913274022E0,2.050632425E-2,-2.836264484E-2,3.994738683E-3
2.915761834E0,2.263685316E-2,-2.623211779E-2,3.994738683E-3
2.918249647E0,2.370211668E-2,-2.516685426E-2,3.994738683E-3
2.920737459E0,2.583264373E-2,-2.410159074E-2,2.929474926E-3
2.923225272E0,2.796317078E-2,-2.090579830E-2,2.929474926E-3
2.925713084E0,2.796317078E-2,-1.877527125E-2,1.864211401E-3
2.928200897E0,2.902843431E-2,-1.664474420E-2,1.864211401E-3
2.930688709E0,3.009369783E-2,-1.344895363E-2,1.864211401E-3
2.933176522E0,3.009369783E-2,-1.131842658E-2,2.929474926E-3
2.935664334E0,3.009369783E-2,-9.187898599E-3,2.929474926E-3
2.938152147E0,2.902843431E-2,-5.992108025E-3,3.994738683E-3
2.940639959E0,2.689790726E-2,-4.926844500E-3,6.125265732E-3
2.943127772E0,2.583264373E-2,-4.926844500E-3,6.125265732E-3
2.945615532E0,2.476738021E-2,-3.861580743E-3,8.255792782E-3
2.948103293E0,2.263685316E-2,-3.861580743E-3,9.321057238E-3
2.950591053E0,2.157158963E-2,-3.861580743E-3,1.145158429E-2
2.953078814E0,1.944106072E-2,-2.796316985E-3,1.251684781E-2
2.955566574E0,1.731053367E-2,-3.861580743E-3,1.464737486E-2
2.958054334E0,1.518000662E-2,-4.926844500E-3,1.677790284E-2
2.960542095E0,1.304947957E-2,-5.992108025E-3,1.997369342E-2
2.963029855E0,1.198421605E-2,-7.057371549E-3,2.103895694E-2
2.965517616E0,1.091895252E-2,-8.122635074E-3,2.316948399E-2
2.968005376E0,9.853689000E-3,-9.187898599E-3,2.423474751E-2
2.970493137E0,8.788425475E-3,-1.025316212E-2,2.530001104E-2
2.972980897E0,8.788425475E-3,-1.238369010E-2,2.636527456E-2
2.975468657E0,7.723161485E-3,-1.344895363E-2,2.743053809E-2
2.977956418E0,7.723161485E-3,-1.451421715E-2,2.849580161E-2
2.980444178E0,7.723161485E-3,-1.664474420E-2,2.743053809E-2
2.982931939E0,8.788425475E-3,-1.771000773E-2,2.743053809E-2
2.985419699E0,9.853689000E-3,-1.877527125E-2,2.743053809E-2
2.987907459E0,1.198421605E-2,-2.090579830E-2,2.636527456E-2
2.990395220E0,1.198421605E-2,-2.197106183E-2,2.636527456E-2
2.992882980E0,1.304947957E-2,-2.410159074E-2,2.530001104E-2
2.995370741E0,1.518000662E-2,-2.516685426E-2,2.530001104E-2
2.997858501E0,1.624527015E-2,-2.623211779E-2,2.316948399E-2
3.000346262E0,1.837579720E-2,-2.729738131E-2,2.316948399E-2
3.002834022E0,1.944106072E-2,-2.729738131E-2,2.103895694E-2
3.005321782E0,2.157158963E-2,-2.836264484E-2,2.103895694E-2
3.007809543E0,2.370211668E-2,-2.836264484E-2,1.997369342E-2
3.010297303E0,2.583264373E-2,-2.836264484E-2,1.890842989E-2
3.012785064E0,2.796317078E-2,-2.836264484E-2,1.890842989E-2
3.015272824E0,3.009369783E-2,-2.836264484E-2,1.784316637E-2
3.017760584E0,3.115896136E-2,-2.729738131E-2,1.784316637E-2
3.020248345E0,3.222422674E-2,-2.729738131E-2,1.677790284E-2
3.022736105E0,3.222422674E-2,-2.623211779E-2,1.571263932E-2
3.025223866E0,3.328948840E-2,-2.623211779E-2,1.464737486E-2
3.027711626E0,3.328948840E-2,-2.516685426E-2,1.464737486E-2
3.030199387E0,3.115896136E-2,-2.516685426E-2,1.464737486E-2
3.032687147E0,3.009369783E-2,-2.516685426E-2,1.358211134E-2
3.035174907E0,2.796317078E-2,-2.516685426E-2,1.358211134E-2
3.037662668E0,2.583264373E-2,-2.516685426E-2,1.251684781E-2
3.040150428E0,2.263685316E-2,-2.623211779E-2,1.251684781E-2
3.042638189E0,2.050632425E-2,-2.516685426E-2,1.251684781E-2
3.045125949E0,1.731053367E-2,-2.410159074E-2,1.251684781E-2
3.047613709E0,1.411474310E-2,-2.410159074E-2,1.145158429E-2
3.050101470E0,1.198421605E-2,-2.410159074E-2,1.145158429E-2
3.052589230E0,8.788425475E-3,-2.197106183E-2,1.145158429E-2
3.055076991E0,6.657897960E-3,-1.984053478E-2,1.251684781E-2
3.057564751E0,3.462106921E-3,-1.771000773E-2,1.251684781E-2
3.060052512E0,2.396843163E-3,-1.451421715E-2,1.145158429E-2
3.062540272E0,1.331579522E-3,-1.238369010E-2,1.251684781E-2
3.065028032E0,2.663159103E-4,-1.025316212E-2,1.251684781E-2
3.067515793E0,2.663159103E-4,-7.057371549E-3,1.251684781E-2
3.070003553E0,2.663159103E-4,-4.926844500E-3,1.251684781E-2
3.072491314E0,1.331579522E-3,-3.861580743E-3,1.145158429E-2
3.074979074E0,2.396843163E-3,-2.796316985E-3,1.145158429E-2
3.077466834E0,3.462106921E-3,-1.731053460E-3,1.145158429E-2
3.079954595E0,5.592633970E-3,-6.657897611E-4,1.145158429E-2
3.082442355E0,7.723161485E-3,-6.657897611E-4,1.038632076E-2
3.084930116E0,9.853689000E-3,-6.657897611E-4,1.038632076E-2
3.087417876E0,1.304947957E-2,-1.731053460E-3,9.321057238E-3
3.089905637E0,1.624527015E-2,-1.731053460E-3,8.255792782E-3
3.092393397E0,1.944106072E-2,-2.796316985E-3,8.255792782E-3
3.094881157E0,2.263685316E-2,-3.861580743E-3,7.190529723E-3
3.097368918E0,2.583264373E-2,-5.992108025E-3,7.190529723E-3
3.099856678E0,2.796317078E-2,-7.057371549E-3,6.125265732E-3
3.102344439E0,3.115896136E-2,-9.187898599E-3,5.060002208E-3
3.104832199E0,3.328948840E-2,-9.187898599E-3,5.060002208E-3
3.107319959E0,3.542001545E-2,-9.187898599E-3,2.929474926E-3
3.109807720E0,3.755054250E-2,-9.187898599E-3,2.929474926E-3
3.112295480E0,3.861580789E-2,-7.057371549E-3,7.989477599E-4
3.114783241E0,3.968106955E-2,-5.992108025E-3,7.989477599E-4
3.117271001E0,4.074633494E-2,-3.861580743E-3,-1.331579522E-3
3.119758762E0,4.074633494E-2,-1.731053460E-3,-2.396843163E-3
3.122246522E0,3.861580789E-2,3.994738800E-4,-3.462106921E-3
3.124734282E0,3.648528084E-2,2.530001104E-3,-4.527370445E-3
3.127222043E0,3.435475379E-2,4.660528619E-3,-4.527370445E-3
3.129710376E0,3.222422674E-2,6.791055668E-3,-5.592633970E-3
3.132198709E0,2.796317078E-2,8.921583183E-3,-4.527370445E-3
3.134686522E0,2.476738021E-2,9.986846708E-3,-4.527370445E-3
3.137174282E0,2.050632425E-2,1.211737376E-2,-4.527370445E-3
3.139662043E0,1.731053367E-2,1.318263728E-2,-3.462106921E-3
3.142149803E0,1.304947957E-2,1.424790081E-2,-2.396843163E-3
3.144637564E0,7.723161485E-3,1.424790081E-2,7.989477599E-4
3.147125324E0,3.462106921E-3,1.531316526E-2,2.929474926E-3
3.149613084E0,-1.864211401E-3,1.531316526E-2,5.060002208E-3
3.152100845E0,-6.125265732E-3,1.637842879E-2,8.255792782E-3
3.154588605E0,-9.321057238E-3,1.744369231E-2,1.038632076E-2
3.157076366E0,-1.358211134E-2,1.744369231E-2,1.358211134E-2
3.159564126E0,-1.571263932E-2,1.744369231E-2,1.571263932E-2
3.162051887E0,-1.784316637E-2,1.850895584E-2,1.677790284E-2
3.164539647E0,-1.890842989E-2,1.850895584E-2,1.890842989E-2
3.167027407E0,-1.890842989E-2,1.744369231E-2,1.997369342E-2
3.169515168E0,-1.890842989E-2,1.637842879E-2,2.210422046E-2
3.172002928E0,-1.784316637E-2,1.637842879E-2,2.210422046E-2
3.174490689E0,-1.571263932E-2,1.637842879E-2,2.316948399E-2
3.176978449E0,-1.251684781E-2,1.531316526E-2,2.316948399E-2
3.179466209E0,-9.321057238E-3,1.531316526E-2,2.210422046E-2
3.181953970E0,-5.060002208E-3,1.424790081E-2,2.210422046E-2
3.184441782E0,-1.864211401E-3,1.424790081E-2,2.103895694E-2
3.186929595E0,2.396843163E-3,1.424790081E-2,1.997369342E-2
3.189417407E0,5.592633970E-3,1.211737376E-2,1.890842989E-2
3.191905220E0,1.091895252E-2,1.211737376E-2,1.784316637E-2
3.194393032E0,1.411474310E-2,1.105211023E-2,1.784316637E-2
3.196880845E0,1.731053367E-2,9.986846708E-3,1.677790284E-2
3.199368657E0,2.050632425E-2,7.856319658E-3,1.571263932E-2
3.201856470E0,2.263685316E-2,6.791055668E-3,1.464737486E-2
3.204344230E0,2.583264373E-2,4.660528619E-3,1.358211134E-2
3.206831991E0,2.689790726E-2,1.464737463E-3,1.358211134E-2
3.209319751E0,2.902843431E-2,-1.731053460E-3,1.358211134E-2
3.211807512E0,3.009369783E-2,-4.926844500E-3,1.251684781E-2
3.214295272E0,3.009369783E-2,-8.122635074E-3,1.358211134E-2
3.216783032E0,2.902843431E-2,-1.238369010E-2,1.358211134E-2
3.219270793E0,2.902843431E-2,-1.557948068E-2,1.464737486E-2
3.221758553E0,2.689790726E-2,-1.877527125E-2,1.571263932E-2
3.224246314E0,2.583264373E-2,-2.303632535E-2,1.571263932E-2
3.226734074E0,2.370211668E-2,-2.623211779E-2,1.571263932E-2
3.229221834E0,2.157158963E-2,-2.942790836E-2,1.571263932E-2
3.231709595E0,1.944106072E-2,-3.049317189E-2,1.571263932E-2
3.234197355E0,1.731053367E-2,-3.155843541E-2,1.571263932E-2
3.236685116E0,1.518000662E-2,-3.155843541E-2,1.571263932E-2
3.239172876E0,1.304947957E-2,-3.049317189E-2,1.464737486E-2
3.241660637E0,9.853689000E-3,-2.942790836E-2,1.358211134E-2
3.244148397E0,7.723161485E-3,-2.729738131E-2,1.358211134E-2
3.246636157E0,4.527370445E-3,-2.516685426E-2,1.145158429E-2
3.249123918E0,2.396843163E-3,-2.197106183E-2,1.038632076E-2
3.251611678E0,-7.989477599E-4,-1.877527125E-2,9.321057238E-3
3.254099439E0,-2.929474926E-3,-1.557948068E-2,8.255792782E-3
3.256587199E0,-5.060002208E-3,-1.344895363E-2,7.190529723E-3
3.259074959E0,-7.190529723E-3,-1.025316212E-2,5.060002208E-3
3.261562720E0,-9.321057238E-3,-8.122635074E-3,3.994738683E-3
3.264050480E0,-1.145158429E-2,-5.992108025E-3,1.864211401E-3
3.266538241E0,-1.464737486E-2,-3.861580743E-3,1.864211401E-3
3.269026001E0,-1.677790284E-2,-2.796316985E-3,-2.663159103E-4
3.271513762E0,-1.890842989E-2,-6.657897611E-4,-2.663159103E-4
3.274001522E0,-2.210422046E-2,-6.657897611E-4,-1.331579522E-3
3.276489282E0,-2.316948399E-2,-1.731053460E-3,-2.396843163E-3
3.278977043E0,-2.530001104E-2,-2.796316985E-3,-3.462106921E-3
3.281464803E0,-2.743053809E-2,-3.861580743E-3,-3.462106921E-3
3.283952564E0,-2.956106514E-2,-3.861580743E-3,-3.462106921E-3
3.286440324E0,-3.062633052E-2,-5.992108025E-3,-3.462106921E-3
3.288928084E0,-3.169159219E-2,-8.122635074E-3,-5.592633970E-3
3.291415845E0,-3.275685757E-2,-1.025316212E-2,-5.592633970E-3
3.293903605E0,-3.382211924E-2,-1.238369010E-2,-5.592633970E-3
3.296391366E0,-3.488738462E-2,-1.557948068E-2,-5.592633970E-3
3.298879126E0,-3.488738462E-2,-1.877527125E-2,-6.657897960E-3
3.301366887E0,-3.488738462E-2,-1.984053478E-2,-7.723161485E-3
3.303854647E0,-3.595264629E-2,-2.303632535E-2,-6.657897960E-3
3.306342407E0,-3.488738462E-2,-2.516685426E-2,-6.657897960E-3
3.308830168E0,-3.382211924E-2,-2.729738131E-2,-5.592633970E-3
3.311317928E0,-3.275685757E-2,-2.836264484E-2,-4.527370445E-3
3.313805689E0,-3.062633052E-2,-2.942790836E-2,-2.396843163E-3
3.316293449E0,-2.956106514E-2,-3.049317189E-2,-1.331579522E-3
3.318781209E0,-2.743053809E-2,-3.155843541E-2,1.864211401E-3
3.321268970E0,-2.423474751E-2,-3.262370080E-2,5.060002208E-3
3.323756730E0,-2.210422046E-2,-3.262370080E-2,7.190529723E-3
3.326244491E0,-1.890842989E-2,-3.262370080E-2,1.145158429E-2
3.328732251E0,-1.571263932E-2,-3.155843541E-2,1.571263932E-2
3.331220012E0,-1.251684781E-2,-3.155843541E-2,1.890842989E-2
3.333707772E0,-8.255792782E-3,-3.049317189E-2,2.316948399E-2
3.336195532E0,-5.060002208E-3,-2.836264484E-2,2.743053809E-2
3.338683293E0,-7.989477599E-4,-2.623211779E-2,3.169159219E-2
3.341171053E0,2.396843163E-3,-2.623211779E-2,3.595264629E-2
3.343658814E0,4.527370445E-3,-2.516685426E-2,3.808317333E-2
3.346146574E0,8.788425475E-3,-2.303632535E-2,4.234423116E-2
3.348634334E0,1.091895252E-2,-2.090579830E-2,4.447475821E-2
3.351122095E0,1.411474310E-2,-1.984053478E-2,4.660528526E-2
3.353609855E0,1.624527015E-2,-1.877527125E-2,4.873581231E-2
3.356097616E0,1.837579720E-2,-1.771000773E-2,4.980107397E-2
3.358585376E0,2.050632425E-2,-1.557948068E-2,5.086633936E-2
3.361073137E0,2.263685316E-2,-1.451421715E-2,5.086633936E-2
3.363560897E0,2.476738021E-2,-1.451421715E-2,4.980107397E-2
3.366048657E0,2.583264373E-2,-1.344895363E-2,4.873581231E-2
3.368536418E0,2.583264373E-2,-1.344895363E-2,4.767054692E-2
3.371024178E0,2.689790726E-2,-1.344895363E-2,4.554001987E-2
3.373511939E0,2.583264373E-2,-1.344895363E-2,4.447475821E-2
3.375999699E0,2.476738021E-2,-1.344895363E-2,4.234423116E-2
3.378487459E0,2.370211668E-2,-1.344895363E-2,4.127896577E-2
3.380975220E0,2.263685316E-2,-1.451421715E-2,3.914843872E-2
3.383462980E0,2.050632425E-2,-1.451421715E-2,3.701791167E-2
3.385950741E0,1.944106072E-2,-1.451421715E-2,3.595264629E-2
3.388438501E0,1.837579720E-2,-1.451421715E-2,3.275685757E-2
3.390926262E0,1.518000662E-2,-1.451421715E-2,3.062633052E-2
3.393414022E0,1.304947957E-2,-1.451421715E-2,2.849580161E-2
3.395901782E0,1.091895252E-2,-1.344895363E-2,2.636527456E-2
3.398389543E0,8.788425475E-3,-1.344895363E-2,2.423474751E-2
3.400877303E0,6.657897960E-3,-1.344895363E-2,2.210422046E-2
3.403365064E0,4.527370445E-3,-1.238369010E-2,2.103895694E-2
3.405852824E0,2.396843163E-3,-1.131842658E-2,1.890842989E-2
3.408340584E0,-7.989477599E-4,-1.131842658E-2,1.677790284E-2
3.410828345E0,-1.864211401E-3,-9.187898599E-3,1.358211134E-2
3.413316105E0,-3.994738683E-3,-7.057371549E-3,1.038632076E-2
3.415803866E0,-7.190529723E-3,-4.926844500E-3,8.255792782E-3
3.418291626E0,-9.321057238E-3,-3.861580743E-3,6.125265732E-3
3.420779387E0,-1.038632076E-2,-6.657897611E-4,2.929474926E-3
3.423267147E0,-1.251684781E-2,1.464737463E-3,-2.663159103E-4
3.425754907E0,-1.464737486E-2,4.660528619E-3,-3.462106921E-3
3.428242668E0,-1.677790284E-2,6.791055668E-3,-5.592633970E-3
3.430730428E0,-1.890842989E-2,9.986846708E-3,-8.788425475E-3
3.433218189E0,-2.103895694E-2,1.105211023E-2,-1.198421605E-2
3.435705949E0,-2.316948399E-2,1.424790081E-2,-1.411474310E-2
3.438193709E0,-2.530001104E-2,1.637842879E-2,-1.731053367E-2
3.440681470E0,-2.636527456E-2,1.744369231E-2,-1.837579720E-2
3.443169230E0,-2.849580161E-2,1.850895584E-2,-2.157158963E-2
3.445656991E0,-2.956106514E-2,1.850895584E-2,-2.370211668E-2
3.448144751E0,-3.062633052E-2,1.850895584E-2,-2.476738021E-2
3.450632512E0,-3.062633052E-2,1.957421936E-2,-2.583264373E-2
3.453120272E0,-3.169159219E-2,1.850895584E-2,-2.689790726E-2
3.455608032E0,-3.169159219E-2,1.744369231E-2,-2.689790726E-2
3.458095793E0,-3.275685757E-2,1.637842879E-2,-2.689790726E-2
3.460583553E0,-3.382211924E-2,1.424790081E-2,-2.583264373E-2
3.463071314E0,-3.382211924E-2,1.211737376E-2,-2.583264373E-2
3.465559074E0,-3.382211924E-2,1.105211023E-2,-2.476738021E-2
3.468046834E0,-3.382211924E-2,8.921583183E-3,-2.263685316E-2
3.470534647E0,-3.382211924E-2,6.791055668E-3,-2.157158963E-2
3.473022459E0,-3.382211924E-2,5.725792143E-3,-1.944106072E-2
3.475510272E0,-3.382211924E-2,3.595264861E-3,-1.731053367E-2
3.477998084E0,-3.275685757E-2,2.530001104E-3,-1.518000662E-2
3.480485897E0,-3.169159219E-2,3.994738800E-4,-1.411474310E-2
3.482973709E0,-3.062633052E-2,-6.657897611E-4,-1.091895252E-2
3.485461522E0,-2.849580161E-2,-1.731053460E-3,-8.788425475E-3
3.487949334E0,-2.636527456E-2,-2.796316985E-3,-6.657897960E-3
3.490437147E0,-2.423474751E-2,-3.861580743E-3,-4.527370445E-3
3.492924959E0,-2.103895694E-2,-3.861580743E-3,-2.396843163E-3
3.495412772E0,-1.890842989E-2,-4.926844500E-3,-2.663159103E-4
3.497900584E0,-1.677790284E-2,-5.992108025E-3,2.929474926E-3
3.500388397E0,-1.464737486E-2,-5.992108025E-3,5.060002208E-3
3.502876209E0,-1.145158429E-2,-7.057371549E-3,7.190529723E-3
3.505364022E0,-8.255792782E-3,-7.057371549E-3,9.321057238E-3
3.507851834E0,-6.125265732E-3,-8.122635074E-3,1.038632076E-2
3.510339647E0,-2.929474926E-3,-9.187898599E-3,1.145158429E-2
3.512827459E0,2.663159103E-4,-1.025316212E-2,1.251684781E-2
3.515315272E0,3.462106921E-3,-1.025316212E-2,1.358211134E-2
3.517803084E0,5.592633970E-3,-1.131842658E-2,1.358211134E-2
3.520290897E0,8.788425475E-3,-1.238369010E-2,1.358211134E-2
3.522778709E0,1.198421605E-2,-1.451421715E-2,1.358211134E-2
3.525266522E0,1.624527015E-2,-1.451421715E-2,1.358211134E-2
3.527754334E0,2.050632425E-2,-1.664474420E-2,1.251684781E-2
3.530242147E0,2.370211668E-2,-1.664474420E-2,1.038632076E-2
3.532729959E0,2.689790726E-2,-1.664474420E-2,9.321057238E-3
3.535217772E0,3.009369783E-2,-1.771000773E-2,7.190529723E-3
3.537705584E0,3.328948840E-2,-1.771000773E-2,6.125265732E-3
3.540193397E0,3.648528084E-2,-1.771000773E-2,3.994738683E-3
3.542681209E0,3.861580789E-2,-1.771000773E-2,1.864211401E-3
3.545168970E0,3.968106955E-2,-1.771000773E-2,7.989477599E-4
3.547656730E0,4.074633494E-2,-1.771000773E-2,-1.331579522E-3
3.550144491E0,4.074633494E-2,-1.771000773E-2,-3.462106921E-3
3.552632251E0,3.968106955E-2,-1.771000773E-2,-4.527370445E-3
3.555120012E0,3.755054250E-2,-1.771000773E-2,-5.592633970E-3
3.557607772E0,3.648528084E-2,-1.664474420E-2,-6.657897960E-3
3.560095532E0,3.435475379E-2,-1.664474420E-2,-7.723161485E-3
3.562583293E0,3.115896136E-2,-1.557948068E-2,-8.788425475E-3
3.565071053E0,2.796317078E-2,-1.557948068E-2,-8.788425475E-3
3.567558814E0,2.370211668E-2,-1.557948068E-2,-8.788425475E-3
3.570046574E0,1.944106072E-2,-1.451421715E-2,-8.788425475E-3
3.572534334E0,1.518000662E-2,-1.344895363E-2,-8.788425475E-3
3.575022095E0,1.091895252E-2,-1.344895363E-2,-7.723161485E-3
3.577509855E0,6.657897960E-3,-1.131842658E-2,-6.657897960E-3
3.579997616E0,2.396843163E-3,-9.187898599E-3,-5.592633970E-3
3.582485376E0,-2.929474926E-3,-8.122635074E-3,-4.527370445E-3
3.584973137E0,-7.190529723E-3,-5.992108025E-3,-3.462106921E-3
3.587460897E0,-1.145158429E-2,-2.796316985E-3,-2.396843163E-3
3.589948657E0,-1.571263932E-2,3.994738800E-4,-1.331579522E-3
3.592436418E0,-1.890842989E-2,3.595264861E-3,7.989477599E-4
3.594924178E0,-2.210422046E-2,7.856319658E-3,7.989477599E-4
3.597411939E0,-2.530001104E-2,1.105211023E-2,-2.663159103E-4
3.599899699E0,-2.743053809E-2,1.318263728E-2,7.989477599E-4
3.602387459E0,-3.062633052E-2,1.531316526E-2,7.989477599E-4
3.604875220E0,-3.169159219E-2,1.744369231E-2,7.989477599E-4
3.607362980E0,-3.275685757E-2,1.850895584E-2,7.989477599E-4
3.609850741E0,-3.382211924E-2,1.957421936E-2,7.989477599E-4
3.612338501E0,-3.382211924E-2,2.170474641E-2,7.989477599E-4
3.614826262E0,-3.382211924E-2,2.170474641E-2,-2.663159103E-4
3.617314022E0,-3.275685757E-2,2.170474641E-2,-2.663159103E-4
3.619801782E0,-3.169159219E-2,2.170474641E-2,-2.663159103E-4
3.622289543E0,-2.956106514E-2,2.170474641E-2,-2.663159103E-4
3.624777303E0,-2.636527456E-2,2.277000993E-2,-1.331579522E-3
3.627265064E0,-2.423474751E-2,2.170474641E-2,-1.331579522E-3
3.629753293E0,-2.103895694E-2,2.063948289E-2,-2.396843163E-3
3.632240897E0,-1.784316637E-2,1.957421936E-2,-2.396843163E-3
3.634728501E0,-1.464737486E-2,1.850895584E-2,-2.396843163E-3
3.637216105E0,-1.145158429E-2,1.744369231E-2,-2.396843163E-3
3.639703709E0,-7.190529723E-3,1.531316526E-2,-1.331579522E-3
3.642191314E0,-2.929474926E-3,1.318263728E-2,-2.396843163E-3
3.644679178E0,2.663159103E-4,9.986846708E-3,-2.396843163E-3
3.647167043E0,4.527370445E-3,7.856319658E-3,-2.396843163E-3
3.649654907E0,7.723161485E-3,4.660528619E-3,-3.462106921E-3
3.652142772E0,1.091895252E-2,2.530001104E-3,-3.462106921E-3
3.654630637E0,1.304947957E-2,-1.731053460E-3,-4.527370445E-3
3.657118501E0,1.624527015E-2,-3.861580743E-3,-4.527370445E-3
3.659606314E0,1.944106072E-2,-7.057371549E-3,-5.592633970E-3
3.662094074E0,2.157158963E-2,-9.187898599E-3,-7.723161485E-3
3.664581834E0,2.370211668E-2,-1.238369010E-2,-8.788425475E-3
3.667069595E0,2.476738021E-2,-1.451421715E-2,-9.853689000E-3
3.669557355E0,2.583264373E-2,-1.664474420E-2,-1.091895252E-2
3.672045116E0,2.476738021E-2,-1.877527125E-2,-1.198421605E-2
3.674532876E0,2.476738021E-2,-1.984053478E-2,-1.411474310E-2
3.677020637E0,2.476738021E-2,-2.090579830E-2,-1.518000662E-2
3.679508397E0,2.476738021E-2,-2.090579830E-2,-1.731053367E-2
3.681996157E0,2.370211668E-2,-2.090579830E-2,-1.837579720E-2
3.684483918E0,2.263685316E-2,-2.090579830E-2,-1.944106072E-2
3.686971678E0,2.263685316E-2,-1.984053478E-2,-2.157158963E-2
3.689459439E0,2.157158963E-2,-1.984053478E-2,-2.263685316E-2
3.691947199E0,2.050632425E-2,-1.771000773E-2,-2.476738021E-2
3.694434959E0,1.837579720E-2,-1.557948068E-2,-2.583264373E-2
3.696922720E0,1.624527015E-2,-1.344895363E-2,-2.689790726E-2
3.699410480E0,1.411474310E-2,-9.187898599E-3,-2.796317078E-2
3.701898241E0,1.198421605E-2,-5.992108025E-3,-2.689790726E-2
3.704386001E0,9.853689000E-3,-3.861580743E-3,-2.689790726E-2
3.706873762E0,6.657897960E-3,-6.657897611E-4,-2.689790726E-2
3.709361522E0,4.527370445E-3,2.530001104E-3,-2.689790726E-2
3.711849282E0,1.331579522E-3,5.725792143E-3,-2.583264373E-2
3.714337043E0,-1.864211401E-3,8.921583183E-3,-2.476738021E-2
3.716824803E0,-5.060002208E-3,1.105211023E-2,-2.263685316E-2
3.719312564E0,-8.255792782E-3,1.318263728E-2,-2.050632425E-2
3.721800324E0,-1.145158429E-2,1.531316526E-2,-1.837579720E-2
3.724288084E0,-1.464737486E-2,1.637842879E-2,-1.624527015E-2
3.726775845E0,-1.784316637E-2,1.744369231E-2,-1.304947957E-2
3.729263605E0,-1.997369342E-2,1.744369231E-2,-1.091895252E-2
3.731751366E0,-2.210422046E-2,1.744369231E-2,-8.788425475E-3
3.734239126E0,-2.316948399E-2,1.744369231E-2,-6.657897960E-3
3.736726887E0,-2.423474751E-2,1.637842879E-2,-4.527370445E-3
3.739214647E0,-2.530001104E-2,1.637842879E-2,-2.396843163E-3
3.741702407E0,-2.423474751E-2,1.531316526E-2,-2.663159103E-4
3.744190168E0,-2.316948399E-2,1.424790081E-2,1.864211401E-3
3.746677928E0,-2.210422046E-2,1.424790081E-2,2.929474926E-3
3.749165689E0,-2.103895694E-2,1.318263728E-2,5.060002208E-3
3.751653449E0,-1.997369342E-2,1.211737376E-2,6.125265732E-3
3.754141209E0,-1.784316637E-2,9.986846708E-3,6.125265732E-3
3.756628970E0,-1.571263932E-2,8.921583183E-3,7.190529723E-3
3.759116730E0,-1.358211134E-2,7.856319658E-3,8.255792782E-3
3.761604491E0,-1.038632076E-2,6.791055668E-3,8.255792782E-3
3.764092251E0,-8.255792782E-3,5.725792143E-3,7.190529723E-3
3.766580012E0,-5.060002208E-3,5.725792143E-3,7.190529723E-3
3.769067772E0,-2.929474926E-3,5.725792143E-3,7.190529723E-3
3.771555532E0,2.663159103E-4,4.660528619E-3,6.125265732E-3
3.774043293E0,2.396843163E-3,3.595264861E-3,6.125265732E-3
3.776531053E0,4.527370445E-3,4.660528619E-3,5.060002208E-3
3.779018814E0,6.657897960E-3,5.725792143E-3,3.994738683E-3
3.781506574E0,7.723161485E-3,5.725792143E-3,5.060002208E-3
3.783994334E0,8.788425475E-3,7.856319658E-3,3.994738683E-3
3.786482095E0,8.788425475E-3,8.921583183E-3,2.929474926E-3
3.788969855E0,8.788425475E-3,9.986846708E-3,2.929474926E-3
3.791457616E0,7.723161485E-3,1.105211023E-2,2.929474926E-3
3.793945376E0,6.657897960E-3,1.211737376E-2,2.929474926E-3
3.796433137E0,5.592633970E-3,1.211737376E-2,1.864211401E-3
3.798920897E0,3.462106921E-3,1.211737376E-2,7.989477599E-4
3.801408657E0,1.331579522E-3,1.105211023E-2,7.989477599E-4
3.803896418E0,-7.989477599E-4,1.105211023E-2,-2.663159103E-4
3.806384178E0,-2.929474926E-3,9.986846708E-3,-2.663159103E-4
3.808871939E0,-5.060002208E-3,9.986846708E-3,-1.331579522E-3
3.811359699E0,-7.190529723E-3,8.921583183E-3,-1.331579522E-3
3.813847459E0,-9.321057238E-3,7.856319658E-3,-2.396843163E-3
3.816335220E0,-1.145158429E-2,7.856319658E-3,-2.396843163E-3
3.818822980E0,-1.358211134E-2,7.856319658E-3,-3.462106921E-3
3.821310741E0,-1.571263932E-2,7.856319658E-3,-4.527370445E-3
3.823798501E0,-1.784316637E-2,8.921583183E-3,-4.527370445E-3
3.826286262E0,-1.890842989E-2,1.105211023E-2,-5.592633970E-3
3.828774022E0,-1.997369342E-2,1.318263728E-2,-5.592633970E-3
3.831261782E0,-1.997369342E-2,1.637842879E-2,-6.657897960E-3
3.833749543E0,-2.103895694E-2,1.850895584E-2,-8.788425475E-3
3.836237303E0,-2.103895694E-2,2.277000993E-2,-8.788425475E-3
3.838725064E0,-1.997369342E-2,2.703106403E-2,-9.853689000E-3
3.841212824E0,-1.997369342E-2,3.129211813E-2,-9.853689000E-3
3.843700584E0,-1.997369342E-2,3.448791057E-2,-1.091895252E-2
3.846188345E0,-1.890842989E-2,3.768370301E-2,-1.198421605E-2
3.848676105E0,-1.784316637E-2,4.087949172E-2,-1.304947957E-2
3.851163866E0,-1.784316637E-2,4.301001877E-2,-1.304947957E-2
3.853651626E0,-1.677790284E-2,4.301001877E-2,-1.304947957E-2
3.856139387E0,-1.784316637E-2,4.407528415E-2,-1.304947957E-2
3.858627147E0,-1.677790284E-2,4.407528415E-2,-1.198421605E-2
3.861114907E0,-1.677790284E-2,4.301001877E-2,-1.198421605E-2
3.863602668E0,-1.677790284E-2,4.194475710E-2,-1.091895252E-2
3.866090428E0,-1.677790284E-2,4.087949172E-2,-9.853689000E-3
3.868578189E0,-1.784316637E-2,3.874896467E-2,-8.788425475E-3
3.871065949E0,-1.784316637E-2,3.661843762E-2,-8.788425475E-3
3.873553709E0,-1.890842989E-2,3.448791057E-2,-7.723161485E-3
3.876041470E0,-1.890842989E-2,3.235738352E-2,-5.592633970E-3
3.878529230E0,-1.890842989E-2,2.916159295E-2,-4.527370445E-3
3.881016991E0,-1.890842989E-2,2.596580051E-2,-2.396843163E-3
3.883504751E0,-1.890842989E-2,2.277000993E-2,-2.663159103E-4
3.885992512E0,-1.890842989E-2,1.957421936E-2,1.864211401E-3
3.888480272E0,-1.784316637E-2,1.637842879E-2,3.994738683E-3
3.890968032E0,-1.784316637E-2,1.211737376E-2,5.060002208E-3
3.893455793E0,-1.677790284E-2,8.921583183E-3,6.125265732E-3
3.895943553E0,-1.677790284E-2,6.791055668E-3,8.255792782E-3
3.898431314E0,-1.571263932E-2,3.595264861E-3,8.255792782E-3
3.900919074E0,-1.464737486E-2,1.464737463E-3,9.321057238E-3
3.903406834E0,-1.358211134E-2,-1.731053460E-3,1.038632076E-2
3.905894595E0,-1.251684781E-2,-3.861580743E-3,1.145158429E-2
3.908382355E0,-1.145158429E-2,-5.992108025E-3,1.251684781E-2
3.910870116E0,-1.038632076E-2,-8.122635074E-3,1.145158429E-2
3.913357876E0,-9.321057238E-3,-1.025316212E-2,1.145158429E-2
3.915845637E0,-7.190529723E-3,-1.238369010E-2,1.038632076E-2
3.918333397E0,-5.060002208E-3,-1.451421715E-2,1.038632076E-2
3.920821157E0,-2.929474926E-3,-1.664474420E-2,1.038632076E-2
3.923308918E0,-1.864211401E-3,-1.877527125E-2,9.321057238E-3
3.925796678E0,1.331579522E-3,-2.090579830E-2,9.321057238E-3
3.928284439E0,3.462106921E-3,-2.197106183E-2,8.255792782E-3
3.930772199E0,6.657897960E-3,-2.410159074E-2,9.321057238E-3
3.933259959E0,8.788425475E-3,-2.410159074E-2,9.321057238E-3
3.935747720E0,9.853689000E-3,-2.516685426E-2,9.321057238E-3
3.938235480E0,1.198421605E-2,-2.516685426E-2,9.321057238E-3
3.940723241E0,1.304947957E-2,-2.516685426E-2,1.038632076E-2
3.943211001E0,1.411474310E-2,-2.410159074E-2,1.038632076E-2
3.945698762E0,1.411474310E-2,-2.303632535E-2,1.145158429E-2
3.948186522E0,1.624527015E-2,-2.410159074E-2,1.251684781E-2
3.950674282E0,1.624527015E-2,-2.197106183E-2,1.251684781E-2
3.953162043E0,1.624527015E-2,-2.090579830E-2,1.464737486E-2
3.955649803E0,1.518000662E-2,-1.984053478E-2,1.464737486E-2
3.958137564E0,1.518000662E-2,-1.771000773E-2,1.677790284E-2
3.960625324E0,1.518000662E-2,-1.557948068E-2,1.784316637E-2
3.963113084E0,1.518000662E-2,-1.238369010E-2,1.784316637E-2
3.965600845E0,1.411474310E-2,-9.187898599E-3,1.890842989E-2
3.968088605E0,1.304947957E-2,-5.992108025E-3,1.997369342E-2
3.970576366E0,1.091895252E-2,-2.796316985E-3,1.997369342E-2
3.973064126E0,8.788425475E-3,3.994738800E-4,1.997369342E-2
3.975551887E0,6.657897960E-3,3.595264861E-3,2.103895694E-2
3.978039647E0,4.527370445E-3,6.791055668E-3,2.103895694E-2
3.980527407E0,2.396843163E-3,8.921583183E-3,2.103895694E-2
3.983015168E0,-7.989477599E-4,1.105211023E-2,2.210422046E-2
3.985502928E0,-3.994738683E-3,1.211737376E-2,2.210422046E-2
3.987990689E0,-7.190529723E-3,1.318263728E-2,2.316948399E-2
3.990478449E0,-1.145158429E-2,1.424790081E-2,2.316948399E-2
3.992966209E0,-1.358211134E-2,1.424790081E-2,2.316948399E-2
3.995453970E0,-1.784316637E-2,1.424790081E-2,2.210422046E-2
3.997941730E0,-1.997369342E-2,1.318263728E-2,2.210422046E-2
4.000429491E0,-2.316948399E-2,1.211737376E-2,2.103895694E-2
4.002917251E0,-2.530001104E-2,1.105211023E-2,1.997369342E-2
4.005405012E0,-2.849580161E-2,8.921583183E-3,1.890842989E-2
4.007892772E0,-2.956106514E-2,6.791055668E-3,1.890842989E-2
4.010380532E0,-3.169159219E-2,4.660528619E-3,1.890842989E-2
4.012868293E0,-3.382211924E-2,1.464737463E-3,1.677790284E-2
4.015356053E0,-3.488738462E-2,-6.657897611E-4,1.571263932E-2
4.017843814E0,-3.595264629E-2,-3.861580743E-3,1.571263932E-2
4.020331574E0,-3.595264629E-2,-7.057371549E-3,1.464737486E-2
4.022819334E0,-3.488738462E-2,-1.025316212E-2,1.464737486E-2
4.025307095E0,-3.382211924E-2,-1.238369010E-2,1.358211134E-2
4.027794855E0,-3.275685757E-2,-1.451421715E-2,1.251684781E-2
4.030282616E0,-2.956106514E-2,-1.771000773E-2,1.251684781E-2
4.032770376E0,-2.636527456E-2,-2.090579830E-2,1.145158429E-2
4.035258137E0,-2.316948399E-2,-2.303632535E-2,1.145158429E-2
4.037745897E0,-1.997369342E-2,-2.516685426E-2,1.038632076E-2
4.040233657E0,-1.571263932E-2,-2.729738131E-2,9.321057238E-3
4.042721418E0,-1.145158429E-2,-2.836264484E-2,9.321057238E-3
4.045209178E0,-7.190529723E-3,-2.942790836E-2,8.255792782E-3
4.047696939E0,-1.864211401E-3,-2.942790836E-2,8.255792782E-3
4.050184699E0,3.462106921E-3,-2.942790836E-2,7.190529723E-3
4.052672459E0,7.723161485E-3,-2.942790836E-2,6.125265732E-3
4.055160220E0,1.198421605E-2,-2.836264484E-2,5.060002208E-3
4.057647980E0,1.624527015E-2,-2.729738131E-2,5.060002208E-3
4.060135741E0,2.050632425E-2,-2.623211779E-2,5.060002208E-3
4.062623501E0,2.476738021E-2,-2.516685426E-2,3.994738683E-3
4.065111262E0,2.902843431E-2,-2.303632535E-2,5.060002208E-3
4.067599022E0,3.222422674E-2,-2.197106183E-2,5.060002208E-3
4.070086782E0,3.435475379E-2,-2.090579830E-2,5.060002208E-3
4.072574543E0,3.648528084E-2,-1.877527125E-2,5.060002208E-3
4.075062303E0,3.755054250E-2,-1.664474420E-2,5.060002208E-3
4.077550064E0,3.861580789E-2,-1.451421715E-2,3.994738683E-3
4.080037824E0,3.861580789E-2,-1.344895363E-2,3.994738683E-3
4.082525584E0,3.861580789E-2,-1.131842658E-2,3.994738683E-3
4.085013345E0,3.755054250E-2,-1.131842658E-2,2.929474926E-3
4.087501105E0,3.648528084E-2,-9.187898599E-3,2.929474926E-3
4.089988866E0,3.435475379E-2,-9.187898599E-3,1.864211401E-3
4.092476626E0,3.222422674E-2,-8.122635074E-3,-2.663159103E-4
4.094964387E0,2.902843431E-2,-8.122635074E-3,-1.331579522E-3
4.097452147E0,2.583264373E-2,-7.057371549E-3,-2.396843163E-3
4.099939907E0,2.370211668E-2,-7.057371549E-3,-3.462106921E-3
4.102427668E0,2.050632425E-2,-5.992108025E-3,-5.592633970E-3
4.104915428E0,1.624527015E-2,-5.992108025E-3,-6.657897960E-3
4.107403189E0,1.198421605E-2,-5.992108025E-3,-8.788425475E-3
4.109890949E0,7.723161485E-3,-4.926844500E-3,-1.091895252E-2
4.112378709E0,4.527370445E-3,-4.926844500E-3,-1.304947957E-2
4.114866470E0,2.663159103E-4,-3.861580743E-3,-1.411474310E-2
4.117354230E0,-3.994738683E-3,-3.861580743E-3,-1.518000662E-2
4.119841991E0,-8.255792782E-3,-2.796316985E-3,-1.624527015E-2
4.122329751E0,-1.145158429E-2,-2.796316985E-3,-1.731053367E-2
4.124817512E0,-1.571263932E-2,-2.796316985E-3,-1.837579720E-2
4.127305272E0,-1.890842989E-2,-2.796316985E-3,-1.837579720E-2
4.129793032E0,-2.316948399E-2,-2.796316985E-3,-1.837579720E-2
4.132280793E0,-2.530001104E-2,-3.861580743E-3,-1.837579720E-2
4.134768553E0,-2.849580161E-2,-4.926844500E-3,-1.837579720E-2
4.137256314E0,-3.062633052E-2,-5.992108025E-3,-1.837579720E-2
4.139744074E0,-3.275685757E-2,-7.057371549E-3,-1.837579720E-2
4.142231834E0,-3.382211924E-2,-8.122635074E-3,-1.837579720E-2
4.144719595E0,-3.488738462E-2,-9.187898599E-3,-1.837579720E-2
4.147207355E0,-3.488738462E-2,-1.131842658E-2,-1.731053367E-2
4.149695116E0,-3.488738462E-2,-1.238369010E-2,-1.624527015E-2
4.152182876E0,-3.488738462E-2,-1.344895363E-2,-1.624527015E-2
4.154670637E0,-3.382211924E-2,-1.451421715E-2,-1.518000662E-2
4.157158397E0,-3.382211924E-2,-1.451421715E-2,-1.518000662E-2
4.159646157E0,-3.169159219E-2,-1.451421715E-2,-1.624527015E-2
4.162133918E0,-2.849580161E-2,-1.451421715E-2,-1.624527015E-2
4.164621678E0,-2.636527456E-2,-1.344895363E-2,-1.624527015E-2
4.167109439E0,-2.316948399E-2,-1.344895363E-2,-1.731053367E-2
4.169597199E0,-1.997369342E-2,-1.131842658E-2,-1.837579720E-2
4.172084959E0,-1.677790284E-2,-1.131842658E-2,-1.837579720E-2
4.174572720E0,-1.358211134E-2,-1.025316212E-2,-1.837579720E-2
4.177060480E0,-1.038632076E-2,-1.025316212E-2,-1.837579720E-2
4.179548241E0,-6.125265732E-3,-1.025316212E-2,-1.837579720E-2
4.182036001E0,-3.994738683E-3,-1.131842658E-2,-1.837579720E-2
4.184523762E0,-7.989477599E-4,-1.131842658E-2,-1.731053367E-2
4.187011522E0,1.331579522E-3,-1.131842658E-2,-1.624527015E-2
4.189499282E0,4.527370445E-3,-1.238369010E-2,-1.518000662E-2
4.191987043E0,5.592633970E-3,-1.344895363E-2,-1.304947957E-2
4.194474803E0,7.723161485E-3,-1.344895363E-2,-1.198421605E-2
4.196962564E0,9.853689000E-3,-1.451421715E-2,-8.788425475E-3
4.199450324E0,1.091895252E-2,-1.451421715E-2,-6.657897960E-3
4.201938084E0,1.091895252E-2,-1.451421715E-2,-4.527370445E-3
4.204425845E0,1.198421605E-2,-1.344895363E-2,-1.331579522E-3
4.206913605E0,1.304947957E-2,-1.344895363E-2,7.989477599E-4
4.209401366E0,1.304947957E-2,-1.344895363E-2,3.994738683E-3
4.211889126E0,1.411474310E-2,-1.238369010E-2,6.125265732E-3
4.214376887E0,1.411474310E-2,-1.238369010E-2,7.190529723E-3
4.216864647E0,1.518000662E-2,-1.238369010E-2,9.321057238E-3
4.219352407E0,1.518000662E-2,-1.131842658E-2,1.038632076E-2
4.221840168E0,1.411474310E-2,-1.131842658E-2,1.251684781E-2
4.224327928E0,1.411474310E-2,-1.238369010E-2,1.358211134E-2
4.226815689E0,1.411474310E-2,-1.238369010E-2,1.571263932E-2
4.229303449E0,1.411474310E-2,-1.238369010E-2,1.677790284E-2
4.231791209E0,1.411474310E-2,-1.344895363E-2,1.890842989E-2
4.234278970E0,1.411474310E-2,-1.344895363E-2,1.997369342E-2
4.236766730E0,1.411474310E-2,-1.451421715E-2,2.103895694E-2
4.239254491E0,1.411474310E-2,-1.557948068E-2,2.210422046E-2
4.241742251E0,1.411474310E-2,-1.664474420E-2,2.210422046E-2
4.244230012E0,1.518000662E-2,-1.664474420E-2,2.423474751E-2
4.246717772E0,1.518000662E-2,-1.771000773E-2,2.530001104E-2
4.249205532E0,1.518000662E-2,-1.877527125E-2,2.743053809E-2
4.251693293E0,1.624527015E-2,-1.984053478E-2,2.849580161E-2
4.254181053E0,1.624527015E-2,-2.090579830E-2,2.956106514E-2
4.256668814E0,1.731053367E-2,-2.197106183E-2,3.062633052E-2
4.259156574E0,1.731053367E-2,-2.303632535E-2,3.169159219E-2
4.261644334E0,1.731053367E-2,-2.410159074E-2,3.275685757E-2
4.264132095E0,1.837579720E-2,-2.410159074E-2,3.382211924E-2
4.266619855E0,1.837579720E-2,-2.410159074E-2,3.488738462E-2
4.269107616E0,1.944106072E-2,-2.303632535E-2,3.488738462E-2
4.271595376E0,2.050632425E-2,-2.410159074E-2,3.488738462E-2
4.274083137E0,2.157158963E-2,-2.410159074E-2,3.382211924E-2
4.276570897E0,2.157158963E-2,-2.303632535E-2,3.275685757E-2
4.279058657E0,2.263685316E-2,-2.303632535E-2,3.169159219E-2
4.281546418E0,2.263685316E-2,-2.303632535E-2,2.956106514E-2
4.284034178E0,2.370211668E-2,-2.303632535E-2,2.743053809E-2
4.286521939E0,2.476738021E-2,-2.303632535E-2,2.636527456E-2
4.289009699E0,2.476738021E-2,-2.303632535E-2,2.316948399E-2
4.291497459E0,2.476738021E-2,-2.303632535E-2,2.103895694E-2
4.293985220E0,2.370211668E-2,-2.303632535E-2,1.890842989E-2
4.296472980E0,2.263685316E-2,-2.197106183E-2,1.677790284E-2
4.298960741E0,2.157158963E-2,-2.197106183E-2,1.571263932E-2
4.301448501E0,1.944106072E-2,-2.197106183E-2,1.358211134E-2
4.303936262E0,1.837579720E-2,-1.984053478E-2,1.251684781E-2
4.306424022E0,1.624527015E-2,-1.984053478E-2,1.145158429E-2
4.308911782E0,1.411474310E-2,-1.877527125E-2,1.038632076E-2
4.311399543E0,1.091895252E-2,-1.771000773E-2,1.038632076E-2
4.313887303E0,8.788425475E-3,-1.664474420E-2,9.321057238E-3
4.316375064E0,5.592633970E-3,-1.664474420E-2,9.321057238E-3
4.318862824E0,2.396843163E-3,-1.557948068E-2,8.255792782E-3
4.321350584E0,-7.989477599E-4,-1.557948068E-2,8.255792782E-3
4.323838345E0,-2.929474926E-3,-1.557948068E-2,8.255792782E-3
4.326326105E0,-5.060002208E-3,-1.557948068E-2,8.255792782E-3
4.328813866E0,-7.190529723E-3,-1.557948068E-2,7.190529723E-3
4.331301626E0,-8.255792782E-3,-1.557948068E-2,7.190529723E-3
4.333789387E0,-9.321057238E-3,-1.557948068E-2,6.125265732E-3
4.336277147E0,-9.321057238E-3,-1.451421715E-2,5.060002208E-3
4.338764907E0,-9.321057238E-3,-1.451421715E-2,2.929474926E-3
4.341252668E0,-9.321057238E-3,-1.344895363E-2,1.864211401E-3
4.343740428E0,-9.321057238E-3,-1.344895363E-2,7.989477599E-4
4.346228189E0,-9.321057238E-3,-1.344895363E-2,-1.331579522E-3
4.348715949E0,-8.255792782E-3,-1.344895363E-2,-1.331579522E-3
4.351203709E0,-7.190529723E-3,-1.238369010E-2,-2.396843163E-3
4.353691470E0,-6.125265732E-3,-1.238369010E-2,-3.462106921E-3
4.356179230E0,-6.125265732E-3,-1.238369010E-2,-3.462106921E-3
4.358666991E0,-5.060002208E-3,-1.238369010E-2,-4.527370445E-3
4.361154751E0,-3.994738683E-3,-1.131842658E-2,-4.527370445E-3
4.363642512E0,-1.864211401E-3,-1.131842658E-2,-5.592633970E-3
4.366130272E0,-7.989477599E-4,-1.025316212E-2,-4.527370445E-3
4.368618032E0,2.663159103E-4,-1.025316212E-2,-3.462106921E-3
4.371105793E0,2.663159103E-4,-1.025316212E-2,-3.462106921E-3
4.373593553E0,1.331579522E-3,-1.025316212E-2,-2.396843163E-3
4.376081314E0,1.331579522E-3,-1.131842658E-2,-1.331579522E-3
4.378569074E0,2.396843163E-3,-1.131842658E-2,-2.663159103E-4
4.381056834E0,2.396843163E-3,-1.238369010E-2,-2.663159103E-4
4.383544595E0,2.396843163E-3,-1.344895363E-2,1.864211401E-3
4.386032355E0,1.331579522E-3,-1.344895363E-2,2.929474926E-3
4.388520116E0,2.396843163E-3,-1.451421715E-2,5.060002208E-3
4.391007876E0,2.396843163E-3,-1.664474420E-2,6.125265732E-3
4.393495637E0,2.396843163E-3,-1.771000773E-2,7.190529723E-3
4.395983397E0,2.396843163E-3,-1.877527125E-2,7.190529723E-3
4.398471157E0,2.396843163E-3,-1.984053478E-2,8.255792782E-3
4.400958918E0,2.396843163E-3,-2.090579830E-2,9.321057238E-3
4.403446678E0,2.396843163E-3,-2.090579830E-2,1.038632076E-2
4.405934439E0,3.462106921E-3,-2.197106183E-2,1.145158429E-2
4.408422199E0,3.462106921E-3,-2.303632535E-2,1.145158429E-2
4.410909959E0,4.527370445E-3,-2.410159074E-2,1.251684781E-2
4.413397720E0,5.592633970E-3,-2.410159074E-2,1.251684781E-2
4.415885480E0,5.592633970E-3,-2.516685426E-2,1.464737486E-2
4.418373241E0,6.657897960E-3,-2.516685426E-2,1.571263932E-2
4.420861001E0,6.657897960E-3,-2.516685426E-2,1.677790284E-2
4.423348762E0,6.657897960E-3,-2.729738131E-2,1.677790284E-2
4.425836522E0,8.788425475E-3,-2.729738131E-2,1.677790284E-2
4.428324282E0,9.853689000E-3,-2.729738131E-2,1.677790284E-2
4.430812043E0,1.091895252E-2,-2.836264484E-2,1.784316637E-2
4.433299803E0,1.198421605E-2,-2.836264484E-2,1.890842989E-2
4.435787564E0,1.304947957E-2,-2.729738131E-2,1.784316637E-2
4.438275324E0,1.518000662E-2,-2.729738131E-2,1.677790284E-2
4.440763084E0,1.624527015E-2,-2.623211779E-2,1.677790284E-2
4.443250845E0,1.837579720E-2,-2.410159074E-2,1.571263932E-2
4.445738605E0,2.050632425E-2,-2.303632535E-2,1.464737486E-2
4.448226366E0,2.263685316E-2,-2.197106183E-2,1.464737486E-2
4.450714126E0,2.476738021E-2,-1.877527125E-2,1.251684781E-2
4.453201887E0,2.583264373E-2,-1.557948068E-2,1.145158429E-2
4.455689647E0,2.689790726E-2,-1.238369010E-2,9.321057238E-3
4.458177407E0,2.689790726E-2,-1.025316212E-2,7.190529723E-3
4.460665168E0,2.796317078E-2,-5.992108025E-3,6.125265732E-3
4.463152928E0,2.902843431E-2,-3.861580743E-3,3.994738683E-3
4.465640689E0,2.796317078E-2,-6.657897611E-4,7.989477599E-4
4.468128449E0,2.689790726E-2,2.530001104E-3,-2.663159103E-4
4.470616209E0,2.476738021E-2,3.595264861E-3,-2.396843163E-3
4.473103970E0,2.370211668E-2,4.660528619E-3,-4.527370445E-3
4.475591730E0,2.050632425E-2,5.725792143E-3,-4.527370445E-3
4.478079491E0,1.731053367E-2,6.791055668E-3,-5.592633970E-3
4.480567251E0,1.411474310E-2,7.856319658E-3,-6.657897960E-3
4.483055012E0,1.091895252E-2,7.856319658E-3,-6.657897960E-3
4.485542772E0,7.723161485E-3,6.791055668E-3,-7.723161485E-3
4.488030532E0,5.592633970E-3,6.791055668E-3,-7.723161485E-3
4.490518293E0,2.396843163E-3,7.856319658E-3,-7.723161485E-3
4.493006053E0,-7.989477599E-4,7.856319658E-3,-7.723161485E-3
4.495493814E0,-3.994738683E-3,7.856319658E-3,-7.723161485E-3
4.497981574E0,-6.125265732E-3,6.791055668E-3,-6.657897960E-3
4.500469334E0,-9.321057238E-3,6.791055668E-3,-6.657897960E-3
4.502957095E0,-1.145158429E-2,6.791055668E-3,-6.657897960E-3
4.505444855E0,-1.251684781E-2,5.725792143E-3,-6.657897960E-3
4.507932616E0,-1.358211134E-2,4.660528619E-3,-5.592633970E-3
4.510420376E0,-1.464737486E-2,4.660528619E-3,-5.592633970E-3
4.512908137E0,-1.571263932E-2,3.595264861E-3,-4.527370445E-3
4.515395897E0,-1.571263932E-2,3.595264861E-3,-3.462106921E-3
4.517883657E0,-1.571263932E-2,2.530001104E-3,-3.462106921E-3
4.520371418E0,-1.571263932E-2,2.530001104E-3,-2.396843163E-3
4.522859178E0,-1.358211134E-2,1.464737463E-3,-2.396843163E-3
4.525346939E0,-1.358211134E-2,3.994738800E-4,-2.396843163E-3
4.527834699E0,-1.251684781E-2,3.994738800E-4,-1.331579522E-3
4.530322459E0,-1.038632076E-2,-6.657897611E-4,-1.331579522E-3
4.532810220E0,-9.321057238E-3,-6.657897611E-4,-2.663159103E-4
4.535297980E0,-6.125265732E-3,-1.731053460E-3,-1.331579522E-3
4.537785741E0,-3.994738683E-3,-1.731053460E-3,-2.663159103E-4
4.540273501E0,-1.864211401E-3,-1.731053460E-3,-2.663159103E-4
4.542761262E0,2.663159103E-4,-2.796316985E-3,-2.663159103E-4
4.545249022E0,3.462106921E-3,-2.796316985E-3,-2.663159103E-4
4.547736782E0,5.592633970E-3,-3.861580743E-3,-2.663159103E-4
4.550224543E0,7.723161485E-3,-3.861580743E-3,-1.331579522E-3
4.552712303E0,9.853689000E-3,-5.992108025E-3,-2.396843163E-3
4.555200064E0,1.198421605E-2,-5.992108025E-3,-2.396843163E-3
4.557687824E0,1.304947957E-2,-8.122635074E-3,-3.462106921E-3
4.560175532E0,1.518000662E-2,-9.187898599E-3,-5.592633970E-3
4.562663241E0,1.624527015E-2,-1.131842658E-2,-6.657897960E-3
4.565150949E0,1.837579720E-2,-1.238369010E-2,-7.723161485E-3
4.567638657E0,1.944106072E-2,-1.344895363E-2,-8.788425475E-3
4.570126366E0,1.944106072E-2,-1.451421715E-2,-8.788425475E-3
4.572614074E0,1.944106072E-2,-1.557948068E-2,-9.853689000E-3
4.575101782E0,1.944106072E-2,-1.557948068E-2,-9.853689000E-3
4.577589491E0,1.837579720E-2,-1.664474420E-2,-9.853689000E-3
4.580077199E0,1.731053367E-2,-1.664474420E-2,-9.853689000E-3
4.582564907E0,1.624527015E-2,-1.557948068E-2,-9.853689000E-3
4.585052616E0,1.518000662E-2,-1.451421715E-2,-9.853689000E-3
4.587540324E0,1.411474310E-2,-1.344895363E-2,-9.853689000E-3
4.590028032E0,1.411474310E-2,-1.131842658E-2,-8.788425475E-3
4.592515741E0,1.411474310E-2,-1.025316212E-2,-7.723161485E-3
4.595003449E0,1.411474310E-2,-9.187898599E-3,-6.657897960E-3
4.597491157E0,1.304947957E-2,-5.992108025E-3,-5.592633970E-3
4.599978866E0,1.411474310E-2,-3.861580743E-3,-4.527370445E-3
4.602466574E0,1.304947957E-2,-2.796316985E-3,-2.396843163E-3
4.604954282E0,1.411474310E-2,3.994738800E-4,-1.331579522E-3
4.607441991E0,1.411474310E-2,2.530001104E-3,-2.663159103E-4
4.609929699E0,1.411474310E-2,4.660528619E-3,1.864211401E-3
4.612417407E0,1.411474310E-2,6.791055668E-3,2.929474926E-3
4.614905116E0,1.411474310E-2,9.986846708E-3,3.994738683E-3
4.617392824E0,1.411474310E-2,1.211737376E-2,5.060002208E-3
4.619880532E0,1.411474310E-2,1.424790081E-2,6.125265732E-3
4.622368241E0,1.304947957E-2,1.531316526E-2,8.255792782E-3
4.624855949E0,1.198421605E-2,1.744369231E-2,9.321057238E-3
4.627343657E0,1.198421605E-2,1.850895584E-2,9.321057238E-3
4.629831366E0,1.091895252E-2,1.850895584E-2,9.321057238E-3
4.632319126E0,9.853689000E-3,1.957421936E-2,9.321057238E-3
4.634806887E0,7.723161485E-3,1.957421936E-2,9.321057238E-3
4.637294647E0,6.657897960E-3,1.957421936E-2,8.255792782E-3
4.639782407E0,5.592633970E-3,1.850895584E-2,8.255792782E-3
4.642270168E0,4.527370445E-3,1.850895584E-2,7.190529723E-3
4.644757928E0,3.462106921E-3,1.744369231E-2,7.190529723E-3
4.647245689E0,1.331579522E-3,1.531316526E-2,6.125265732E-3
4.649733449E0,2.663159103E-4,1.318263728E-2,6.125265732E-3
4.652221209E0,-7.989477599E-4,1.211737376E-2,6.125265732E-3
4.654708970E0,-1.864211401E-3,9.986846708E-3,5.060002208E-3
4.657196730E0,-2.929474926E-3,8.921583183E-3,3.994738683E-3
4.659684491E0,-3.994738683E-3,6.791055668E-3,3.994738683E-3
4.662172251E0,-3.994738683E-3,4.660528619E-3,2.929474926E-3
4.664660012E0,-5.060002208E-3,2.530001104E-3,1.864211401E-3
4.667147772E0,-5.060002208E-3,3.994738800E-4,7.989477599E-4
4.669635532E0,-5.060002208E-3,-2.796316985E-3,7.989477599E-4
4.672123293E0,-3.994738683E-3,-4.926844500E-3,7.989477599E-4
4.674611053E0,-3.994738683E-3,-7.057371549E-3,-2.663159103E-4
4.677098814E0,-3.994738683E-3,-9.187898599E-3,-2.663159103E-4
4.679586574E0,-2.929474926E-3,-1.131842658E-2,-1.331579522E-3
4.682074334E0,-1.864211401E-3,-1.131842658E-2,-1.331579522E-3
4.684562095E0,-7.989477599E-4,-1.238369010E-2,-1.331579522E-3
4.687049855E0,2.663159103E-4,-1.238369010E-2,-2.396843163E-3
4.689537616E0,1.331579522E-3,-1.238369010E-2,-2.396843163E-3
4.692025376E0,3.462106921E-3,-1.238369010E-2,-2.396843163E-3
4.694513137E0,4.527370445E-3,-1.131842658E-2,-2.396843163E-3
4.697000897E0,5.592633970E-3,-9.187898599E-3,-2.396843163E-3
4.699488657E0,6.657897960E-3,-8.122635074E-3,-2.396843163E-3
4.701976418E0,7.723161485E-3,-8.122635074E-3,-2.396843163E-3
4.704464178E0,8.788425475E-3,-5.992108025E-3,-2.396843163E-3
4.706951939E0,9.853689000E-3,-5.992108025E-3,-2.396843163E-3
4.709439699E0,9.853689000E-3,-3.861580743E-3,-3.462106921E-3
4.711927459E0,1.091895252E-2,-2.796316985E-3,-2.396843163E-3
4.714415220E0,1.091895252E-2,-1.731053460E-3,-3.462106921E-3
4.716902980E0,1.091895252E-2,-6.657897611E-4,-3.462106921E-3
4.719390741E0,9.853689000E-3,3.994738800E-4,-3.462106921E-3
4.721878501E0,9.853689000E-3,1.464737463E-3,-3.462106921E-3
4.724366314E0,8.788425475E-3,2.530001104E-3,-3.462106921E-3
4.726854126E0,6.657897960E-3,3.595264861E-3,-3.462106921E-3
4.729341939E0,5.592633970E-3,4.660528619E-3,-3.462106921E-3
4.731829751E0,3.462106921E-3,6.791055668E-3,-4.527370445E-3
4.734317564E0,2.396843163E-3,7.856319658E-3,-4.527370445E-3
4.736805376E0,2.663159103E-4,8.921583183E-3,-4.527370445E-3
4.739293189E0,-1.864211401E-3,1.105211023E-2,-4.527370445E-3
4.741781001E0,-3.994738683E-3,1.211737376E-2,-3.462106921E-3
4.744268814E0,-7.190529723E-3,1.318263728E-2,-2.396843163E-3
4.746756626E0,-8.255792782E-3,1.318263728E-2,-1.331579522E-3
4.749244439E0,-1.038632076E-2,1.318263728E-2,-2.663159103E-4
4.751732251E0,-1.251684781E-2,1.424790081E-2,7.989477599E-4
4.754220064E0,-1.464737486E-2,1.424790081E-2,2.929474926E-3
4.756707876E0,-1.571263932E-2,1.318263728E-2,3.994738683E-3
4.759195637E0,-1.784316637E-2,1.211737376E-2,5.060002208E-3
4.761683345E0,-1.890842989E-2,1.105211023E-2,7.190529723E-3
4.764171053E0,-1.997369342E-2,9.986846708E-3,8.255792782E-3
4.766658762E0,-1.890842989E-2,8.921583183E-3,9.321057238E-3
4.769146470E0,-1.784316637E-2,7.856319658E-3,1.038632076E-2
4.771634178E0,-1.784316637E-2,5.725792143E-3,1.145158429E-2
4.774121887E0,-1.571263932E-2,3.595264861E-3,1.145158429E-2
4.776609595E0,-1.571263932E-2,1.464737463E-3,1.251684781E-2
4.779097303E0,-1.464737486E-2,3.994738800E-4,1.358211134E-2
4.781585012E0,-1.251684781E-2,-1.731053460E-3,1.358211134E-2
4.784072720E0,-1.038632076E-2,-3.861580743E-3,1.358211134E-2
4.786560428E0,-8.255792782E-3,-4.926844500E-3,1.251684781E-2
4.789048137E0,-6.125265732E-3,-7.057371549E-3,1.251684781E-2
4.791535845E0,-3.994738683E-3,-9.187898599E-3,1.251684781E-2
4.794023553E0,-1.864211401E-3,-1.131842658E-2,1.145158429E-2
4.796511262E0,-7.989477599E-4,-1.451421715E-2,1.038632076E-2
4.798998970E0,1.331579522E-3,-1.664474420E-2,1.038632076E-2
4.801486678E0,4.527370445E-3,-1.877527125E-2,1.038632076E-2
4.803974387E0,5.592633970E-3,-2.090579830E-2,9.321057238E-3
4.806462095E0,6.657897960E-3,-2.303632535E-2,1.038632076E-2
4.808949803E0,7.723161485E-3,-2.516685426E-2,1.038632076E-2
4.811437512E0,7.723161485E-3,-2.729738131E-2,9.321057238E-3
4.813925220E0,8.788425475E-3,-2.942790836E-2,9.321057238E-3
4.816412928E0,8.788425475E-3,-3.049317189E-2,9.321057238E-3
4.818900637E0,9.853689000E-3,-3.155843541E-2,9.321057238E-3
4.821388345E0,8.788425475E-3,-3.262370080E-2,1.038632076E-2
4.823876053E0,8.788425475E-3,-3.368896246E-2,1.251684781E-2
4.826363762E0,7.723161485E-3,-3.368896246E-2,1.251684781E-2
4.828851470E0,7.723161485E-3,-3.475422785E-2,1.358211134E-2
4.831339178E0,6.657897960E-3,-3.475422785E-2,1.571263932E-2
4.833826887E0,6.657897960E-3,-3.475422785E-2,1.571263932E-2
4.836314595E0,5.592633970E-3,-3.475422785E-2,1.784316637E-2
4.838802303E0,5.592633970E-3,-3.475422785E-2,1.890842989E-2
4.841290064E0,4.527370445E-3,-3.368896246E-2,1.890842989E-2
4.843777824E0,3.462106921E-3,-3.262370080E-2,1.997369342E-2
4.846265584E0,4.527370445E-3,-3.155843541E-2,2.103895694E-2
4.848753345E0,5.592633970E-3,-2.942790836E-2,2.103895694E-2
4.851241105E0,6.657897960E-3,-2.729738131E-2,2.210422046E-2
4.853728866E0,7.723161485E-3,-2.516685426E-2,2.210422046E-2
4.856216626E0,7.723161485E-3,-2.303632535E-2,2.103895694E-2
4.858704387E0,8.788425475E-3,-2.197106183E-2,2.103895694E-2
4.861192147E0,9.853689000E-3,-2.090579830E-2,2.103895694E-2
4.863679907E0,1.198421605E-2,-1.984053478E-2,2.103895694E-2
4.866167668E0,1.198421605E-2,-1.877527125E-2,2.103895694E-2
4.868655428E0,1.304947957E-2,-1.877527125E-2,2.210422046E-2
4.871143189E0,1.304947957E-2,-1.877527125E-2,2.316948399E-2
4.873630949E0,1.304947957E-2,-1.984053478E-2,2.423474751E-2
4.876118709E0,1.411474310E-2,-2.090579830E-2,2.530001104E-2
4.878606470E0,1.518000662E-2,-2.197106183E-2,2.743053809E-2
4.881094230E0,1.624527015E-2,-2.410159074E-2,2.849580161E-2
4.883581991E0,1.731053367E-2,-2.623211779E-2,2.956106514E-2
4.886069751E0,1.837579720E-2,-2.836264484E-2,3.169159219E-2
4.888557512E0,1.944106072E-2,-3.049317189E-2,3.275685757E-2
4.891045272E0,2.157158963E-2,-3.262370080E-2,3.382211924E-2
4.893533032E0,2.370211668E-2,-3.475422785E-2,3.382211924E-2
4.896020793E0,2.583264373E-2,-3.475422785E-2,3.382211924E-2
4.898508553E0,2.796317078E-2,-3.581948951E-2,3.275685757E-2
4.900996314E0,2.902843431E-2,-3.581948951E-2,3.169159219E-2
4.903484074E0,3.115896136E-2,-3.581948951E-2,2.956106514E-2
4.905971834E0,3.328948840E-2,-3.475422785E-2,2.743053809E-2
4.908459595E0,3.435475379E-2,-3.368896246E-2,2.530001104E-2
4.910947355E0,3.542001545E-2,-3.155843541E-2,2.210422046E-2
4.913435116E0,3.648528084E-2,-3.049317189E-2,1.784316637E-2
4.915922876E0,3.648528084E-2,-2.836264484E-2,1.464737486E-2
4.918410637E0,3.755054250E-2,-2.729738131E-2,1.145158429E-2
4.920898397E0,3.648528084E-2,-2.729738131E-2,8.255792782E-3
4.923386157E0,3.542001545E-2,-2.623211779E-2,5.060002208E-3
4.925873918E0,3.435475379E-2,-2.516685426E-2,7.989477599E-4
4.928361678E0,3.222422674E-2,-2.516685426E-2,-1.331579522E-3
4.930849439E0,3.115896136E-2,-2.516685426E-2,-3.462106921E-3
