"Time (s)","Gyroscope x (rad/s)","Gyroscope y (rad/s)","Gyroscope z (rad/s)","Absolute (rad/s)"
4.431958500E-2,-3.091927767E-1,-1.198421582E-3,4.965460002E-1,5.849440484E-1
4.680724100E-2,-3.422159553E-1,-2.463422157E-2,4.837628603E-1,5.930810315E-1
4.929484500E-2,-3.901528120E-1,-5.446160212E-2,4.635228515E-1,6.083080771E-1
5.178244900E-2,-4.285022914E-1,-7.363634557E-2,4.422175586E-1,6.201555404E-1
5.427005300E-2,-4.604602158E-1,-8.002793044E-2,4.198470414E-1,6.282512381E-1
5.675765800E-2,-4.828307331E-1,-7.257108390E-2,3.964112401E-1,6.289148991E-1
5.924526200E-2,-4.998749495E-1,-4.913528636E-2,3.697796464E-1,6.237196713E-1
6.173286600E-2,-5.147886276E-1,-1.331579551E-4,3.303648829E-1,6.116766341E-1
6.422047000E-2,-5.254412889E-1,6.165213138E-2,2.834932804E-1,6.002149394E-1
6.670807400E-2,-5.275717974E-1,1.255679578E-1,2.366216928E-1,5.916833096E-1
6.919567800E-2,-5.211802125E-1,1.852227151E-1,1.993374527E-1,5.879385071E-1
7.168328300E-2,-5.041360259E-1,2.363553643E-1,1.790974438E-1,5.848870705E-1
7.417088700E-2,-4.753738940E-1,2.747048736E-1,1.748363972E-1,5.762038462E-1
7.665849100E-2,-4.359591305E-1,3.055975139E-1,1.854890287E-1,5.637875342E-1
7.914609500E-2,-3.869570196E-1,3.247722387E-1,2.067943066E-1,5.458723544E-1
8.163369900E-2,-3.273022473E-1,3.354249001E-1,2.355564237E-1,5.245221191E-1
8.412130300E-2,-2.623211741E-1,3.354249001E-1,2.664490640E-1,5.023120203E-1
8.660890800E-2,-1.909485012E-1,3.258375227E-1,2.994722426E-1,4.819907109E-1
8.909651200E-2,-1.153147891E-1,3.066627681E-1,3.303648829E-1,4.652746606E-1
9.158411600E-2,-3.648528084E-2,2.821617126E-1,3.559312224E-1,4.556681280E-1
9.407172000E-2,4.234423116E-2,2.533995807E-1,3.793670237E-1,4.581743337E-1
9.655932400E-2,1.201084778E-1,2.214416862E-1,3.974764943E-1,4.705847749E-1
9.904692800E-2,1.978727281E-1,1.894837767E-1,4.123901725E-1,4.950993562E-1
1.015345330E-1,2.724411786E-1,1.585911214E-1,4.251733422E-1,5.292898171E-1
1.040221370E-1,3.427485824E-1,1.266332120E-1,4.347607195E-1,5.679167583E-1
1.065097410E-1,4.109254479E-1,9.361004084E-2,4.443480968E-1,6.124277873E-1
1.089973450E-1,4.759065211E-1,5.952160433E-2,4.560659826E-1,6.618353410E-1
1.114849490E-1,5.366265774E-1,2.969422378E-2,4.656533599E-1,7.111138320E-1
1.139725530E-1,5.930855274E-1,6.258423906E-3,4.731102288E-1,7.586981609E-1
1.164601580E-1,6.431529522E-1,-1.185105834E-2,4.784365296E-1,8.016780404E-1
1.189477620E-1,6.868287325E-1,-2.250369452E-2,4.795017838E-1,8.379511231E-1
1.214353660E-1,7.241129875E-1,-2.889527567E-2,4.784365296E-1,8.683755343E-1
1.239229700E-1,7.518098354E-1,-3.209106624E-2,4.741754830E-1,8.894325460E-1
1.264105740E-1,7.720498443E-1,-3.635212034E-2,4.677838981E-1,9.034402105E-1
1.288981780E-1,7.837677002E-1,-3.954791278E-2,4.592617750E-1,9.092729091E-1
1.313857830E-1,7.869635224E-1,-4.167843983E-2,4.496744275E-1,9.073344305E-1
1.338733870E-1,7.837677002E-1,-3.954791278E-2,4.379565120E-1,8.987000343E-1
1.363609910E-1,7.731150985E-1,-3.315633163E-2,4.262386262E-1,8.834509971E-1
1.388485950E-1,7.571361065E-1,-2.143843099E-2,4.145207107E-1,8.634478037E-1
1.413361990E-1,7.358308434E-1,-3.328948980E-3,4.028028250E-1,8.388731894E-1
1.438238030E-1,7.134603262E-1,1.797632314E-2,3.900196552E-1,8.133044428E-1
1.463114080E-1,6.900244951E-1,4.247738793E-2,3.772364855E-1,7.875566636E-1
1.487990120E-1,6.655234694E-1,7.017423958E-2,3.655185997E-1,7.625285300E-1
1.512866160E-1,6.420876384E-1,9.893636405E-2,3.548659384E-1,7.402666910E-1
1.537742200E-1,6.186518669E-1,1.287637353E-1,3.431480527E-1,7.190694111E-1
1.562618240E-1,5.962813497E-1,1.585911214E-1,3.335606754E-1,7.014023923E-1
1.587494280E-1,5.749760270E-1,1.873532385E-1,3.239732981E-1,6.860447256E-1
1.612370330E-1,5.547360182E-1,2.139848322E-1,3.154512048E-1,6.730757913E-1
1.637246370E-1,5.355613232E-1,2.395511568E-1,3.090596199E-1,6.631203030E-1
1.662122410E-1,5.185170770E-1,2.619217038E-1,3.026680350E-1,6.550350200E-1
1.686998450E-1,5.025381446E-1,2.810964286E-1,2.962764502E-1,6.475643010E-1
1.711874490E-1,4.854938984E-1,2.970753908E-1,2.888196111E-1,6.382592584E-1
1.736750530E-1,4.695149362E-1,3.077280223E-1,2.824280262E-1,6.284157868E-1
1.761626580E-1,4.546012580E-1,3.141196072E-1,2.749711871E-1,6.172054643E-1
1.786502620E-1,4.386222959E-1,3.141196072E-1,2.664490640E-1,6.017106861E-1
1.811378660E-1,4.237086177E-1,3.077280223E-1,2.568616867E-1,5.832696242E-1
1.836254700E-1,4.055991173E-1,2.960101366E-1,2.462090552E-1,5.592419367E-1
1.861130740E-1,3.885549009E-1,2.789659202E-1,2.355564237E-1,5.331826370E-1
1.886006780E-1,3.704454303E-1,2.576606572E-1,2.249037921E-1,5.041830489E-1
1.910882830E-1,3.502054214E-1,2.299637944E-1,2.163816839E-1,4.715381396E-1
1.935758870E-1,3.289001584E-1,2.001364082E-1,2.067943066E-1,4.370283530E-1
1.960634910E-1,3.075948656E-1,1.692437679E-1,1.982721984E-1,4.031996019E-1
1.985511470E-1,2.841590643E-1,1.351553202E-1,1.886848211E-1,3.668995722E-1
2.010388030E-1,2.607232630E-1,1.021321490E-1,1.801627129E-1,3.329657623E-1
2.035264600E-1,2.362222075E-1,6.697845459E-2,1.705753356E-1,2.989698812E-1
2.060141160E-1,2.127864063E-1,3.502054140E-2,1.609879732E-1,2.691126540E-1
2.085017720E-1,1.893506050E-1,6.258423906E-3,1.524658650E-1,2.431844146E-1
2.109894280E-1,1.659148186E-1,-2.143843099E-2,1.439437568E-1,2.206969381E-1
2.134770850E-1,1.435442716E-1,-4.380896688E-2,1.354216337E-1,2.021464874E-1
2.159647410E-1,1.211737394E-1,-6.191844866E-2,1.279647946E-1,1.867938920E-1
2.184523970E-1,1.019989923E-1,-7.470161468E-2,1.215732098E-1,1.753971807E-1
2.209400530E-1,8.388951421E-2,-8.215846121E-2,1.141163707E-1,1.637376237E-1
2.234277100E-1,6.791055948E-2,-8.535424620E-2,1.087900475E-1,1.540534513E-1
2.259153660E-1,5.512739345E-2,-8.428898454E-2,1.045289934E-1,1.451549960E-1
2.284030220E-1,4.554001987E-2,-7.896266878E-2,1.013332009E-1,1.362989878E-1
2.308906780E-1,3.701791167E-2,-7.257108390E-2,9.813741595E-2,1.275454445E-1
2.333783350E-1,3.382211924E-2,-6.404897571E-2,9.707214683E-2,1.211165089E-1
2.358659910E-1,3.169159219E-2,-5.552686751E-2,9.813741595E-2,1.171261817E-1
2.383536470E-1,3.275685757E-2,-4.487423226E-2,9.813741595E-2,1.127726068E-1
2.408413030E-1,3.701791167E-2,-3.422159329E-2,9.813741595E-2,1.103285803E-1
2.433289600E-1,4.234423116E-2,-2.356895804E-2,9.813741595E-2,1.094508205E-1
2.458166160E-1,4.873581231E-2,-1.291632187E-2,9.920267761E-2,1.112797467E-1
2.483042720E-1,5.725792050E-2,-1.331579551E-4,9.813741595E-2,1.136197148E-1
2.507919280E-1,6.578002870E-2,1.158474199E-2,9.707214683E-2,1.178313206E-1
2.532795850E-1,7.643266767E-2,2.436790615E-2,9.600688517E-2,1.251122278E-1
2.557672410E-1,8.708529919E-2,3.715106845E-2,9.494162351E-2,1.340819268E-1
2.582548970E-1,9.773793817E-2,5.099949613E-2,9.387636185E-2,1.447978746E-1
2.607425530E-1,1.073253155E-1,6.484792382E-2,9.281109273E-2,1.560060111E-1
2.632302100E-1,1.169126853E-1,7.976161689E-2,9.281109273E-2,1.692465375E-1
2.657178660E-1,1.254348010E-1,9.574057162E-2,9.281109273E-2,1.830684170E-1
2.682055220E-1,1.328916401E-1,1.138500497E-1,9.600688517E-2,1.995979554E-1
2.706931780E-1,1.382179558E-1,1.319595277E-1,9.813741595E-2,2.148219558E-1
2.731808350E-1,1.414137483E-1,1.511342824E-1,1.023984700E-1,2.309217750E-1
2.756684910E-1,1.414137483E-1,1.703090221E-1,1.087900475E-1,2.466541823E-1
2.781561470E-1,1.382179558E-1,1.894837767E-1,1.151816323E-1,2.612950695E-1
2.806438030E-1,1.339569092E-1,2.075932473E-1,1.226384789E-1,2.758253185E-1
2.831314600E-1,1.265000552E-1,2.225069404E-1,1.290300637E-1,2.866362849E-1
2.856191160E-1,1.201084778E-1,2.363553643E-1,1.354216337E-1,2.977061027E-1
2.881067720E-1,1.137168929E-1,2.459427416E-1,1.407479644E-1,3.053348217E-1
2.905944280E-1,1.073253155E-1,2.523343265E-1,1.450090110E-1,3.101917938E-1
2.930820850E-1,1.041295230E-1,2.576606572E-1,1.492700726E-1,3.154576459E-1
2.955697410E-1,1.009337306E-1,2.597911656E-1,1.545963883E-1,3.187147800E-1
2.980573970E-1,1.009337306E-1,2.587259114E-1,1.588574350E-1,3.199412444E-1
3.005450530E-1,1.009337306E-1,2.555301189E-1,1.620532274E-1,3.189741497E-1
3.030327100E-1,1.030642539E-1,2.502037883E-1,1.652490199E-1,3.170668931E-1
3.055203660E-1,1.073253155E-1,2.427469492E-1,1.663142890E-1,3.132175720E-1
3.080080220E-1,1.105211005E-1,2.352901101E-1,1.652490199E-1,3.080317973E-1
3.104956780E-1,1.158474237E-1,2.267680019E-1,1.620532274E-1,3.018370434E-1
3.129832830E-1,1.222390011E-1,2.182458937E-1,1.567269117E-1,2.951897159E-1
3.154708870E-1,1.286305785E-1,2.086585164E-1,1.492700726E-1,2.869943497E-1
3.179584910E-1,1.371526867E-1,1.990711391E-1,1.386174262E-1,2.786664112E-1
3.204460950E-1,1.467400640E-1,1.905490309E-1,1.268995255E-1,2.719284265E-1
3.229336990E-1,1.552621722E-1,1.830921918E-1,1.141163707E-1,2.658037601E-1
3.254213030E-1,1.648495495E-1,1.788311303E-1,1.002679393E-1,2.630771879E-1
3.279089080E-1,1.744369268E-1,1.756353378E-1,8.641951531E-2,2.621914300E-1
3.303965120E-1,1.829590350E-1,1.735048145E-1,7.257108390E-2,2.623823382E-1
3.328841160E-1,1.925463974E-1,1.735048145E-1,5.872265995E-2,2.657562541E-1
3.353717200E-1,2.031990439E-1,1.756353378E-1,4.700475931E-2,2.726665926E-1
3.378593240E-1,2.127864063E-1,1.777658761E-1,3.848264739E-2,2.799279828E-1
3.403469280E-1,2.234390527E-1,1.809616536E-1,2.996053919E-2,2.890843549E-1
3.428345330E-1,2.330264151E-1,1.862879843E-1,2.250369452E-2,2.991837888E-1
3.453221370E-1,2.426137924E-1,1.926795542E-1,1.824264042E-2,3.103540830E-1
3.478097410E-1,2.522011697E-1,2.012016773E-1,1.398158539E-2,3.229288307E-1
3.502973450E-1,2.607232630E-1,2.129195631E-1,1.291632187E-2,3.368652425E-1
3.527849490E-1,2.681801319E-1,2.288985252E-1,1.291632187E-2,3.528199957E-1
3.552725530E-1,2.735064328E-1,2.491385341E-1,1.611211337E-2,3.703179419E-1
3.577601580E-1,2.767022252E-1,2.725743353E-1,2.037316747E-2,3.889420981E-1
3.602477620E-1,2.788327634E-1,3.002711833E-1,2.783001214E-2,4.107127987E-1
3.627353660E-1,2.809632719E-1,3.311638236E-1,3.741738573E-2,4.359012491E-1
3.652229700E-1,2.820285559E-1,3.652522564E-1,4.807002097E-2,4.639612527E-1
3.677105740E-1,2.841590643E-1,4.014712274E-1,6.298371404E-2,4.958754566E-1
3.701981780E-1,2.862896025E-1,4.419512451E-1,7.789740711E-2,5.323069092E-1
3.726857830E-1,2.905506492E-1,4.866923392E-1,9.387636185E-2,5.745449365E-1
3.751733870E-1,2.948117256E-1,5.314334035E-1,1.119858399E-1,6.179613615E-1
3.776609910E-1,3.001380265E-1,5.761744976E-1,1.311605871E-1,6.627691802E-1
3.801485950E-1,3.075948656E-1,6.209155321E-1,1.514005959E-1,7.092762789E-1
3.826361990E-1,3.182475269E-1,6.635261178E-1,1.716406047E-1,7.556513049E-1
3.851238030E-1,3.299654126E-1,7.050713897E-1,1.929458827E-1,8.020168026E-1
3.876114080E-1,3.427485824E-1,7.476819158E-1,2.142511457E-1,8.499461108E-1
3.900990120E-1,3.576622605E-1,7.934882641E-1,2.366216928E-1,9.019621629E-1
3.925866160E-1,3.757717609E-1,8.392946124E-1,2.600574791E-1,9.556410180E-1
3.950742200E-1,3.981422782E-1,8.872314692E-1,2.845585644E-1,1.013247517E0
3.975618240E-1,4.226433635E-1,9.362335801E-1,3.101248741E-1,1.073004272E0
4.000494280E-1,4.524707198E-1,9.799094200E-1,3.356912136E-1,1.130327747E0
4.025370330E-1,4.897549450E-1,1.013997793E0,3.601922691E-1,1.182281651E0
4.050246370E-1,5.313002467E-1,1.039564133E0,3.825628161E-1,1.228547047E0
4.075122410E-1,5.771065950E-1,1.055543065E0,3.996070325E-1,1.267639130E0
4.099998450E-1,6.271739602E-1,1.058738947E0,4.123901725E-1,1.297821632E0
4.124874490E-1,6.772413850E-1,1.048086286E0,4.198470414E-1,1.316591164E0
4.149750530E-1,7.283740044E-1,1.027846217E0,4.209122956E-1,1.328218241E0
4.174626580E-1,7.752456069E-1,9.958883524E-1,4.166512489E-1,1.329058924E0
4.199502620E-1,8.178561330E-1,9.564735889E-1,4.081291258E-1,1.322988951E0
4.224378660E-1,8.530098796E-1,9.138630629E-1,3.942807019E-1,1.310812276E0
4.249254700E-1,8.807067275E-1,8.669914603E-1,3.761712313E-1,1.291829450E0
4.274130740E-1,9.009467363E-1,8.179892898E-1,3.548659384E-1,1.267573009E0
4.299006780E-1,9.137299061E-1,7.679219246E-1,3.324954212E-1,1.239015589E0
4.323883350E-1,9.179909229E-1,7.167892456E-1,3.090596199E-1,1.204994608E0
4.348759910E-1,9.158604145E-1,6.635261178E-1,2.856238186E-1,1.166468248E0
4.373636470E-1,9.062730670E-1,6.091976166E-1,2.611227632E-1,1.122781237E0
4.398513030E-1,8.902940750E-1,5.538039207E-1,2.408827394E-1,1.075800547E0
4.423389600E-1,8.700540662E-1,4.994754791E-1,2.227732539E-1,1.027666169E0
4.448266160E-1,8.455530405E-1,4.504733682E-1,2.121206224E-1,9.812651824E-1
4.473142720E-1,8.167908788E-1,4.110586047E-1,2.067943066E-1,9.374862140E-1
4.498019280E-1,7.848330140E-1,3.812312186E-1,2.110553533E-1,8.976884003E-1
4.522895850E-1,7.518098354E-1,3.631217480E-1,2.217079997E-1,8.638459756E-1
4.547772410E-1,7.187866569E-1,3.545996249E-1,2.387522161E-1,8.363000495E-1
4.572648970E-1,6.889592409E-1,3.535343707E-1,2.589922249E-1,8.165343590E-1
4.597525530E-1,6.633929610E-1,3.567301631E-1,2.802974880E-1,8.036873221E-1
4.622402100E-1,6.420876384E-1,3.716438413E-1,3.016027808E-1,8.008494974E-1
4.647278660E-1,6.250434518E-1,3.897533417E-1,3.239732981E-1,8.047022318E-1
4.672155220E-1,6.154560447E-1,4.067975581E-1,3.442133069E-1,8.140965525E-1
4.697031780E-1,6.154560447E-1,4.206459820E-1,3.623228073E-1,8.288588552E-1
4.721908350E-1,6.239781976E-1,4.312986135E-1,3.783017397E-1,8.476316956E-1
4.746784910E-1,6.410223842E-1,4.376901984E-1,3.953459561E-1,8.710802671E-1
4.771661470E-1,6.633929610E-1,4.398207366E-1,4.123901725E-1,8.964363644E-1
4.796538030E-1,6.910898089E-1,4.408859909E-1,4.294344187E-1,9.254185544E-1
4.821414600E-1,7.187866569E-1,4.398207366E-1,4.486091435E-1,9.546448041E-1
4.846291160E-1,7.486140132E-1,4.376901984E-1,4.656533599E-1,9.842909642E-1
4.871167720E-1,7.763108611E-1,4.323638678E-1,4.837628603E-1,1.011742839E0
4.896044280E-1,8.008119464E-1,4.238417745E-1,4.997417927E-1,1.034738364E0
4.920920850E-1,8.221172094E-1,4.131891429E-1,5.125249624E-1,1.053225432E0
4.945797410E-1,8.402267098E-1,3.972101808E-1,5.231776237E-1,1.066523173E0
4.970673970E-1,8.551403880E-1,3.791007102E-1,5.285038948E-1,1.074382985E0
4.995550530E-1,8.668583035E-1,3.588607013E-1,5.306344628E-1,1.077866993E0
5.020427100E-1,8.764456511E-1,3.375554085E-1,5.306344628E-1,1.078737024E0
5.045303660E-1,8.817719817E-1,3.173153996E-1,5.306344628E-1,1.076932599E0
5.070180220E-1,8.860330582E-1,2.992059290E-1,5.295692086E-1,1.074719645E0
5.095056780E-1,8.881635666E-1,2.832269669E-1,5.285038948E-1,1.071619523E0
5.119933350E-1,8.902940750E-1,2.693785429E-1,5.295692086E-1,1.070341948E0
5.144809910E-1,8.902940750E-1,2.565953732E-1,5.316997170E-1,1.068255267E0
5.169686470E-1,8.892288208E-1,2.459427416E-1,5.359607935E-1,1.066990956E0
5.194563030E-1,8.860330582E-1,2.352901101E-1,5.423523784E-1,1.065158260E0
5.219439600E-1,8.828372359E-1,2.267680019E-1,5.519397259E-1,1.065580956E0
5.244316160E-1,8.764456511E-1,2.203764170E-1,5.604618192E-1,1.063409702E0
5.269192720E-1,8.689888120E-1,2.161153555E-1,5.700492263E-1,1.061510020E0
5.294069280E-1,8.615319729E-1,2.150501013E-1,5.796365738E-1,1.060406735E0
5.318945850E-1,8.508793116E-1,2.150501013E-1,5.913544893E-1,1.058273254E0
5.343822410E-1,8.412919641E-1,2.193111479E-1,6.020070910E-1,1.057488575E0
5.368698970E-1,8.306393027E-1,2.257027328E-1,6.137250066E-1,1.057147936E0
5.393575530E-1,8.189214468E-1,2.331595868E-1,6.243776679E-1,1.055861355E0
5.418452100E-1,8.072035313E-1,2.384859025E-1,6.350302696E-1,1.054379680E0
5.443328660E-1,7.954856157E-1,2.438122183E-1,6.456829309E-1,1.053161056E0
5.468205220E-1,7.816371918E-1,2.459427416E-1,6.563355327E-1,1.049867069E0
5.493081780E-1,7.656582594E-1,2.470080107E-1,6.669881940E-1,1.045044869E0
5.517958350E-1,7.486140132E-1,2.448774725E-1,6.765755415E-1,1.038336352E0
5.542834910E-1,7.283740044E-1,2.395511568E-1,6.861629486E-1,1.028947539E0
5.567711470E-1,7.081339955E-1,2.320943177E-1,6.936197877E-1,1.018052031E0
5.592588030E-1,6.868287325E-1,2.214416862E-1,7.000113726E-1,1.005378560E0
5.617464600E-1,6.633929610E-1,2.075932473E-1,7.042724490E-1,9.895376999E-1
5.642341160E-1,6.399571300E-1,1.926795542E-1,7.074682117E-1,9.732326594E-1
5.667217720E-1,6.175866127E-1,1.745700836E-1,7.074682117E-1,9.551959007E-1
5.692094280E-1,5.952160358E-1,1.564605981E-1,7.074682117E-1,9.376957495E-1
5.716970850E-1,5.728455186E-1,1.362205893E-1,7.053377032E-1,9.188086377E-1
5.741846890E-1,5.494097471E-1,1.159805804E-1,7.000113726E-1,8.973953906E-1
5.766722930E-1,5.270391703E-1,9.254477918E-2,6.946850419E-1,8.768820506E-1
5.791598970E-1,5.057339072E-1,6.910897791E-2,6.872282028E-1,8.560522405E-1
5.816475010E-1,4.844286442E-1,4.673844203E-2,6.776408553E-1,8.342977418E-1
5.841351060E-1,4.641886353E-1,2.436790615E-2,6.669881940E-1,8.129810176E-1
5.866227100E-1,4.450138807E-1,5.193160381E-3,6.542050242E-1,7.912322900E-1
5.891103140E-1,4.290349185E-1,-1.291632187E-2,6.403566003E-1,7.709049022E-1
5.915979180E-1,4.151864946E-1,-2.783001214E-2,6.275734305E-1,7.529958470E-1
5.940855220E-1,4.034686089E-1,-4.167843983E-2,6.169208288E-1,7.383192532E-1
5.965731260E-1,3.928159773E-1,-5.020054802E-2,6.094639897E-1,7.268224280E-1
5.990607310E-1,3.842938542E-1,-5.446160212E-2,6.052029133E-1,7.189703740E-1
6.015483350E-1,3.789675534E-1,-5.339634046E-2,6.052029133E-1,7.160573594E-1
6.040359390E-1,3.757717609E-1,-4.700475931E-2,6.094639897E-1,7.175376077E-1
6.065235430E-1,3.757717609E-1,-3.315633163E-2,6.169208288E-1,7.231148371E-1
6.090111470E-1,3.779022694E-1,-1.291632187E-2,6.286386847E-1,7.335963144E-1
6.114987510E-1,3.842938542E-1,1.371526904E-2,6.414218545E-1,7.478581887E-1
6.139863560E-1,3.938812315E-1,4.354264960E-2,6.552702785E-1,7.657790313E-1
6.164739600E-1,4.077296555E-1,7.976161689E-2,6.701840162E-1,7.885125257E-1
6.189615640E-1,4.237086177E-1,1.213068962E-1,6.840324402E-1,8.137227630E-1
6.214491680E-1,4.407528341E-1,1.703090221E-1,6.978808641E-1,8.427964904E-1
6.239367720E-1,4.588623047E-1,2.235722095E-1,7.117292881E-1,8.758411540E-1
6.264243760E-1,4.791023135E-1,2.800311744E-1,7.223818898E-1,9.109292400E-1
6.289119810E-1,5.014728308E-1,3.386206925E-1,7.309040427E-1,9.488728540E-1
6.313995850E-1,5.249086618E-1,4.004059732E-1,7.351650596E-1,9.880899309E-1
6.338871890E-1,5.504750013E-1,4.632565379E-1,7.351650596E-1,1.028638426E0
6.363747930E-1,5.739107728E-1,5.250418186E-1,7.330345511E-1,1.068822782E0
6.388623970E-1,5.994771123E-1,5.878923535E-1,7.255777121E-1,1.109708630E0
6.413500010E-1,6.250434518E-1,6.496776342E-1,7.159903049E-1,1.151261248E0
6.438376060E-1,6.506097913E-1,7.082671523E-1,7.010766268E-1,1.190144485E0
6.463252100E-1,6.751108170E-1,7.625955939E-1,6.861629486E-1,1.228066060E0
6.488128140E-1,6.974813938E-1,8.126630187E-1,6.680534482E-1,1.262219033E0
6.513004180E-1,7.187866569E-1,8.563387990E-1,6.488786936E-1,1.292677050E0
6.537880220E-1,7.390266657E-1,8.904272318E-1,6.286386847E-1,1.316893186E0
6.562756260E-1,7.571361065E-1,9.170588255E-1,6.062681675E-1,1.334845708E0
6.587632310E-1,7.731150985E-1,9.330378175E-1,5.838976502E-1,1.345066166E0
6.612508350E-1,7.869635224E-1,9.415599108E-1,5.615270734E-1,1.349503355E0
6.637384390E-1,7.986814380E-1,9.415599108E-1,5.391565561E-1,1.347262742E0
6.662260430E-1,8.072035313E-1,9.319725037E-1,5.167860389E-1,1.336868766E0
6.687136470E-1,8.135951161E-1,9.138630629E-1,4.944154918E-1,1.319670182E0
6.712012510E-1,8.178561330E-1,8.861662149E-1,4.731102288E-1,1.295381219E0
6.736888560E-1,8.189214468E-1,8.510124683E-1,4.518049359E-1,1.264508702E0
6.761765120E-1,8.178561330E-1,8.073366880E-1,4.336954653E-1,1.228321187E0
6.786641680E-1,8.157256246E-1,7.593998313E-1,4.187817574E-1,1.190577406E0
6.811518240E-1,8.125298619E-1,7.072018981E-1,4.059986174E-1,1.151162099E0
6.836394810E-1,8.082687855E-1,6.518082023E-1,3.964112401E-1,1.111437913E0
6.861271370E-1,8.040077090E-1,5.974797606E-1,3.889544010E-1,1.074567814E0
6.886147930E-1,7.976161242E-1,5.431513190E-1,3.836280704E-1,1.038448522E0
6.911024490E-1,7.901592851E-1,4.909533858E-1,3.793670237E-1,1.004642355E0
6.935901060E-1,7.816371918E-1,4.419512451E-1,3.772364855E-1,9.739532682E-1
6.960777620E-1,7.731150985E-1,3.961449265E-1,3.772364855E-1,9.470718686E-1
6.985654180E-1,7.624624372E-1,3.545996249E-1,3.783017397E-1,9.220640261E-1
7.010530740E-1,7.539403439E-1,3.173153996E-1,3.804322779E-1,9.021329298E-1
7.035407310E-1,7.443529963E-1,2.853575051E-1,3.836280704E-1,8.846811772E-1
7.060283870E-1,7.358308434E-1,2.597911656E-1,3.889544010E-1,8.719082555E-1
7.085160430E-1,7.273087502E-1,2.384859025E-1,3.953459561E-1,8.614824251E-1
7.110036990E-1,7.209171653E-1,2.235722095E-1,4.017375410E-1,8.550433579E-1
7.134913560E-1,7.145255804E-1,2.139848322E-1,4.091944098E-1,8.507504796E-1
7.159790120E-1,7.102645040E-1,2.075932473E-1,4.166512489E-1,8.492166303E-1
7.184666680E-1,7.070687413E-1,2.043974549E-1,4.241080880E-1,8.494658291E-1
7.209543240E-1,7.060034871E-1,2.043974549E-1,4.315649271E-1,8.523306457E-1
7.234419810E-1,7.060034871E-1,2.086585164E-1,4.400870502E-1,8.577038603E-1
7.259296370E-1,7.091992497E-1,2.161153555E-1,4.475438893E-1,8.660051706E-1
7.284172930E-1,7.123950720E-1,2.257027328E-1,4.581965208E-1,8.765800100E-1
7.309049490E-1,7.187866569E-1,2.384859025E-1,4.688491523E-1,8.907015838E-1
7.333926060E-1,7.273087502E-1,2.555301189E-1,4.795017838E-1,9.078522019E-1
7.358802620E-1,7.400919199E-1,2.747048736E-1,4.922849536E-1,9.303457922E-1
7.383679180E-1,7.539403439E-1,2.981406748E-1,5.061333776E-1,9.557640399E-1
7.408555740E-1,7.709845304E-1,3.237069845E-1,5.210470557E-1,9.852377339E-1
7.433432310E-1,7.922898531E-1,3.514038324E-1,5.380913019E-1,1.020171610E0
7.458308870E-1,8.167908788E-1,3.822965026E-1,5.562008023E-1,1.059555231E0
7.483185430E-1,8.444877267E-1,4.163849354E-1,5.753754973E-1,1.103445920E0
7.508061990E-1,8.764456511E-1,4.515386224E-1,5.956155062E-1,1.151868889E0
7.532938560E-1,9.115993381E-1,4.888228476E-1,6.158555150E-1,1.203843489E0
7.557815120E-1,9.499488473E-1,5.282375813E-1,6.350302696E-1,1.258849156E0
7.582691680E-1,9.914941192E-1,5.676523447E-1,6.542050242E-1,1.316538638E0
7.607568240E-1,1.035169959E0,6.091976166E-1,6.733797789E-1,1.377003597E0
7.632444810E-1,1.080976248E0,6.507429481E-1,6.925545335E-1,1.439308103E0
7.657321370E-1,1.127847910E0,6.922882199E-1,7.095987201E-1,1.501610546E0
7.682197930E-1,1.175784707E0,7.327682376E-1,7.266429663E-1,1.564426083E0
7.707074490E-1,1.223721623E0,7.743135095E-1,7.436871529E-1,1.627920945E0
7.731951060E-1,1.272723794E0,8.147935271E-1,7.607313991E-1,1.691870742E0
7.756827620E-1,1.320660591E0,8.542082906E-1,7.767103314E-1,1.754165083E0
7.781704180E-1,1.367532253E0,8.925577998E-1,7.926893234E-1,1.815257627E0
7.806580740E-1,1.411208034E0,9.309072495E-1,8.076030016E-1,1.873584540E0
7.831457310E-1,1.454883814E0,9.681915045E-1,8.214514256E-1,1.931026708E0
7.856333870E-1,1.495363832E0,1.004410505E0,8.342345953E-1,1.985170222E0
7.881210430E-1,1.531582832E0,1.037433624E0,8.470177650E-1,2.034564718E0
7.906086990E-1,1.565671206E0,1.070456743E0,8.566051126E-1,2.081099777E0
7.930963560E-1,1.596563935E0,1.103479981E0,8.661925197E-1,2.125317376E0
7.955840120E-1,1.623195529E0,1.133307338E0,8.736493587E-1,2.163888271E0
7.980716680E-1,1.646631241E0,1.161004186E0,8.811061978E-1,2.199016438E0
8.005593240E-1,1.666871309E0,1.187635779E0,8.874977827E-1,2.230827430E0
8.030469810E-1,1.682850242E0,1.212136865E0,8.928241134E-1,2.257962713E0
8.055346370E-1,1.696698666E0,1.234507442E0,8.992156982E-1,2.282845561E0
8.080222930E-1,1.708416581E0,1.255812645E0,9.045419693E-1,2.305200379E0
8.105099490E-1,1.719069242E0,1.273922205E0,9.098683000E-1,2.325067132E0
8.129976060E-1,1.726526022E0,1.290966392E0,9.173251390E-1,2.342855467E0
8.154852620E-1,1.732917666E0,1.305880070E0,9.247819781E-1,2.358717470E0
8.179729180E-1,1.738243937E0,1.317597985E0,9.333041310E-1,2.372469818E0
8.204605740E-1,1.742504954E0,1.328250647E0,9.439567327E-1,2.385713229E0
8.229482310E-1,1.746766090E0,1.335707426E0,9.546093941E-1,2.397203620E0
8.254358870E-1,1.749961853E0,1.341033816E0,9.673925638E-1,2.407610134E0
8.279235430E-1,1.753157616E0,1.343164325E0,9.823062420E-1,2.417142441E0
8.304111990E-1,1.757418633E0,1.344229579E0,9.982851744E-1,2.427353847E0
8.328988560E-1,1.762745023E0,1.343164325E0,1.016394615E0,2.438117805E0
8.353865120E-1,1.768071294E0,1.339968443E0,1.036634684E0,2.448714560E0
8.378741680E-1,1.774462938E0,1.334642172E0,1.056874633E0,2.459059258E0
8.403618240E-1,1.782984972E0,1.330381155E0,1.077114701E0,2.471664522E0
8.428494810E-1,1.792572379E0,1.325054765E0,1.097354650E0,2.484607231E0
8.453371370E-1,1.803225040E0,1.321859002E0,1.116529465E0,2.499113806E0
8.478247930E-1,1.817073464E0,1.318663239E0,1.134638906E0,2.515558419E0
8.503124490E-1,1.830921888E0,1.315467477E0,1.151683211E0,2.531620798E0
8.528000530E-1,1.845835567E0,1.313336968E0,1.166596889E0,2.548119156E0
8.552876580E-1,1.860749245E0,1.310141087E0,1.178314686E0,2.562671051E0
8.577752620E-1,1.875662923E0,1.306945324E0,1.188967347E0,2.576792741E0
8.602628660E-1,1.887380838E0,1.302684307E0,1.197489500E0,2.587116916E0
8.627504700E-1,1.896968246E0,1.297357917E0,1.202815771E0,2.593914391E0
8.652380740E-1,1.904425025E0,1.292031646E0,1.207076907E0,2.598694886E0
8.677256780E-1,1.908686161E0,1.283509493E0,1.210272670E0,2.599084342E0
8.702132830E-1,1.911881924E0,1.273922205E0,1.210272670E0,2.596715273E0
8.727008870E-1,1.911881924E0,1.260073781E0,1.210272670E0,2.589949490E0
8.751884910E-1,1.908686161E0,1.244094729E0,1.208142161E0,2.578848976E0
8.776760950E-1,1.902294517E0,1.224920034E0,1.203881025E0,2.562905196E0
8.801636990E-1,1.892707229E0,1.203614712E0,1.198554754E0,2.543140288E0
8.826513030E-1,1.879924059E0,1.178048372E0,1.192163229E0,2.518564194E0
8.851389080E-1,1.862879753E0,1.148221016E0,1.182575822E0,2.487411918E0
8.876265120E-1,1.842639804E0,1.114132643E0,1.170857906E0,2.451024526E0
8.901141160E-1,1.817073464E0,1.077913642E0,1.157009482E0,2.408801515E0
8.926017200E-1,1.788311362E0,1.037433624E0,1.141030550E0,2.361414146E0
8.950893240E-1,1.754222870E0,9.958883524E-1,1.122920990E0,2.308688597E0
8.975769280E-1,1.715873361E0,9.511472583E-1,1.104811549E0,2.251557473E0
9.000645330E-1,1.674328089E0,9.053409100E-1,1.084571600E0,2.190733272E0
9.025521370E-1,1.629587054E0,8.563387990E-1,1.064331532E0,2.126422281E0
9.050397410E-1,1.581650138E0,8.062714338E-1,1.044091582E0,2.059567434E0
9.075273450E-1,1.530517578E0,7.551387548E-1,1.022786260E0,1.989675936E0
9.100149490E-1,1.478319645E0,7.029408216E-1,1.001480937E0,1.918989015E0
9.125025530E-1,1.426121712E0,6.518082023E-1,9.801757336E-1,1.849167796E0
9.149901580E-1,1.371793270E0,6.006755233E-1,9.578051567E-1,1.777644109E0
9.174777620E-1,1.316399574E0,5.516734123E-1,9.343693852E-1,1.705959420E0
9.199653660E-1,1.262071133E0,5.048018098E-1,9.098683000E-1,1.635698241E0
9.224529700E-1,1.208807945E0,4.579302073E-1,8.843019605E-1,1.566175814E0
9.249405740E-1,1.155544758E0,4.121238589E-1,8.576703668E-1,1.496906216E0
9.274281780E-1,1.105477333E0,3.673827946E-1,8.289082646E-1,1.429733948E0
9.299157830E-1,1.056475163E0,3.247722387E-1,8.012114167E-1,1.365121427E0
9.324033870E-1,1.009603620E0,2.853575051E-1,7.724493146E-1,1.302845470E0
9.348909910E-1,9.648625255E-1,2.491385341E-1,7.436871529E-1,1.243422810E0
9.373785950E-1,9.233172536E-1,2.171806246E-1,7.159903049E-1,1.188412509E0
9.398662510E-1,8.839024901E-1,1.916143000E-1,6.914892793E-1,1.138488944E0
9.423539080E-1,8.466182947E-1,1.703090221E-1,6.691187024E-1,1.092468552E0
9.448415640E-1,8.103992939E-1,1.532648057E-1,6.478134394E-1,1.048760873E0
9.473292200E-1,7.773761153E-1,1.394163817E-1,6.307692528E-1,1.010752394E0
9.498168760E-1,7.475487590E-1,1.298290044E-1,6.158555150E-1,9.772219465E-1
9.523045330E-1,7.177214026E-1,1.223721579E-1,6.041376591E-1,9.460873469E-1
9.547921890E-1,6.889592409E-1,1.202416345E-1,5.924197435E-1,9.165609848E-1
9.572798450E-1,6.623276472E-1,1.202416345E-1,5.838976502E-1,8.911074171E-1
9.597675010E-1,6.388918757E-1,1.223721579E-1,5.764408112E-1,8.691615400E-1
9.622551580E-1,6.143907905E-1,1.266332120E-1,5.721797347E-1,8.490592810E-1
9.647428140E-1,5.930855274E-1,1.319595277E-1,5.689839721E-1,8.324100674E-1
9.672304700E-1,5.707150102E-1,1.362205893E-1,5.668534040E-1,8.158397229E-1
9.697181260E-1,5.494097471E-1,1.415469050E-1,5.668534040E-1,8.020033530E-1
9.722057830E-1,5.291697383E-1,1.436774284E-1,5.679186583E-1,7.894272720E-1
9.746934390E-1,5.078644156E-1,1.426121742E-1,5.700492263E-1,7.766727865E-1
9.771810950E-1,4.854938984E-1,1.372858584E-1,5.721797347E-1,7.628508249E-1
9.796687510E-1,4.631233811E-1,1.287637353E-1,5.743102431E-1,7.489296503E-1
9.821564080E-1,4.396875799E-1,1.170458421E-1,5.775060654E-1,7.352129981E-1
9.846440640E-1,4.162517786E-1,1.021321490E-1,5.807018280E-1,7.217417350E-1
9.871317200E-1,3.906854391E-1,8.295740932E-2,5.828323960E-1,7.065484031E-1
9.896193760E-1,3.651190996E-1,6.058686972E-2,5.860281587E-1,6.931173987E-1
9.921070330E-1,3.395527899E-1,3.821633384E-2,5.892239809E-1,6.811325018E-1
9.945946890E-1,3.118559420E-1,1.371526904E-2,5.913544893E-1,6.686870488E-1
9.970823450E-1,2.841590643E-1,-9.720530361E-3,5.924197435E-1,6.571164395E-1
9.995700010E-1,2.575274706E-1,-3.422159329E-2,5.913544893E-1,6.459037448E-1
1.002057658E0,2.298306376E-1,-5.659212917E-2,5.892239809E-1,6.349879453E-1
1.004545314E0,2.042642981E-1,-7.576687634E-2,5.849629045E-1,6.242164069E-1
1.007032970E0,1.797632426E-1,-9.281109273E-2,5.796365738E-1,6.139277482E-1
1.009520626E0,1.563274413E-1,-1.077247858E-1,5.732449889E-1,6.038648158E-1
1.012008283E0,1.360874325E-1,-1.194426864E-1,5.647228956E-1,5.930415613E-1
1.014495939E0,1.190432087E-1,-1.279647946E-1,5.562008023E-1,5.830142423E-1
1.016983595E0,1.041295230E-1,-1.343563795E-1,5.466133952E-1,5.724340994E-1
1.019471251E0,9.241162241E-2,-1.364869028E-1,5.380913019E-1,5.627706743E-1
1.021958908E0,8.495477587E-2,-1.332911104E-1,5.295692086E-1,5.526548478E-1
1.024446564E0,8.175898343E-2,-1.279647946E-1,5.221123695E-1,5.437470427E-1
1.026934220E0,8.175898343E-2,-1.183774248E-1,5.157207847E-1,5.354116863E-1
1.029421876E0,8.388951421E-2,-1.045289934E-1,5.114597082E-1,5.287294149E-1
1.031909533E0,8.921582997E-2,-8.855003864E-2,5.082638860E-1,5.235768821E-1
1.034397189E0,9.773793817E-2,-7.044056058E-2,5.061333776E-1,5.202745170E-1
1.036884845E0,1.083905771E-1,-4.913528636E-2,5.040028691E-1,5.178626127E-1
1.039372501E0,1.233042628E-1,-2.676474862E-2,5.029376149E-1,5.185234204E-1
1.041860158E0,1.392832249E-1,-4.394212738E-3,5.018723607E-1,5.208598586E-1
1.044347814E0,1.573926955E-1,2.010685205E-2,5.008070469E-1,5.253422164E-1
1.046835470E0,1.786979735E-1,4.354264960E-2,5.008070469E-1,5.335134734E-1
1.049323126E0,2.010685056E-1,6.804371625E-2,5.008070469E-1,5.439358322E-1
1.051810783E0,2.255695760E-1,9.147951752E-2,5.029376149E-1,5.587453626E-1
1.054298439E0,2.511359155E-1,1.149153188E-1,5.050681233E-1,5.756462349E-1
1.056786095E0,2.788327634E-1,1.372858584E-1,5.082638860E-1,5.957577483E-1
1.059273751E0,3.086601496E-1,1.596563905E-1,5.135902166E-1,6.201097980E-1
1.061761408E0,3.384875357E-1,1.798963994E-1,5.189165473E-1,6.451440997E-1
1.064249064E0,3.683148921E-1,1.990711391E-1,5.253081322E-1,6.717393928E-1
1.066736720E0,3.992075622E-1,2.161153555E-1,5.327649713E-1,6.999364537E-1
1.069224376E0,4.279696643E-1,2.331595868E-1,5.434176326E-1,7.299480460E-1
1.071712033E0,4.546012580E-1,2.491385341E-1,5.540702343E-1,7.587661942E-1
1.074199689E0,4.812328517E-1,2.629869580E-1,5.657881498E-1,7.879488741E-1
1.076687345E0,5.057339072E-1,2.757701278E-1,5.796365738E-1,8.171869468E-1
1.079175001E0,5.291697383E-1,2.864227593E-1,5.945502520E-1,8.459010646E-1
1.081662658E0,5.483444333E-1,2.938795984E-1,6.105292439E-1,8.716609396E-1
1.084150314E0,5.664539337E-1,3.013364673E-1,6.286386847E-1,8.982540406E-1
1.086637970E0,5.834981799E-1,3.098585606E-1,6.467481852E-1,9.245353798E-1
1.089125626E0,5.984118581E-1,3.162501454E-1,6.669881940E-1,9.502547855E-1
1.091613283E0,6.133255363E-1,3.215764761E-1,6.861629486E-1,9.748842164E-1
1.094100939E0,6.282392144E-1,3.290333152E-1,7.064029574E-1,1.000975810E0
1.096588595E0,6.442182064E-1,3.364901543E-1,7.255777121E-1,1.026988675E0
1.099076251E0,6.612623930E-1,3.482080400E-1,7.447524667E-1,1.055070153E0
1.101563908E0,6.804371476E-1,3.599259555E-1,7.628619075E-1,1.083743371E0
1.104051564E0,7.017424107E-1,3.748396337E-1,7.788408995E-1,1.113346446E0
1.106539220E0,7.262434959E-1,3.897533417E-1,7.926893234E-1,1.143544335E0
1.109026876E0,7.518098354E-1,4.057323039E-1,8.054724932E-1,1.174147635E0
1.111514533E0,7.816371918E-1,4.227765203E-1,8.161250949E-1,1.206547494E0
1.114002189E0,8.157256246E-1,4.398207366E-1,8.257125020E-1,1.241229919E0
1.116489845E0,8.498140574E-1,4.547344148E-1,8.352998495E-1,1.275418817E0
1.118977501E0,8.860330582E-1,4.664523304E-1,8.416914344E-1,1.308081353E0
1.121465158E0,9.243825078E-1,4.749744236E-1,8.502135277E-1,1.342738532E0
1.123952814E0,9.606015086E-1,4.824312627E-1,8.576703668E-1,1.375170404E0
1.126440470E0,9.989509583E-1,4.877575934E-1,8.640619516E-1,1.407982082E0
1.128928126E0,1.036235213E0,4.909533858E-1,8.683230281E-1,1.438333593E0
1.131415783E0,1.073519468E0,4.920186400E-1,8.736493587E-1,1.468941657E0
1.133903439E0,1.108673096E0,4.920186400E-1,8.768451214E-1,1.496694940E0
1.136391095E0,1.141696334E0,4.877575934E-1,8.789756894E-1,1.521175944E0
1.138878751E0,1.172588944E0,4.834965467E-1,8.800409436E-1,1.543763520E0
1.141366408E0,1.202416301E0,4.771049619E-1,8.811061978E-1,1.565178021E0
1.143854064E0,1.231178403E0,4.664523304E-1,8.821714520E-1,1.584804249E0
1.146341720E0,1.255679488E0,4.536691606E-1,8.843019605E-1,1.601417073E0
1.148829376E0,1.276984811E0,4.376901984E-1,8.874977827E-1,1.615523207E0
1.151317033E0,1.295094252E0,4.195807278E-1,8.917587996E-1,1.627436900E0
1.153804689E0,1.306812167E0,3.972101808E-1,8.981503844E-1,1.634688986E0
1.156292345E0,1.314269066E0,3.716438413E-1,9.034767151E-1,1.637587401E0
1.158780001E0,1.316399574E0,3.428817391E-1,9.088030457E-1,1.635970263E0
1.161267658E0,1.314269066E0,3.119890988E-1,9.151946306E-1,1.631631572E0
1.163755314E0,1.305746913E0,2.779006660E-1,9.205209613E-1,1.621592619E0
1.166242970E0,1.295094252E0,2.406164259E-1,9.269125462E-1,1.610693097E0
1.168730626E0,1.280180573E0,2.043974549E-1,9.322388172E-1,1.596781085E0
1.171218283E0,1.263136387E0,1.660479754E-1,9.375651479E-1,1.581807153E0
1.173705939E0,1.242896318E0,1.298290044E-1,9.428914785E-1,1.565468355E0
1.176193595E0,1.221591115E0,9.574057162E-2,9.492830634E-1,1.550028853E0
1.178681199E0,1.200285792E0,6.271740049E-2,9.567399025E-1,1.536219612E0
1.181168803E0,1.178980589E0,3.289001435E-2,9.641967416E-1,1.523401568E0
1.183656408E0,1.157675266E0,3.062632866E-3,9.727188349E-1,1.512085756E0
1.186144012E0,1.139565825E0,-2.569948509E-2,9.812409878E-1,1.504029458E0
1.188631616E0,1.122521520E0,-5.233107507E-2,9.897630811E-1,1.497472557E0
1.191119220E0,1.108673096E0,-7.576687634E-2,1.000415683E0,1.495235162E0
1.193606824E0,1.099085808E0,-9.600688517E-2,1.010003090E0,1.495765081E0
1.196094428E0,1.093759418E0,-1.130511016E-1,1.020655751E0,1.500276100E0
1.198582033E0,1.092694163E0,-1.258342713E-1,1.031308413E0,1.507783751E0
1.201069637E0,1.096955180E0,-1.364869028E-1,1.043026209E0,1.519816770E0
1.203557241E0,1.107607841E0,-1.428784877E-1,1.052613616E0,1.534667657E0
1.206044845E0,1.122521520E0,-1.482048035E-1,1.062201023E0,1.552510947E0
1.208532449E0,1.142761588E0,-1.492700726E-1,1.069657803E0,1.572371908E0
1.211020053E0,1.168327928E0,-1.482048035E-1,1.074984193E0,1.594536241E0
1.213507658E0,1.200285792E0,-1.428784877E-1,1.077114701E0,1.619035616E0
1.215995262E0,1.236504793E0,-1.354216337E-1,1.074984193E0,1.644042012E0
1.218482866E0,1.279115319E0,-1.247690022E-1,1.070723176E0,1.672767594E0
1.220970470E0,1.327052236E0,-1.098553166E-1,1.062201023E0,1.703351649E0
1.223458803E0,1.380315304E0,-9.068056941E-2,1.051548362E0,1.737598130E0
1.225946460E0,1.438904881E0,-6.724476814E-2,1.036634684E0,1.774705774E0
1.228434116E0,1.501755476E0,-4.167843983E-2,1.019590497E0,1.815646272E0
1.230921772E0,1.566736460E0,-1.291632187E-2,9.982851744E-1,1.857795267E0
1.233409428E0,1.633848071E0,1.691105962E-2,9.748494029E-1,1.902649958E0
1.235897085E0,1.700959682E0,4.886896908E-2,9.492830634E-1,1.948535438E0
1.238384689E0,1.768071294E0,8.295740932E-2,9.237167239E-1,1.996549678E0
1.240872293E0,1.834117651E0,1.170458421E-1,8.992156982E-1,2.046039139E0
1.243359897E0,1.893772483E0,1.500690132E-1,8.757798672E-1,2.091861683E0
1.245847501E0,1.949166179E0,1.809616536E-1,8.566051126E-1,2.136765834E0
1.248335106E0,1.996037722E0,2.107890397E-1,8.406261802E-1,2.176063184E0
1.250822710E0,2.034387350E0,2.406164259E-1,8.289082646E-1,2.209913362E0
1.253310314E0,2.063149452E0,2.693785429E-1,8.214514256E-1,2.236947229E0
1.255797918E0,2.081258774E0,2.960101366E-1,8.182556629E-1,2.255837409E0
1.258285522E0,2.088715792E0,3.183806837E-1,8.193209171E-1,2.266139158E0
1.260773126E0,2.085519791E0,3.343596160E-1,8.225166798E-1,2.266654548E0
1.263260731E0,2.069540977E0,3.460775316E-1,8.289082646E-1,2.256071459E0
1.265748335E0,2.042909384E0,3.535343707E-1,8.374303579E-1,2.236013172E0
1.268235939E0,2.005625010E0,3.567301631E-1,8.470177650E-1,2.206179318E0
1.270723543E0,1.958753467E0,3.556649089E-1,8.576703668E-1,2.167674129E0
1.273211147E0,1.901229262E0,3.503385782E-1,8.683230281E-1,2.119291086E0
1.275698751E0,1.836248159E0,3.428817391E-1,8.800409436E-1,2.064908534E0
1.278186356E0,1.765940785E0,3.322291076E-1,8.917587996E-1,2.006030108E0
1.280673960E0,1.690307140E0,3.215764761E-1,9.024114609E-1,1.942909186E0
1.283161564E0,1.611477613E0,3.087933064E-1,9.119988084E-1,1.877220081E0
1.285649168E0,1.531582832E0,2.970753908E-1,9.205209613E-1,1.811452070E0
1.288136772E0,1.451688051E0,2.842922211E-1,9.290430546E-1,1.746808880E0
1.290624376E0,1.373923779E0,2.715090811E-1,9.333041310E-1,1.682985541E0
1.293111981E0,1.300420642E0,2.608564198E-1,9.343693852E-1,1.622401327E0
1.295599585E0,1.232243776E0,2.502037883E-1,9.333041310E-1,1.565912916E0
1.298087189E0,1.169393182E0,2.406164259E-1,9.279778004E-1,1.512124160E0
1.300574793E0,1.115064740E0,2.299637944E-1,9.194557071E-1,1.463438252E0
1.303062397E0,1.067127824E0,2.182458937E-1,9.056072235E-1,1.416515974E0
1.305550001E0,1.026647806E0,2.043974549E-1,8.885630369E-1,1.373072579E0
1.308037606E0,9.957551956E-1,1.894837767E-1,8.661925197E-1,1.333312414E0
1.310525210E0,9.723193645E-1,1.735048145E-1,8.406261802E-1,1.296981589E0
1.313012866E0,9.552751780E-1,1.585911214E-1,8.118640780E-1,1.263655448E0
1.315500522E0,9.456877708E-1,1.436774284E-1,7.799061537E-1,1.234188872E0
1.317988178E0,9.414267540E-1,1.287637353E-1,7.458177209E-1,1.207935638E0
1.320475835E0,9.424920082E-1,1.149153188E-1,7.095987201E-1,1.185338373E0
1.322963491E0,9.478183389E-1,1.000016257E-1,6.723145247E-1,1.166347611E0
1.325451147E0,9.574056864E-1,8.615319431E-2,6.339650154E-1,1.151503218E0
1.327938803E0,9.680583477E-1,7.123950869E-2,5.934849977E-1,1.137733042E0
1.330426460E0,9.808415174E-1,5.632581562E-2,5.519397259E-1,1.126880713E0
1.332914116E0,9.946899414E-1,4.247738793E-2,5.114597082E-1,1.119287024E0
1.335401772E0,1.007473111E0,2.862896025E-2,4.699144363E-1,1.112043733E0
1.337889428E0,1.018125772E0,1.584579609E-2,4.294344187E-1,1.105099587E0
1.340377085E0,1.028778315E0,6.258423906E-3,3.900196552E-1,1.100245118E0
1.342864741E0,1.036235213E0,-4.394212738E-3,3.506048918E-1,1.093949961E0
1.345352397E0,1.041561484E0,-1.185105834E-2,3.143859208E-1,1.088039191E0
1.347840053E0,1.044757366E0,-1.824264042E-2,2.792322338E-1,1.081582816E0
1.350327710E0,1.045822620E0,-2.463422157E-2,2.462090552E-1,1.074695630E0
1.352815366E0,1.043691993E0,-3.102580272E-2,2.163816839E-1,1.066337943E0
1.355303022E0,1.039430976E0,-3.741738573E-2,1.886848211E-1,1.057080307E0
1.357790678E0,1.033039451E0,-4.380896688E-2,1.652490199E-1,1.047089763E0
1.360278335E0,1.023452044E0,-4.913528636E-2,1.450090110E-1,1.034841039E0
1.362765991E0,1.012799382E0,-5.126581341E-2,1.279647946E-1,1.022137839E0
1.365253647E0,9.989509583E-1,-5.339634046E-2,1.141163707E-1,1.006864803E0
1.367741303E0,9.851025343E-1,-5.339634046E-2,1.013332009E-1,9.917391743E-1
1.370228960E0,9.691236019E-1,-5.339634046E-2,9.068056941E-2,9.748203376E-1
1.372716616E0,9.520793557E-1,-5.233107507E-2,8.109319210E-2,9.569585920E-1
1.375204272E0,9.350351691E-1,-5.020054802E-2,7.257108390E-2,9.391897704E-1
1.377691928E0,9.179909229E-1,-4.593949392E-2,6.298371404E-2,9.212951318E-1
1.380179585E0,9.009467363E-1,-4.167843983E-2,5.339634046E-2,9.034895037E-1
1.382667241E0,8.849677444E-1,-3.848264739E-2,4.380896688E-2,8.868867167E-1
1.385154897E0,8.700540662E-1,-3.528685868E-2,3.422159329E-2,8.714415402E-1
1.387642553E0,8.562056422E-1,-3.422159329E-2,2.463422157E-2,8.572432934E-1
1.390130210E0,8.434224725E-1,-3.528685868E-2,1.398158539E-2,8.442760889E-1
1.392617866E0,8.306393027E-1,-3.741738573E-2,4.394212738E-3,8.314932478E-1
1.395105522E0,8.178561330E-1,-4.167843983E-2,-6.258423906E-3,8.189413376E-1
1.397593178E0,8.040077090E-1,-4.913528636E-2,-1.584579609E-2,8.056635537E-1
1.400080835E0,7.901592851E-1,-5.872265995E-2,-2.756369673E-2,7.928176360E-1
1.402568491E0,7.752456069E-1,-7.150582224E-2,-4.034686089E-2,7.795811073E-1
1.405056147E0,7.571361065E-1,-8.535424620E-2,-5.419528857E-2,7.638570288E-1
1.407543803E0,7.400919199E-1,-1.013332009E-1,-6.804371625E-2,7.500896045E-1
1.410031460E0,7.209171653E-1,-1.205079481E-1,-8.189214021E-2,7.354930641E-1
1.412519116E0,6.996119022E-1,-1.407479644E-1,-9.787109494E-2,7.203093464E-1
1.415006772E0,6.751108170E-1,-1.631184965E-1,-1.138500497E-1,7.038068577E-1
1.417494428E0,6.495444775E-1,-1.865542978E-1,-1.319595277E-1,6.885665191E-1
1.419982085E0,6.207823753E-1,-2.089248300E-1,-1.511342824E-1,6.722067490E-1
1.422469741E0,5.920202732E-1,-2.312953621E-1,-1.692437679E-1,6.577453925E-1
1.424957397E0,5.600623488E-1,-2.515353858E-1,-1.884185076E-1,6.422160220E-1
1.427445053E0,5.281044245E-1,-2.696448565E-1,-2.075932473E-1,6.282496224E-1
1.429932710E0,4.940160215E-1,-2.845585644E-1,-2.278332561E-1,6.139490196E-1
1.432420366E0,4.599275887E-1,-2.984069884E-1,-2.470080107E-1,6.013260970E-1
1.434908022E0,4.258391261E-1,-3.079943359E-1,-2.672480047E-1,5.895939011E-1
1.437395678E0,3.928159773E-1,-3.165164590E-1,-2.864227593E-1,5.801077985E-1
1.439883335E0,3.608580530E-1,-3.218427896E-1,-3.055975139E-1,5.720062553E-1
1.442370991E0,3.310306668E-1,-3.250385821E-1,-3.237069845E-1,5.657009758E-1
1.444858647E0,3.033338189E-1,-3.261038363E-1,-3.407512009E-1,5.607731258E-1
1.447346303E0,2.788327634E-1,-3.239732981E-1,-3.556649089E-1,5.560610895E-1
1.449833960E0,2.575274706E-1,-3.175817132E-1,-3.695133328E-1,5.511067463E-1
1.452321616E0,2.404832691E-1,-3.090596199E-1,-3.801659644E-1,5.457803696E-1
1.454809272E0,2.266348451E-1,-2.952111959E-1,-3.897533417E-1,5.389069220E-1
1.457296928E0,2.170474678E-1,-2.771016955E-1,-3.961449265E-1,5.299299537E-1
1.459784585E0,2.127864063E-1,-2.547311783E-1,-3.961449265E-1,5.168141162E-1
1.462272241E0,2.138516754E-1,-2.302301079E-1,-3.940143883E-1,5.039700188E-1
1.464759897E0,2.202432603E-1,-2.014679909E-1,-3.876228034E-1,4.892319315E-1
1.467247553E0,2.319611609E-1,-1.705753356E-1,-3.780354261E-1,4.751975470E-1
1.469735210E0,2.490053773E-1,-1.386174262E-1,-3.641870022E-1,4.624398786E-1
1.472222866E0,2.703106403E-1,-1.055942550E-1,-3.460775316E-1,4.516499162E-1
1.474710522E0,2.958769798E-1,-7.150582224E-2,-3.247722387E-1,4.451216428E-1
1.477198178E0,3.246390820E-1,-3.848264739E-2,-3.013364673E-1,4.446066961E-1
1.479685835E0,3.565970063E-1,-4.394212738E-3,-2.747048736E-1,4.501594180E-1
1.482173491E0,3.896201849E-1,2.862896025E-2,-2.470080107E-1,4.622082466E-1
1.484661147E0,4.237086177E-1,5.952160433E-2,-2.182458937E-1,4.803156090E-1
1.487148803E0,4.588623047E-1,8.934898674E-2,-1.894837767E-1,5.044224001E-1
1.489636460E0,4.940160215E-1,1.170458421E-1,-1.596563905E-1,5.322045863E-1
1.492124116E0,5.270391703E-1,1.415469050E-1,-1.319595277E-1,5.614437908E-1
1.494611772E0,5.579318404E-1,1.639174372E-1,-1.053279415E-1,5.909744834E-1
1.497099428E0,5.856286883E-1,1.820269227E-1,-8.082687855E-2,6.185691113E-1
1.499587085E0,6.101297736E-1,1.969406158E-1,-5.845634267E-2,6.437865258E-1
1.502074741E0,6.303697824E-1,2.065279931E-1,-3.928159550E-2,6.645020077E-1
1.504562397E0,6.452834606E-1,2.118543088E-1,-2.330264263E-2,6.795704569E-1
1.507050053E0,6.548708081E-1,2.118543088E-1,-1.051947847E-2,6.883666777E-1
1.509537710E0,6.580666304E-1,2.086585164E-1,1.331579551E-4,6.903550421E-1
1.512025366E0,6.570013762E-1,2.012016773E-1,7.590003312E-3,6.871612121E-1
1.514513022E0,6.506097913E-1,1.905490309E-1,1.078579482E-2,6.780253440E-1
1.517000678E0,6.388918757E-1,1.788311303E-1,1.291632187E-2,6.635738342E-1
1.519488335E0,6.218476295E-1,1.639174372E-1,1.078579482E-2,6.431793949E-1
1.521975991E0,6.005423665E-1,1.468732208E-1,7.590003312E-3,6.182883511E-1
1.524463647E0,5.760413408E-1,1.287637353E-1,1.198421582E-3,5.902585553E-1
1.526951303E0,5.494097471E-1,1.085237339E-1,-7.323687430E-3,5.600733054E-1
1.529438960E0,5.227781534E-1,8.828372508E-2,-1.584579609E-2,5.304169144E-1
1.531926616E0,4.929507375E-1,6.910897791E-2,-2.649843320E-2,4.984763258E-1
1.534414272E0,4.641886353E-1,5.099949613E-2,-3.608580679E-2,4.683740207E-1
1.536901928E0,4.364917874E-1,3.502054140E-2,-4.567318037E-2,4.402698698E-1
1.539389585E0,4.087949097E-1,2.330264263E-2,-5.419528857E-2,4.130295639E-1
1.541877241E0,3.832286000E-1,1.265000552E-2,-6.271740049E-2,3.885326947E-1
1.544364897E0,3.587275445E-1,5.193160381E-3,-6.910897791E-2,3.653607409E-1
1.546852553E0,3.352917433E-1,9.321057005E-4,-7.443529367E-2,3.434560159E-1
1.549340210E0,3.118559420E-1,-1.331579551E-4,-7.763108611E-2,3.213731971E-1
1.551827866E0,2.894853950E-1,9.321057005E-4,-7.869634777E-2,2.999929630E-1
1.554315522E0,2.671148479E-1,5.193160381E-3,-7.763108611E-2,2.782155575E-1
1.556803178E0,2.468748540E-1,1.265000552E-2,-7.443529367E-2,2.581624084E-1
1.559290835E0,2.266348451E-1,2.117211558E-2,-6.804371625E-2,2.375743227E-1
1.561778491E0,2.074600905E-1,3.182475269E-2,-6.165213138E-2,2.187544042E-1
1.564266147E0,1.904158741E-1,4.460791498E-2,-5.419528857E-2,2.029413721E-1
1.566753803E0,1.755021811E-1,5.632581562E-2,-4.673844203E-2,1.901528202E-1
1.569241460E0,1.637842804E-1,6.697845459E-2,-3.715106845E-2,1.808082016E-1
1.571729116E0,1.531316489E-1,7.869634777E-2,-2.649843320E-2,1.741969690E-1
1.574216772E0,1.446095407E-1,9.041424841E-2,-1.478053257E-2,1.711873819E-1
1.576704428E0,1.392832249E-1,1.000016257E-1,-9.321057005E-4,1.714672293E-1
1.579192085E0,1.360874325E-1,1.127847880E-1,1.185105834E-2,1.771458305E-1
1.581679741E0,1.360874325E-1,1.234374270E-1,2.676474862E-2,1.856688973E-1
1.584167397E0,1.371526867E-1,1.340900660E-1,4.167843983E-2,1.962857550E-1
1.586655053E0,1.414137483E-1,1.426121742E-1,5.659212917E-2,2.086594103E-1
1.589142710E0,1.467400640E-1,1.511342824E-1,6.937529147E-2,2.217817593E-1
1.591630366E0,1.552621722E-1,1.596563905E-1,8.215846121E-2,2.373742149E-1
1.594118022E0,1.637842804E-1,1.660479754E-1,9.281109273E-2,2.510201577E-1
1.596605678E0,1.744369268E-1,1.724395454E-1,1.013332009E-1,2.653903839E-1
1.599093335E0,1.850895584E-1,1.767006069E-1,1.087900475E-1,2.780584894E-1
1.601580991E0,1.968074590E-1,1.809616536E-1,1.130511016E-1,2.902771909E-1
1.604068647E0,2.106558830E-1,1.830921918E-1,1.162468940E-1,3.023441617E-1
1.606556303E0,2.255695760E-1,1.830921918E-1,1.173121557E-1,3.133153782E-1
1.609043960E0,2.404832691E-1,1.830921918E-1,1.173121557E-1,3.242176665E-1
1.611531616E0,2.564622164E-1,1.820269227E-1,1.162468940E-1,3.352909324E-1
1.614019272E0,2.735064328E-1,1.798963994E-1,1.141163707E-1,3.466857790E-1
1.616506928E0,2.916159332E-1,1.777658761E-1,1.119858399E-1,3.594181235E-1
1.618994585E0,3.107906580E-1,1.745700836E-1,1.087900475E-1,3.726940053E-1
1.621482241E0,3.289001584E-1,1.724395454E-1,1.045289934E-1,3.857940143E-1
1.623969897E0,3.480748832E-1,1.703090221E-1,1.002679393E-1,4.002685935E-1
1.626457553E0,3.661843836E-1,1.703090221E-1,9.494162351E-2,4.148615163E-1
1.628945210E0,3.842938542E-1,1.724395454E-1,9.068056941E-2,4.308597555E-1
1.631432866E0,4.024033546E-1,1.767006069E-1,8.535424620E-2,4.477018111E-1
1.633920522E0,4.173170328E-1,1.820269227E-1,8.109319210E-2,4.624536866E-1
1.636408178E0,4.322307110E-1,1.852227151E-1,7.576687634E-2,4.763102574E-1
1.638895835E0,4.450138807E-1,1.894837767E-1,7.257108390E-2,4.890889673E-1
1.641383491E0,4.535360038E-1,1.948100924E-1,6.937529147E-2,4.984564273E-1
1.643871147E0,4.588623047E-1,2.022669315E-1,6.617950648E-2,5.058124685E-1
1.646358803E0,4.609928429E-1,2.097237855E-1,6.404897571E-2,5.104906843E-1
1.648846460E0,4.599275887E-1,2.171806246E-1,5.978792161E-2,5.121283102E-1
1.651334116E0,4.546012580E-1,2.235722095E-1,5.659212917E-2,5.097543582E-1
1.653821772E0,4.450138807E-1,2.267680019E-1,5.339634046E-2,5.023069280E-1
1.656309428E0,4.311654568E-1,2.278332561E-1,5.126581341E-2,4.903466400E-1
1.658797085E0,4.130559862E-1,2.267680019E-1,4.807002097E-2,4.736556780E-1
1.661284741E0,3.885549009E-1,2.246374637E-1,4.593949392E-2,4.511622083E-1
1.663772397E0,3.597927988E-1,2.203764170E-1,4.380896688E-2,4.241884591E-1
1.666260053E0,3.267696202E-1,2.139848322E-1,4.167843983E-2,3.928167326E-1
1.668747710E0,2.905506492E-1,2.065279931E-1,4.167843983E-2,3.589019142E-1
1.671235366E0,2.500706315E-1,1.969406158E-1,4.061317816E-2,3.208899455E-1
1.673723022E0,2.085253596E-1,1.852227151E-1,3.954791278E-2,2.816989833E-1
1.676210678E0,1.637842804E-1,1.735048145E-1,3.848264739E-2,2.416818680E-1
1.678698335E0,1.190432087E-1,1.607216448E-1,3.848264739E-2,2.036753465E-1
1.681185991E0,7.536740601E-2,1.479384899E-1,3.848264739E-2,1.704316779E-1
1.683674220E0,3.169159219E-2,1.351553202E-1,3.848264739E-2,1.440563492E-1
1.686161356E0,-8.788425475E-3,1.234374270E-1,3.741738573E-2,1.292830057E-1
1.688648491E0,-4.713791609E-2,1.127847880E-1,3.741738573E-2,1.278376013E-1
1.691135626E0,-8.229161799E-2,1.042626798E-1,3.741738573E-2,1.379952084E-1
1.693622814E0,-1.131842583E-1,9.680583328E-2,3.741738573E-2,1.535646654E-1
1.696110053E0,-1.408811212E-1,9.147951752E-2,3.741738573E-2,1.720931526E-1
1.698597345E0,-1.643169224E-1,8.934898674E-2,3.741738573E-2,1.907442088E-1
1.701084741E0,-1.845569313E-1,8.828372508E-2,3.635212034E-2,2.077901673E-1
1.703572241E0,-2.005358785E-1,8.828372508E-2,3.528685868E-2,2.219320101E-1
1.706059845E0,-2.122537792E-1,9.041424841E-2,3.315633163E-2,2.330788395E-1
1.708547553E0,-2.207758874E-1,9.147951752E-2,2.996053919E-2,2.408487668E-1
1.711035314E0,-2.239716798E-1,9.254477918E-2,2.676474862E-2,2.438118153E-1
1.713523126E0,-2.239716798E-1,9.467530251E-2,2.143843099E-2,2.441031187E-1
1.716010991E0,-2.218411565E-1,9.467530251E-2,1.824264042E-2,2.418877954E-1
1.718498908E0,-2.154495716E-1,9.361004084E-2,1.291632187E-2,2.352619583E-1
1.720986876E0,-2.058621943E-1,9.147951752E-2,7.590003312E-3,2.254004288E-1
1.723475314E0,-1.941442937E-1,8.934898674E-2,1.198421582E-3,2.137210434E-1
1.725963751E0,-1.813611388E-1,8.508793265E-2,-5.193160381E-3,2.003965765E-1
1.728451408E0,-1.664474458E-1,7.976161689E-2,-1.158474199E-2,1.849347830E-1
1.730939012E0,-1.515337527E-1,7.337003201E-2,-1.797632314E-2,1.693185991E-1
1.733426616E0,-1.355548054E-1,6.804371625E-2,-2.543316968E-2,1.537917381E-1
1.735914220E0,-1.174453199E-1,6.165213138E-2,-3.182475269E-2,1.364082232E-1
1.738401824E0,-1.004010960E-1,5.632581562E-2,-3.715106845E-2,1.209676795E-1
1.740889428E0,-8.335687965E-2,4.993423447E-2,-4.247738793E-2,1.060477517E-1
1.743377033E0,-6.737792492E-2,4.354264960E-2,-4.673844203E-2,9.284518870E-2
1.745864637E0,-5.033370852E-2,3.715106845E-2,-5.099949613E-2,8.071327466E-2
1.748352241E0,-3.648528084E-2,2.862896025E-2,-5.313002318E-2,7.052370131E-2
1.750839845E0,-2.263685316E-2,2.010685205E-2,-5.526055023E-2,6.301143573E-2
1.753327449E0,-9.853689000E-3,1.158474199E-2,-5.632581562E-2,5.834294250E-2
1.755815053E0,1.864211401E-3,3.062632866E-3,-5.739107728E-2,5.750296302E-2
1.758302658E0,1.145158429E-2,-4.394212738E-3,-5.739107728E-2,5.868716759E-2
1.760790262E0,2.103895694E-2,-1.291632187E-2,-5.632581562E-2,6.149850880E-2
1.763277866E0,2.849580161E-2,-1.824264042E-2,-5.526055023E-2,6.479608824E-2
1.765765470E0,3.488738462E-2,-2.250369452E-2,-5.419528857E-2,6.826913780E-2
1.768253074E0,4.127896577E-2,-2.889527567E-2,-4.993423447E-2,7.093883100E-2
1.770740678E0,4.447475821E-2,-3.422159329E-2,-4.673844203E-2,7.303152421E-2
1.773228283E0,4.660528526E-2,-3.848264739E-2,-4.141212255E-2,7.326616312E-2
1.775715887E0,4.554001987E-2,-4.274370521E-2,-3.715106845E-2,7.267131230E-2
1.778203491E0,4.447475821E-2,-4.487423226E-2,-3.289001435E-2,7.122818180E-2
1.780691095E0,4.127896577E-2,-4.807002097E-2,-2.649843320E-2,6.867930470E-2
1.783178699E0,3.595264629E-2,-5.126581341E-2,-2.010685205E-2,6.576520280E-2
1.785666303E0,2.956106514E-2,-5.339634046E-2,-1.371526904E-2,6.255505057E-2
1.788153908E0,2.210422046E-2,-5.552686751E-2,-6.258423906E-3,6.009157551E-2
1.790641512E0,1.571263932E-2,-5.765739456E-2,1.331579551E-4,5.976018668E-2
1.793129116E0,6.125265732E-3,-6.085318699E-2,5.459476262E-3,6.140386900E-2
1.795616720E0,-3.462106921E-3,-6.404897571E-2,1.185105834E-2,6.522810021E-2
1.798104324E0,-1.624527015E-2,-6.617950648E-2,1.824264042E-2,7.054381482E-2
1.800591981E0,-2.796317078E-2,-6.724476814E-2,2.356895804E-2,7.654602240E-2
1.803079637E0,-4.074633494E-2,-6.724476814E-2,2.676474862E-2,8.305705522E-2
1.805567293E0,-5.352949724E-2,-6.724476814E-2,2.783001214E-2,9.034254531E-2
1.808054949E0,-6.524740160E-2,-6.724476814E-2,2.889527567E-2,9.805110511E-2
1.810542606E0,-7.696529478E-2,-6.617950648E-2,2.889527567E-2,1.055382425E-1
1.813030262E0,-8.655267209E-2,-6.404897571E-2,2.676474862E-2,1.109503858E-1
1.815517918E0,-9.614004195E-2,-6.085318699E-2,2.143843099E-2,1.157826600E-1
1.818005574E0,-1.046621501E-1,-5.659212917E-2,1.611211337E-2,1.200684594E-1
1.820493231E0,-1.121189967E-1,-5.233107507E-2,8.655266836E-3,1.240327557E-1
1.822980887E0,-1.174453199E-1,-4.700475931E-2,-9.321057005E-4,1.265058077E-1
1.825468543E0,-1.227716357E-1,-4.167843983E-2,-1.265000552E-2,1.302689123E-1
1.827956199E0,-1.270326823E-1,-3.741738573E-2,-2.543316968E-2,1.348488385E-1
1.830443856E0,-1.302284747E-1,-3.209106624E-2,-3.928159550E-2,1.397581336E-1
1.832931512E0,-1.334242672E-1,-2.783001214E-2,-5.419528857E-2,1.466754034E-1
1.835419168E0,-1.366200596E-1,-2.356895804E-2,-7.017423958E-2,1.553864871E-1
1.837906824E0,-1.398158520E-1,-2.250369452E-2,-8.615319431E-2,1.657626666E-1
1.840394481E0,-1.419463754E-1,-1.930790395E-2,-1.021321490E-1,1.759333524E-1
1.842882137E0,-1.451421678E-1,-1.824264042E-2,-1.181111038E-1,1.880140304E-1
1.845369793E0,-1.472726911E-1,-1.611211337E-2,-1.351553202E-1,2.005387901E-1
1.847857449E0,-1.504684836E-1,-1.504684892E-2,-1.521995366E-1,2.145503930E-1
1.850345106E0,-1.536642760E-1,-1.291632187E-2,-1.703090221E-1,2.297492200E-1
1.852832762E0,-1.557948142E-1,-1.078579482E-2,-1.884185076E-1,2.447241130E-1
1.855320418E0,-1.589905918E-1,-9.720530361E-3,-2.054627240E-1,2.599758218E-1
1.857808074E0,-1.632516533E-1,-8.655266836E-3,-2.214416862E-1,2.752497708E-1
1.860295731E0,-1.675127149E-1,-9.720530361E-3,-2.363553643E-1,2.898600638E-1
1.862783387E0,-1.728390306E-1,-9.720530361E-3,-2.502037883E-1,3.042527812E-1
1.865271043E0,-1.781653464E-1,-1.185105834E-2,-2.629869580E-1,3.178765143E-1
1.867758699E0,-1.845569313E-1,-1.291632187E-2,-2.725743353E-1,3.294311165E-1
1.870246356E0,-1.920137703E-1,-1.504684892E-2,-2.810964286E-1,3.407504921E-1
1.872734012E0,-1.994706094E-1,-1.717737690E-2,-2.874880135E-1,3.503326194E-1
1.875221668E0,-2.069274634E-1,-1.930790395E-2,-2.917490900E-1,3.582028779E-1
1.877709324E0,-2.133190483E-1,-2.037316747E-2,-2.938795984E-1,3.637104627E-1
1.880196981E0,-2.186453640E-1,-2.143843099E-2,-2.938795984E-1,3.669204544E-1
1.882684637E0,-2.218411565E-1,-2.037316747E-2,-2.917490900E-1,3.670777794E-1
1.885172293E0,-2.250369489E-1,-1.930790395E-2,-2.874880135E-1,3.656005764E-1
1.887659949E0,-2.250369489E-1,-1.504684892E-2,-2.821617126E-1,3.612246782E-1
1.890147606E0,-2.250369489E-1,-9.720530361E-3,-2.747048736E-1,3.552448235E-1
1.892635262E0,-2.229064107E-1,-2.263685223E-3,-2.661827505E-1,3.471968445E-1
1.895122918E0,-2.197106332E-1,5.193160381E-3,-2.544648647E-1,3.362322094E-1
1.897610574E0,-2.133190483E-1,1.478053257E-2,-2.416816950E-1,3.226972609E-1
1.900098231E0,-2.079927325E-1,2.436790615E-2,-2.278332561E-1,3.094555933E-1
1.902585887E0,-2.005358785E-1,3.502054140E-2,-2.129195631E-1,2.945773536E-1
1.905073543E0,-1.930790395E-1,4.567318037E-2,-1.958753467E-1,2.788058577E-1
1.907561199E0,-1.856221855E-1,5.632581562E-2,-1.788311303E-1,2.638347331E-1
1.910048856E0,-1.771000773E-1,6.697845459E-2,-1.607216448E-1,2.483586073E-1
1.912536512E0,-1.707084924E-1,7.763108611E-2,-1.415469050E-1,2.349542535E-1
1.915024168E0,-1.632516533E-1,8.828372508E-2,-1.245026886E-1,2.234861023E-1
1.917511824E0,-1.557948142E-1,9.787109494E-2,-1.063932031E-1,2.125330305E-1
1.919999481E0,-1.483379602E-1,1.063932031E-1,-8.828372508E-2,2.027749497E-1
1.922487137E0,-1.398158520E-1,1.149153188E-1,-7.123950869E-2,1.944969680E-1
1.924974793E0,-1.323590130E-1,1.213068962E-1,-5.526055023E-2,1.878510042E-1
1.927462449E0,-1.238368973E-1,1.266332120E-1,-4.141212255E-2,1.818969802E-1
1.929950106E0,-1.153147891E-1,1.319595277E-1,-2.756369673E-2,1.773994784E-1
1.932437762E0,-1.057274193E-1,1.362205893E-1,-1.584579609E-2,1.731630023E-1
1.934925418E0,-9.614004195E-2,1.415469050E-1,-5.193160381E-3,1.711882090E-1
1.937413074E0,-8.548741043E-2,1.468732208E-1,4.394212738E-3,1.699974983E-1
1.939900731E0,-7.483477145E-2,1.532648057E-1,1.291632187E-2,1.710472889E-1
1.942388387E0,-6.311687082E-2,1.585911214E-1,2.037316747E-2,1.719009864E-1
1.944876043E0,-5.139897019E-2,1.660479754E-1,2.783001214E-2,1.760349223E-1
1.947363699E0,-3.755054250E-2,1.724395454E-1,3.315633163E-2,1.795683223E-1
1.949851356E0,-2.370211668E-2,1.788311303E-1,3.741738573E-2,1.842346988E-1
1.952339012E0,-8.788425475E-3,1.873532385E-1,4.274370521E-2,1.923681281E-1
1.954826668E0,5.060002208E-3,1.937448233E-1,4.593949392E-2,1.991810666E-1
1.957314324E0,2.103895694E-2,2.012016773E-1,4.913528636E-2,2.081802801E-1
1.959801981E0,3.595264629E-2,2.075932473E-1,5.233107507E-2,2.170854452E-1
1.962289637E0,5.086633936E-2,2.129195631E-1,5.446160212E-2,2.255841105E-1
1.964777293E0,6.471476704E-2,2.193111479E-1,5.446160212E-2,2.350562630E-1
1.967264949E0,7.749792933E-2,2.235722095E-1,5.552686751E-2,2.430508073E-1
1.969752606E0,8.921582997E-2,2.288985252E-1,5.659212917E-2,2.521044789E-1
1.972240262E0,9.986846894E-2,2.342248410E-1,5.659212917E-2,2.608402889E-1
1.974727918E0,1.083905771E-1,2.395511568E-1,5.659212917E-2,2.689534216E-1
1.977215574E0,1.147821546E-1,2.448774725E-1,5.659212917E-2,2.763016262E-1
1.979703231E0,1.201084778E-1,2.502037883E-1,5.659212917E-2,2.832501566E-1
1.982190887E0,1.243695319E-1,2.565953732E-1,5.659212917E-2,2.907088493E-1
1.984678543E0,1.275653243E-1,2.629869580E-1,5.659212917E-2,2.977208779E-1
1.987166199E0,1.296958476E-1,2.693785429E-1,5.659212917E-2,3.042835542E-1
1.989653856E0,1.307611167E-1,2.757701278E-1,5.765739456E-2,3.105994336E-1
1.992141512E0,1.307611167E-1,2.832269669E-1,5.765739456E-2,3.172386476E-1
1.994629168E0,1.286305785E-1,2.896185517E-1,5.872265995E-2,3.222934719E-1
1.997116824E0,1.275653243E-1,2.949448824E-1,6.085318699E-2,3.270604011E-1
1.999604481E0,1.243695319E-1,3.002711833E-1,6.298371404E-2,3.310551498E-1
2.002092137E0,1.201084778E-1,3.055975139E-1,6.404897571E-2,3.345417137E-1
2.004579793E0,1.158474237E-1,3.087933064E-1,6.617950648E-2,3.363832022E-1
2.007067449E0,1.105211005E-1,3.109238148E-1,6.724476814E-2,3.367645930E-1
2.009555106E0,1.041295230E-1,3.109238148E-1,6.831002980E-2,3.349370632E-1
2.012042762E0,9.667267650E-2,3.098585606E-1,6.937529147E-2,3.319199678E-1
2.014530418E0,9.028109163E-2,3.077280223E-1,6.831002980E-2,3.278924693E-1
2.017018074E0,8.282424510E-2,3.045322299E-1,6.831002980E-2,3.229024540E-1
2.019505731E0,7.536740601E-2,2.981406748E-1,6.724476814E-2,3.147855885E-1
2.021993387E0,6.684529036E-2,2.906838059E-1,6.617950648E-2,3.055242952E-1
2.024481043E0,5.619265884E-2,2.842922211E-1,6.404897571E-2,2.967860394E-1
2.026968699E0,4.554001987E-2,2.779006660E-1,6.298371404E-2,2.885647619E-1
2.029456356E0,3.382211924E-2,2.715090811E-1,5.872265995E-2,2.798382884E-1
2.031944012E0,2.103895694E-2,2.661827505E-1,5.446160212E-2,2.725104777E-1
2.034431668E0,8.255792782E-3,2.597911656E-1,5.020054802E-2,2.647257125E-1
2.036919324E0,-4.527370445E-3,2.544648647E-1,4.593949392E-2,2.586180612E-1
2.039406981E0,-1.624527015E-2,2.502037883E-1,3.954791278E-2,2.538304195E-1
2.041894637E0,-2.796317078E-2,2.470080107E-1,3.422159329E-2,2.509302966E-1
2.044382293E0,-3.861580789E-2,2.459427416E-1,2.783001214E-2,2.505065316E-1
2.046869949E0,-4.820318148E-2,2.438122183E-1,2.037316747E-2,2.493652150E-1
2.049357606E0,-5.779055133E-2,2.438122183E-1,1.398158539E-2,2.509574274E-1
2.051845262E0,-6.631266326E-2,2.448774725E-1,6.524739787E-3,2.537812406E-1
2.054332918E0,-7.376950979E-2,2.480732650E-1,-1.997369342E-3,2.588170683E-1
2.056820574E0,-8.229161799E-2,2.512690723E-1,-1.051947847E-2,2.646104996E-1
2.059308231E0,-8.974846452E-2,2.565953732E-1,-1.904158667E-2,2.725042283E-1
2.061795887E0,-9.933583438E-2,2.629869580E-1,-2.862896025E-2,2.825763002E-1
2.064283543E0,-1.078579426E-1,2.683132887E-1,-3.821633384E-2,2.916947803E-1
2.066771199E0,-1.174453199E-1,2.747048736E-1,-4.886896908E-2,3.027281732E-1
2.069258856E0,-1.270326823E-1,2.821617126E-1,-5.845634267E-2,3.149121758E-1
2.071746512E0,-1.366200596E-1,2.885532975E-1,-6.697845459E-2,3.262118324E-1
2.074234168E0,-1.472726911E-1,2.949448824E-1,-7.550056279E-2,3.382041753E-1
2.076721824E0,-1.579253376E-1,3.013364673E-1,-8.402267098E-2,3.504338568E-1
2.079209481E0,-1.675127149E-1,3.066627681E-1,-9.147951752E-2,3.612077866E-1
2.081697137E0,-1.781653464E-1,3.109238148E-1,-1.000016257E-1,3.720441296E-1
2.084184793E0,-1.877527237E-1,3.151848912E-1,-1.063932031E-1,3.819844429E-1
2.086672449E0,-1.973400861E-1,3.173153996E-1,-1.117195264E-1,3.900172112E-1
2.089160106E0,-2.047969401E-1,3.183806837E-1,-1.181111038E-1,3.965580402E-1
2.091647762E0,-2.122537792E-1,3.194459379E-1,-1.234374270E-1,4.029071511E-1
2.094135418E0,-2.175800949E-1,3.194459379E-1,-1.276984811E-1,4.070549189E-1
2.096623074E0,-2.229064107E-1,3.173153996E-1,-1.308942735E-1,4.092794175E-1
2.099110731E0,-2.271674722E-1,3.162501454E-1,-1.340900660E-1,4.118244295E-1
2.101598387E0,-2.292979956E-1,3.141196072E-1,-1.362205893E-1,4.120737159E-1
2.104086043E0,-2.292979956E-1,3.119890988E-1,-1.383511126E-1,4.111639562E-1
2.106573699E0,-2.292979956E-1,3.087933064E-1,-1.394163817E-1,4.091061040E-1
2.109061356E0,-2.282327414E-1,3.066627681E-1,-1.404816359E-1,4.072681274E-1
2.111549012E0,-2.239716798E-1,3.045322299E-1,-1.415469050E-1,4.036566842E-1
2.114036668E0,-2.207758874E-1,3.013364673E-1,-1.415469050E-1,3.994761386E-1
2.116524324E0,-2.165148407E-1,2.992059290E-1,-1.426121742E-1,3.959054135E-1
2.119011981E0,-2.111885101E-1,2.960101366E-1,-1.426121742E-1,3.905903480E-1
2.121499637E0,-2.047969401E-1,2.938795984E-1,-1.426121742E-1,3.855453764E-1
2.123987293E0,-1.984053552E-1,2.896185517E-1,-1.426121742E-1,3.789219216E-1
2.126474949E0,-1.930790395E-1,2.853575051E-1,-1.426121742E-1,3.728895995E-1
2.128962606E0,-1.866874546E-1,2.810964286E-1,-1.426121742E-1,3.663408797E-1
2.131450262E0,-1.802958697E-1,2.757701278E-1,-1.436774284E-1,3.594425788E-1
2.133937918E0,-1.739042848E-1,2.704437971E-1,-1.447426975E-1,3.526088430E-1
2.136425574E0,-1.696432382E-1,2.629869580E-1,-1.468732208E-1,3.457061054E-1
2.138913231E0,-1.653821766E-1,2.565953732E-1,-1.490037590E-1,3.396977628E-1
2.141400887E0,-1.611211300E-1,2.480732650E-1,-1.532648057E-1,3.331523135E-1
2.143888543E0,-1.579253376E-1,2.395511568E-1,-1.564605981E-1,3.268104767E-1
2.146376199E0,-1.536642760E-1,2.288985252E-1,-1.617869139E-1,3.196595847E-1
2.148863856E0,-1.515337527E-1,2.193111479E-1,-1.649827063E-1,3.134950577E-1
2.151351512E0,-1.494032294E-1,2.075932473E-1,-1.692437679E-1,3.066915946E-1
2.153839168E0,-1.472726911E-1,1.969406158E-1,-1.724395454E-1,3.003502098E-1
2.156326824E0,-1.451421678E-1,1.862879843E-1,-1.756353378E-1,2.943080594E-1
2.158814481E0,-1.430116445E-1,1.756353378E-1,-1.777658761E-1,2.879250059E-1
2.161302137E0,-1.419463754E-1,1.671132296E-1,-1.777658761E-1,2.822699270E-1
2.163789793E0,-1.398158520E-1,1.596563905E-1,-1.788311303E-1,2.775233480E-1
2.166277449E0,-1.398158520E-1,1.532648057E-1,-1.788311303E-1,2.738962327E-1
2.168765106E0,-1.387505829E-1,1.468732208E-1,-1.798963994E-1,2.705294471E-1
2.171252762E0,-1.376853287E-1,1.426121742E-1,-1.788311303E-1,2.669757575E-1
2.173740418E0,-1.366200596E-1,1.372858584E-1,-1.777658761E-1,2.628938080E-1
2.176228074E0,-1.366200596E-1,1.319595277E-1,-1.767006069E-1,2.594252535E-1
2.178715731E0,-1.366200596E-1,1.266332120E-1,-1.745700836E-1,2.552953685E-1
2.181203387E0,-1.366200596E-1,1.202416345E-1,-1.724395454E-1,2.507159512E-1
2.183691043E0,-1.366200596E-1,1.138500497E-1,-1.692437679E-1,2.455001578E-1
2.186178699E0,-1.376853287E-1,1.063932031E-1,-1.660479754E-1,2.405175535E-1
2.188666356E0,-1.376853287E-1,9.787109494E-2,-1.617869139E-1,2.339038402E-1
2.191154012E0,-1.387505829E-1,9.041424841E-2,-1.575258672E-1,2.285625941E-1
2.193641668E0,-1.408811212E-1,8.189214021E-2,-1.543300748E-1,2.244361489E-1
2.196129324E0,-1.440769136E-1,7.443529367E-2,-1.511342824E-1,2.216762082E-1
2.198616981E0,-1.451421678E-1,6.591318548E-2,-1.468732208E-1,2.167545614E-1
2.201104637E0,-1.472726911E-1,5.739107728E-2,-1.447426975E-1,2.143208571E-1
2.203592293E0,-1.494032294E-1,4.886896908E-2,-1.426121742E-1,2.122445130E-1
2.206079949E0,-1.515337527E-1,4.034686089E-2,-1.394163817E-1,2.098267735E-1
2.208567606E0,-1.525990218E-1,3.289001435E-2,-1.372858584E-1,2.078836728E-1
2.211055262E0,-1.525990218E-1,2.543316968E-2,-1.340900660E-1,2.047277542E-1
2.213542918E0,-1.525990218E-1,2.010685205E-2,-1.298290044E-1,2.013611614E-1
2.216030574E0,-1.515337527E-1,1.584579609E-2,-1.255679578E-1,1.974357604E-1
2.218518231E0,-1.483379602E-1,1.265000552E-2,-1.223721579E-1,1.927151216E-1
2.221005887E0,-1.430116445E-1,1.158474199E-2,-1.181111038E-1,1.858407101E-1
2.223493543E0,-1.366200596E-1,1.371526904E-2,-1.138500497E-1,1.783675506E-1
2.225981199E0,-1.302284747E-1,1.797632314E-2,-1.095889956E-1,1.711500855E-1
2.228468856E0,-1.206411049E-1,2.436790615E-2,-1.063932031E-1,1.626886127E-1
2.230956512E0,-1.110537350E-1,3.502054140E-2,-1.031974182E-1,1.555926653E-1
2.233444168E0,-9.933583438E-2,4.673844203E-2,-1.000016257E-1,1.485005559E-1
2.235931824E0,-8.655267209E-2,6.058686972E-2,-9.787109494E-2,1.440169610E-1
2.238419481E0,-7.376950979E-2,7.443529367E-2,-9.574057162E-2,1.419465060E-1
2.240907137E0,-6.205160543E-2,8.828372508E-2,-9.361004084E-2,1.428539730E-1
2.243394793E0,-4.820318148E-2,1.010668874E-1,-9.254477918E-2,1.452673349E-1
2.245882449E0,-3.648528084E-2,1.138500497E-1,-9.254477918E-2,1.511871214E-1
2.248370106E0,-2.583264373E-2,1.245026886E-1,-9.254477918E-2,1.572665925E-1
2.250857762E0,-1.731053367E-2,1.340900660E-1,-9.254477918E-2,1.638424137E-1
2.253345418E0,-9.853689000E-3,1.426121742E-1,-9.361004084E-2,1.708747119E-1
2.255833074E0,-4.527370445E-3,1.500690132E-1,-9.361004084E-2,1.769294932E-1
2.258320731E0,-3.462106921E-3,1.553953290E-1,-9.467530251E-2,1.819975477E-1
2.260808387E0,-3.462106921E-3,1.596563905E-1,-9.680583328E-2,1.867445276E-1
2.263296043E0,-6.657897960E-3,1.617869139E-1,-9.893636405E-2,1.897570479E-1
2.265783699E0,-1.198421605E-2,1.628521830E-1,-1.000016257E-1,1.914804953E-1
2.268271356E0,-2.050632425E-2,1.617869139E-1,-1.021321490E-1,1.924226876E-1
2.270759012E0,-3.009369783E-2,1.596563905E-1,-1.031974182E-1,1.924720780E-1
2.273246668E0,-4.181159660E-2,1.553953290E-1,-1.042626798E-1,1.917462497E-1
2.275734324E0,-5.459476262E-2,1.511342824E-1,-1.031974182E-1,1.909760889E-1
2.278221981E0,-6.950845569E-2,1.458079666E-1,-1.021321490E-1,1.911082531E-1
2.280709637E0,-8.548741043E-2,1.404816359E-1,-9.893636405E-2,1.919155843E-1
2.283197293E0,-1.035968885E-1,1.351553202E-1,-9.574057162E-2,1.953600085E-1
2.285684949E0,-1.227716357E-1,1.298290044E-1,-9.041424841E-2,2.002577869E-1
2.288172606E0,-1.430116445E-1,1.245026886E-1,-8.615319431E-2,2.082681513E-1
2.290660262E0,-1.632516533E-1,1.202416345E-1,-8.082687855E-2,2.182707889E-1
2.293147918E0,-1.834916621E-1,1.170458421E-1,-7.443529367E-2,2.300207212E-1
2.295635574E0,-2.047969401E-1,1.149153188E-1,-6.910897791E-2,2.447924999E-1
2.298123231E0,-2.261022031E-1,1.138500497E-1,-6.165213138E-2,2.605475492E-1
2.300610887E0,-2.474074811E-1,1.117195264E-1,-5.632581562E-2,2.772441375E-1
2.303098543E0,-2.676474750E-1,1.117195264E-1,-4.886896908E-2,2.941166428E-1
2.305586199E0,-2.878875136E-1,1.106542572E-1,-4.247738793E-2,3.113324809E-1
2.308073856E0,-3.070622385E-1,1.095889956E-1,-3.715106845E-2,3.281419938E-1
2.310561512E0,-3.273022473E-1,1.085237339E-1,-3.182475269E-2,3.462903071E-1
2.313049168E0,-3.454117477E-1,1.074584723E-1,-2.756369673E-2,3.627896857E-1
2.315536824E0,-3.624559641E-1,1.042626798E-1,-2.330264263E-2,3.778730547E-1
2.318024481E0,-3.795001805E-1,1.010668874E-1,-1.904158667E-2,3.931888665E-1
2.320512137E0,-3.954791129E-1,9.574057162E-2,-1.797632314E-2,4.072998084E-1
2.322999793E0,-4.114580750E-1,8.934898674E-2,-1.584579609E-2,4.213455568E-1
2.325487449E0,-4.263717830E-1,8.189214021E-2,-1.584579609E-2,4.344540358E-1
2.327975106E0,-4.412854612E-1,7.337003201E-2,-1.691105962E-2,4.476628238E-1
2.330462762E0,-4.551338851E-1,6.271740049E-2,-1.797632314E-2,4.597863351E-1
2.332950418E0,-4.668518007E-1,4.993423447E-2,-2.010685205E-2,4.699450149E-1
2.335438074E0,-4.775044322E-1,3.608580679E-2,-2.330264263E-2,4.794326662E-1
2.337925731E0,-4.870918095E-1,2.010685205E-2,-2.649843320E-2,4.882262625E-1
2.340413387E0,-4.945486486E-1,5.193160381E-3,-3.075948730E-2,4.955315134E-1
2.342901043E0,-4.988096952E-1,-9.720530361E-3,-3.395527974E-2,5.000585584E-1
2.345388699E0,-5.009402037E-1,-2.676474862E-2,-3.821633384E-2,5.031082663E-1
2.347876356E0,-5.009402037E-1,-4.167843983E-2,-4.247738793E-2,5.044625937E-1
2.350364012E0,-4.988096952E-1,-5.659212917E-2,-4.780370742E-2,5.042806516E-1
2.352851668E0,-4.934833944E-1,-7.150582224E-2,-5.313002318E-2,5.014596120E-1
2.355339324E0,-4.860265255E-1,-8.535424620E-2,-5.952160433E-2,4.970411977E-1
2.357826981E0,-4.753738940E-1,-9.920267761E-2,-6.484792382E-2,4.899252632E-1
2.360314637E0,-4.636560082E-1,-1.109205782E-1,-7.230477035E-2,4.821910912E-1
2.362802293E0,-4.498075843E-1,-1.226384789E-1,-7.869634777E-2,4.728215039E-1
2.365289949E0,-4.338286221E-1,-1.332911104E-1,-8.721846342E-2,4.621480865E-1
2.367777606E0,-4.167844057E-1,-1.428784877E-1,-9.467530251E-2,4.506516570E-1
2.370265262E0,-3.986749053E-1,-1.514005959E-1,-1.031974182E-1,4.387636353E-1
2.372752918E0,-3.805654347E-1,-1.577921808E-1,-1.095889956E-1,4.263076006E-1
2.375240574E0,-3.613906801E-1,-1.631184965E-1,-1.170458421E-1,4.134133485E-1
2.377728231E0,-3.411506712E-1,-1.673795432E-1,-1.234374270E-1,3.995453546E-1
2.380215887E0,-3.219759464E-1,-1.705753356E-1,-1.276984811E-1,3.860976007E-1
2.382703491E0,-3.017359376E-1,-1.737711281E-1,-1.308942735E-1,3.719869511E-1
2.385191095E0,-2.825611830E-1,-1.748363972E-1,-1.319595277E-1,3.575218942E-1
2.387678699E0,-2.633864284E-1,-1.748363972E-1,-1.319595277E-1,3.425689615E-1
2.390166303E0,-2.442116886E-1,-1.727058738E-1,-1.287637353E-1,3.256482262E-1
2.392653908E0,-2.261022031E-1,-1.684448123E-1,-1.255679578E-1,3.086473280E-1
2.395141512E0,-2.090579867E-1,-1.620532274E-1,-1.213068962E-1,2.910014663E-1
2.397629116E0,-1.920137703E-1,-1.556616426E-1,-1.159805804E-1,2.730408944E-1
2.400116720E0,-1.749695539E-1,-1.460742801E-1,-1.117195264E-1,2.538371381E-1
2.402604324E0,-1.600558609E-1,-1.364869028E-1,-1.053279415E-1,2.352456769E-1
2.405091928E0,-1.451421678E-1,-1.258342713E-1,-1.010668874E-1,2.170599651E-1
2.407579533E0,-1.323590130E-1,-1.151816323E-1,-9.574057162E-2,1.998798984E-1
2.410067137E0,-1.195758432E-1,-1.055942550E-1,-9.041424841E-2,1.833664781E-1
2.412554741E0,-1.089232042E-1,-9.707214683E-2,-8.615319431E-2,1.694391897E-1
2.415042345E0,-1.004010960E-1,-8.961530030E-2,-8.082687855E-2,1.569849242E-1
2.417529949E0,-9.400951862E-2,-8.215846121E-2,-7.550056279E-2,1.459045487E-1
2.420017553E0,-8.868319541E-2,-7.683213800E-2,-7.337003201E-2,1.383873122E-1
2.422505158E0,-8.548741043E-2,-7.257108390E-2,-7.123950869E-2,1.328522757E-1
2.424992762E0,-8.335687965E-2,-6.937529147E-2,-7.017423958E-2,1.291732339E-1
2.427480366E0,-8.122635633E-2,-6.831002980E-2,-7.230477035E-2,1.284210300E-1
2.429967970E0,-8.122635633E-2,-7.044056058E-2,-7.550056279E-2,1.313770472E-1
2.432455574E0,-8.229161799E-2,-7.576687634E-2,-8.082687855E-2,1.380054863E-1
2.434943178E0,-8.442214131E-2,-8.109319210E-2,-8.934898674E-2,1.472631834E-1
2.437430783E0,-8.655267209E-2,-8.855003864E-2,-9.893636405E-2,1.584956735E-1
2.439918387E0,-8.974846452E-2,-9.920267761E-2,-1.106542572E-1,1.736096851E-1
2.442405991E0,-9.187898785E-2,-1.119858399E-1,-1.245026886E-1,1.910065345E-1
2.444893595E0,-9.614004195E-2,-1.268995255E-1,-1.415469050E-1,2.130303349E-1
2.447381199E0,-1.014663652E-1,-1.450090110E-1,-1.585911214E-1,2.376429682E-1
2.449868856E0,-1.067926809E-1,-1.652490199E-1,-1.777658761E-1,2.651652729E-1
2.452356512E0,-1.121189967E-1,-1.886848211E-1,-1.980058849E-1,2.955993261E-1
2.454844168E0,-1.206411049E-1,-2.131858915E-1,-2.182458937E-1,3.280758611E-1
2.457331824E0,-1.302284747E-1,-2.408827394E-1,-2.406164259E-1,3.645273847E-1
2.459819481E0,-1.430116445E-1,-2.696448565E-1,-2.640522122E-1,4.035892093E-1
2.462307137E0,-1.579253376E-1,-2.973417044E-1,-2.874880135E-1,4.427209723E-1
2.464794793E0,-1.749695539E-1,-3.239732981E-1,-3.130543530E-1,4.832970832E-1
2.467282449E0,-1.920137703E-1,-3.506048918E-1,-3.386206925E-1,5.238864872E-1
2.469770106E0,-2.090579867E-1,-3.783017397E-1,-3.641870022E-1,5.651987444E-1
2.472257762E0,-2.261022031E-1,-4.070638716E-1,-3.908185959E-1,6.079164225E-1
2.474745418E0,-2.442116886E-1,-4.336954653E-1,-4.153196514E-1,6.482449524E-1
2.477233074E0,-2.612559199E-1,-4.613923132E-1,-4.376901984E-1,6.875392587E-1
2.479720731E0,-2.783001363E-1,-4.869586527E-1,-4.589954615E-1,7.247458375E-1
2.482208387E0,-2.932138145E-1,-5.125249624E-1,-4.781702161E-1,7.598045365E-1
2.484696043E0,-3.091927767E-1,-5.359607935E-1,-4.952144325E-1,7.925222265E-1
2.487183699E0,-3.241064548E-1,-5.540702343E-1,-5.101281404E-1,8.199204463E-1
2.489671356E0,-3.368896246E-1,-5.679186583E-1,-5.218459964E-1,8.416349954E-1
2.492159012E0,-3.486075401E-1,-5.796365738E-1,-5.293028951E-1,8.588756193E-1
2.494646668E0,-3.592601717E-1,-5.870934129E-1,-5.356944799E-1,8.721898430E-1
2.497134324E0,-3.667170107E-1,-5.945502520E-1,-5.378249884E-1,8.816048356E-1
2.499621981E0,-3.731085956E-1,-5.988113284E-1,-5.367597342E-1,8.865077796E-1
2.502109637E0,-3.763043880E-1,-5.998765826E-1,-5.314334035E-1,8.853690582E-1
2.504597293E0,-3.784348965E-1,-5.988113284E-1,-5.250418186E-1,8.817351582E-1
2.507084949E0,-3.773696423E-1,-5.945502520E-1,-5.143891573E-1,8.720631022E-1
2.509572606E0,-3.741738498E-1,-5.881586671E-1,-5.016059875E-1,8.588045495E-1
2.512060262E0,-3.688475490E-1,-5.785713196E-1,-4.877575934E-1,8.418436649E-1
2.514547918E0,-3.603254259E-1,-5.679186583E-1,-4.707133770E-1,8.209367200E-1
2.517035574E0,-3.507380486E-1,-5.540702343E-1,-4.536691606E-1,7.973874281E-1
2.519523231E0,-3.390201628E-1,-5.391565561E-1,-4.355596602E-1,7.715806377E-1
2.522010887E0,-3.241064548E-1,-5.231776237E-1,-4.174501896E-1,7.436561577E-1
2.524498543E0,-3.091927767E-1,-5.050681233E-1,-4.014712274E-1,7.154530934E-1
2.526986199E0,-2.921485603E-1,-4.869586527E-1,-3.865575492E-1,6.869543286E-1
2.529473856E0,-2.719085515E-1,-4.720449448E-1,-3.716438413E-1,6.594541948E-1
2.531961512E0,-2.506032586E-1,-4.581965208E-1,-3.609912097E-1,6.348706155E-1
2.534449168E0,-2.282327414E-1,-4.464786351E-1,-3.514038324E-1,6.123054869E-1
2.536936824E0,-2.047969401E-1,-4.379565120E-1,-3.439469934E-1,5.933356784E-1
2.539424481E0,-1.824263930E-1,-4.304996729E-1,-3.364901543E-1,5.760511966E-1
2.541912137E0,-1.589905918E-1,-4.262386262E-1,-3.322291076E-1,5.633236678E-1
2.544399793E0,-1.376853287E-1,-4.241080880E-1,-3.290333152E-1,5.541550709E-1
2.546887449E0,-1.174453199E-1,-4.241080880E-1,-3.279680312E-1,5.488388679E-1
2.549375106E0,-9.933583438E-2,-4.273038805E-1,-3.279680312E-1,5.477401242E-1
2.551862762E0,-8.335687965E-2,-4.315649271E-1,-3.311638236E-1,5.503327482E-1
2.554350418E0,-6.950845569E-2,-4.390217662E-1,-3.343596160E-1,5.562084946E-1
2.556838074E0,-5.885581672E-2,-4.486091435E-1,-3.386206925E-1,5.651355096E-1
2.559325731E0,-4.926844314E-2,-4.603270590E-1,-3.450122476E-1,5.773749490E-1
2.561813387E0,-4.181159660E-2,-4.709796906E-1,-3.514038324E-1,5.891135137E-1
2.564301043E0,-3.648528084E-2,-4.848281145E-1,-3.577954173E-1,6.036613595E-1
2.566788699E0,-3.328948840E-2,-4.997417927E-1,-3.652522564E-1,6.198864898E-1
2.569276356E0,-3.222422674E-2,-5.146554708E-1,-3.705785871E-1,6.350095619E-1
2.571764012E0,-3.115896136E-2,-5.285038948E-1,-3.748396337E-1,6.486848223E-1
2.574251668E0,-3.222422674E-2,-5.412870646E-1,-3.769701719E-1,6.604063882E-1
2.576739324E0,-3.328948840E-2,-5.508744717E-1,-3.769701719E-1,6.683392732E-1
2.579226981E0,-3.542001545E-2,-5.583313107E-1,-3.769701719E-1,6.746072491E-1
2.581714637E0,-3.861580789E-2,-5.636576414E-1,-3.748396337E-1,6.780161269E-1
2.584202293E0,-4.181159660E-2,-5.657881498E-1,-3.716438413E-1,6.782208968E-1
2.586689949E0,-4.500738904E-2,-5.625923872E-1,-3.673827946E-1,6.734285240E-1
2.589177606E0,-4.820318148E-2,-5.583313107E-1,-3.631217480E-1,6.677685251E-1
2.591665262E0,-5.246423557E-2,-5.508744717E-1,-3.567301631E-1,6.583855928E-1
2.594152918E0,-5.672528967E-2,-5.402218103E-1,-3.492733240E-1,6.457934792E-1
2.596640574E0,-6.098634377E-2,-5.285038948E-1,-3.428817391E-1,6.329325304E-1
2.599128231E0,-6.631266326E-2,-5.135902166E-1,-3.354249001E-1,6.169944437E-1
2.601615887E0,-7.057371736E-2,-4.954807460E-1,-3.279680312E-1,5.983684891E-1
2.604103543E0,-7.696529478E-2,-4.763059914E-1,-3.205111921E-1,5.792395690E-1
2.606591199E0,-8.335687965E-2,-4.539354742E-1,-3.130543530E-1,5.576816404E-1
2.609078856E0,-9.081372619E-2,-4.304996729E-1,-3.066627681E-1,5.363013654E-1
2.611566512E0,-9.933583438E-2,-4.081291258E-1,-2.992059290E-1,5.157142419E-1
2.614054168E0,-1.089232042E-1,-3.846933246E-1,-2.928143442E-1,4.955738679E-1
2.616541824E0,-1.195758432E-1,-3.623228073E-1,-2.896185517E-1,4.790147226E-1
2.619029481E0,-1.323590130E-1,-3.442133069E-1,-2.853575051E-1,4.662945578E-1
2.621517137E0,-1.462074369E-1,-3.282343447E-1,-2.832269669E-1,4.575280477E-1
2.624004793E0,-1.621863842E-1,-3.154512048E-1,-2.810964286E-1,4.525804768E-1
2.626492449E0,-1.792306006E-1,-3.058638275E-1,-2.789659202E-1,4.511078294E-1
2.628980106E0,-1.973400861E-1,-2.994722426E-1,-2.747048736E-1,4.517626603E-1
2.631467762E0,-2.154495716E-1,-2.952111959E-1,-2.704437971E-1,4.546515320E-1
2.633955418E0,-2.356895804E-1,-2.941459119E-1,-2.651174963E-1,4.608239172E-1
2.636443074E0,-2.548643351E-1,-2.952111959E-1,-2.587259114E-1,4.680219832E-1
2.638930731E0,-2.751043439E-1,-2.962764502E-1,-2.512690723E-1,4.760234045E-1
2.641418387E0,-2.932138145E-1,-3.005374968E-1,-2.427469492E-1,4.849981540E-1
2.643906043E0,-3.102580309E-1,-3.058638275E-1,-2.363553643E-1,4.956577296E-1
2.646393699E0,-3.262369931E-1,-3.133206666E-1,-2.299637944E-1,5.074285787E-1
2.648881356E0,-3.400854170E-1,-3.239732981E-1,-2.235722095E-1,5.201935424E-1
2.651369012E0,-3.539338410E-1,-3.367564678E-1,-2.193111479E-1,5.355104686E-1
2.653856668E0,-3.635212183E-1,-3.484743834E-1,-2.161153555E-1,5.479853273E-1
2.656344324E0,-3.731085956E-1,-3.612575233E-1,-2.150501013E-1,5.621063674E-1
2.658831981E0,-3.784348965E-1,-3.751059473E-1,-2.150501013E-1,5.745989807E-1
2.661319637E0,-3.837612271E-1,-3.878891170E-1,-2.161153555E-1,5.868871215E-1
2.663807293E0,-3.848264813E-1,-4.017375410E-1,-2.193111479E-1,5.979814815E-1
2.666294949E0,-3.848264813E-1,-4.134554565E-1,-2.235722095E-1,6.074712899E-1
2.668782606E0,-3.826959729E-1,-4.241080880E-1,-2.288985252E-1,6.154010179E-1
2.671270262E0,-3.784348965E-1,-4.336954653E-1,-2.363553643E-1,6.222287246E-1
2.673757918E0,-3.741738498E-1,-4.411523044E-1,-2.459427416E-1,6.285771693E-1
2.676245574E0,-3.688475490E-1,-4.475438893E-1,-2.555301189E-1,6.337504942E-1
2.678733231E0,-3.635212183E-1,-4.539354742E-1,-2.661827505E-1,6.395766940E-1
2.681220887E0,-3.571296334E-1,-4.581965208E-1,-2.779006660E-1,6.439832350E-1
2.683708543E0,-3.496727943E-1,-4.603270590E-1,-2.885532975E-1,6.460921528E-1
2.686196199E0,-3.422159553E-1,-4.613923132E-1,-2.970753908E-1,6.467212804E-1
2.688683856E0,-3.347590864E-1,-4.603270590E-1,-3.034669757E-1,6.450246914E-1
2.691171512E0,-3.273022473E-1,-4.581965208E-1,-3.087933064E-1,6.422025528E-1
2.693659168E0,-3.198454082E-1,-4.539354742E-1,-3.109238148E-1,6.364213372E-1
2.696146824E0,-3.113232851E-1,-4.464786351E-1,-3.109238148E-1,6.268484490E-1
2.698634481E0,-3.017359376E-1,-4.368912578E-1,-3.098585606E-1,6.147608272E-1
2.701122137E0,-2.921485603E-1,-4.251733422E-1,-3.077280223E-1,6.006826849E-1
2.703610366E0,-2.814959288E-1,-4.102596641E-1,-3.034669757E-1,5.827908331E-1
2.706098126E0,-2.697780132E-1,-3.942807019E-1,-2.981406748E-1,5.631388020E-1
2.708585783E0,-2.569948435E-1,-3.761712313E-1,-2.928143442E-1,5.415638328E-1
2.711073439E0,-2.442116886E-1,-3.548659384E-1,-2.874880135E-1,5.178981956E-1
2.713561095E0,-2.324937880E-1,-3.335606754E-1,-2.832269669E-1,4.955134714E-1
2.716048699E0,-2.218411565E-1,-3.090596199E-1,-2.779006660E-1,4.711264454E-1
2.718536303E0,-2.111885101E-1,-2.856238186E-1,-2.725743353E-1,4.477480551E-1
2.721023908E0,-2.026664019E-1,-2.621880174E-1,-2.672480047E-1,4.257202402E-1
2.723511512E0,-1.930790395E-1,-2.398174703E-1,-2.629869580E-1,4.049124284E-1
2.725999116E0,-1.856221855E-1,-2.195774615E-1,-2.555301189E-1,3.846628381E-1
2.728486720E0,-1.792306006E-1,-2.004027218E-1,-2.491385341E-1,3.665444969E-1
2.730974324E0,-1.728390306E-1,-1.822932363E-1,-2.406164259E-1,3.478511447E-1
2.733461928E0,-1.675127149E-1,-1.684448123E-1,-2.299637944E-1,3.306319875E-1
2.735949533E0,-1.632516533E-1,-1.556616426E-1,-2.182458937E-1,3.138676782E-1
2.738437137E0,-1.600558609E-1,-1.450090110E-1,-2.054627240E-1,2.980946541E-1
2.740924741E0,-1.568600684E-1,-1.364869028E-1,-1.916143000E-1,2.827539490E-1
2.743412710E0,-1.525990218E-1,-1.279647946E-1,-1.756353378E-1,2.655357264E-1
2.745900522E0,-1.494032294E-1,-1.205079481E-1,-1.617869139E-1,2.510348502E-1
2.748388178E0,-1.451421678E-1,-1.130511016E-1,-1.468732208E-1,2.354114344E-1
2.750875835E0,-1.408811212E-1,-1.066595241E-1,-1.330247968E-1,2.211771710E-1
2.753363491E0,-1.366200596E-1,-1.023984700E-1,-1.191763729E-1,2.082150216E-1
2.755851147E0,-1.334242672E-1,-9.813741595E-2,-1.063932031E-1,1.968565497E-1
2.758338803E0,-1.291632205E-1,-9.707214683E-2,-9.361004084E-2,1.867323726E-1
2.760826460E0,-1.259674281E-1,-9.600688517E-2,-8.189214021E-2,1.783015355E-1
2.763314116E0,-1.238368973E-1,-9.600688517E-2,-7.123950869E-2,1.721277628E-1
2.765801720E0,-1.217063740E-1,-9.600688517E-2,-6.165213138E-2,1.668255040E-1
2.768289324E0,-1.206411049E-1,-9.707214683E-2,-5.419528857E-2,1.640561099E-1
2.770776928E0,-1.195758432E-1,-9.813741595E-2,-4.673844203E-2,1.615977000E-1
2.773264533E0,-1.185105816E-1,-9.813741595E-2,-4.034686089E-2,1.590709890E-1
2.775752137E0,-1.195758432E-1,-9.707214683E-2,-3.608580679E-2,1.581883985E-1
2.778239741E0,-1.206411049E-1,-9.494162351E-2,-3.289001435E-2,1.570029971E-1
2.780727345E0,-1.217063740E-1,-9.068056941E-2,-3.075948730E-2,1.548597856E-1
2.783214949E0,-1.238368973E-1,-8.428898454E-2,-3.075948730E-2,1.529259825E-1
2.785702553E0,-1.259674281E-1,-7.789740711E-2,-3.075948730E-2,1.512677925E-1
2.788190158E0,-1.291632205E-1,-6.937529147E-2,-3.289001435E-2,1.502591816E-1
2.790677762E0,-1.334242672E-1,-6.085318699E-2,-3.608580679E-2,1.510209618E-1
2.793165366E0,-1.376853287E-1,-5.020054802E-2,-3.928159550E-2,1.517247129E-1
2.795652970E0,-1.408811212E-1,-3.741738573E-2,-4.460791498E-2,1.524382404E-1
2.798140574E0,-1.430116445E-1,-2.463422157E-2,-4.993423447E-2,1.534685737E-1
2.800628178E0,-1.462074369E-1,-1.291632187E-2,-5.419528857E-2,1.564626961E-1
2.803115783E0,-1.483379602E-1,-1.198421582E-3,-5.845634267E-2,1.594450710E-1
2.805603387E0,-1.504684836E-1,9.454214945E-3,-6.165213138E-2,1.628837992E-1
2.808090991E0,-1.515337527E-1,2.010685205E-2,-6.378266215E-2,1.656351161E-1
2.810578595E0,-1.525990218E-1,2.969422378E-2,-6.484792382E-2,1.684442388E-1
2.813066199E0,-1.547295451E-1,3.928159550E-2,-6.591318548E-2,1.727102310E-1
2.815553803E0,-1.589905918E-1,4.886896908E-2,-6.804371625E-2,1.797112454E-1
2.818041408E0,-1.611211300E-1,5.739107728E-2,-7.017423958E-2,1.848734112E-1
2.820529012E0,-1.653821766E-1,6.697845459E-2,-7.017423958E-2,1.917336737E-1
2.823016616E0,-1.685779691E-1,7.443529367E-2,-7.123950869E-2,1.975707777E-1
2.825504220E0,-1.728390306E-1,8.082687855E-2,-7.123950869E-2,2.036697876E-1
2.827991824E0,-1.781653464E-1,8.508793265E-2,-7.230477035E-2,2.102637076E-1
2.830479428E0,-1.824263930E-1,8.828372508E-2,-7.123950869E-2,2.148219556E-1
2.832967033E0,-1.856221855E-1,8.828372508E-2,-7.017423958E-2,2.171958465E-1
2.835454689E0,-1.898832470E-1,8.615319431E-2,-6.910897791E-2,2.196680933E-1
2.837942345E0,-1.941442937E-1,8.082687855E-2,-6.804371625E-2,2.210315325E-1
2.840430001E0,-1.962748319E-1,7.443529367E-2,-6.591318548E-2,2.200203868E-1
2.842917658E0,-1.984053552E-1,6.484792382E-2,-6.378266215E-2,2.182616920E-1
2.845405314E0,-1.994706094E-1,5.526055023E-2,-6.165213138E-2,2.159704557E-1
2.847892970E0,-1.984053552E-1,4.567318037E-2,-5.845634267E-2,2.118203682E-1
2.850380626E0,-1.973400861E-1,3.502054140E-2,-5.632581562E-2,2.081877648E-1
2.852868283E0,-1.941442937E-1,2.543316968E-2,-5.526055023E-2,2.034516682E-1
2.855355939E0,-1.909485012E-1,1.691105962E-2,-5.419528857E-2,1.992095464E-1
2.857843595E0,-1.856221855E-1,8.388951421E-3,-5.419528857E-2,1.935538673E-1
2.860331251E0,-1.802958697E-1,9.321057005E-4,-5.526055023E-2,1.885767692E-1
2.862818908E0,-1.739042848E-1,-6.524739787E-3,-5.632581562E-2,1.829149256E-1
2.865306564E0,-1.675127149E-1,-1.398158539E-2,-5.845634267E-2,1.779694872E-1
2.867794220E0,-1.600558609E-1,-1.930790395E-2,-6.165213138E-2,1.726026044E-1
2.870281876E0,-1.536642760E-1,-2.463422157E-2,-6.591318548E-2,1.690091791E-1
2.872769533E0,-1.451421678E-1,-2.783001214E-2,-7.123950869E-2,1.640604341E-1
2.875257189E0,-1.387505829E-1,-2.889527567E-2,-7.656582445E-2,1.610868918E-1
2.877744845E0,-1.323590130E-1,-2.889527567E-2,-8.082687855E-2,1.577556007E-1
2.880232501E0,-1.259674281E-1,-2.676474862E-2,-8.615319431E-2,1.549403679E-1
2.882720158E0,-1.206411049E-1,-2.250369452E-2,-9.147951752E-2,1.530659811E-1
2.885207814E0,-1.153147891E-1,-1.611211337E-2,-9.574057162E-2,1.507426875E-1
2.887695470E0,-1.121189967E-1,-8.655266836E-3,-1.010668874E-1,1.511955647E-1
2.890183126E0,-1.099884734E-1,9.321057005E-4,-1.053279415E-1,1.522902109E-1
2.892670783E0,-1.078579426E-1,1.051947847E-2,-1.106542572E-1,1.548817609E-1
2.895158439E0,-1.067926809E-1,2.010685205E-2,-1.170458421E-1,1.597144056E-1
2.897646095E0,-1.078579426E-1,2.969422378E-2,-1.223721579E-1,1.658011693E-1
2.900133751E0,-1.089232042E-1,3.821633384E-2,-1.287637353E-1,1.729301944E-1
2.902621408E0,-1.110537350E-1,4.673844203E-2,-1.372858584E-1,1.826603978E-1
2.905109064E0,-1.131842583E-1,5.419528857E-2,-1.447426975E-1,1.915678838E-1
2.907596720E0,-1.163800508E-1,5.952160433E-2,-1.532648057E-1,2.014379266E-1
2.910084376E0,-1.185105816E-1,6.271740049E-2,-1.649827063E-1,2.125970923E-1
2.912572033E0,-1.217063740E-1,6.484792382E-2,-1.777658761E-1,2.249853359E-1
2.915059689E0,-1.238368973E-1,6.484792382E-2,-1.905490309E-1,2.363255457E-1
2.917547345E0,-1.249021590E-1,6.378266215E-2,-2.065279931E-1,2.496449263E-1
2.920035001E0,-1.238368973E-1,6.058686972E-2,-2.246374637E-1,2.635684655E-1
2.922522658E0,-1.227716357E-1,5.632581562E-2,-2.438122183E-1,2.787290258E-1
2.925010314E0,-1.185105816E-1,4.993423447E-2,-2.640522122E-1,2.937035180E-1
2.927497970E0,-1.131842583E-1,4.247738793E-2,-2.864227593E-1,3.108906590E-1
2.929985626E0,-1.057274193E-1,3.395527974E-2,-3.098585606E-1,3.291558533E-1
2.932473283E0,-9.507478029E-2,2.436790615E-2,-3.322291076E-1,3.464234239E-1
2.934960939E0,-8.335687965E-2,1.584579609E-2,-3.556649089E-1,3.656459846E-1
2.937448595E0,-6.844318658E-2,6.258423906E-3,-3.780354261E-1,3.842322489E-1
2.939936251E0,-5.139897019E-2,-4.394212738E-3,-4.004059732E-1,4.037153782E-1
2.942423908E0,-3.115896136E-2,-1.398158539E-2,-4.217112362E-1,4.230918723E-1
2.944911564E0,-9.853689000E-3,-2.250369452E-2,-4.408859909E-1,4.415698907E-1
2.947399220E0,1.358211134E-2,-3.102580272E-2,-4.568649530E-1,4.581186085E-1
2.949886876E0,3.808317333E-2,-3.848264739E-2,-4.696480930E-1,4.727584727E-1
2.952374533E0,6.471476704E-2,-4.380896688E-2,-4.813660085E-1,4.876683923E-1
2.954862189E0,9.241162241E-2,-5.020054802E-2,-4.888228476E-1,5.000077793E-1
2.957349845E0,1.190432087E-1,-5.446160212E-2,-4.941491783E-1,5.111954245E-1
2.959837501E0,1.478053331E-1,-5.659212917E-2,-4.952144325E-1,5.198907767E-1
2.962325158E0,1.733716577E-1,-5.872265995E-2,-4.941491783E-1,5.269625156E-1
2.964812814E0,1.989379823E-1,-6.085318699E-2,-4.877575934E-1,5.302705923E-1
2.967300470E0,2.223737836E-1,-6.085318699E-2,-4.792354703E-1,5.318080913E-1
2.969788126E0,2.447443157E-1,-6.085318699E-2,-4.675175846E-1,5.312020165E-1
2.972275783E0,2.649843395E-1,-6.085318699E-2,-4.536691606E-1,5.289002910E-1
2.974763439E0,2.830938101E-1,-5.978792161E-2,-4.355596602E-1,5.229043110E-1
2.977251095E0,2.990727723E-1,-5.872265995E-2,-4.142543972E-1,5.142952260E-1
2.979738751E0,3.118559420E-1,-5.765739456E-2,-3.918838501E-1,5.041343627E-1
2.982226408E0,3.203780353E-1,-5.552686751E-2,-3.663175404E-1,4.898100233E-1
2.984714064E0,3.278348744E-1,-5.126581341E-2,-3.386206925E-1,4.740968908E-1
2.987201720E0,3.310306668E-1,-4.593949392E-2,-3.087933064E-1,4.550220275E-1
2.989689376E0,3.310306668E-1,-3.954791278E-2,-2.789659202E-1,4.347037203E-1
2.992177033E0,3.289001584E-1,-3.102580272E-2,-2.459427416E-1,4.118564638E-1
2.994664689E0,3.235738277E-1,-2.143843099E-2,-2.118543088E-1,3.873523932E-1
2.997152345E0,3.161169887E-1,-9.720530361E-3,-1.756353378E-1,3.617626447E-1
2.999640001E0,3.065296113E-1,1.997369342E-3,-1.383511126E-1,3.363114962E-1
3.002127658E0,2.969422340E-1,1.478053257E-2,-1.000016257E-1,3.136773496E-1
3.004615314E0,2.862896025E-1,2.756369673E-2,-6.058686972E-2,2.939256074E-1
3.007102970E0,2.745717168E-1,4.034686089E-2,-2.117211558E-2,2.783267061E-1
3.009590626E0,2.617885470E-1,5.206476152E-2,1.717737690E-2,2.674678392E-1
3.012078283E0,2.500706315E-1,6.484792382E-2,5.659212917E-2,2.644678488E-1
3.014565939E0,2.372874767E-1,7.869634777E-2,9.600688517E-2,2.677980279E-1
3.017053595E0,2.255695760E-1,9.254477918E-2,1.322258562E-1,2.773623025E-1
3.019541251E0,2.127864063E-1,1.063932031E-1,1.673795432E-1,2.908839629E-1
3.022028908E0,2.010685056E-1,1.202416345E-1,2.014679909E-1,3.089918219E-1
3.024516564E0,1.904158741E-1,1.351553202E-1,2.312953621E-1,3.286680852E-1
3.027004220E0,1.797632426E-1,1.490037590E-1,2.589922249E-1,3.487031921E-1
3.029491876E0,1.701758653E-1,1.639174372E-1,2.845585644E-1,3.698679872E-1
3.031979533E0,1.616537571E-1,1.788311303E-1,3.069290817E-1,3.902793506E-1
3.034467189E0,1.531316489E-1,1.937448233E-1,3.261038363E-1,4.090599840E-1
3.036954845E0,1.446095407E-1,2.097237855E-1,3.420827985E-1,4.265168537E-1
3.039442501E0,1.371526867E-1,2.257027328E-1,3.548659384E-1,4.423600539E-1
3.041930158E0,1.286305785E-1,2.416816950E-1,3.665838540E-1,4.575364351E-1
3.044417814E0,1.211737394E-1,2.587259114E-1,3.740406930E-1,4.706682615E-1
3.046905470E0,1.115863696E-1,2.747048736E-1,3.793670237E-1,4.814910426E-1
3.049393126E0,1.009337306E-1,2.896185517E-1,3.825628161E-1,4.903272701E-1
3.051880783E0,9.134636074E-2,3.024017215E-1,3.825628161E-1,4.961302924E-1
3.054368439E0,7.856319100E-2,3.151848912E-1,3.814975321E-1,5.010529490E-1
3.056856095E0,6.578002870E-2,3.258375227E-1,3.772364855E-1,5.027966481E-1
3.059343751E0,5.086633936E-2,3.343596160E-1,3.708449006E-1,5.019060446E-1
3.061831408E0,3.382211924E-2,3.407512009E-1,3.633880615E-1,4.993057179E-1
3.064319064E0,1.677790284E-2,3.439469934E-1,3.527354300E-1,4.929536650E-1
3.066806720E0,-2.396843163E-3,3.450122476E-1,3.388870060E-1,4.836151349E-1
3.069294376E0,-2.263685316E-2,3.439469934E-1,3.261038363E-1,4.745057148E-1
3.071782033E0,-4.394212365E-2,3.407512009E-1,3.111901283E-1,4.635532193E-1
3.074269689E0,-6.631266326E-2,3.354249001E-1,2.941459119E-1,4.510310969E-1
3.076757345E0,-8.974846452E-2,3.290333152E-1,2.771016955E-1,4.394349315E-1
3.079245001E0,-1.153147891E-1,3.215764761E-1,2.579269707E-1,4.280598706E-1
3.081732658E0,-1.419463754E-1,3.141196072E-1,2.376869470E-1,4.187063241E-1
3.084220314E0,-1.685779691E-1,3.045322299E-1,2.163816839E-1,4.098529539E-1
3.086707970E0,-1.962748319E-1,2.949448824E-1,1.961416751E-1,4.049541332E-1
3.089195626E0,-2.229064107E-1,2.853575051E-1,1.748363972E-1,4.020994148E-1
3.091683283E0,-2.506032586E-1,2.747048736E-1,1.535311192E-1,4.022891564E-1
3.094170939E0,-2.772348523E-1,2.629869580E-1,1.343563795E-1,4.050591810E-1
3.096658595E0,-3.038664460E-1,2.502037883E-1,1.141163707E-1,4.098283772E-1
3.099146251E0,-3.294327855E-1,2.363553643E-1,9.387636185E-2,4.161761523E-1
3.101633908E0,-3.539338410E-1,2.235722095E-1,7.576687634E-2,4.254342678E-1
3.104121564E0,-3.763043880E-1,2.097237855E-1,5.765739456E-2,4.346417304E-1
3.106609220E0,-3.986749053E-1,1.980058849E-1,4.274370521E-2,4.471856828E-1
3.109096876E0,-4.189149141E-1,1.852227151E-1,2.783001214E-2,4.588808877E-1
3.111584533E0,-4.380896688E-1,1.724395454E-1,1.504684892E-2,4.710460300E-1
3.114072189E0,-4.540686309E-1,1.596563905E-1,4.394212738E-3,4.813395826E-1
3.116559845E0,-4.679170549E-1,1.490037590E-1,-5.193160381E-3,4.910961814E-1
3.119047501E0,-4.796349406E-1,1.383511126E-1,-1.158474199E-2,4.993244565E-1
3.121535158E0,-4.881570637E-1,1.276984811E-1,-1.797632314E-2,5.049033265E-1
3.124022814E0,-4.934833944E-1,1.191763729E-1,-2.223737910E-2,5.081568355E-1
3.126510470E0,-4.956139028E-1,1.127847880E-1,-2.756369673E-2,5.090317342E-1
3.128998126E0,-4.966791868E-1,1.063932031E-1,-3.075948730E-2,5.088770719E-1
3.131485783E0,-4.934833944E-1,1.031974182E-1,-3.502054140E-2,5.053731354E-1
3.133973439E0,-4.870918095E-1,1.000016257E-1,-3.821633384E-2,4.987175997E-1
3.136461095E0,-4.785696864E-1,9.787109494E-2,-4.247738793E-2,4.903182889E-1
3.138948751E0,-4.647212625E-1,9.680583328E-2,-4.673844203E-2,4.769923512E-1
3.141436408E0,-4.508728385E-1,9.680583328E-2,-5.099949613E-2,4.639597337E-1
3.143924064E0,-4.338286221E-1,9.787109494E-2,-5.419528857E-2,4.480213766E-1
3.146411720E0,-4.135886133E-1,9.893636405E-2,-5.845634267E-2,4.292564375E-1
3.148899376E0,-3.933486044E-1,1.000016257E-1,-6.271740049E-2,4.106786117E-1
3.151387033E0,-3.688475490E-1,1.010668874E-1,-6.697845459E-2,3.882642702E-1
3.153874689E0,-3.443464637E-1,1.031974182E-1,-7.123950869E-2,3.664686368E-1
3.156362345E0,-3.177148700E-1,1.042626798E-1,-7.656582445E-2,3.430390218E-1
3.158850001E0,-2.900180221E-1,1.042626798E-1,-8.189214021E-2,3.188847474E-1
3.161337658E0,-2.612559199E-1,1.031974182E-1,-8.721846342E-2,2.941282427E-1
3.163825314E0,-2.324937880E-1,1.010668874E-1,-9.254477918E-2,2.698748105E-1
3.166312970E0,-2.026664019E-1,9.893636405E-2,-9.787109494E-2,2.458471594E-1
3.168800626E0,-1.728390306E-1,9.574057162E-2,-1.042626798E-1,2.234061189E-1
3.171288283E0,-1.430116445E-1,9.254477918E-2,-1.095889956E-1,2.025502766E-1
3.173775939E0,-1.131842583E-1,8.721846342E-2,-1.149153188E-1,1.833664833E-1
3.176263595E0,-8.335687965E-2,8.082687855E-2,-1.202416345E-1,1.671508431E-1
3.178751251E0,-5.246423557E-2,7.337003201E-2,-1.255679578E-1,1.546058525E-1
3.181238908E0,-2.370211668E-2,6.591318548E-2,-1.298290044E-1,1.475191809E-1
3.183726564E0,3.994738683E-3,5.632581562E-2,-1.340900660E-1,1.454946777E-1
3.186214220E0,3.169159219E-2,4.673844203E-2,-1.383511126E-1,1.494318217E-1
3.188701876E0,5.619265884E-2,3.608580679E-2,-1.415469050E-1,1.565098294E-1
3.191189533E0,7.962846011E-2,2.543316968E-2,-1.458079666E-1,1.680699286E-1
3.193677189E0,1.019989923E-1,1.371526904E-2,-1.479384899E-1,1.802157036E-1
3.196164845E0,1.211737394E-1,1.997369342E-3,-1.511342824E-1,1.937230908E-1
3.198652501E0,1.392832249E-1,-8.655266836E-3,-1.521995366E-1,2.064931702E-1
3.201140158E0,1.531316489E-1,-1.824264042E-2,-1.543300748E-1,2.181739393E-1
3.203628283E0,1.648495495E-1,-2.783001214E-2,-1.543300748E-1,2.275250657E-1
3.206115835E0,1.755021811E-1,-3.848264739E-2,-1.553953290E-1,2.375492327E-1
3.208603387E0,1.829590350E-1,-4.700475931E-2,-1.564605981E-1,2.452822347E-1
3.211090939E0,1.872200817E-1,-5.552686751E-2,-1.553953290E-1,2.495642207E-1
3.213578491E0,1.904158741E-1,-6.404897571E-2,-1.532648057E-1,2.526867172E-1
3.216066043E0,1.914811432E-1,-7.257108390E-2,-1.532648057E-1,2.557766430E-1
3.218553595E0,1.904158741E-1,-8.109319210E-2,-1.511342824E-1,2.562730618E-1
3.221041147E0,1.882853508E-1,-9.068056941E-2,-1.500690132E-1,2.572839827E-1
3.223528699E0,1.850895584E-1,-9.920267761E-2,-1.490037590E-1,2.574906524E-1
3.226016251E0,1.818937659E-1,-1.066595241E-1,-1.479384899E-1,2.575798769E-1
3.228503803E0,1.765674502E-1,-1.130511016E-1,-1.458079666E-1,2.553753691E-1
3.230991356E0,1.712411344E-1,-1.194426864E-1,-1.436774284E-1,2.534428631E-1
3.233478908E0,1.648495495E-1,-1.237037405E-1,-1.426121742E-1,2.506316453E-1
3.235966460E0,1.584579647E-1,-1.268995255E-1,-1.383511126E-1,2.456693845E-1
3.238454064E0,1.520663798E-1,-1.290300637E-1,-1.351553202E-1,2.409147189E-1
3.240941668E0,1.446095407E-1,-1.300953180E-1,-1.308942735E-1,2.344568657E-1
3.243429533E0,1.371526867E-1,-1.279647946E-1,-1.255679578E-1,2.257280668E-1
3.245917397E0,1.307611167E-1,-1.237037405E-1,-1.213068962E-1,2.170632354E-1
3.248405262E0,1.233042628E-1,-1.162468940E-1,-1.170458421E-1,2.059539044E-1
3.250893126E0,1.179779470E-1,-1.087900475E-1,-1.117195264E-1,1.955385460E-1
3.253380991E0,1.126516312E-1,-9.920267761E-2,-1.074584723E-1,1.846046709E-1
3.255868856E0,1.073253155E-1,-8.855003864E-2,-1.031974182E-1,1.732326176E-1
3.258356512E0,1.041295230E-1,-7.789740711E-2,-1.000016257E-1,1.640466054E-1
3.260844116E0,1.009337306E-1,-6.724476814E-2,-9.467530251E-2,1.538599679E-1
3.263331720E0,9.880319983E-2,-5.765739456E-2,-9.147951752E-2,1.464750817E-1
3.265819324E0,9.667267650E-2,-4.807002097E-2,-8.721846342E-2,1.387926283E-1
3.268306928E0,9.347688407E-2,-4.061317816E-2,-8.295740932E-2,1.314126701E-1
3.270794533E0,9.134636074E-2,-3.422159329E-2,-7.976161689E-2,1.260047245E-1
3.273282137E0,8.708529919E-2,-2.889527567E-2,-7.763108611E-2,1.201889006E-1
3.275769741E0,8.175898343E-2,-2.463422157E-2,-7.550056279E-2,1.139811880E-1
3.278257345E0,7.536740601E-2,-2.356895804E-2,-7.443529367E-2,1.085189136E-1
3.280744949E0,6.684529036E-2,-2.250369452E-2,-7.337003201E-2,1.017736248E-1
3.283232553E0,5.832318589E-2,-2.250369452E-2,-7.337003201E-2,9.639072506E-2
3.285720158E0,4.873581231E-2,-2.250369452E-2,-7.443529367E-2,9.177259184E-2
3.288207762E0,3.808317333E-2,-2.356895804E-2,-7.550056279E-2,8.778473020E-2
3.290695366E0,2.636527456E-2,-2.463422157E-2,-7.763108611E-2,8.560699800E-2
3.293182970E0,1.358211134E-2,-2.569948509E-2,-7.976161689E-2,8.489318471E-2
3.295670574E0,1.864211401E-3,-2.676474862E-2,-8.189214021E-2,8.617511056E-2
3.298158178E0,-1.091895252E-2,-2.676474862E-2,-8.508793265E-2,8.986396149E-2
3.300645783E0,-2.370211668E-2,-2.783001214E-2,-8.721846342E-2,9.456934108E-2
3.303133387E0,-3.542001545E-2,-2.783001214E-2,-9.147951752E-2,1.019685696E-1
3.305620991E0,-4.713791609E-2,-2.783001214E-2,-9.467530251E-2,1.093613534E-1
3.308108595E0,-5.885581672E-2,-2.783001214E-2,-9.893636405E-2,1.184353025E-1
3.310596199E0,-7.057371736E-2,-2.783001214E-2,-1.042626798E-1,1.289413260E-1
3.313083803E0,-8.122635633E-2,-2.783001214E-2,-1.095889956E-1,1.392191743E-1
3.315571408E0,-9.187898785E-2,-2.996053919E-2,-1.159805804E-1,1.509664776E-1
3.318059012E0,-1.035968885E-1,-3.209106624E-2,-1.234374270E-1,1.643135728E-1
3.320546616E0,-1.163800508E-1,-3.528685868E-2,-1.298290044E-1,1.778905534E-1
3.323034220E0,-1.280979514E-1,-3.954791278E-2,-1.383511126E-1,1.926503385E-1
3.325521824E0,-1.419463754E-1,-4.380896688E-2,-1.458079666E-1,2.081536985E-1
3.328009428E0,-1.568600684E-1,-4.913528636E-2,-1.532648057E-1,2.247430935E-1
3.330497085E0,-1.739042848E-1,-5.552686751E-2,-1.607216448E-1,2.432229027E-1
3.332984741E0,-1.909485012E-1,-6.298371404E-2,-1.671132296E-1,2.614481017E-1
3.335472397E0,-2.079927325E-1,-7.044056058E-2,-1.735048145E-1,2.798692016E-1
3.337960053E0,-2.250369489E-1,-7.896266878E-2,-1.788311303E-1,2.980894238E-1
3.340447710E0,-2.431464195E-1,-8.641951531E-2,-1.820269227E-1,3.157884015E-1
3.342935366E0,-2.623211741E-1,-9.281109273E-2,-1.841574460E-1,3.336768830E-1
3.345423022E0,-2.793653905E-1,-1.002679393E-1,-1.862879843E-1,3.504310120E-1
3.347910678E0,-2.953443527E-1,-1.045289934E-1,-1.873532385E-1,3.650422347E-1
3.350398335E0,-3.113232851E-1,-1.077247858E-1,-1.873532385E-1,3.789829195E-1
3.352885991E0,-3.273022473E-1,-1.087900475E-1,-1.852227151E-1,3.914964747E-1
3.355373647E0,-3.422159553E-1,-1.077247858E-1,-1.809616536E-1,4.018252227E-1
3.357861303E0,-3.560643792E-1,-1.066595241E-1,-1.756353378E-1,4.111032329E-1
3.360348960E0,-3.688475490E-1,-1.045289934E-1,-1.681784987E-1,4.186392627E-1
3.362836616E0,-3.805654347E-1,-1.023984700E-1,-1.607216448E-1,4.256136086E-1
3.365324272E0,-3.922833502E-1,-9.920267761E-2,-1.532648057E-1,4.326863746E-1
3.367811928E0,-4.008054435E-1,-9.600688517E-2,-1.447426975E-1,4.368212152E-1
3.370299585E0,-4.082622826E-1,-9.281109273E-2,-1.351553202E-1,4.399533508E-1
3.372787241E0,-4.146538675E-1,-9.068056941E-2,-1.255679578E-1,4.426376707E-1
3.375274897E0,-4.210454524E-1,-8.855003864E-2,-1.159805804E-1,4.456140453E-1
3.377762553E0,-4.242412448E-1,-8.748477697E-2,-1.063932031E-1,4.460423003E-1
3.380250210E0,-4.274370372E-1,-8.535424620E-2,-9.680583328E-2,4.464965145E-1
3.382737866E0,-4.295675755E-1,-8.322372288E-2,-8.828372508E-2,4.463726090E-1
3.385225522E0,-4.306328297E-1,-8.215846121E-2,-7.869634777E-2,4.454074111E-1
3.387713178E0,-4.285022914E-1,-8.215846121E-2,-7.017423958E-2,4.419147547E-1
3.390200835E0,-4.263717830E-1,-8.215846121E-2,-6.271740049E-2,4.387213038E-1
3.392688491E0,-4.221107066E-1,-8.322372288E-2,-5.632581562E-2,4.339080941E-1
3.395176147E0,-4.167844057E-1,-8.428898454E-2,-5.206476152E-2,4.283977278E-1
3.397663803E0,-4.093275666E-1,-8.641951531E-2,-4.780370742E-2,4.210731336E-1
3.400151460E0,-4.018706977E-1,-8.961530030E-2,-4.460791498E-2,4.141507284E-1
3.402639116E0,-3.922833502E-1,-9.281109273E-2,-4.247738793E-2,4.053448585E-1
3.405126772E0,-3.826959729E-1,-9.707214683E-2,-4.141212255E-2,3.969813261E-1
3.407614428E0,-3.720433414E-1,-1.023984700E-1,-4.141212255E-2,3.880936207E-1
3.410102085E0,-3.603254259E-1,-1.055942550E-1,-4.247738793E-2,3.778741691E-1
3.412589741E0,-3.486075401E-1,-1.109205782E-1,-4.247738793E-2,3.682864649E-1
3.415077397E0,-3.368896246E-1,-1.141163707E-1,-4.354264960E-2,3.583477746E-1
3.417565053E0,-3.241064548E-1,-1.194426864E-1,-4.460791498E-2,3.482835275E-1
3.420052710E0,-3.123885691E-1,-1.237037405E-1,-4.460791498E-2,3.389381944E-1
3.422540366E0,-3.006706536E-1,-1.290300637E-1,-4.354264960E-2,3.300720552E-1
3.425028022E0,-2.889527678E-1,-1.311605871E-1,-4.247738793E-2,3.201579768E-1
3.427515678E0,-2.783001363E-1,-1.343563795E-1,-4.141212255E-2,3.117973164E-1
3.430003335E0,-2.676474750E-1,-1.343563795E-1,-3.821633384E-2,3.019061042E-1
3.432490991E0,-2.580601275E-1,-1.343563795E-1,-3.502054140E-2,2.930411310E-1
3.434978647E0,-2.495380044E-1,-1.332911104E-1,-3.075948730E-2,2.845731572E-1
3.437466303E0,-2.410158962E-1,-1.311605871E-1,-2.649843320E-2,2.756699635E-1
3.439953960E0,-2.324937880E-1,-1.279647946E-1,-2.223737910E-2,2.663134453E-1
3.442441616E0,-2.250369489E-1,-1.247690022E-1,-1.797632314E-2,2.579381331E-1
3.444929272E0,-2.186453640E-1,-1.226384789E-1,-1.265000552E-2,2.510099886E-1
3.447416928E0,-2.143843025E-1,-1.215732098E-1,-8.388951421E-3,2.465989639E-1
3.449904585E0,-2.111885101E-1,-1.194426864E-1,-3.062632866E-3,2.426448471E-1
3.452392241E0,-2.101232558E-1,-1.183774248E-1,-9.321057005E-4,2.411760066E-1
3.454879897E0,-2.090579867E-1,-1.173121557E-1,3.328948980E-3,2.397466696E-1
3.457367553E0,-2.101232558E-1,-1.162468940E-1,6.524739787E-3,2.402242603E-1
3.459855210E0,-2.111885101E-1,-1.173121557E-1,9.720530361E-3,2.417792740E-1
3.462342866E0,-2.143843025E-1,-1.173121557E-1,1.185105834E-2,2.446696111E-1
3.464830522E0,-2.165148407E-1,-1.173121557E-1,1.611211337E-2,2.467801011E-1
3.467318178E0,-2.197106332E-1,-1.173121557E-1,1.824264042E-2,2.497352561E-1
3.469805835E0,-2.218411565E-1,-1.215732098E-1,2.143843099E-2,2.538762501E-1
3.472293491E0,-2.239716798E-1,-1.258342713E-1,2.250369452E-2,2.578836820E-1
3.474781147E0,-2.261022031E-1,-1.311605871E-1,2.463422157E-2,2.625493301E-1
3.477268803E0,-2.282327414E-1,-1.375521719E-1,2.569948509E-2,2.677148628E-1
3.479756460E0,-2.292979956E-1,-1.418132186E-1,2.783001214E-2,2.710407152E-1
3.482244116E0,-2.314285189E-1,-1.482048035E-1,2.676474862E-2,2.761162344E-1
3.484731772E0,-2.335590571E-1,-1.545963883E-1,2.463422157E-2,2.811702710E-1
3.487219428E0,-2.356895804E-1,-1.609879732E-1,2.143843099E-2,2.862277278E-1
3.489707085E0,-2.378201038E-1,-1.684448123E-1,1.717737690E-2,2.919368405E-1
3.492194741E0,-2.399506420E-1,-1.759016514E-1,1.185105834E-2,2.977551832E-1
3.494682397E0,-2.420811653E-1,-1.844237745E-1,6.524739787E-3,3.043977520E-1
3.497170053E0,-2.452769578E-1,-1.929458827E-1,1.331579551E-4,3.120719747E-1
3.499657710E0,-2.484727502E-1,-2.004027218E-1,-7.323687430E-3,3.193017301E-1
3.502145366E0,-2.506032586E-1,-2.078595608E-1,-1.478053257E-2,3.259233873E-1
3.504633022E0,-2.527337968E-1,-2.131858915E-1,-2.330264263E-2,3.314598159E-1
3.507120678E0,-2.548643351E-1,-2.163816839E-1,-3.182475269E-2,3.358417445E-1
3.509608335E0,-2.559295893E-1,-2.185122073E-1,-4.141212255E-2,3.390612088E-1
3.512095991E0,-2.569948435E-1,-2.206427306E-1,-4.993423447E-2,3.423784338E-1
3.514583647E0,-2.559295893E-1,-2.217079997E-1,-5.739107728E-2,3.434357692E-1
3.517071303E0,-2.559295893E-1,-2.206427306E-1,-6.484792382E-2,3.440761870E-1
3.519558960E0,-2.548643351E-1,-2.185122073E-1,-7.230477035E-2,3.434114061E-1
3.522046616E0,-2.527337968E-1,-2.153164148E-1,-7.869634777E-2,3.412164206E-1
3.524534272E0,-2.506032586E-1,-2.121206224E-1,-8.508793265E-2,3.391712074E-1
3.527021928E0,-2.484727502E-1,-2.067943066E-1,-8.934898674E-2,3.353890789E-1
3.529509585E0,-2.442116886E-1,-2.004027218E-1,-9.254477918E-2,3.291886023E-1
3.531997241E0,-2.388853729E-1,-1.929458827E-1,-9.467530251E-2,3.213374362E-1
3.534484897E0,-2.335590571E-1,-1.854890287E-1,-9.467530251E-2,3.129207980E-1
3.536972553E0,-2.271674722E-1,-1.769669205E-1,-9.361004084E-2,3.027956260E-1
3.539460210E0,-2.207758874E-1,-1.673795432E-1,-9.147951752E-2,2.917642988E-1
3.541947866E0,-2.154495716E-1,-1.588574350E-1,-8.721846342E-2,2.815337687E-1
3.544435522E0,-2.101232558E-1,-1.492700726E-1,-8.189214021E-2,2.704434504E-1
3.546923178E0,-2.047969401E-1,-1.407479644E-1,-7.656582445E-2,2.600271171E-1
3.549410835E0,-2.016011477E-1,-1.332911104E-1,-7.017423958E-2,2.516624063E-1
3.551898491E0,-1.984053552E-1,-1.258342713E-1,-6.484792382E-2,2.437297726E-1
3.554386147E0,-1.962748319E-1,-1.205079481E-1,-5.952160433E-2,2.378839981E-1
3.556873803E0,-1.962748319E-1,-1.151816323E-1,-5.526055023E-2,2.341886984E-1
3.559361460E0,-1.962748319E-1,-1.109205782E-1,-4.993423447E-2,2.309125637E-1
3.561849116E0,-1.973400861E-1,-1.055942550E-1,-4.460791498E-2,2.282172701E-1
3.564336772E0,-1.994706094E-1,-1.023984700E-1,-4.141212255E-2,2.280108212E-1
3.566824428E0,-2.037316710E-1,-1.002679393E-1,-3.821633384E-2,2.302623321E-1
3.569312085E0,-2.079927325E-1,-9.813741595E-2,-3.715106845E-2,2.329637978E-1
3.571799741E0,-2.122537792E-1,-1.002679393E-1,-3.715106845E-2,2.376668431E-1
3.574287397E0,-2.175800949E-1,-1.013332009E-1,-3.821633384E-2,2.430432132E-1
3.576775053E0,-2.239716798E-1,-1.034637317E-1,-4.034686089E-2,2.499918525E-1
3.579262710E0,-2.292979956E-1,-1.055942550E-1,-4.354264960E-2,2.561711924E-1
3.581750366E0,-2.346243113E-1,-1.087900475E-1,-4.673844203E-2,2.628085308E-1
3.584238022E0,-2.410158962E-1,-1.130511016E-1,-5.099949613E-2,2.710537998E-1
3.586725678E0,-2.463422120E-1,-1.173121557E-1,-5.632581562E-2,2.786022699E-1
3.589213335E0,-2.516685426E-1,-1.237037405E-1,-6.058686972E-2,2.868979602E-1
3.591700991E0,-2.569948435E-1,-1.311605871E-1,-6.697845459E-2,2.962018949E-1
3.594188647E0,-2.623211741E-1,-1.396826953E-1,-7.337003201E-2,3.061156895E-1
3.596676303E0,-2.687127590E-1,-1.492700726E-1,-7.976161689E-2,3.175689169E-1
3.599163960E0,-2.751043439E-1,-1.588574350E-1,-8.508793265E-2,3.288738983E-1
3.601651616E0,-2.814959288E-1,-1.705753356E-1,-9.147951752E-2,3.416202646E-1
3.604139272E0,-2.900180221E-1,-1.812279820E-1,-9.574057162E-2,3.551341882E-1
3.606626928E0,-2.985401452E-1,-1.940111369E-1,-1.000016257E-1,3.698200436E-1
3.609114585E0,-3.091927767E-1,-2.078595608E-1,-1.042626798E-1,3.868804422E-1
3.611602241E0,-3.209106624E-1,-2.217079997E-1,-1.085237339E-1,4.048647814E-1
3.614089897E0,-3.336938322E-1,-2.366216928E-1,-1.117195264E-1,4.240550102E-1
3.616577553E0,-3.486075401E-1,-2.515353858E-1,-1.149153188E-1,4.449750531E-1
3.619065210E0,-3.645864725E-1,-2.664490640E-1,-1.170458421E-1,4.664955828E-1
3.621552866E0,-3.826959729E-1,-2.802974880E-1,-1.191763729E-1,4.891072452E-1
3.624040522E0,-4.029359818E-1,-2.920154035E-1,-1.191763729E-1,5.116965987E-1
3.626528178E0,-4.231759906E-1,-3.026680350E-1,-1.202416345E-1,5.339886788E-1
3.629015835E0,-4.444812536E-1,-3.122554123E-1,-1.202416345E-1,5.563497803E-1
3.631503491E0,-4.647212625E-1,-3.207775056E-1,-1.181111038E-1,5.769005917E-1
3.633991147E0,-4.849612713E-1,-3.282343447E-1,-1.159805804E-1,5.969729598E-1
3.636478803E0,-5.041360259E-1,-3.346259296E-1,-1.127847880E-1,6.155063393E-1
3.638966460E0,-5.222455263E-1,-3.388870060E-1,-1.106542572E-1,6.323204546E-1
3.641454116E0,-5.382244587E-1,-3.399522603E-1,-1.063932031E-1,6.454243727E-1
3.643941772E0,-5.510076284E-1,-3.388870060E-1,-1.000016257E-1,6.545640798E-1
3.646429428E0,-5.605949759E-1,-3.335606754E-1,-9.361004084E-2,6.590085667E-1
3.648917085E0,-5.680518150E-1,-3.271690905E-1,-8.721846342E-2,6.613089586E-1
3.651404741E0,-5.723128915E-1,-3.175817132E-1,-7.976161689E-2,6.593649262E-1
3.653892397E0,-5.733781457E-1,-3.058638275E-1,-7.230477035E-2,6.538678450E-1
3.656380053E0,-5.701823831E-1,-2.941459119E-1,-6.484792382E-2,6.448527124E-1
3.658867710E0,-5.659213066E-1,-2.792322338E-1,-5.845634267E-2,6.337623448E-1
3.661355366E0,-5.573992133E-1,-2.643185556E-1,-5.313002318E-2,6.191776653E-1
3.663843022E0,-5.467465520E-1,-2.494048476E-1,-4.993423447E-2,6.030157526E-1
3.666330678E0,-5.328981280E-1,-2.366216928E-1,-4.673844203E-2,5.849399305E-1
3.668818335E0,-5.179844499E-1,-2.238385230E-1,-4.460791498E-2,5.660401406E-1
3.671305991E0,-5.009402037E-1,-2.142511457E-1,-4.354264960E-2,5.465716819E-1
3.673793647E0,-4.828307331E-1,-2.057290375E-1,-4.460791498E-2,5.267255640E-1
3.676281303E0,-4.636560082E-1,-1.993374527E-1,-4.780370742E-2,5.069492168E-1
3.678768960E0,-4.444812536E-1,-1.961416751E-1,-5.206476152E-2,4.886162921E-1
3.681256616E0,-4.263717830E-1,-1.940111369E-1,-5.952160433E-2,4.722033884E-1
3.683744272E0,-4.093275666E-1,-1.961416751E-1,-6.804371625E-2,4.589668407E-1
3.686231928E0,-3.944138587E-1,-2.004027218E-1,-7.976161689E-2,4.495391622E-1
3.688719585E0,-3.805654347E-1,-2.078595608E-1,-9.254477918E-2,4.433961922E-1
3.691207241E0,-3.688475490E-1,-2.185122073E-1,-1.053279415E-1,4.414635595E-1
3.693694897E0,-3.603254259E-1,-2.302301079E-1,-1.181111038E-1,4.436108068E-1
3.696182553E0,-3.539338410E-1,-2.430132627E-1,-1.308942735E-1,4.488406404E-1
3.698670210E0,-3.496727943E-1,-2.568616867E-1,-1.436774284E-1,4.570472543E-1
3.701157866E0,-3.464770019E-1,-2.707101107E-1,-1.553953290E-1,4.663453496E-1
3.703645678E0,-3.454117477E-1,-2.845585644E-1,-1.671132296E-1,4.777129719E-1
3.706133387E0,-3.454117477E-1,-2.973417044E-1,-1.767006069E-1,4.888194647E-1
3.708621043E0,-3.454117477E-1,-3.101248741E-1,-1.852227151E-1,4.997941248E-1
3.711108699E0,-3.475422561E-1,-3.218427896E-1,-1.926795542E-1,5.113646562E-1
3.713596356E0,-3.496727943E-1,-3.324954212E-1,-1.990711391E-1,5.219708676E-1
3.716084012E0,-3.518033028E-1,-3.399522603E-1,-2.033322006E-1,5.297896629E-1
3.718571668E0,-3.539338410E-1,-3.452785909E-1,-2.054627240E-1,5.354450486E-1
3.721059272E0,-3.549990952E-1,-3.484743834E-1,-2.065279931E-1,5.386209849E-1
3.723546876E0,-3.549990952E-1,-3.484743834E-1,-2.065279931E-1,5.386209849E-1
3.726034481E0,-3.539338410E-1,-3.484743834E-1,-2.054627240E-1,5.375113865E-1
3.728522085E0,-3.518033028E-1,-3.452785909E-1,-2.012016773E-1,5.324142975E-1
3.731009689E0,-3.464770019E-1,-3.431480527E-1,-1.969406158E-1,5.259111190E-1
3.733497293E0,-3.400854170E-1,-3.378217220E-1,-1.916143000E-1,5.162341007E-1
3.735984897E0,-3.315632939E-1,-3.346259296E-1,-1.841574460E-1,5.057891810E-1
3.738472501E0,-3.209106624E-1,-3.292996287E-1,-1.756353378E-1,4.922089705E-1
3.740960106E0,-3.070622385E-1,-3.229080439E-1,-1.660479754E-1,4.755299709E-1
3.743447710E0,-2.921485603E-1,-3.154512048E-1,-1.553953290E-1,4.571738752E-1
3.745935314E0,-2.751043439E-1,-3.069290817E-1,-1.447426975E-1,4.368504432E-1
3.748422918E0,-2.559295893E-1,-2.973417044E-1,-1.340900660E-1,4.145988297E-1
3.750910522E0,-2.346243113E-1,-2.856238186E-1,-1.234374270E-1,3.897003100E-1
3.753398126E0,-2.122537792E-1,-2.728406489E-1,-1.149153188E-1,3.642790372E-1
3.755885731E0,-1.888179779E-1,-2.600574791E-1,-1.074584723E-1,3.388649355E-1
3.758373335E0,-1.643169224E-1,-2.472743243E-1,-1.010668874E-1,3.136226366E-1
3.760860939E0,-1.398158520E-1,-2.355564237E-1,-9.574057162E-2,2.901750476E-1
3.763348543E0,-1.153147891E-1,-2.249037921E-1,-9.254477918E-2,2.691537710E-1
3.765836147E0,-9.187898785E-2,-2.153164148E-1,-9.041424841E-2,2.509534682E-1
3.768323751E0,-6.950845569E-2,-2.067943066E-1,-9.147951752E-2,2.365667195E-1
3.770811356E0,-4.713791609E-2,-1.993374527E-1,-9.254477918E-2,2.247708596E-1
3.773298960E0,-2.689790726E-2,-1.929458827E-1,-9.467530251E-2,2.165987626E-1
3.775786564E0,-6.657897960E-3,-1.876195520E-1,-9.787109494E-2,2.117172056E-1
3.778274168E0,1.038632076E-2,-1.844237745E-1,-1.010668874E-1,2.105576405E-1
3.780761772E0,2.743053809E-2,-1.812279820E-1,-1.063932031E-1,2.119328421E-1
3.783249376E0,4.127896577E-2,-1.801627129E-1,-1.138500497E-1,2.170815284E-1
3.785736981E0,5.299686641E-2,-1.812279820E-1,-1.191763729E-1,2.232829084E-1
3.788224585E0,6.151897460E-2,-1.833585054E-1,-1.255679578E-1,2.305910617E-1
3.790712189E0,6.684529036E-2,-1.865542978E-1,-1.319595277E-1,2.380842620E-1
3.793199845E0,7.004108280E-2,-1.908153445E-1,-1.383511126E-1,2.458806201E-1
3.795687501E0,7.004108280E-2,-1.972069293E-1,-1.436774284E-1,2.538494232E-1
3.798175158E0,6.578002870E-2,-2.025332451E-1,-1.479384899E-1,2.592923530E-1
3.800662814E0,6.045371294E-2,-2.099900991E-1,-1.511342824E-1,2.656916717E-1
3.803150470E0,5.193160102E-2,-2.153164148E-1,-1.532648057E-1,2.693476385E-1
3.805638126E0,4.127896577E-2,-2.217079997E-1,-1.532648057E-1,2.726691967E-1
3.808125783E0,3.062633052E-2,-2.270343155E-1,-1.532648057E-1,2.756313719E-1
3.810613439E0,1.890842989E-2,-2.312953621E-1,-1.521995366E-1,2.775243632E-1
3.813101095E0,5.060002208E-3,-2.366216928E-1,-1.511342824E-1,2.808148864E-1
3.815588751E0,-8.788425475E-3,-2.387522161E-1,-1.490037590E-1,2.815705548E-1
3.818076408E0,-2.263685316E-2,-2.419480085E-1,-1.458079666E-1,2.833923589E-1
3.820564064E0,-3.648528084E-2,-2.430132627E-1,-1.415469050E-1,2.835879897E-1
3.823051720E0,-4.926844314E-2,-2.451438010E-1,-1.362205893E-1,2.847435892E-1
3.825539376E0,-6.205160543E-2,-2.451438010E-1,-1.308942735E-1,2.847440881E-1
3.828027033E0,-7.376950979E-2,-2.451438010E-1,-1.255679578E-1,2.851398530E-1
3.830514689E0,-8.548741043E-2,-2.451438010E-1,-1.202416345E-1,2.861147168E-1
3.833002345E0,-9.720530361E-2,-2.440785319E-1,-1.149153188E-1,2.867555252E-1
3.835490001E0,-1.067926809E-1,-2.430132627E-1,-1.106542572E-1,2.875838786E-1
3.837977658E0,-1.142495275E-1,-2.419480085E-1,-1.053279415E-1,2.875513321E-1
3.840465314E0,-1.217063740E-1,-2.408827394E-1,-1.000016257E-1,2.878146292E-1
3.842952970E0,-1.280979514E-1,-2.398174703E-1,-9.574057162E-2,2.882494775E-1
3.845440626E0,-1.323590130E-1,-2.398174703E-1,-9.147951752E-2,2.887902864E-1
3.847928283E0,-1.344895363E-1,-2.398174703E-1,-8.615319431E-2,2.881357793E-1
3.850415939E0,-1.355548054E-1,-2.387522161E-1,-8.082687855E-2,2.862004721E-1
3.852903595E0,-1.344895363E-1,-2.376869470E-1,-7.550056279E-2,2.833422932E-1
3.855391251E0,-1.312937438E-1,-2.355564237E-1,-7.017423958E-2,2.786562395E-1
3.857878908E0,-1.280979514E-1,-2.312953621E-1,-6.484792382E-2,2.722349774E-1
3.860366564E0,-1.227716357E-1,-2.270343155E-1,-5.845634267E-2,2.646405088E-1
3.862854220E0,-1.163800508E-1,-2.217079997E-1,-5.313002318E-2,2.559717811E-1
3.865341876E0,-1.089232042E-1,-2.142511457E-1,-4.886896908E-2,2.452671890E-1
3.867829533E0,-1.004010960E-1,-2.089248300E-1,-4.460791498E-2,2.360504835E-1
3.870317189E0,-9.294424951E-2,-2.025332451E-1,-4.034686089E-2,2.264646067E-1
3.872804845E0,-8.548741043E-2,-1.972069293E-1,-3.715106845E-2,2.181258174E-1
3.875292501E0,-7.803056389E-2,-1.940111369E-1,-3.502054140E-2,2.120271880E-1
3.877780158E0,-7.270424068E-2,-1.908153445E-1,-3.395527974E-2,2.070008776E-1
3.880267814E0,-6.737792492E-2,-1.886848211E-1,-3.289001435E-2,2.030357100E-1
3.882755470E0,-6.418213248E-2,-1.886848211E-1,-3.289001435E-2,2.019976755E-1
3.885243126E0,-6.098634377E-2,-1.897500902E-1,-3.289001435E-2,2.020054057E-1
3.887730783E0,-5.885581672E-2,-1.918806136E-1,-3.395527974E-2,2.035562282E-1
3.890218439E0,-5.885581672E-2,-1.961416751E-1,-3.502054140E-2,2.077546683E-1
3.892706095E0,-5.885581672E-2,-2.004027218E-1,-3.715106845E-2,2.121449032E-1
3.895193751E0,-6.098634377E-2,-2.067943066E-1,-4.034686089E-2,2.193424003E-1
3.897681408E0,-6.311687082E-2,-2.142511457E-1,-4.354264960E-2,2.275593443E-1
3.900169064E0,-6.737792492E-2,-2.227732539E-1,-4.567318037E-2,2.371787234E-1
3.902656720E0,-7.270424068E-2,-2.323606312E-1,-4.780370742E-2,2.481180445E-1
3.905144376E0,-7.909582555E-2,-2.419480085E-1,-4.780370742E-2,2.589984226E-1
3.907632033E0,-8.761793375E-2,-2.515353858E-1,-4.780370742E-2,2.706143882E-1
3.910119689E0,-9.614004195E-2,-2.611227632E-1,-4.567318037E-2,2.819823479E-1
3.912607345E0,-1.067926809E-1,-2.707101107E-1,-4.247738793E-2,2.940968704E-1
3.915095001E0,-1.174453199E-1,-2.792322338E-1,-3.715106845E-2,3.051954217E-1
3.917582658E0,-1.291632205E-1,-2.877543271E-1,-3.182475269E-2,3.170149920E-1
3.920070314E0,-1.419463754E-1,-2.962764502E-1,-2.756369673E-2,3.296790345E-1
3.922557970E0,-1.536642760E-1,-3.037332892E-1,-2.330264263E-2,3.411885606E-1
3.925045626E0,-1.664474458E-1,-3.090596199E-1,-1.691105962E-2,3.514378818E-1
3.927533283E0,-1.771000773E-1,-3.154512048E-1,-1.158474199E-2,3.619504195E-1
3.930020939E0,-1.866874546E-1,-3.207775056E-1,-5.193160381E-3,3.711837587E-1
3.932508595E0,-1.930790395E-1,-3.239732981E-1,1.198421582E-3,3.771467215E-1
3.934996251E0,-1.984053552E-1,-3.271690905E-1,8.655266836E-3,3.827260279E-1
3.937483908E0,-2.016011477E-1,-3.292996287E-1,1.611211337E-2,3.864464625E-1
3.939971564E0,-2.016011477E-1,-3.282343447E-1,2.356895804E-2,3.859226653E-1
3.942459220E0,-1.984053552E-1,-3.261038363E-1,2.996053919E-2,3.828916700E-1
3.944946876E0,-1.909485012E-1,-3.229080439E-1,3.741738573E-2,3.770026468E-1
3.947434533E0,-1.834916621E-1,-3.175817132E-1,4.380896688E-2,3.693867353E-1
3.949922189E0,-1.728390306E-1,-3.101248741E-1,4.913528636E-2,3.584202065E-1
3.952409845E0,-1.600558609E-1,-3.037332892E-1,5.339634046E-2,3.474520956E-1
3.954897501E0,-1.472726911E-1,-2.952111959E-1,5.765739456E-2,3.349078544E-1
3.957385158E0,-1.334242672E-1,-2.877543271E-1,6.085318699E-2,3.229670234E-1
3.959872814E0,-1.195758432E-1,-2.781669796E-1,6.511423737E-2,3.097016543E-1
3.962360470E0,-1.057274193E-1,-2.696448565E-1,6.831002980E-2,2.975783863E-1
3.964848126E0,-9.187898785E-2,-2.600574791E-1,7.150582224E-2,2.849293307E-1
3.967335783E0,-7.803056389E-2,-2.515353858E-1,7.470161468E-2,2.737501607E-1
3.969823439E0,-6.418213248E-2,-2.430132627E-1,7.683213800E-2,2.628268811E-1
3.972311095E0,-5.139897019E-2,-2.344911546E-1,7.896266878E-2,2.527114140E-1
3.974798751E0,-3.968106955E-2,-2.270343155E-1,8.109319210E-2,2.443261621E-1
3.977286408E0,-2.902843431E-2,-2.206427306E-1,8.109319210E-2,2.368585451E-1
3.979774064E0,-1.837579720E-2,-2.153164148E-1,8.002793044E-2,2.304415285E-1
3.982261720E0,-9.853689000E-3,-2.110553533E-1,7.896266878E-2,2.255583304E-1
3.984749376E0,-2.396843163E-3,-2.067943066E-1,7.576687634E-2,2.202504249E-1
3.987237033E0,3.994738683E-3,-2.035985142E-1,7.257108390E-2,2.161825042E-1
3.989724689E0,9.321057238E-3,-2.014679909E-1,6.831002980E-2,2.129377694E-1
3.992212345E0,1.251684781E-2,-1.993374527E-1,6.298371404E-2,2.094254993E-1
3.994700001E0,1.571263932E-2,-2.004027218E-1,5.659212917E-2,2.088320067E-1
3.997187658E0,1.784316637E-2,-2.025332451E-1,5.020054802E-2,2.094234681E-1
