"Time (s)","Linear Acceleration x (m/s^2)","Linear Acceleration y (m/s^2)","Linear Acceleration z (m/s^2)","Absolute acceleration (m/s^2)"
2.724976000E-2,0.000000000E0,0.000000000E0,0.000000000E0,0.000000000E0
3.221257200E-2,-6.217956543E-3,3.262042999E-3,6.316661835E-3,9.444793530E-3
3.717585400E-2,-2.879619598E-3,3.265857697E-3,6.161689758E-3,7.544829766E-3
4.214007200E-2,1.014328003E-2,-3.756523132E-3,-1.485919952E-2,1.837915684E-2
4.710564500E-2,-5.352020264E-3,-2.149581909E-2,-4.811096191E-2,5.296582875E-2
5.207288500E-2,-2.212142944E-2,-2.975654602E-2,-3.009462357E-2,4.775453946E-2
5.704205200E-2,-7.956027985E-3,-9.620189667E-3,1.307058334E-2,1.807447314E-2
6.201330200E-2,8.987426758E-3,3.641939163E-2,4.683160782E-2,6.000287841E-2
6.698673900E-2,3.389358521E-3,5.605030060E-2,7.330799103E-2,9.234276093E-2
7.196231200E-2,-9.740352631E-3,5.665874481E-2,1.024117470E-1,1.174446838E-1
7.693996800E-2,-2.571916580E-2,6.603908539E-2,1.168770790E-1,1.366853609E-1
8.191950000E-2,-3.588533401E-2,7.489299774E-2,1.004500389E-1,1.303339120E-1
8.690064500E-2,-5.415821075E-2,6.569242477E-2,9.927177429E-2,1.307803182E-1
9.188314500E-2,-8.471584320E-2,5.304431915E-2,1.076960564E-1,1.469316659E-1
9.686663500E-2,-1.092100143E-1,5.944681168E-2,1.250967979E-1,1.763801562E-1
1.018507500E-1,-1.731772423E-1,6.142520905E-2,1.420345306E-1,2.322438835E-1
1.068351250E-1,-2.342820168E-1,9.989452362E-2,1.450672150E-1,2.931065951E-1
1.118170000E-1,-2.569818497E-1,1.416082382E-1,1.530580521E-1,3.309370507E-1
1.167922600E-1,-2.706713676E-1,1.640448570E-1,1.475877762E-1,3.492217863E-1
1.217675200E-1,-2.940940857E-1,1.774363518E-1,1.383228302E-1,3.702812384E-1
1.267427810E-1,-2.948784828E-1,1.959710121E-1,1.300044060E-1,3.771725107E-1
1.317180410E-1,-2.877521515E-1,2.377171516E-1,1.087293625E-1,3.887580470E-1
1.366933020E-1,-2.683606148E-1,2.834768295E-1,8.413934708E-2,3.993193736E-1
1.416685620E-1,-2.691574097E-1,3.010396957E-1,4.709625244E-2,4.065570890E-1
1.466438220E-1,-2.293457985E-1,3.235588074E-1,-1.578903198E-2,3.969119432E-1
1.516190830E-1,-1.686325073E-1,3.276634216E-1,-8.998537064E-2,3.793383810E-1
1.565943430E-1,-1.288361549E-1,3.137297630E-1,-1.891307831E-1,3.883240556E-1
1.615696040E-1,-5.812692642E-2,2.820515633E-1,-2.618975639E-1,3.892584719E-1
1.665448640E-1,-1.731443405E-2,2.699184418E-1,-2.908873558E-1,3.972042404E-1
1.715201250E-1,2.252912521E-2,2.811374664E-1,-3.054299355E-1,4.157322239E-1
1.764953850E-1,3.838396072E-2,2.963600159E-1,-3.106646538E-1,4.310627733E-1
1.814706450E-1,4.492044449E-2,3.108563423E-1,-3.161559105E-1,4.456501673E-1
1.864459060E-1,3.764867783E-2,2.875952721E-1,-2.987370491E-1,4.163799803E-1
1.914211660E-1,2.157974243E-2,3.020691872E-1,-3.054566383E-1,4.301339757E-1
1.963964270E-1,-7.885456085E-3,3.161406517E-1,-2.984509468E-1,4.348333701E-1
2.013716870E-1,-4.590797424E-2,3.439116478E-1,-2.920789719E-1,4.535337798E-1
2.063469470E-1,-7.382011414E-2,3.805851936E-1,-2.769365311E-1,4.764329345E-1
2.113222080E-1,-9.212541580E-2,3.934473991E-1,-3.092670441E-1,5.088556305E-1
2.162974680E-1,-1.198997498E-1,3.738431931E-1,-3.786487579E-1,5.454443738E-1
2.212727290E-1,-1.383500099E-1,3.319153786E-1,-4.002580643E-1,5.380660385E-1
2.262479890E-1,-1.617956161E-1,3.054323196E-1,-3.894324303E-1,5.206960160E-1
2.312232500E-1,-1.574792862E-1,2.752876282E-1,-3.516521454E-1,4.735422211E-1
2.361985100E-1,-1.494231224E-1,2.461695671E-1,-2.921972275E-1,4.102510756E-1
2.411737700E-1,-1.190376282E-1,2.134227753E-1,-2.255053520E-1,3.325235356E-1
2.461490310E-1,-9.022188187E-2,1.724939346E-1,-1.422443390E-1,2.410966558E-1
2.511242910E-1,-7.696151733E-2,1.423969269E-1,-5.192279816E-2,1.699880493E-1
2.560995520E-1,-5.544853210E-2,1.464152336E-1,4.553318024E-2,1.630497803E-1
2.610748120E-1,-7.162094116E-3,1.559109688E-1,1.407828331E-1,2.101888005E-1
2.660500720E-1,3.450393677E-2,1.521887779E-1,2.012176514E-1,2.546379567E-1
2.710253330E-1,4.631471634E-2,1.356472969E-1,2.512307167E-1,2.892440408E-1
2.760005930E-1,7.590055466E-2,1.018853188E-1,2.912039757E-1,3.177125553E-1
2.809758540E-1,9.482336044E-2,9.349536896E-2,3.261256218E-1,3.522652053E-1
2.859511140E-1,7.989597321E-2,1.146559715E-1,3.326740265E-1,3.608342642E-1
2.909263750E-1,6.463384628E-2,1.366920471E-1,2.973217964E-1,3.335603401E-1
2.959016350E-1,4.888772964E-2,1.502594948E-1,2.253942490E-1,2.752644062E-1
3.008768950E-1,1.817321777E-2,1.555824280E-1,1.594557762E-1,2.235224873E-1
3.058521560E-1,-6.532955170E-2,1.906557083E-1,9.906721115E-2,2.245703938E-1
3.108274160E-1,-1.448621750E-1,2.694945335E-1,6.263208389E-2,3.123061499E-1
3.158026770E-1,-2.166266441E-1,3.730821609E-1,1.633167267E-2,4.317222780E-1
3.207779370E-1,-2.910866737E-1,4.687280655E-1,1.165437698E-2,5.518815774E-1
3.257531970E-1,-3.313107491E-1,5.335998535E-1,8.046340942E-2,6.332219014E-1
3.307284580E-1,-3.902235031E-1,5.641341209E-1,1.555123329E-1,7.033532359E-1
3.357037180E-1,-4.535336494E-1,6.036796570E-1,2.792091370E-1,8.050339382E-1
3.406789790E-1,-4.832849503E-1,6.428108215E-1,4.557266235E-1,9.243683523E-1
3.456542390E-1,-4.936351776E-1,7.005338669E-1,6.282405853E-1,1.062595699E0
3.506295000E-1,-4.604215622E-1,7.622117996E-1,7.597417831E-1,1.170539371E0
3.556047600E-1,-4.113779068E-1,7.990460396E-1,7.526149750E-1,1.172235325E0
3.605800200E-1,-3.549804688E-1,7.729582787E-1,5.764346123E-1,1.027498173E0
3.655552810E-1,-2.383904457E-1,7.076377869E-1,3.896622658E-1,8.422695076E-1
3.705305410E-1,-6.166982651E-2,6.642460823E-1,1.406087875E-1,6.817601165E-1
3.755058020E-1,1.134500504E-1,6.323351860E-1,-1.464958191E-1,6.589231567E-1
3.804810620E-1,2.256927490E-1,6.301112175E-1,-4.339189529E-1,7.976609688E-1
3.854563220E-1,2.755441666E-1,6.664505005E-1,-6.279840469E-1,9.562660825E-1
3.904315830E-1,2.868757248E-1,7.647032738E-1,-6.550250053E-1,1.046960618E0
3.954068430E-1,2.217202187E-1,8.821339607E-1,-5.035271645E-1,1.039644067E0
4.003821040E-1,2.081432343E-1,1.052358150E0,-2.987418175E-1,1.113565425E0
4.053573640E-1,1.697044373E-1,1.157251358E0,-9.303569794E-2,1.173322608E0
4.103326250E-1,9.241294861E-2,1.170048714E0,6.666231155E-2,1.175584114E0
4.153078850E-1,6.656074524E-2,1.196533680E0,1.576294899E-1,1.208706017E0
4.202831450E-1,1.198735237E-1,1.246435165E0,1.335816383E-1,1.259291204E0
4.252584060E-1,2.088198662E-1,1.248786449E0,2.421951294E-2,1.266356947E0
4.302336660E-1,3.047647476E-1,1.166060925E0,-2.075886726E-1,1.222976978E0
4.352089270E-1,4.364037514E-1,1.031642675E0,-5.418624878E-1,1.244327047E0
4.401841870E-1,5.519022942E-1,8.543951511E-1,-8.973407745E-1,1.356395106E0
4.451594470E-1,6.474404335E-1,6.854269505E-1,-1.188913822E0,1.517400836E0
4.501347080E-1,7.856225967E-1,5.609297752E-1,-1.459961891E0,1.750238213E0
4.551099680E-1,9.574341774E-1,4.030077457E-1,-1.743648052E0,2.029631488E0
4.600852290E-1,1.078247547E0,1.581707001E-1,-2.030057430E0,2.304076586E0
4.650604890E-1,1.149463177E0,-1.222686768E-1,-2.238326550E0,2.519190538E0
4.700357500E-1,1.162908554E0,-3.732309341E-1,-2.255173206E0,2.564656668E0
4.750110100E-1,1.152817726E0,-5.628592968E-1,-2.082075119E0,2.445574799E0
4.799862700E-1,1.129034042E0,-7.065558434E-1,-1.796411991E0,2.236299414E0
4.849615310E-1,1.091436386E0,-8.142201900E-1,-1.465491772E0,2.000463455E0
4.899367910E-1,9.638080597E-1,-9.094158411E-1,-1.127748489E0,1.740051667E0
4.949120520E-1,7.463750839E-1,-1.010464549E0,-7.550377846E-1,1.465672688E0
4.998873120E-1,4.439029694E-1,-1.087784767E0,-3.386421204E-1,1.222703575E0
5.048625720E-1,1.275386810E-1,-1.107339621E0,9.225654602E-2,1.118471466E0
5.098378330E-1,-1.843414307E-1,-1.101651073E0,4.757313728E-1,1.214058148E0
5.148130930E-1,-5.208454132E-1,-1.060465217E0,7.836141586E-1,1.417715617E0
5.197883540E-1,-8.726906776E-1,-1.011656165E0,1.078259945E0,1.716881395E0
5.247636140E-1,-1.197264194E0,-9.877861738E-1,1.317335844E0,2.035813548E0
5.297388750E-1,-1.494886398E0,-1.002393603E0,1.515909195E0,2.353180607E0
5.347141350E-1,-1.727847099E0,-1.045378685E0,1.679435015E0,2.626551763E0
5.396893950E-1,-1.977300167E0,-1.097406030E0,1.827522755E0,2.907551438E0
5.446646560E-1,-2.167160511E0,-1.120422959E0,1.955777645E0,3.126819228E0
5.496399160E-1,-2.288487434E0,-1.171745539E0,2.050209284E0,3.288391773E0
5.546152290E-1,-2.360833168E0,-1.227532744E0,2.182391644E0,3.441395527E0
5.595905410E-1,-2.436874390E0,-1.316289425E0,2.375636816E0,3.648921063E0
5.645658540E-1,-2.507041931E0,-1.390386939E0,2.596262455E0,3.867688434E0
5.695411660E-1,-2.585646629E0,-1.440375566E0,2.858318090E0,4.114636384E0
5.745164790E-1,-2.611032486E0,-1.466309547E0,3.080707073E0,4.296313583E0
5.794917910E-1,-2.602778435E0,-1.496748567E0,3.258906126E0,4.431160231E0
5.844671040E-1,-2.566085815E0,-1.469742894E0,3.445318222E0,4.540391860E0
5.894424160E-1,-2.529679298E0,-1.437798023E0,3.644705534E0,4.663734441E0
5.944177290E-1,-2.502900124E0,-1.400846124E0,3.795578003E0,4.757445876E0
5.993930410E-1,-2.490158081E0,-1.354095340E0,3.875149727E0,4.801171405E0
6.043683540E-1,-2.405586243E0,-1.311913371E0,3.898842096E0,4.765388920E0
6.093436660E-1,-2.240109444E0,-1.264932632E0,3.838938951E0,4.621211655E0
6.143189790E-1,-2.032282352E0,-1.218143344E0,3.701000690E0,4.394479591E0
6.192942910E-1,-1.810886860E0,-1.186181307E0,3.528331757E0,4.139500247E0
6.242696040E-1,-1.575964928E0,-1.178765535E0,3.321179628E0,3.860490612E0
6.292449160E-1,-1.398818016E0,-1.162875772E0,3.093958855E0,3.589088087E0
6.342202290E-1,-1.297867775E0,-1.143835068E0,2.846839905E0,3.331263554E0
6.391955410E-1,-1.234453678E0,-1.093597531E0,2.556182861E0,3.042022726E0
6.441708540E-1,-1.222549915E0,-1.003237247E0,2.250687599E0,2.750764973E0
6.491461660E-1,-1.252269745E0,-9.112817049E-1,1.977890015E0,2.512103256E0
6.541214790E-1,-1.271051407E0,-8.605313301E-1,1.723264933E0,2.307753860E0
6.590967910E-1,-1.222031116E0,-7.936950922E-1,1.510312557E0,2.098655753E0
6.640721040E-1,-1.205643177E0,-6.822813749E-1,1.328976870E0,1.919703848E0
6.690474160E-1,-1.217019081E0,-5.264183283E-1,1.250083923E0,1.822350547E0
6.740227290E-1,-1.213232040E0,-3.546620607E-1,1.268111467E0,1.790481459E0
6.789980410E-1,-1.184953213E0,-2.141549587E-1,1.249324799E0,1.735162504E0
6.839733540E-1,-1.146680355E0,-1.137642860E-1,1.184515476E0,1.652542000E0
6.889486660E-1,-1.089156628E0,-2.894771099E-2,1.088044167E0,1.539785777E0
6.939239790E-1,-1.065084934E0,9.314060211E-2,9.501502514E-1,1.430337928E0
6.988992910E-1,-1.112560749E0,2.004787922E-1,8.086261749E-1,1.389913471E0
7.038746040E-1,-1.174342155E0,3.030440807E-1,6.533937454E-1,1.377620630E0
7.088499160E-1,-1.274387360E0,4.156308174E-1,4.935657978E-1,1.428432468E0
7.138252290E-1,-1.341343880E0,5.290526152E-1,3.430538177E-1,1.482155861E0
7.188004890E-1,-1.366006851E0,6.198248863E-1,2.112324238E-1,1.514852054E0
7.237757500E-1,-1.334358215E0,6.501750946E-1,1.028435230E-1,1.487889879E0
7.287510100E-1,-1.260870934E0,6.299909353E-1,2.282738686E-2,1.409682652E0
7.337262700E-1,-1.150370598E0,5.974800587E-1,-1.438236237E-2,1.296357121E0
7.387015310E-1,-9.601273537E-1,5.049282312E-1,-1.831293106E-2,1.084957334E0
7.436767910E-1,-7.476019859E-1,4.046266079E-1,2.996516228E-2,8.506052740E-1
7.486520520E-1,-5.366353989E-1,3.343647718E-1,1.396448612E-1,6.475168254E-1
7.536273120E-1,-3.557205200E-1,2.982929945E-1,2.911920547E-1,5.480042077E-1
7.586025720E-1,-2.331743240E-1,2.674820423E-1,4.367229939E-1,5.627111885E-1
7.635778330E-1,-1.589727402E-1,2.178267837E-1,5.669298172E-1,6.277979432E-1
7.685530930E-1,-1.659631729E-1,2.109994292E-1,6.725955009E-1,7.241886783E-1
7.735283540E-1,-2.391986847E-1,2.560748458E-1,7.636754513E-1,8.402324275E-1
7.785036140E-1,-3.257846832E-1,3.335629106E-1,8.167779446E-1,9.404924699E-1
7.834788750E-1,-4.350242615E-1,4.195148349E-1,8.229520321E-1,1.021023434E0
7.884541350E-1,-5.381898880E-1,4.901619554E-1,8.064203262E-1,1.086379694E0
7.934293950E-1,-6.258425713E-1,5.218240023E-1,7.720379829E-1,1.122506953E0
7.984046560E-1,-7.124295235E-1,5.386867523E-1,7.245612144E-1,1.150099212E0
8.033799160E-1,-8.314118385E-1,5.884636641E-1,6.590209007E-1,1.213195647E0
8.083551770E-1,-9.827170372E-1,6.329862475E-1,5.895557404E-1,1.309190718E0
8.133304370E-1,-1.109154701E0,6.535711288E-1,5.588579178E-1,1.403460560E0
8.183056970E-1,-1.163356781E0,6.030142307E-1,5.142655373E-1,1.407655571E0
8.232809580E-1,-1.160139084E0,5.200302601E-1,4.414279461E-1,1.345813062E0
8.282562180E-1,-1.104662895E0,4.476786852E-1,3.927459717E-1,1.254968412E0
8.332314790E-1,-1.025832653E0,3.669124842E-1,3.679909706E-1,1.149945545E0
8.382067390E-1,-9.427475929E-1,2.777518630E-1,3.338387012E-1,1.037963101E0
8.431820000E-1,-8.744349480E-1,1.422042847E-1,2.713584900E-1,9.265494951E-1
8.481572600E-1,-8.016848564E-1,-6.271481514E-3,1.618027687E-1,8.178741202E-1
8.531325200E-1,-7.054581642E-1,-1.202037036E-1,5.780029297E-2,7.179561447E-1
8.581077810E-1,-6.048712730E-1,-1.713726521E-1,-4.536938667E-2,6.303143851E-1
8.630830410E-1,-5.522341728E-1,-2.079196870E-1,-1.666393280E-1,6.131572747E-1
8.680583020E-1,-5.185933113E-1,-2.491586059E-1,-3.199954033E-1,6.583434450E-1
8.730335620E-1,-5.037059784E-1,-3.000504375E-1,-5.240635872E-1,7.863794384E-1
8.780088220E-1,-4.694032669E-1,-3.367336988E-1,-7.548141479E-1,9.505121824E-1
8.829840830E-1,-4.063682556E-1,-3.642396033E-1,-9.742448330E-1,1.116673024E0
8.879593430E-1,-3.054409027E-1,-3.779665232E-1,-1.201905012E0,1.296429133E0
8.929346040E-1,-2.194070816E-1,-3.877044022E-1,-1.357253551E0,1.428492693E0
8.979098640E-1,-1.530609131E-1,-4.080767632E-1,-1.445729017E0,1.509995589E0
9.028851250E-1,-1.062726974E-1,-4.344746172E-1,-1.472434282E0,1.538871273E0
9.078603850E-1,-8.833599091E-2,-4.575987160E-1,-1.470791101E0,1.542863019E0
9.128356450E-1,-6.085872650E-2,-4.585521221E-1,-1.464465141E0,1.535783834E0
9.178109060E-1,-3.801822662E-2,-4.851660132E-1,-1.424561501E0,1.505392612E0
9.227861660E-1,-3.878211975E-2,-5.276544690E-1,-1.360650539E0,1.459894922E0
9.277614270E-1,-3.923797607E-2,-5.476087332E-1,-1.258602619E0,1.373133459E0
9.327366870E-1,-2.993392944E-2,-5.591256022E-1,-1.142545700E0,1.272371076E0
9.377119470E-1,3.231048584E-3,-5.762001276E-1,-9.985041618E-1,1.152834588E0
9.426872080E-1,4.098892212E-2,-5.984402895E-1,-8.839330673E-1,1.068245543E0
9.476624680E-1,5.947780609E-2,-6.350861788E-1,-8.177542686E-1,1.037108532E0
9.526377290E-1,7.304477692E-2,-6.430655718E-1,-7.759737968E-1,1.010447526E0
9.576129890E-1,8.171272278E-2,-6.604169607E-1,-7.489342690E-1,1.001863299E0
9.625882500E-1,1.140842438E-1,-6.680130959E-1,-7.794256210E-1,1.032841232E0
9.675635100E-1,1.509819031E-1,-6.849544644E-1,-8.480978012E-1,1.100558056E0
9.725387700E-1,2.066726685E-1,-6.969642639E-1,-9.214158058E-1,1.173660881E0
9.775140310E-1,2.715320587E-1,-7.375391722E-1,-9.517278671E-1,1.234293167E0
9.824892910E-1,3.694210052E-1,-7.780993581E-1,-9.771990776E-1,1.302623709E0
9.874645520E-1,5.050220490E-1,-7.855553627E-1,-1.035798073E0,1.394640508E0
9.924398120E-1,6.544151306E-1,-8.127346039E-1,-1.112897396E0,1.525561311E0
9.974150720E-1,7.936697006E-1,-8.501811028E-1,-1.137029648E0,1.626516499E0
1.002390333E0,8.989982605E-1,-8.598593473E-1,-1.132326126E0,1.682176693E0
1.007365593E0,9.276943207E-1,-8.229371309E-1,-1.160865784E0,1.698661721E0
1.012340854E0,9.611577988E-1,-7.825477123E-1,-1.170031548E0,1.704458582E0
1.017316114E0,1.018465996E0,-7.386662364E-1,-1.197948933E0,1.737234135E0
1.022291375E0,1.085186005E0,-7.056043744E-1,-1.263624668E0,1.808937119E0
1.027266635E0,1.094521523E0,-6.739107370E-1,-1.300249577E0,1.828327653E0
1.032241895E0,1.075274467E0,-6.246327162E-1,-1.250910282E0,1.763847427E0
1.037217156E0,1.013265610E0,-5.340120792E-1,-1.149422169E0,1.622666761E0
1.042192416E0,9.753446579E-1,-4.544064403E-1,-1.039046288E0,1.495793971E0
1.047167677E0,9.708309174E-1,-3.854725361E-1,-9.533505440E-1,1.414206140E0
1.052142937E0,9.850835800E-1,-3.362672627E-1,-9.211483002E-1,1.389956662E0
1.057118197E0,9.511108398E-1,-2.587274909E-1,-8.710451126E-1,1.315397785E0
1.062093458E0,8.739061356E-1,-1.480180025E-1,-8.364868164E-1,1.218741752E0
1.067068718E0,8.300151825E-1,-7.068490982E-2,-8.791832924E-1,1.211150206E0
1.072043979E0,8.574743271E-1,-5.975955725E-2,-9.652814865E-1,1.292517611E0
1.077019239E0,9.416275024E-1,-9.114868939E-2,-1.066025257E0,1.425264988E0
1.081994500E0,1.039317131E0,-5.992081761E-2,-1.176581383E0,1.571023346E0
1.086969760E0,1.179004669E0,-4.775092006E-2,-1.258898258E0,1.725443996E0
1.091945020E0,1.269867897E0,-7.410465181E-2,-1.298932076E0,1.818043045E0
1.096920281E0,1.307362556E0,-8.689197898E-2,-1.249207497E0,1.810322192E0
1.101895541E0,1.267992973E0,-3.411719203E-2,-1.133787632E0,1.701306721E0
1.106870802E0,1.190429688E0,2.638052404E-2,-9.335536957E-1,1.513056931E0
1.111846062E0,1.127489090E0,7.550868392E-2,-7.581291199E-1,1.360769257E0
1.116821322E0,1.088709831E0,8.954715729E-2,-5.881991386E-1,1.240679659E0
1.121796583E0,1.069310188E0,1.068537533E-1,-3.806657791E-1,1.140065103E0
1.126771843E0,1.059720039E0,1.562607288E-1,-1.499118805E-1,1.081618024E0
1.131747104E0,1.059989929E0,2.091900110E-1,8.506202698E-2,1.083777957E0
1.136722364E0,1.046339035E0,2.659692168E-1,3.101053238E-1,1.123267694E0
1.141697625E0,1.052224159E0,3.030941486E-1,4.728665352E-1,1.192746622E0
1.146672885E0,1.106208801E0,3.209567666E-1,5.737037659E-1,1.286797252E0
1.151648145E0,1.179433823E0,3.484356701E-1,6.271066666E-1,1.380483368E0
1.156623406E0,1.205023766E0,3.712438345E-1,6.570348740E-1,1.421829485E0
1.161598666E0,1.168861389E0,4.276652932E-1,6.111049652E-1,1.386572691E0
1.166573927E0,1.095005989E0,4.843586087E-1,5.038638115E-1,1.299045849E0
1.171549187E0,1.016921997E0,5.366236567E-1,4.069604874E-1,1.219718056E0
1.176524447E0,9.822063446E-1,5.463778377E-1,2.868037224E-1,1.159963111E0
1.181499708E0,9.142446518E-1,5.900186300E-1,1.575393677E-1,1.099447097E0
1.186474968E0,8.607826233E-1,6.292076707E-1,5.244922638E-2,1.067520463E0
1.191450281E0,7.930526733E-1,6.353428364E-1,-9.072685242E-2,1.020208030E0
1.196425593E0,7.349529266E-1,5.989520550E-1,-2.241516113E-1,9.742398644E-1
1.201400906E0,6.864624023E-1,5.772168040E-1,-2.953763008E-1,9.442759278E-1
1.206376218E0,6.572179794E-1,5.603652596E-1,-3.044095039E-1,9.157564320E-1
1.211351531E0,6.377925873E-1,5.148101449E-1,-2.893176079E-1,8.692028232E-1
1.216326843E0,6.188211441E-1,4.739080667E-1,-2.593536377E-1,8.214577125E-1
1.221302156E0,6.529006958E-1,4.567099214E-1,-1.857132912E-1,8.181397786E-1
1.226277468E0,7.255573273E-1,4.346228540E-1,-1.400198936E-1,8.572841017E-1
1.231252781E0,7.603368759E-1,4.315226078E-1,-1.364636421E-1,8.848425010E-1
1.236228093E0,7.287378311E-1,4.476124346E-1,-1.463456154E-1,8.676593556E-1
1.241203406E0,6.786479950E-1,4.591615200E-1,-1.697382927E-1,8.367816266E-1
1.246178718E0,6.244010925E-1,4.901773334E-1,-2.495927811E-1,8.321340630E-1
1.251154031E0,5.421190262E-1,5.313358903E-1,-3.857660294E-1,8.514847599E-1
1.256129343E0,5.225028992E-1,5.207085013E-1,-5.590028763E-1,9.255435369E-1
1.261104656E0,5.556669235E-1,4.776399732E-1,-7.359452248E-1,1.038518680E0
1.266079968E0,6.173591614E-1,4.403390586E-1,-9.073877335E-1,1.182532587E0
1.271055281E0,7.501983643E-1,3.990654945E-1,-1.059390545E0,1.358071862E0
1.276030593E0,9.012222290E-1,3.153671622E-1,-1.178111076E0,1.516444414E0
1.281005906E0,1.013006210E0,2.272354811E-1,-1.254357815E0,1.628260137E0
1.285981218E0,1.104783058E0,1.677781045E-1,-1.283532143E0,1.701807821E0
1.290956531E0,1.167243004E0,1.366036087E-1,-1.298952103E0,1.751683002E0
1.295931843E0,1.238859177E0,9.053709358E-2,-1.333720207E0,1.822574722E0
1.300907156E0,1.291077614E0,4.379983246E-2,-1.387595177E0,1.895842874E0
1.305882468E0,1.285867691E0,3.446388245E-2,-1.393641949E0,1.896544584E0
1.310857781E0,1.199650764E0,8.151972294E-2,-1.390118599E0,1.837998134E0
1.315833093E0,1.099491119E0,1.420489550E-1,-1.381875515E0,1.771620322E0
1.320808406E0,1.047446251E0,1.781799644E-1,-1.392778873E0,1.751777594E0
1.325783718E0,1.000422478E0,1.950486004E-1,-1.403631210E0,1.734667018E0
1.330759031E0,9.583959579E-1,2.311878353E-1,-1.400118351E0,1.712396573E0
1.335734343E0,9.356298447E-1,2.676581144E-1,-1.401414394E0,1.706167160E0
1.340709656E0,9.225111008E-1,2.949965298E-1,-1.445659637E0,1.740109615E0
1.345684968E0,9.333362579E-1,2.990392447E-1,-1.504026413E0,1.795170324E0
1.350660229E0,9.727354050E-1,2.845940590E-1,-1.571779251E0,1.870213346E0
1.355635489E0,1.035806656E0,2.469770908E-1,-1.610761642E0,1.930918481E0
1.360610750E0,1.165425301E0,2.099480778E-1,-1.597186089E0,1.988290152E0
1.365586010E0,1.294460297E0,1.687013358E-1,-1.602973938E0,2.067271885E0
1.370561270E0,1.389390945E0,1.374470592E-1,-1.590097427E0,2.116059716E0
1.375536531E0,1.469326973E0,8.747574687E-2,-1.582645416E0,2.161328359E0
1.380511791E0,1.510418892E0,4.270502925E-2,-1.599762440E0,2.200551934E0
1.385487052E0,1.565315247E0,2.688688040E-2,-1.588835239E0,2.230545257E0
1.390462312E0,1.634043694E0,1.608957350E-2,-1.602316856E0,2.288619010E0
1.395437572E0,1.730868340E0,-4.154160619E-3,-1.663976669E0,2.400987468E0
1.400412833E0,1.822268486E0,-3.386798501E-2,-1.721200466E0,2.506858696E0
1.405388093E0,1.874789238E0,-5.406035483E-2,-1.778904915E0,2.585006751E0
1.410363354E0,1.869407654E0,-3.140860796E-2,-1.799048901E0,2.594657670E0
1.415338614E0,1.820638657E0,-4.297778010E-3,-1.805628777E0,2.564183860E0
1.420313875E0,1.742975235E0,4.637557268E-2,-1.827280521E0,2.525681585E0
1.425289135E0,1.670041084E0,9.198229015E-2,-1.863743305E0,2.504203880E0
1.430264395E0,1.625781059E0,1.085834801E-1,-1.910029888E0,2.510611200E0
1.435239968E0,1.576794624E0,8.669666946E-2,-1.965944767E0,2.521653510E0
1.440215125E0,1.494488716E0,1.027704030E-1,-1.974159718E0,2.478177731E0
1.445190281E0,1.421999931E0,1.422554255E-1,-1.901319504E0,2.378515559E0
1.450165437E0,1.407058716E0,1.574878097E-1,-1.776253700E0,2.271495949E0
1.455140593E0,1.444691658E0,1.295341700E-1,-1.632542610E0,2.183828854E0
1.460115750E0,1.539489746E0,1.015269011E-1,-1.489331245E0,2.144398272E0
1.465090906E0,1.643512726E0,5.441530049E-2,-1.337111950E0,2.119425269E0
1.470066062E0,1.694698334E0,7.453680038E-3,-1.171132088E0,2.060002031E0
1.475041218E0,1.755269051E0,-6.318721175E-2,-1.039147377E0,2.040781550E0
1.480016375E0,1.806080818E0,-1.096215844E-1,-9.553875923E-1,2.046145221E0
1.484991531E0,1.813659668E0,-1.318468451E-1,-9.007620811E-1,2.029314492E0
1.489966687E0,1.825879097E0,-1.442405730E-1,-8.465318680E-1,2.017735370E0
1.494942520E0,1.838003159E0,-1.515712589E-1,-8.737311363E-1,2.040743873E0
1.499918354E0,1.873952866E0,-1.873754412E-1,-9.772276878E-1,2.121740524E0
1.504893666E0,1.900298119E0,-2.231191397E-1,-1.094646931E0,2.204351831E0
1.509868927E0,1.898037910E0,-2.065835595E-1,-1.202002525E0,2.256110535E0
1.514844187E0,1.862524986E0,-1.619841307E-1,-1.318384647E0,2.287657374E0
1.519819447E0,1.822475433E0,-1.324310154E-1,-1.424724102E0,2.317065697E0
1.524794708E0,1.811175346E0,-1.417854875E-1,-1.497419834E0,2.354299348E0
1.529769968E0,1.795120239E0,-1.135858446E-1,-1.484086514E0,2.331924355E0
1.534745229E0,1.779068947E0,-4.792264104E-2,-1.447098732E0,2.293791106E0
1.539720489E0,1.729638100E0,1.698756218E-2,-1.405582905E0,2.228811305E0
1.544695750E0,1.670848846E0,3.355163336E-2,-1.340374947E0,2.142304035E0
1.549671010E0,1.631415367E0,4.511150718E-2,-1.284870625E0,2.077123894E0
1.554646270E0,1.625614166E0,9.007903934E-2,-1.148305416E0,1.992320501E0
1.559621531E0,1.643786430E0,1.352313459E-1,-1.002521992E0,1.930122195E0
1.564596791E0,1.676276207E0,1.665991545E-1,-8.666687012E-1,1.894405405E0
1.569572052E0,1.751724243E0,1.750583649E-1,-7.549262047E-1,1.915488666E0
1.574547312E0,1.827037811E0,1.799222529E-1,-6.815190315E-1,1.958291953E0
1.579522572E0,1.930882454E0,1.861124635E-1,-6.939997673E-1,2.060237990E0
1.584497833E0,2.044106483E0,1.746151149E-1,-7.538585663E-1,2.185672549E0
1.589473093E0,2.157133102E0,1.359243691E-1,-8.466238976E-1,2.321307967E0
1.594448354E0,2.241307259E0,1.224738061E-1,-9.770116806E-1,2.448062476E0
1.599423614E0,2.291869164E0,1.292695701E-1,-1.125947952E0,2.556781898E0
1.604398875E0,2.323247910E0,1.512690485E-1,-1.317255974E0,2.674981584E0
1.609374135E0,2.373690605E0,1.261714995E-1,-1.512635708E0,2.817515416E0
1.614349395E0,2.438340187E0,7.291224599E-2,-1.740777016E0,2.996852296E0
1.619324656E0,2.517101288E0,3.422293067E-2,-1.949180603E0,3.183751737E0
1.624299916E0,2.609938622E0,-9.486913681E-3,-2.104512215E0,3.352736386E0
1.629275177E0,2.697691917E0,-6.811319292E-2,-2.197452545E0,3.480083157E0
1.634250437E0,2.775609016E0,-1.085502505E-1,-2.218660831E0,3.555030865E0
1.639225697E0,2.829456329E0,-1.596816778E-1,-2.211239338E0,3.594565449E0
1.644200958E0,2.911849976E0,-2.120034248E-1,-2.180006504E0,3.643658064E0
1.649176218E0,2.974965096E0,-2.511843443E-1,-2.120256901E0,3.661830174E0
1.654151479E0,3.042621613E0,-2.580352128E-1,-2.022699356E0,3.662709534E0
1.659126739E0,3.100404739E0,-2.706988156E-1,-1.892344475E0,3.642355695E0
1.664102000E0,3.162664413E0,-2.937229574E-1,-1.786566734E0,3.644247531E0
1.669077260E0,3.176850319E0,-3.173809648E-1,-1.676681995E0,3.606157392E0
1.674052520E0,3.186102867E0,-3.081775308E-1,-1.586516380E0,3.572570377E0
1.679027781E0,3.157043457E0,-2.994297743E-1,-1.515958786E0,3.514927114E0
1.684003041E0,3.089870453E0,-2.814777195E-1,-1.464808464E0,3.431062949E0
1.688978302E0,3.003817558E0,-2.351073325E-1,-1.471150875E0,3.352980805E0
1.693953562E0,2.946733475E0,-2.033081353E-1,-1.501307964E0,3.313381652E0
1.698928822E0,2.866011620E0,-2.051270306E-1,-1.564762115E0,3.271785473E0
1.703904083E0,2.799939156E0,-1.975458860E-1,-1.584993362E0,3.223489974E0
1.708879343E0,2.748497963E0,-1.854783148E-1,-1.542994976E0,3.157447823E0
1.713854604E0,2.683085442E0,-1.642468721E-1,-1.505660534E0,3.081061208E0
1.718829864E0,2.642018318E0,-1.482574642E-1,-1.439424038E0,3.012338399E0
1.723805125E0,2.620504379E0,-1.183242500E-1,-1.372923851E0,2.960737025E0
1.728780385E0,2.628036499E0,-1.412464082E-1,-1.291828632E0,2.931782325E0
1.733755645E0,2.654955864E0,-1.403566301E-1,-1.200988293E0,2.917338428E0
1.738730906E0,2.667759895E0,-1.155174077E-1,-1.172071457E0,2.916168485E0
1.743706166E0,2.613887787E0,-7.622373104E-2,-1.162048340E0,2.861568759E0
1.748681427E0,2.550769806E0,-2.227422595E-2,-1.142290115E0,2.794950706E0
1.753656687E0,2.502301216E0,3.698372841E-2,-1.136679173E0,2.748621239E0
1.758631947E0,2.458917618E0,7.774844766E-2,-1.197641373E0,2.736177174E0
1.763607208E0,2.382376671E0,1.192758679E-1,-1.325025082E0,2.728669420E0
1.768582468E0,2.282320023E0,1.615106761E-1,-1.475672245E0,2.722623543E0
1.773557729E0,2.139599800E0,1.900619268E-1,-1.630609989E0,2.696831433E0
1.778532989E0,2.021092415E0,2.192284167E-1,-1.732676983E0,2.671150534E0
1.783508250E0,1.926703453E0,2.535705864E-1,-1.839380741E0,2.675781334E0
1.788483510E0,1.846753120E0,2.595551312E-1,-1.912614346E0,2.671321693E0
1.793458770E0,1.757385254E0,2.417480350E-1,-1.981050014E0,2.659211199E0
1.798434031E0,1.630031586E0,2.095384598E-1,-2.044630527E0,2.623246716E0
1.803409291E0,1.498275757E0,2.487345636E-1,-2.069876194E0,2.567311159E0
1.808384552E0,1.362154007E0,2.682853341E-1,-2.080738544E0,2.501382308E0
1.813359812E0,1.250262260E0,2.635205388E-1,-2.043931961E0,2.410447397E0
1.818335072E0,1.162500381E0,2.440446019E-1,-1.950089931E0,2.283378121E0
1.823310333E0,1.074835777E0,2.385641932E-1,-1.847260952E0,2.150478516E0
1.828285593E0,1.011140823E0,2.280530930E-1,-1.745008945E0,2.029647801E0
1.833260854E0,9.952802658E-1,2.030189037E-1,-1.600263119E0,1.895426478E0
1.838236114E0,9.937810898E-1,1.635573506E-1,-1.441648960E0,1.758608423E0
1.843211375E0,1.035350800E0,9.058380127E-2,-1.302481174E0,1.666317471E0
1.848186635E0,1.100716591E0,3.676927090E-2,-1.158906460E0,1.598747377E0
1.853161895E0,1.175448418E0,-3.145122528E-2,-1.044438839E0,1.572743034E0
1.858137156E0,1.216471672E0,-9.975692630E-2,-9.543375969E-1,1.549359552E0
1.863112416E0,1.204702377E0,-1.443095207E-1,-9.077587128E-1,1.515308198E0
1.868087677E0,1.164175987E0,-1.988017559E-1,-8.807039261E-1,1.473250580E0
1.873062937E0,1.080642700E0,-2.393877804E-1,-8.587989807E-1,1.400939272E0
1.878038197E0,9.304342270E-1,-2.663415670E-1,-8.657851219E-1,1.298549020E0
1.883013458E0,7.424945831E-1,-2.368763089E-1,-8.632192612E-1,1.162994447E0
1.887988718E0,5.886878967E-1,-2.323884964E-1,-8.652563095E-1,1.072019745E0
1.892963979E0,4.881010056E-1,-2.576068044E-1,-8.669953346E-1,1.027757154E0
1.897939239E0,4.262638092E-1,-2.791804075E-1,-7.777247429E-1,9.297840129E-1
1.902914500E0,3.552246094E-1,-2.732654214E-1,-6.408200264E-1,7.819902940E-1
1.907889760E0,2.798395157E-1,-2.351710796E-1,-4.802045822E-1,6.034998194E-1
1.912865020E0,2.049112320E-1,-2.124986947E-1,-3.197717667E-1,4.351991395E-1
1.917840281E0,1.591424942E-1,-1.906556487E-1,-1.355428696E-1,2.829271626E-1
1.922815541E0,1.425628662E-1,-1.406729817E-1,6.306934357E-2,2.099780958E-1
1.927790802E0,1.646614075E-1,-1.242367029E-1,2.235727310E-1,3.041922148E-1
1.932766062E0,2.157258987E-1,-1.170015335E-1,3.746795654E-1,4.478970853E-1
1.937741322E0,2.812414169E-1,-1.234163046E-1,4.732985497E-1,5.642161252E-1
1.942716583E0,3.227853775E-1,-9.050190449E-2,5.289030075E-1,6.261943676E-1
1.947691843E0,3.785066605E-1,-6.575310230E-2,5.510244370E-1,6.717281389E-1
1.952667104E0,4.385852814E-1,-6.800603867E-2,5.537619591E-1,7.096718803E-1
1.957642364E0,5.123634338E-1,-7.319688797E-2,4.986739159E-1,7.187139536E-1
1.962617625E0,5.710449219E-1,-8.611381054E-2,4.144067764E-1,7.108029738E-1
1.967592885E0,6.385307312E-1,-9.735023975E-2,3.344225883E-1,7.273493187E-1
1.972568145E0,7.005357742E-1,-1.071769595E-1,2.444510460E-1,7.496623143E-1
1.977543406E0,7.620143890E-1,-1.112085581E-1,1.590442657E-1,7.863385727E-1
1.982518666E0,8.039951324E-1,-1.289518476E-1,5.446243286E-2,8.160900125E-1
1.987493927E0,7.740077972E-1,-1.225785613E-1,-6.928157806E-2,7.867105636E-1
1.992469187E0,6.292581558E-1,-4.953330755E-2,-2.312808037E-1,6.722426536E-1
1.997444447E0,4.369401932E-1,6.105035543E-2,-4.123272896E-1,6.038689196E-1
2.002419708E0,2.305793762E-1,1.565214396E-1,-5.980911255E-1,6.598324061E-1
2.007394968E0,3.406143188E-2,2.273647189E-1,-7.981615067E-1,8.306122364E-1
2.012370229E0,-1.096849442E-1,2.688646913E-1,-9.600148201E-1,1.002969324E0
2.017345541E0,-1.913223267E-1,3.002111912E-1,-1.059998989E0,1.118181045E0
2.022320854E0,-2.254056931E-1,2.877929211E-1,-1.074523926E0,1.135004035E0
2.027296166E0,-2.646808624E-1,2.888310552E-1,-1.027856827E0,1.099985906E0
2.032271479E0,-2.804708481E-1,2.888288498E-1,-9.344968796E-1,1.017531532E0
2.037246791E0,-2.490129471E-1,2.590879798E-1,-7.851152420E-1,8.634465660E-1
2.042222104E0,-2.420253754E-1,2.043220997E-1,-5.607023239E-1,6.439805112E-1
2.047197416E0,-2.593097687E-1,1.627420187E-1,-2.707982063E-1,4.087275246E-1
2.052172729E0,-2.719554901E-1,1.199971437E-1,1.308155060E-2,2.975402999E-1
2.057148041E0,-2.654800415E-1,9.054833651E-2,2.959971428E-1,4.077903410E-1
2.062123354E0,-2.493019104E-1,4.592168331E-2,5.591616631E-1,6.139397438E-1
2.067098666E0,-3.045740128E-1,5.416035652E-3,7.884340286E-1,8.452353993E-1
2.072073979E0,-3.975353241E-1,1.219946146E-2,1.027159691E0,1.101471830E0
2.077049291E0,-5.279483795E-1,1.378703117E-2,1.199148655E0,1.310296558E0
2.082024604E0,-6.431341171E-1,2.003908157E-2,1.338132858E0,1.484797159E0
2.086999916E0,-7.766141891E-1,1.689481735E-2,1.444176197E0,1.639835334E0
2.091975229E0,-9.331340790E-1,4.760336876E-2,1.526944160E0,1.790129537E0
2.096950541E0,-1.127045155E0,7.410275936E-2,1.552996159E0,1.920291402E0
2.101925854E0,-1.382276058E0,1.300922632E-1,1.522311687E0,2.060350449E0
2.106901166E0,-1.665392876E0,1.965936422E-1,1.477835178E0,2.235213481E0
2.111876479E0,-1.952507973E0,2.547017336E-1,1.410003185E0,2.421831815E0
2.116851791E0,-2.176862240E0,3.046240807E-1,1.290057182E0,2.548680556E0
2.121827104E0,-2.338755131E0,3.465502262E-1,1.151366711E0,2.629737235E0
2.126802416E0,-2.419463634E0,3.711423874E-1,1.027091980E0,2.654518579E0
2.131777729E0,-2.491143227E0,4.167360067E-1,9.549484253E-1,2.700257390E0
2.136753041E0,-2.549218178E0,4.642162323E-1,9.249858856E-1,2.751292227E0
2.141728354E0,-2.550824165E0,4.754498005E-1,9.178619385E-1,2.752313022E0
2.146703666E0,-2.510469437E0,4.790909290E-1,8.808832169E-1,2.703320209E0
2.151678979E0,-2.452097416E0,4.989951849E-1,8.667130470E-1,2.648201170E0
2.156654291E0,-2.356671810E0,5.062485933E-1,8.799772263E-1,2.566037719E0
2.161629604E0,-2.291070461E0,4.863084555E-1,9.159111977E-1,2.514834606E0
2.166604916E0,-2.240752697E0,4.484256506E-1,9.554872513E-1,2.476896062E0
2.171580229E0,-2.215058804E0,3.875502348E-1,9.797945023E-1,2.452891753E0
2.176555489E0,-2.194618702E0,3.130037785E-1,1.008235931E0,2.435336179E0
2.181530750E0,-2.212765217E0,2.531225681E-1,1.036096573E0,2.456399204E0
2.186506010E0,-2.283626080E0,2.028653622E-1,1.101732254E0,2.543603032E0
2.191481270E0,-2.411672115E0,2.002350092E-1,1.176654339E0,2.690868240E0
2.196456531E0,-2.572720528E0,2.068740129E-1,1.189448357E0,2.841913997E0
2.201431791E0,-2.714041710E0,1.988637447E-1,1.159538269E0,2.958056489E0
2.206407052E0,-2.830902100E0,1.668099165E-1,1.091833591E0,3.038738692E0
2.211382312E0,-2.961622238E0,1.346638203E-1,1.048465252E0,3.144617625E0
2.216357572E0,-3.053761959E0,1.071947813E-1,1.024360657E0,3.222773275E0
2.221332833E0,-3.140974522E0,8.920705318E-2,1.000172615E0,3.297578521E0
2.226308093E0,-3.223356724E0,6.153404713E-2,9.900789261E-1,3.372546707E0
2.231283354E0,-3.281827450E0,9.921908379E-3,1.017920494E0,3.436080905E0
2.236258614E0,-3.321194172E0,-5.602669716E-2,1.078868389E0,3.492481456E0
2.241233875E0,-3.284113407E0,-1.219451427E-1,1.125165462E0,3.473653524E0
2.246209135E0,-3.242434978E0,-1.927005053E-1,1.166355610E0,3.451217681E0
2.251184395E0,-3.181850910E0,-2.731223106E-1,1.231076241E0,3.422618840E0
2.256159656E0,-3.126377583E0,-3.632711172E-1,1.342993975E0,3.421963692E0
2.261134916E0,-3.085566998E0,-4.058480263E-1,1.478086233E0,3.445312066E0
2.266110177E0,-3.135779858E0,-4.489183426E-1,1.593348980E0,3.545899599E0
2.271085437E0,-3.252806187E0,-4.734067917E-1,1.732022524E0,3.715476295E0
2.276060697E0,-3.374309063E0,-4.650462866E-1,1.860743761E0,3.881313830E0
2.281035958E0,-3.500154495E0,-4.716664553E-1,1.965427399E0,4.041838146E0
2.286011218E0,-3.630245209E0,-4.692317247E-1,2.079750538E0,4.210014369E0
2.290986479E0,-3.740533829E0,-4.766422510E-1,2.189682245E0,4.360446020E0
2.295961739E0,-3.802297592E0,-4.697560072E-1,2.290685892E0,4.463785338E0
2.300937000E0,-3.810834885E0,-4.818588495E-1,2.392441273E0,4.525309460E0
2.305912260E0,-3.785326958E0,-5.128825903E-1,2.514157772E0,4.573044722E0
2.310887520E0,-3.754483223E0,-5.579459667E-1,2.641537905E0,4.624410284E0
2.315862781E0,-3.703956604E0,-5.787640810E-1,2.774632454E0,4.663994816E0
2.320838041E0,-3.609882355E0,-5.992858410E-1,2.880021572E0,4.656706818E0
2.325813302E0,-3.505863190E0,-6.146701574E-1,2.881221771E0,4.579337834E0
2.330788562E0,-3.401711941E0,-6.296387911E-1,2.797164917E0,4.448844873E0
2.335763822E0,-3.302591801E0,-6.393989921E-1,2.694236040E0,4.309855161E0
2.340739083E0,-3.232792377E0,-5.769825578E-1,2.605189562E0,4.191761930E0
2.345714343E0,-3.240400791E0,-4.902505577E-1,2.486329794E0,4.113681896E0
2.350689604E0,-3.301510334E0,-4.317004085E-1,2.390017033E0,4.098599413E0
2.355664864E0,-3.377790928E0,-3.821052313E-1,2.287513733E0,4.097339995E0
2.360640125E0,-3.397374630E0,-3.079241514E-1,2.131344557E0,4.022387510E0
2.365615385E0,-3.388871670E0,-2.665265799E-1,1.936275721E0,3.912115959E0
2.370590645E0,-3.328312397E0,-2.531566024E-1,1.726502419E0,3.757999771E0
2.375565906E0,-3.206137180E0,-2.487559915E-1,1.483114004E0,3.541302347E0
2.380541166E0,-3.051043034E0,-2.535782456E-1,1.287534714E0,3.321281554E0
2.385516427E0,-2.858283043E0,-2.392703891E-1,1.125321388E0,3.081132990E0
2.390491687E0,-2.685214043E0,-2.587919831E-1,1.034666300E0,2.889270167E0
2.395466947E0,-2.507826328E0,-3.125405908E-1,9.867923260E-1,2.713048766E0
2.400442208E0,-2.316414356E0,-3.672515750E-1,9.675185680E-1,2.537073387E0
2.405417468E0,-2.130033970E0,-3.993307650E-1,9.530007839E-1,2.367429042E0
2.410392729E0,-1.953362465E0,-4.327836931E-1,9.816198349E-1,2.228565490E0
2.415367989E0,-1.786248207E0,-4.726102948E-1,1.082171440E0,2.141293575E0
2.420343250E0,-1.623722076E0,-5.475288630E-1,1.192707300E0,2.087776794E0
2.425318510E0,-1.460839748E0,-5.904191136E-1,1.256208658E0,2.015119771E0
2.430293770E0,-1.292758465E0,-5.916414261E-1,1.268163919E0,1.905125653E0
2.435269031E0,-1.157850742E0,-5.747719407E-1,1.300189257E0,1.833432090E0
2.440244291E0,-9.894428253E-1,-5.297755003E-1,1.318317652E0,1.731363802E0
2.445219552E0,-7.974271774E-1,-4.991820157E-1,1.317382097E0,1.618816969E0
2.450194812E0,-5.725517273E-1,-4.777219296E-1,1.292221785E0,1.491935274E0
2.455170645E0,-3.485012054E-1,-4.792562127E-1,1.242636442E0,1.376693479E0
2.460146062E0,-1.206016541E-1,-4.701340199E-1,1.125481367E0,1.225674942E0
2.465121322E0,1.254692078E-1,-4.742354751E-1,9.647641182E-1,1.082317704E0
2.470096583E0,3.323450089E-1,-4.773015976E-1,7.366740704E-1,9.385940048E-1
2.475071843E0,5.097389221E-1,-4.651466012E-1,5.322449207E-1,8.714813739E-1
2.480047104E0,6.769027710E-1,-4.332607687E-1,3.180718422E-1,8.643390260E-1
2.485022364E0,8.530931473E-1,-3.819871545E-1,1.325778961E-1,9.440651475E-1
2.489997625E0,1.052779198E0,-3.261612654E-1,-6.709718704E-2,1.104186235E0
2.494972885E0,1.223520279E0,-2.901418209E-1,-2.854447365E-1,1.289442844E0
2.499948145E0,1.351168633E0,-2.362462878E-1,-4.362621307E-1,1.439372651E0
2.504923406E0,1.421611786E0,-1.745117903E-1,-5.338220596E-1,1.528528844E0
2.509898666E0,1.449527740E0,-9.101444483E-2,-5.921621323E-1,1.568461122E0
2.514873927E0,1.444684029E0,1.881581545E-2,-5.776710510E-1,1.556010868E0
2.519849187E0,1.368990898E0,1.405827403E-1,-5.285563469E-1,1.474201953E0
2.524824447E0,1.270303726E0,2.650388479E-1,-4.449691772E-1,1.371828968E0
2.529799708E0,1.153336525E0,3.590753078E-1,-3.510270119E-1,1.257911038E0
2.534774968E0,1.017987251E0,4.423520565E-1,-2.326049805E-1,1.134053995E0
2.539750229E0,8.880491257E-1,5.201048851E-1,-1.233968735E-1,1.036516825E0
2.544725489E0,7.298603058E-1,6.071808338E-1,-4.281663895E-2,9.503672424E-1
2.549700750E0,6.006927490E-1,6.754180193E-1,1.381635666E-2,9.039978823E-1
2.554676010E0,4.907989502E-1,6.869199872E-1,3.678178787E-2,8.450417612E-1
2.559651270E0,4.238557816E-1,6.469429135E-1,1.628971100E-2,7.735982236E-1
2.564626531E0,3.756675720E-1,6.084316969E-1,1.414918900E-2,7.152030858E-1
2.569601791E0,3.364753723E-1,5.857177973E-1,4.907464981E-2,6.772660744E-1
2.574577052E0,3.395977020E-1,5.597918034E-1,1.064300537E-1,6.633406505E-1
2.579552312E0,4.088239670E-1,5.211503506E-1,2.100183964E-1,6.948686572E-1
2.584527572E0,5.154752731E-1,4.745256901E-1,3.456518650E-1,7.812583437E-1
2.589502833E0,6.596117020E-1,4.101663828E-1,4.800429344E-1,9.131074843E-1
2.594478093E0,8.222455978E-1,3.182926178E-1,6.279017925E-1,1.082431834E0
2.599453354E0,1.013155937E0,2.368131876E-1,7.705585957E-1,1.294730083E0
2.604428614E0,1.184724808E0,1.940511465E-1,8.941116333E-1,1.496884875E0
2.609403875E0,1.327600479E0,1.560919285E-1,9.702191353E-1,1.651730272E0
2.614379135E0,1.427754402E0,1.129179001E-1,1.042456865E0,1.771425810E0
2.619354395E0,1.461543083E0,8.809983730E-2,1.053817511E0,1.803995873E0
2.624329656E0,1.400547981E0,9.561121464E-2,1.071557999E0,1.766044364E0
2.629304916E0,1.264195442E0,1.304451227E-1,1.076833487E0,1.665766011E0
2.634280177E0,1.047928810E0,2.116168737E-1,1.069862604E0,1.512462391E0
2.639255437E0,7.710227966E-1,3.058806658E-1,1.036447525E0,1.327502394E0
2.644230697E0,4.908237457E-1,4.183571339E-1,9.286794662E-1,1.130652994E0
2.649205958E0,2.023668289E-1,5.016804934E-1,7.846248150E-1,9.530329224E-1
2.654181218E0,-9.453678131E-2,5.611072779E-1,6.230995655E-1,8.438196779E-1
2.659156479E0,-3.666200638E-1,6.161946058E-1,4.676699638E-1,8.560497991E-1
2.664131739E0,-5.902366638E-1,6.386089325E-1,3.179430962E-1,9.258987528E-1
2.669107000E0,-7.895584106E-1,6.383244991E-1,1.735796928E-1,1.030043960E0
2.674082260E0,-9.648351669E-1,6.490104198E-1,7.714915276E-2,1.165364070E0
2.679057520E0,-1.116277695E0,6.564580202E-1,1.865696907E-2,1.295129764E0
2.684032781E0,-1.234477043E0,6.512843370E-1,-4.518032074E-2,1.396476322E0
2.689008041E0,-1.309922218E0,6.191610098E-1,-1.286616325E-1,1.454582548E0
2.693983302E0,-1.342712402E0,5.600377321E-1,-2.270498276E-1,1.472436919E0
2.698958562E0,-1.332897186E0,4.930372238E-1,-2.733511925E-1,1.447211625E0
2.703933822E0,-1.266190529E0,4.082646370E-1,-2.916076183E-1,1.361966766E0
2.708909083E0,-1.166500092E0,3.101670742E-1,-3.104283810E-1,1.246311300E0
2.713884343E0,-1.029002190E0,2.031155825E-1,-3.201386929E-1,1.096626750E0
2.718859604E0,-8.967552185E-1,1.201432943E-1,-3.160400391E-1,9.583765645E-1
2.723834864E0,-7.697172165E-1,8.182525635E-3,-2.790913582E-1,8.187939505E-1
2.728810125E0,-6.573762894E-1,-7.567167282E-2,-2.427554131E-1,7.048403922E-1
2.733785385E0,-5.692024231E-1,-1.222726107E-1,-1.974172592E-1,6.147483746E-1
2.738760645E0,-5.099020004E-1,-1.271665096E-1,-1.813344955E-1,5.559258678E-1
2.743735906E0,-4.602251053E-1,-1.336364746E-1,-1.560726166E-1,5.040084489E-1
2.748711166E0,-4.487981796E-1,-1.129919291E-1,-1.311228275E-1,4.810199351E-1
2.753686427E0,-4.420528412E-1,-9.873867035E-2,-1.111681461E-1,4.663886750E-1
2.758661687E0,-4.399538040E-1,-8.604681492E-2,-6.266236305E-2,4.526477392E-1
2.763636947E0,-4.424886703E-1,-7.956743240E-2,9.604215622E-3,4.496881593E-1
2.768612208E0,-4.304885864E-1,-6.480443478E-2,1.057310104E-1,4.479945138E-1
2.773587468E0,-3.896121979E-1,-4.639685154E-2,1.779890060E-1,4.308484871E-1
2.778562729E0,-3.342571259E-1,-2.883207798E-2,2.121441364E-1,3.969436352E-1
2.783537989E0,-2.692413330E-1,-7.173657417E-3,2.656378746E-1,3.782933216E-1
2.788513250E0,-1.850681305E-1,1.890766621E-2,3.431937695E-1,3.903712030E-1
2.793488510E0,-7.223033905E-2,2.572619915E-2,4.208922386E-1,4.278192793E-1
2.798463770E0,3.580188751E-2,-7.640123367E-4,4.941298962E-1,4.954257897E-1
2.803439031E0,1.629734039E-1,-2.698791027E-2,5.630290508E-1,5.867626349E-1
2.808414291E0,3.140382767E-1,-2.885651588E-2,6.085557938E-1,6.854143943E-1
2.813389552E0,4.699077606E-1,-4.935705662E-2,6.309676170E-1,7.882699768E-1
2.818364812E0,6.401386261E-1,-8.846771717E-2,5.920803547E-1,8.764491680E-1
2.823340072E0,7.769231796E-1,-1.319427490E-1,5.350286961E-1,9.525094339E-1
2.828315333E0,8.659982681E-1,-1.656179428E-1,4.646143913E-1,9.966187014E-1
2.833290593E0,9.552841187E-1,-1.801526546E-1,3.952317238E-1,1.049395465E0
2.838265854E0,1.001830101E0,-2.187918425E-1,3.317730427E-1,1.077778629E0
2.843241114E0,1.000987053E0,-2.291717529E-1,2.312684059E-1,1.052606217E0
2.848216375E0,9.576435089E-1,-2.736819983E-1,1.272423267E-1,1.004078451E0
2.853191635E0,9.149017334E-1,-2.950844765E-1,6.267595291E-2,9.633526380E-1
2.858166895E0,8.536186218E-1,-2.838507891E-1,5.655741692E-2,9.013516314E-1
2.863142156E0,7.881107330E-1,-2.448006868E-1,4.172301292E-2,8.263090908E-1
2.868117416E0,7.086782455E-1,-2.255833149E-1,4.176783562E-2,7.448874007E-1
2.873092677E0,5.865135193E-1,-2.163660526E-1,6.113839149E-2,6.281323745E-1
2.878067937E0,4.980468750E-1,-1.881841421E-1,1.282486916E-1,5.476419340E-1
2.883043197E0,4.000825882E-1,-1.551145315E-1,2.045855522E-1,4.753754763E-1
2.888018458E0,3.164615631E-1,-1.120884418E-1,2.470209599E-1,4.168106217E-1
2.892993718E0,1.992902756E-1,-5.414092541E-2,2.459638119E-1,3.211635884E-1
2.897968979E0,1.202335358E-1,-4.938840866E-3,2.539210320E-1,2.809917895E-1
2.902944239E0,6.005668640E-2,4.523825645E-2,2.469167709E-1,2.581108235E-1
2.907919500E0,4.331588745E-3,5.828297138E-2,2.296781540E-1,2.369973034E-1
2.912894760E0,-3.738880157E-2,9.640192986E-2,2.022261620E-1,2.271270022E-1
2.917870020E0,-8.902549744E-2,1.356040239E-1,1.550204754E-1,2.243776689E-1
2.922845281E0,-1.123228073E-1,1.567096710E-1,5.461525917E-2,2.003925162E-1
2.927820541E0,-1.168889999E-1,1.549121141E-1,-4.155468941E-2,1.984630787E-1
2.932795802E0,-1.218252182E-1,1.634824276E-1,-1.525688171E-1,2.546470732E-1
2.937771062E0,-1.701145172E-1,1.631091833E-1,-2.449038029E-1,3.398844323E-1
2.942746322E0,-1.850662231E-1,1.630331278E-1,-3.374929428E-1,4.180081269E-1
2.947721583E0,-2.096366882E-1,1.533775330E-1,-4.397025108E-1,5.106961001E-1
2.952696843E0,-1.767196655E-1,1.242543459E-1,-5.368800163E-1,5.787133441E-1
2.957672104E0,-1.101484299E-1,9.449303150E-2,-6.430711746E-1,6.592436160E-1
2.962647364E0,-6.721591949E-2,4.464876652E-2,-7.245926857E-1,7.290720488E-1
2.967622625E0,1.907634735E-2,2.703261375E-2,-7.289299965E-1,7.296804842E-1
2.972597885E0,7.697677612E-2,2.221941948E-2,-6.801376343E-1,6.848403670E-1
2.977573145E0,1.447906494E-1,-3.371357918E-3,-5.974311829E-1,6.147354850E-1
2.982548458E0,1.603145599E-1,-3.536522388E-2,-5.048851967E-1,5.309053767E-1
2.987523770E0,1.522445679E-1,-6.883811951E-2,-3.692049980E-1,4.052522988E-1
2.992499083E0,1.013717651E-1,-5.565953255E-2,-2.002356052E-1,2.312326014E-1
2.997474395E0,5.066967010E-2,-4.343295097E-2,2.087950706E-2,6.992703707E-2
3.002449708E0,-9.513854980E-3,-4.599010944E-2,2.509801388E-1,2.553363148E-1
3.007425020E0,-5.052566528E-2,-2.948760986E-2,4.661650658E-1,4.698214879E-1
3.012400333E0,-1.154375076E-1,-1.260924339E-2,6.426916122E-1,6.530982465E-1
3.017375645E0,-1.420288086E-1,4.960775375E-3,7.569336891E-1,7.701593351E-1
3.022350958E0,-1.494836807E-1,-5.213022232E-3,8.186659813E-1,8.322178413E-1
3.027326270E0,-1.569757462E-1,-3.330492973E-2,8.327913284E-1,8.481108418E-1
3.032301583E0,-1.597146988E-1,-2.663397789E-2,8.233509064E-1,8.391214863E-1
3.037276895E0,-1.529474258E-1,-4.740452766E-2,8.094635010E-1,8.251492372E-1
3.042252208E0,-1.509923935E-1,-4.791033268E-2,7.577245235E-1,7.741062953E-1
3.047227520E0,-1.729631424E-1,-4.738342762E-2,6.729497910E-1,6.964358255E-1
3.052202833E0,-1.901636124E-1,-5.541586876E-2,6.172652245E-1,6.482665156E-1
3.057178145E0,-2.121753693E-1,-5.779528618E-2,5.714173317E-1,6.122715487E-1
3.062153458E0,-2.246570587E-1,-7.366299629E-2,5.401494503E-1,5.896256946E-1
3.067128770E0,-2.180356979E-1,-6.001901627E-2,5.234858990E-1,5.702449775E-1
3.072104083E0,-1.971158981E-1,-4.089999199E-2,4.974856377E-1,5.366744323E-1
3.077079395E0,-1.858119965E-1,-1.632499695E-2,4.574081898E-1,4.939785983E-1
3.082054708E0,-1.458091736E-1,-5.558133125E-3,4.224793911E-1,4.469676094E-1
3.087030020E0,-1.201410294E-1,-8.615136147E-3,3.975515366E-1,4.153977753E-1
3.092005333E0,-7.051181793E-2,3.124237061E-3,3.348338604E-1,3.421920388E-1
3.096980645E0,-4.474258423E-2,-4.009127617E-3,2.678368092E-1,2.715778494E-1
3.101955958E0,-1.890277863E-2,-2.047085762E-2,2.252032757E-1,2.269204407E-1
3.106931270E0,2.141952515E-3,-2.221977711E-2,1.910727024E-1,1.923722539E-1
3.111906583E0,2.301788330E-2,-1.440608501E-2,1.525022984E-1,1.549009659E-1
3.116881895E0,3.892707825E-2,-2.087938786E-2,7.140612602E-2,8.396488011E-2
3.121857208E0,2.611732483E-2,-4.156720638E-2,-2.351164818E-2,5.443110235E-2
3.126832520E0,1.325321198E-2,-5.257952213E-2,-7.055497169E-2,8.898459308E-2
3.131807833E0,-1.869678497E-2,-6.349337101E-2,-1.034574509E-1,1.228186552E-1
3.136783145E0,-6.004714966E-2,-5.055844784E-2,-1.459987164E-1,1.657632107E-1
3.141758458E0,-1.011838913E-1,-1.876008511E-2,-1.885221004E-1,2.147805927E-1
3.146733718E0,-1.278285980E-1,1.756346226E-2,-2.356636524E-1,2.686744922E-1
3.151708979E0,-1.401138306E-1,2.517080307E-2,-2.636637688E-1,2.996398468E-1
3.156684239E0,-1.049222946E-1,4.262089729E-3,-2.964384556E-1,3.144878555E-1
3.161659500E0,-7.963085175E-2,-6.976246834E-3,-3.197164536E-1,3.295578117E-1
3.166634760E0,-5.943489075E-2,-2.779126167E-2,-3.431968689E-1,3.494122941E-1
3.171610020E0,-3.954887390E-2,-4.399192333E-2,-3.052079678E-1,3.108879321E-1
3.176585281E0,-3.418064117E-2,-6.053841114E-2,-2.299854755E-1,2.402634687E-1
3.181560541E0,-6.685638428E-2,-4.428780079E-2,-1.461296082E-1,1.666884753E-1
3.186535802E0,-9.442901611E-2,-4.788088799E-2,-7.253193855E-2,1.283366691E-1
3.191511062E0,-1.121006012E-1,-3.794467449E-2,5.984306335E-4,1.183499101E-1
3.196486322E0,-1.436710358E-1,-2.890455723E-2,7.805323601E-2,1.660395965E-1
3.201461583E0,-1.509714127E-1,-2.065896988E-2,1.789784431E-1,2.350583834E-1
3.206436843E0,-1.769676208E-1,-1.307570934E-2,3.079075813E-1,3.553809106E-1
3.211412104E0,-1.930446625E-1,8.148074150E-3,4.455530643E-1,4.856440733E-1
3.216387364E0,-2.230358124E-1,2.407026291E-2,5.776386261E-1,6.196698585E-1
3.221362625E0,-2.811164856E-1,4.443717003E-2,6.994240284E-1,7.551126486E-1
3.226337885E0,-3.528013229E-1,7.421159744E-2,8.016011715E-1,8.789428723E-1
3.231313145E0,-3.952293396E-1,1.182483435E-1,8.654360771E-1,9.587327600E-1
3.236288406E0,-4.229259491E-1,1.434396505E-1,8.770132065E-1,9.841714567E-1
3.241263666E0,-4.550924301E-1,1.501253843E-1,8.556246758E-1,9.806836068E-1
3.246238927E0,-4.964971542E-1,1.480340958E-1,7.871890068E-1,9.423852981E-1
3.251214187E0,-5.613498688E-1,1.182636023E-1,6.910057068E-1,8.981029126E-1
3.256189447E0,-6.161861420E-1,1.369534731E-1,6.100821495E-1,8.778620874E-1
3.261164708E0,-6.848125458E-1,1.656337976E-1,5.395607948E-1,8.874280980E-1
3.266139968E0,-7.433986664E-1,1.615120173E-1,4.318146706E-1,8.747523184E-1
3.271115229E0,-8.205757141E-1,1.295520067E-1,3.629684448E-1,9.065728415E-1
3.276090489E0,-9.114694595E-1,1.080012321E-1,2.994029522E-1,9.654444415E-1
3.281065750E0,-1.011232376E0,9.673416615E-2,2.315154076E-1,1.041896253E0
3.286041010E0,-1.067567825E0,1.003820896E-1,1.545631886E-1,1.083359315E0
3.291016270E0,-1.118863106E0,9.978783131E-2,4.002332687E-2,1.124016960E0
3.295991531E0,-1.150959969E0,7.592129707E-2,-6.919074059E-2,1.155534617E0
3.300966791E0,-1.164032936E0,6.211066246E-2,-1.162090302E-1,1.171467007E0
3.305942052E0,-1.186762810E0,5.816614628E-2,-1.681425571E-1,1.200025494E0
3.310917312E0,-1.190612316E0,4.486536980E-2,-2.013342381E-1,1.208348486E0
3.315892572E0,-1.218478680E0,2.213358879E-2,-2.302513123E-1,1.240240241E0
3.320867833E0,-1.284368992E0,-1.024842262E-2,-2.406921387E-1,1.306767555E0
3.325843093E0,-1.349964619E0,-1.442492008E-2,-2.281007767E-1,1.369175852E0
3.330818354E0,-1.453150272E0,-1.459908485E-2,-1.972472668E-1,1.466548783E0
3.335793614E0,-1.588786602E0,3.281474113E-3,-1.244091988E-1,1.593653439E0
3.340768875E0,-1.709065437E0,-2.746677399E-2,-3.832173347E-2,1.709715663E0
3.345744135E0,-1.799850464E0,-7.314121723E-2,8.471298218E-2,1.803326820E0
3.350719395E0,-1.885116577E0,-1.194629669E-1,2.111482620E-1,1.900662910E0
3.355694656E0,-1.964962959E0,-1.662738323E-1,3.931193352E-1,2.010788211E0
3.360669916E0,-2.025209427E0,-1.944739819E-1,5.969130993E-1,2.120282670E0
3.365645177E0,-2.061188221E0,-2.244383097E-1,8.089299202E-1,2.225586901E0
3.370620437E0,-2.092489719E0,-2.737669945E-1,1.015398264E0,2.341899918E0
3.375595697E0,-2.100021839E0,-3.230206966E-1,1.216365099E0,2.448260229E0
3.380570958E0,-2.098137379E0,-3.768073320E-1,1.431086540E0,2.567522719E0
3.385546218E0,-2.110736370E0,-4.109758139E-1,1.616641760E0,2.690286179E0
3.390521479E0,-2.132954121E0,-3.871073723E-1,1.758937836E0,2.791631729E0
3.395496739E0,-2.150381565E0,-3.529187441E-1,1.891695142E0,2.885689350E0
3.400472000E0,-2.124742985E0,-3.225674629E-1,1.976825237E0,2.920003517E0
3.405447260E0,-2.084757328E0,-3.150516748E-1,1.981047630E0,2.893098752E0
3.410422520E0,-2.054316998E0,-3.351541758E-1,1.961923003E0,2.860365102E0
3.415397781E0,-2.014276028E0,-3.255457878E-1,1.905125499E0,2.791557118E0
3.420373041E0,-1.993262291E0,-3.007464409E-1,1.844300866E0,2.732213145E0
3.425348302E0,-2.015105724E0,-2.657701969E-1,1.774720192E0,2.698317372E0
3.430323562E0,-2.041392803E0,-2.255505323E-1,1.682230234E0,2.654817542E0
3.435298822E0,-2.091190815E0,-1.754242182E-1,1.571724892E0,2.621864187E0
3.440274083E0,-2.107068539E0,-1.251240969E-1,1.452782631E0,2.562415118E0
3.445249343E0,-2.127393246E0,-1.128354073E-1,1.291811228E0,2.491447390E0
3.450224604E0,-2.157005787E0,-1.146471500E-1,1.146076679E0,2.445262703E0
3.455199864E0,-2.119457722E0,-9.233248234E-2,1.029716730E0,2.358165148E0
3.460175125E0,-2.115330219E0,-6.509816647E-2,8.946895599E-1,2.297679072E0
3.465150385E0,-2.082472324E0,-8.088409901E-2,8.125691414E-1,2.236850873E0
3.470125645E0,-2.049645901E0,-1.109672785E-1,8.118841648E-1,2.207378072E0
3.475100906E0,-1.964261055E0,-1.314345598E-1,8.446846008E-1,2.142215818E0
3.480076166E0,-1.850218773E0,-1.757916212E-1,8.776292801E-1,2.055345556E0
3.485051427E0,-1.712295532E0,-2.392305136E-1,9.442946911E-1,1.969994846E0
3.490026687E0,-1.617455482E0,-3.121086359E-1,1.001632452E0,1.927911203E0
3.495001947E0,-1.527444839E0,-3.512419462E-1,1.083034992E0,1.905104574E0
3.499977208E0,-1.404021740E0,-3.756669760E-1,1.221938133E0,1.898824775E0
3.504952468E0,-1.228139400E0,-4.474128485E-1,1.298691750E0,1.842581044E0
3.509927729E0,-1.066772938E0,-5.138313770E-1,1.342156172E0,1.789807357E0
3.514902989E0,-9.151592255E-1,-5.462576151E-1,1.376185179E0,1.740631907E0
3.519878250E0,-7.541151047E-1,-5.687481165E-1,1.410423040E0,1.697485542E0
3.524853510E0,-6.362304688E-1,-5.813919306E-1,1.411413193E0,1.653751187E0
3.529828770E0,-5.278959274E-1,-6.177884936E-1,1.355433941E0,1.580360054E0
3.534804031E0,-4.385976791E-1,-6.111806035E-1,1.233078003E0,1.444434497E0
3.539779291E0,-3.635396957E-1,-5.999849439E-1,1.039591789E0,1.254150761E0
3.544754552E0,-2.883729935E-1,-6.130613089E-1,8.419356346E-1,1.080675143E0
3.549729812E0,-2.418365479E-1,-6.075497866E-1,6.495070457E-1,9.216621190E-1
3.554705072E0,-2.383241653E-1,-5.883728266E-1,4.811987877E-1,7.965759626E-1
3.559680333E0,-2.060661316E-1,-5.509337783E-1,3.416805267E-1,6.802476468E-1
3.564655593E0,-1.690168381E-1,-5.192633867E-1,2.021839619E-1,5.823053415E-1
3.569630854E0,-1.606588364E-1,-4.695677757E-1,8.180546761E-2,5.029883619E-1
3.574606114E0,-1.761617661E-1,-4.114887714E-1,3.790712357E-2,4.492136762E-1
3.579581375E0,-1.820030212E-1,-3.640680313E-1,3.698158264E-2,4.087031546E-1
3.584556635E0,-1.685838699E-1,-3.369423151E-1,2.166938782E-2,3.773860189E-1
3.589531947E0,-1.311321259E-1,-3.492125273E-1,6.382465363E-3,3.730760774E-1
3.594507260E0,-6.494426727E-2,-3.577663898E-1,2.927994728E-2,3.647901628E-1
3.599482572E0,-1.311683655E-2,-3.625705242E-1,8.071136475E-2,3.716769576E-1
3.604457885E0,4.348182678E-2,-3.492702246E-1,1.701717377E-1,3.909460057E-1
3.609433197E0,1.192121506E-1,-3.369781971E-1,2.737545967E-1,4.502304092E-1
3.614408510E0,1.901636124E-1,-3.639523983E-1,3.723692894E-1,5.543306192E-1
3.619383822E0,2.277345657E-1,-3.824156523E-1,5.092034340E-1,6.763082882E-1
3.624359135E0,2.320737839E-1,-3.827549219E-1,6.700985432E-1,8.058483908E-1
3.629334447E0,2.081594467E-1,-3.409827948E-1,7.884159088E-1,8.838547770E-1
3.634309760E0,1.560516357E-1,-2.711563110E-1,8.978183270E-1,9.507657999E-1
3.639285072E0,8.534145355E-2,-2.017235756E-1,9.122817516E-1,9.382076311E-1
3.644260385E0,1.027965546E-2,-1.513078213E-1,9.035327435E-1,9.161720071E-1
3.649235697E0,-7.414054871E-2,-1.099491119E-1,8.807687759E-1,8.906959441E-1
3.654211010E0,-1.155567169E-1,-4.865992069E-2,8.292107582E-1,8.386367654E-1
3.659186322E0,-1.716070175E-1,-5.547881126E-3,7.963502407E-1,8.146492824E-1
3.664161635E0,-2.232923508E-1,1.002788544E-2,7.532169819E-1,7.856817767E-1
3.669136947E0,-2.323942184E-1,1.723730564E-2,7.045536041E-1,7.420916241E-1
3.674112260E0,-2.085113525E-1,1.107537746E-2,6.599278450E-1,6.921736839E-1
3.679087572E0,-1.515312195E-1,1.038599014E-2,6.387176514E-1,6.565286113E-1
3.684062885E0,-9.952831268E-2,4.490613937E-4,6.030092239E-1,6.111679072E-1
3.689038197E0,-3.791236877E-2,3.290176392E-5,6.105999947E-1,6.117758595E-1
3.694013510E0,9.569168091E-3,1.844966412E-2,6.139168739E-1,6.142685790E-1
3.698988822E0,5.739879608E-2,4.597806931E-2,6.657657623E-1,6.698153887E-1
3.703964135E0,1.295814514E-1,6.347465515E-2,7.136678696E-1,7.281086543E-1
3.708939447E0,1.639337540E-1,8.535933495E-2,7.194108963E-1,7.427735385E-1
3.713914760E0,1.603965759E-1,1.118431091E-1,6.876549721E-1,7.149162911E-1
3.718890072E0,1.284341812E-1,1.526786089E-1,6.373176575E-1,6.678172602E-1
3.723865385E0,2.968502045E-2,2.129590511E-1,5.634257793E-1,6.030600026E-1
3.728840697E0,-6.896972656E-2,2.834484577E-1,4.562270641E-1,5.415191459E-1
3.733816010E0,-1.246414185E-1,3.358635902E-1,3.060092926E-1,4.711491501E-1
3.738791322E0,-1.280078888E-1,3.322634697E-1,1.029734612E-1,3.706596371E-1
3.743766635E0,-1.031675339E-1,2.822670937E-1,-1.004476547E-1,3.168721880E-1
3.748741947E0,-7.420349121E-2,2.049554586E-1,-2.375984192E-1,3.224374465E-1
3.753717260E0,-3.154087067E-2,1.096422672E-1,-2.894797325E-1,3.111507172E-1
3.758692520E0,1.051998138E-2,3.425288200E-2,-3.278923035E-1,3.298443460E-1
3.763667781E0,8.082580566E-2,-5.028688908E-2,-3.239417076E-1,3.376385819E-1
3.768643041E0,1.508426666E-1,-9.641218185E-2,-2.869281769E-1,3.381960934E-1
3.773618302E0,2.494583130E-1,-1.426081657E-1,-2.308988571E-1,3.686201583E-1
3.778593562E0,3.624000549E-1,-1.986166239E-1,-2.178678513E-1,4.671710219E-1
3.783568822E0,4.896783829E-1,-2.311269045E-1,-2.621126175E-1,6.015875571E-1
3.788544083E0,5.786476135E-1,-2.642118931E-1,-3.397240639E-1,7.211472975E-1
3.793519343E0,6.436710358E-1,-2.788764238E-1,-4.124999046E-1,8.137816866E-1
3.798494604E0,7.087240219E-1,-2.753007412E-1,-4.899826050E-1,9.045237368E-1
3.803469864E0,7.547559738E-1,-2.584251165E-1,-5.576982498E-1,9.733794012E-1
3.808445125E0,7.770605087E-1,-2.284477949E-1,-6.251683235E-1,1.023155346E0
3.813420385E0,7.517824173E-1,-1.854325533E-1,-6.971421242E-1,1.041906510E0
3.818395645E0,7.220582962E-1,-1.389422417E-1,-7.544145584E-1,1.053477316E0
3.823370906E0,7.069625854E-1,-8.887422085E-2,-7.779712677E-1,1.054956880E0
3.828346166E0,6.920404434E-1,-5.416464806E-2,-7.727661133E-1,1.038759477E0
3.833321427E0,6.676254272E-1,-1.551055908E-2,-7.198686600E-1,9.819242212E-1
3.838296687E0,6.480188370E-1,-1.580083370E-2,-6.767992973E-1,9.371421281E-1
3.843271947E0,6.618738174E-1,-2.613639832E-2,-6.100988388E-1,9.005446433E-1
3.848247208E0,6.851787567E-1,-1.284992695E-2,-5.198636055E-1,8.601704585E-1
3.853222468E0,7.274599075E-1,5.037188530E-3,-4.252638817E-1,8.426580916E-1
3.858197729E0,7.312030792E-1,2.779233456E-2,-3.120884895E-1,7.955058656E-1
3.863172989E0,7.490434647E-1,7.485604286E-2,-2.042250633E-1,7.799855227E-1
3.868148250E0,7.905206680E-1,1.225632429E-1,-1.446490288E-1,8.129378922E-1
3.873123510E0,8.364439011E-1,1.711217165E-1,-1.572098732E-1,8.681221030E-1
3.878098770E0,8.819723129E-1,2.255451679E-1,-2.322907448E-1,9.395236951E-1
3.883074031E0,9.413986206E-1,2.428551912E-1,-3.172845840E-1,1.022682509E0
3.888049291E0,9.860172272E-1,2.804685831E-1,-3.882622719E-1,1.096193500E0
3.893024552E0,1.030272484E0,3.189804554E-1,-4.786252975E-1,1.179954278E0
3.897999812E0,1.079053879E0,3.485519886E-1,-6.312608719E-1,1.297819730E0
3.902975072E0,1.094201088E0,3.545033932E-1,-7.742447853E-1,1.386507722E0
3.907950333E0,1.075810432E0,3.651859760E-1,-8.597588539E-1,1.424750564E0
3.912925593E0,1.086246490E0,3.850059509E-1,-8.972487450E-1,1.460553433E0
3.917900854E0,1.101703644E0,3.563278913E-1,-9.343929291E-1,1.487887977E0
3.922876114E0,1.107946396E0,3.077168465E-1,-9.327616692E-1,1.480634731E0
3.927851375E0,1.143295288E0,2.726012468E-1,-8.875522614E-1,1.472815186E0
3.932826635E0,1.193396568E0,2.605063915E-1,-7.892069817E-1,1.454271848E0
3.937801895E0,1.262987137E0,2.572391033E-1,-7.095389366E-1,1.471310289E0
3.942777156E0,1.318490028E0,2.535024881E-1,-6.485986710E-1,1.491093459E0
3.947752416E0,1.407642365E0,2.496210337E-1,-6.112623215E-1,1.554802017E0
3.952727677E0,1.463349342E0,2.411416769E-1,-5.832595825E-1,1.593653773E0
3.957702937E0,1.490267754E0,2.618100643E-1,-6.078596115E-1,1.630624357E0
3.962678197E0,1.478780746E0,2.928075790E-1,-6.563792229E-1,1.644190518E0
3.967653458E0,1.500587463E0,3.295960426E-1,-7.480063438E-1,1.708774349E0
3.972628718E0,1.526914597E0,3.531769514E-1,-8.922824860E-1,1.803432887E0
3.977603979E0,1.557647705E0,3.445031643E-1,-1.046280384E0,1.907787055E0
3.982579239E0,1.602314949E0,3.129070997E-1,-1.181416988E0,2.015209704E0
3.987554500E0,1.632189751E0,3.012290001E-1,-1.269098759E0,2.089352520E0
3.992529760E0,1.656891823E0,3.187290430E-1,-1.333302498E0,2.150482333E0
3.997505020E0,1.671738625E0,3.220871687E-1,-1.388288975E0,2.196769549E0
4.002480281E0,1.681623459E0,3.111753464E-1,-1.376541615E0,2.195348348E0
4.007455541E0,1.720116615E0,2.953227758E-1,-1.355428696E0,2.209797199E0
4.012430802E0,1.777669907E0,2.840565443E-1,-1.324874401E0,2.235193637E0
4.017406062E0,1.844689369E0,2.867555618E-1,-1.304074764E0,2.277217296E0
4.022381322E0,1.854200363E0,3.081269264E-1,-1.273913383E0,2.270651118E0
4.027356583E0,1.844503403E0,3.577302694E-1,-1.301405430E0,2.285567728E0
4.032331843E0,1.820356369E0,4.212073088E-1,-1.357864380E0,2.309742103E0
4.037307104E0,1.800785065E0,4.652123451E-1,-1.386045456E0,2.319562756E0
4.042282364E0,1.785820007E0,4.994211197E-1,-1.438502312E0,2.346883775E0
4.047257625E0,1.770691872E0,5.429693460E-1,-1.500826836E0,2.383830238E0
4.052232885E0,1.760177612E0,5.862251520E-1,-1.592157364E0,2.444759748E0
4.057208145E0,1.749458313E0,5.908737183E-1,-1.650352955E0,2.476570414E0
4.062183406E0,1.781604767E0,5.855398178E-1,-1.675428867E0,2.514763272E0
4.067158666E0,1.808739662E0,5.749682188E-1,-1.662655830E0,2.523202732E0
4.072133927E0,1.806931496E0,5.638978481E-1,-1.602571964E0,2.480165138E0
4.077109187E0,1.800184250E0,5.427699089E-1,-1.499920368E0,2.405207604E0
4.082084447E0,1.788533211E0,5.307569504E-1,-1.340346813E0,2.297190363E0
4.087059708E0,1.805528641E0,5.233312845E-1,-1.195478439E0,2.227774227E0
4.092034968E0,1.836765289E0,4.920401573E-1,-1.098759174E0,2.196151627E0
4.097010229E0,1.853480339E0,4.658802748E-1,-9.975466728E-1,2.155813805E0
4.101985489E0,1.812487602E0,4.497631788E-1,-8.873157501E-1,2.067541406E0
4.106960750E0,1.732983589E0,4.534833431E-1,-7.919445038E-1,1.958585040E0
4.111936010E0,1.624645233E0,4.820342064E-1,-7.399425507E-1,1.849146854E0
4.116911270E0,1.506650925E0,5.020446777E-1,-7.503294945E-1,1.756428256E0
4.121886531E0,1.388628960E0,4.850057364E-1,-8.037672043E-1,1.676175012E0
4.126861791E0,1.304114342E0,4.597148895E-1,-8.666124344E-1,1.631891267E0
4.131837052E0,1.229122162E0,4.643622637E-1,-9.819698334E-1,1.640316541E0
4.136812312E0,1.187512398E0,4.654167891E-1,-1.116374969E0,1.695019633E0
4.141787572E0,1.136104584E0,4.292584658E-1,-1.207845211E0,1.712859162E0
4.146762833E0,1.098751068E0,3.892382383E-1,-1.280518532E0,1.731614283E0
4.151738093E0,1.108918190E0,3.164255619E-1,-1.363159180E0,1.785504869E0
4.156713354E0,1.161851883E0,2.488855124E-1,-1.426963329E0,1.856897450E0
4.161688614E0,1.252789497E0,1.623522043E-1,-1.491035461E0,1.954232972E0
4.166663875E0,1.357815742E0,6.594073772E-2,-1.517141342E0,2.037088516E0
4.171639187E0,1.429145813E0,-5.031192303E-2,-1.524446011E0,2.090197283E0
4.176614500E0,1.509914398E0,-1.532223225E-1,-1.441211224E0,2.092942513E0
4.181589812E0,1.576346397E0,-2.334618568E-1,-1.334283829E0,2.078385368E0
4.186565125E0,1.633390427E0,-3.008433580E-1,-1.246512413E0,2.076599193E0
4.191540437E0,1.671556473E0,-3.841112852E-1,-1.139503002E0,2.059152644E0
4.196515750E0,1.695659637E0,-4.401454329E-1,-1.018030167E0,2.026172507E0
4.201491062E0,1.672176361E0,-4.784612656E-1,-8.917708397E-1,1.954572638E0
4.206466375E0,1.615505219E0,-4.940591455E-1,-7.702550888E-1,1.856675645E0
4.211441687E0,1.549536705E0,-4.866888523E-1,-6.870102882E-1,1.763494592E0
4.216417000E0,1.464702606E0,-4.465113878E-1,-6.180396080E-1,1.651271965E0
4.221392312E0,1.346652985E0,-4.210740328E-1,-5.585212708E-1,1.517472771E0
4.226367625E0,1.248106956E0,-3.813948631E-1,-5.178198814E-1,1.404055001E0
4.231342937E0,1.173801422E0,-3.368318081E-1,-5.198130608E-1,1.327204228E0
4.236318250E0,1.109281540E0,-3.110824823E-1,-5.501871109E-1,1.276708151E0
4.241293562E0,1.070749283E0,-2.732318640E-1,-5.856323242E-1,1.250649790E0
4.246268875E0,1.070511818E0,-2.681698799E-1,-6.301355362E-1,1.270819197E0
4.251244187E0,1.065430641E0,-2.718400955E-1,-6.600217819E-1,1.282446194E0
4.256219500E0,1.069712639E0,-2.461605072E-1,-7.040424347E-1,1.304053632E0
4.261194812E0,1.106987000E0,-2.008557320E-1,-7.668881416E-1,1.361572864E0
4.266170125E0,1.158033371E0,-2.121610641E-1,-8.150973320E-1,1.431934798E0
4.271145437E0,1.251276970E0,-2.512826920E-1,-8.487420082E-1,1.532710032E0
4.276120750E0,1.405479431E0,-2.660773993E-1,-8.535532951E-1,1.665749934E0
4.281096062E0,1.567969322E0,-2.665435076E-1,-8.676967621E-1,1.811759064E0
4.286071375E0,1.710261345E0,-3.053538799E-1,-8.482899666E-1,1.933347027E0
4.291046687E0,1.851570129E0,-3.444974422E-1,-7.623429298E-1,2.031786695E0
4.296022000E0,1.977782249E0,-3.604292870E-1,-6.719551086E-1,2.119682893E0
4.300997312E0,2.079526901E0,-3.439982533E-1,-5.819387436E-1,2.186645749E0
4.305972625E0,2.142809868E0,-3.287732601E-1,-5.017151833E-1,2.225184062E0
4.310947937E0,2.144218445E0,-2.861993313E-1,-4.359188080E-1,2.206718832E0
4.315923250E0,2.098489761E0,-2.068637013E-1,-4.129314423E-1,2.148712230E0
4.320898562E0,2.015501022E0,-1.050879955E-1,-4.418721199E-1,2.066044246E0
4.325873875E0,1.957204819E0,-4.594624043E-3,-5.271730423E-1,2.026964042E0
4.330849187E0,1.871102333E0,9.019351006E-2,-5.924324989E-1,1.964722646E0
4.335824500E0,1.833312988E0,1.461957693E-1,-6.379575729E-1,1.946638020E0
4.340799812E0,1.795874596E0,2.114474773E-1,-6.687507629E-1,1.927979041E0
4.345775125E0,1.768209457E0,2.765326500E-1,-7.230172157E-1,1.930230268E0
4.350750437E0,1.740729332E0,3.367712498E-1,-7.768244743E-1,1.935719439E0
4.355725697E0,1.746600151E0,3.828663826E-1,-8.445177078E-1,1.977475389E0
4.360700958E0,1.742721558E0,4.245257378E-1,-8.928794861E-1,2.003630282E0
4.365676218E0,1.738614082E0,4.332934618E-1,-9.174237251E-1,2.013004829E0
4.370651479E0,1.743754387E0,4.425643682E-1,-9.611496925E-1,2.039693926E0
4.375626739E0,1.748573303E0,4.474914074E-1,-1.004915237E0,2.065819883E0
4.380602000E0,1.762639046E0,4.480324984E-1,-1.024869442E0,2.087579196E0
4.385577260E0,1.819200516E0,4.487057924E-1,-1.025860786E0,2.136168944E0
4.390552520E0,1.894284248E0,4.304658175E-1,-1.036320686E0,2.201720736E0
4.395527781E0,2.011547089E0,4.027279615E-1,-1.051351547E0,2.305179294E0
4.400503041E0,2.146916389E0,3.700327873E-1,-1.080435276E0,2.431771912E0
4.405478302E0,2.238510132E0,3.179384470E-1,-1.071279049E0,2.501929509E0
4.410453562E0,2.300879478E0,3.034461737E-1,-1.062328815E0,2.552384859E0
4.415428822E0,2.367555618E0,3.117569685E-1,-1.034555912E0,2.602463823E0
4.420404083E0,2.386275291E0,2.951194048E-1,-9.928717613E-1,2.601384163E0
4.425379343E0,2.381189346E0,2.773821354E-1,-9.658980370E-1,2.584562356E0
4.430354604E0,2.376325607E0,2.441591024E-1,-9.153981209E-1,2.558220237E0
4.435329864E0,2.338528633E0,2.382131815E-1,-8.509383202E-1,2.499911541E0
4.440305125E0,2.282393456E0,2.308430672E-1,-7.487607002E-1,2.413141312E0
4.445280385E0,2.231869698E0,2.505989075E-1,-6.185741425E-1,2.329522726E0
4.450255645E0,2.191661835E0,2.498439550E-1,-4.938387871E-1,2.260460207E0
4.455230906E0,2.133171082E0,2.575812340E-1,-3.697266579E-1,2.180244197E0
4.460206166E0,2.099202156E0,2.836146355E-1,-2.083220482E-1,2.128493606E0
4.465181427E0,2.041980743E0,2.996064425E-1,-5.275249481E-2,2.064517426E0
4.470156687E0,1.961631775E0,3.298105001E-1,8.276033401E-2,1.990885094E0
4.475131947E0,1.872567177E0,3.887788057E-1,1.984443665E-1,1.922768046E0
4.480107208E0,1.812891960E0,4.387559891E-1,2.566833496E-1,1.882809183E0
4.485082468E0,1.763363838E0,4.659193754E-1,3.007874489E-1,1.848514533E0
4.490057729E0,1.733379364E0,5.229188204E-1,2.739324570E-1,1.831143660E0
4.495032989E0,1.722761154E0,5.764412880E-1,1.909852028E-1,1.826654291E0
4.500008250E0,1.767590523E0,6.166939735E-1,5.752801895E-2,1.872964812E0
4.504983510E0,1.817232132E0,6.442887783E-1,-9.906721115E-2,1.930609998E0
4.509958770E0,1.871692657E0,6.733118296E-1,-2.692537308E-1,2.007256784E0
4.514934552E0,1.911849976E0,6.986484528E-1,-4.769878387E-1,2.090645209E0
4.519909968E0,1.913857460E0,7.390547991E-1,-6.409378052E-1,2.149384480E0
4.524885229E0,1.901728630E0,7.895207405E-1,-7.993779182E-1,2.208827707E0
4.529860489E0,1.956817627E0,8.020043373E-1,-9.236140251E-1,2.307684781E0
4.534835750E0,2.012120247E0,8.050676584E-1,-1.085412979E0,2.423815826E0
4.539811010E0,2.057983398E0,8.272407055E-1,-1.256248951E0,2.549075181E0
4.544786270E0,2.032122612E0,8.588590622E-1,-1.350274563E0,2.586581256E0
4.549761531E0,1.968031883E0,8.807320595E-1,-1.429902077E0,2.587171893E0
4.554736791E0,1.875238419E0,9.168310165E-1,-1.519207001E0,2.581683201E0
4.559712052E0,1.758491516E0,9.338096380E-1,-1.589564323E0,2.547745590E0
4.564687312E0,1.646420479E0,9.557524920E-1,-1.665039062E0,2.529133903E0
4.569662572E0,1.548488617E0,9.349782467E-1,-1.717060566E0,2.494052587E0
4.574637833E0,1.459791183E0,9.195348024E-1,-1.750576973E0,2.457855628E0
4.579613093E0,1.389791489E0,8.951694965E-1,-1.765740395E0,2.418819537E0
4.584588354E0,1.319248199E0,8.237092495E-1,-1.786622524E0,2.368740759E0
4.589563614E0,1.248165131E0,7.338323593E-1,-1.784527779E0,2.298035143E0
4.594538875E0,1.176521301E0,6.876316071E-1,-1.759547234E0,2.225543993E0
4.599514135E0,1.123516083E0,6.466428041E-1,-1.721191406E0,2.154747122E0
4.604489395E0,1.036524773E0,5.963834524E-1,-1.650369167E0,2.038081258E0
4.609464656E0,9.826297760E-1,5.128511190E-1,-1.580468178E0,1.930403380E0
4.614439916E0,9.188108444E-1,4.341634512E-1,-1.492296696E0,1.805453045E0
4.619415177E0,8.642854691E-1,3.648716211E-1,-1.404931545E0,1.689364768E0
4.624390437E0,7.951974869E-1,3.000587225E-1,-1.280024529E0,1.536501570E0
4.629365697E0,6.924905777E-1,2.299077511E-1,-1.170195103E0,1.379042187E0
4.634340958E0,5.993156433E-1,1.925894022E-1,-1.032286167E0,1.209084219E0
4.639316218E0,5.205059052E-1,1.497824192E-1,-8.901414871E-1,1.041975546E0
4.644291479E0,4.561443329E-1,1.205608845E-1,-7.340373993E-1,8.725901001E-1
4.649266739E0,3.871107101E-1,1.001527309E-1,-6.165437698E-1,7.348547418E-1
4.654242000E0,3.230094910E-1,8.382463455E-2,-5.088410378E-1,6.085071095E-1
4.659217260E0,2.542953491E-1,5.727887154E-2,-4.108557701E-1,4.865690676E-1
4.664192520E0,1.523075104E-1,6.207585335E-3,-3.081750870E-1,3.438138974E-1
4.669167781E0,4.097461700E-2,-2.620828152E-2,-2.056069374E-1,2.112818165E-1
4.674143041E0,-7.007503510E-2,-4.472076893E-2,-7.434701920E-2,1.115254992E-1
4.679118302E0,-1.617517471E-1,-3.482270241E-2,4.250049591E-2,1.708289801E-1
4.684093562E0,-2.579727173E-1,-6.332063675E-2,1.593842506E-1,3.097785746E-1
4.689068822E0,-3.492088318E-1,-8.216547966E-2,2.475838661E-1,4.358850135E-1
4.694044083E0,-3.924455643E-1,-1.102473736E-1,3.119473457E-1,5.133022022E-1
4.699019343E0,-4.499492645E-1,-1.473990679E-1,4.146575928E-1,6.293820343E-1
4.703994604E0,-4.642992020E-1,-1.791124344E-1,4.935598373E-1,7.008968013E-1
4.708969864E0,-4.498710632E-1,-2.148253918E-1,5.487685204E-1,7.414046206E-1
4.713945125E0,-4.162235260E-1,-2.162634134E-1,5.660452843E-1,7.351320639E-1
4.718920385E0,-3.634071350E-1,-2.264041901E-1,5.262899399E-1,6.784575918E-1
4.723895645E0,-3.154125214E-1,-2.499665022E-1,4.342737198E-1,5.920827430E-1
4.728870906E0,-2.436313629E-1,-2.870838642E-1,3.472452164E-1,5.122036962E-1
4.733846166E0,-1.911897659E-1,-2.899422646E-1,2.698760033E-1,4.398330371E-1
4.738821427E0,-1.724147797E-1,-2.923405170E-1,1.685910225E-1,3.789627515E-1
4.743796687E0,-1.489782333E-1,-2.752838135E-1,6.734371185E-2,3.201731836E-1
4.748771947E0,-1.352396011E-1,-2.725793123E-1,-3.395843506E-2,3.061738175E-1
4.753747208E0,-1.359758377E-1,-2.747837305E-1,-1.258025169E-1,3.313937239E-1
4.758722468E0,-1.606979370E-1,-2.726429701E-1,-2.082228661E-1,3.788334437E-1
4.763697729E0,-2.379646301E-1,-2.376018763E-1,-2.380337715E-1,4.119974432E-1
4.768672989E0,-3.102750778E-1,-1.841883659E-1,-2.487316132E-1,4.382503776E-1
4.773648250E0,-3.728408813E-1,-1.506953239E-1,-2.546672821E-1,4.759987689E-1
4.778623510E0,-3.921833038E-1,-1.514286995E-1,-2.462553978E-1,4.872167031E-1
4.783598770E0,-4.257345200E-1,-1.527720690E-1,-2.043356895E-1,4.963287827E-1
4.788574031E0,-4.591474533E-1,-1.451544762E-1,-1.528964043E-1,5.052360995E-1
4.793549291E0,-4.685535431E-1,-9.495961666E-2,-9.198331833E-2,4.868476994E-1
4.798524552E0,-4.922943115E-1,-7.392346859E-2,-3.125476837E-2,4.987937739E-1
4.803499864E0,-5.160579681E-1,-6.758153439E-2,4.356050491E-2,5.222840299E-1
4.808475177E0,-5.494155884E-1,-4.706573486E-2,1.229085922E-1,5.649594624E-1
4.813450489E0,-5.971336365E-1,-2.173352242E-2,2.116370201E-1,6.339015334E-1
4.818425802E0,-6.448059082E-1,2.276730537E-2,2.715516090E-1,7.000237752E-1
4.823401114E0,-6.637859344E-1,2.446579933E-2,3.122272491E-1,7.339592613E-1
4.828376427E0,-6.971721649E-1,2.165353298E-2,3.432121277E-1,7.773753711E-1
4.833351739E0,-7.354345322E-1,-4.793763161E-3,3.787693977E-1,8.272564221E-1
4.838327052E0,-7.738227844E-1,-2.627503872E-2,4.187898636E-1,8.802709976E-1
4.843302364E0,-8.075466156E-1,-4.770731926E-2,4.632449150E-1,9.322035057E-1
4.848277677E0,-8.795928955E-1,-6.929826736E-2,5.456585884E-1,1.037414674E0
4.853252989E0,-9.419832230E-1,-9.590983391E-2,6.709356308E-1,1.160467884E0
4.858228302E0,-9.897642136E-1,-1.230037212E-1,8.010230064E-1,1.279218891E0
4.863203614E0,-1.027517319E0,-1.506801844E-1,8.836784363E-1,1.363592291E0
4.868178927E0,-1.055175781E0,-1.598349810E-1,9.477901459E-1,1.427322427E0
4.873154239E0,-1.067989349E0,-1.695626974E-1,1.031622410E0,1.494522517E0
4.878129552E0,-1.099559784E0,-1.653560400E-1,1.082395554E0,1.551758510E0
4.883104864E0,-1.150007248E0,-1.614371538E-1,1.109493256E0,1.606098972E0
4.888080177E0,-1.238648415E0,-1.481082439E-1,1.098250389E0,1.662028840E0
4.893055489E0,-1.360767365E0,-1.156618595E-1,1.067683220E0,1.733497316E0
4.898030802E0,-1.482975483E0,-7.356870174E-2,1.060657978E0,1.824725728E0
4.903006114E0,-1.595762730E0,-5.034279823E-2,1.077097893E0,1.925910942E0
4.907981427E0,-1.699068546E0,-4.120957851E-2,1.102748871E0,2.025978091E0
4.912956739E0,-1.826291561E0,-2.703154087E-2,1.128196716E0,2.146834740E0
4.917932052E0,-1.929436207E0,1.713752747E-3,1.172821045E0,2.257927416E0
4.922907364E0,-1.998866081E0,2.118277550E-2,1.184200764E0,2.323412527E0
4.927882677E0,-2.048872948E0,7.417201996E-3,1.219927549E0,2.384566752E0
4.932857989E0,-2.079448700E0,-1.570391655E-2,1.256098032E0,2.429431163E0
4.937833302E0,-2.085897446E0,-3.858268261E-2,1.306954145E0,2.461825728E0
4.942808614E0,-2.082666397E0,-3.249394894E-2,1.415398359E0,2.518314455E0
4.947783927E0,-2.088936806E0,-2.613317966E-2,1.485654354E0,2.563495423E0
4.952759239E0,-2.095209122E0,-6.235802174E-2,1.522461891E0,2.590691027E0
4.957734552E0,-2.111131668E0,-1.077036858E-1,1.549608231E0,2.621023211E0
4.962709864E0,-2.127182007E0,-1.382855177E-1,1.543081284E0,2.631563418E0
4.967685177E0,-2.138789177E0,-1.778758764E-1,1.521718025E0,2.630909485E0
4.972660489E0,-2.155629158E0,-2.073725462E-1,1.475765228E0,2.620615090E0
4.977635802E0,-2.158805847E0,-2.315832376E-1,1.414378881E0,2.591243158E0
4.982611114E0,-2.196255684E0,-2.265982628E-1,1.351751089E0,2.588844686E0
4.987586427E0,-2.291914940E0,-2.308412790E-1,1.311627626E0,2.650760045E0
4.992561739E0,-2.378631592E0,-2.109086514E-1,1.275050402E0,2.707050837E0
4.997537052E0,-2.504038334E0,-1.622372866E-1,1.271020174E0,2.812831527E0
5.002512364E0,-2.639150143E0,-1.232143641E-1,1.261644602E0,2.927805041E0
5.007487677E0,-2.745484829E0,-9.389305115E-2,1.256862879E0,3.020961295E0
5.012462989E0,-2.784615993E0,-8.384156227E-2,1.242689848E0,3.050474340E0
5.017438302E0,-2.770903111E0,-9.775459766E-2,1.219290018E0,3.028882328E0
5.022413614E0,-2.718735218E0,-1.404864788E-1,1.210603476E0,2.979399002E0
5.027388927E0,-2.647387028E0,-1.929688454E-1,1.216404200E0,2.919851747E0
5.032364239E0,-2.585613728E0,-2.457442284E-1,1.265264750E0,2.889062730E0
5.037339552E0,-2.523839474E0,-2.654765844E-1,1.347518444E0,2.873334207E0
5.042314864E0,-2.495449543E0,-2.809691429E-1,1.453709602E0,2.901634658E0
5.047290177E0,-2.481153965E0,-2.875128984E-1,1.564878464E0,2.947479138E0
5.052265489E0,-2.456948757E0,-3.041698933E-1,1.685967684E0,2.995263519E0
5.057240802E0,-2.437110424E0,-3.308461905E-1,1.802800655E0,3.049435460E0
5.062216114E0,-2.450269222E0,-3.243814707E-1,1.910742760E0,3.124096748E0
5.067191427E0,-2.462883472E0,-3.084996939E-1,1.981230259E0,3.175884192E0
5.072166687E0,-2.494144917E0,-3.307858706E-1,2.019060135E0,3.225954430E0
5.077141947E0,-2.525019169E0,-3.669817448E-1,2.019363403E0,3.253955433E0
5.082117208E0,-2.550884724E0,-4.024730921E-1,1.996311665E0,3.264086047E0
5.087092468E0,-2.562353611E0,-4.228354692E-1,1.944858074E0,3.244521350E0
5.092067729E0,-2.573976994E0,-4.326965809E-1,1.898221493E0,3.227356307E0
5.097042989E0,-2.624166012E0,-4.128648043E-1,1.875262737E0,3.251663411E0
5.102018250E0,-2.669946194E0,-3.967090845E-1,1.827953339E0,3.259969967E0
5.106993510E0,-2.730429173E0,-3.602889776E-1,1.765944958E0,3.271637695E0
5.111968770E0,-2.781652927E0,-3.274254799E-1,1.665430307E0,3.258597637E0
5.116944031E0,-2.818838596E0,-2.789666653E-1,1.540827036E0,3.224565302E0
5.121919291E0,-2.827653408E0,-2.436788082E-1,1.392146111E0,3.161182366E0
5.126894552E0,-2.851171970E0,-2.215300798E-1,1.248118877E0,3.120265680E0
5.131869812E0,-2.851098537E0,-2.223423719E-1,1.113462687E0,3.068875715E0
5.136845072E0,-2.837007999E0,-2.174967527E-1,9.690346718E-1,3.005818927E0
5.141820333E0,-2.789694309E0,-2.072980404E-1,8.244910240E-1,2.916359420E0
5.146795593E0,-2.718686581E0,-2.015187740E-1,6.894769669E-1,2.811982402E0
5.151770854E0,-2.647877216E0,-2.196019888E-1,5.639748573E-1,2.716163917E0
5.156746114E0,-2.567685604E0,-2.235287428E-1,4.622678757E-1,2.618523639E0
5.161721375E0,-2.502028942E0,-2.327368259E-1,3.794670105E-1,2.541320615E0
5.166696635E0,-2.427016735E0,-2.475825548E-1,3.297176361E-1,2.461792248E0
5.171671895E0,-2.385627747E0,-2.586855888E-1,3.130612373E-1,2.419947379E0
5.176647156E0,-2.320343971E0,-2.949390411E-1,3.247909546E-1,2.361455980E0
5.181622416E0,-2.264550209E0,-3.325903416E-1,3.602676392E-1,2.317023253E0
5.186597677E0,-2.208476067E0,-3.431096077E-1,4.437031746E-1,2.278587994E0
5.191572937E0,-2.180655479E0,-3.648833036E-1,5.609803200E-1,2.281029825E0
5.196548197E0,-2.171318054E0,-3.691514730E-1,6.789288521E-1,2.304742781E0
5.201523458E0,-2.118146896E0,-3.989267349E-1,7.547607422E-1,2.283714648E0
5.206498718E0,-2.078474998E0,-4.398262501E-1,7.983131409E-1,2.269539451E0
5.211473979E0,-2.052263260E0,-4.774386883E-1,8.431634903E-1,2.269505863E0
5.216449239E0,-2.077786446E0,-4.783133268E-1,8.557567596E-1,2.297455067E0
5.221424500E0,-2.112092018E0,-4.614098072E-1,8.358974457E-1,2.317877530E0
5.226399760E0,-2.121885300E0,-4.838724136E-1,7.976713181E-1,2.317932111E0
5.231375102E0,-2.097988129E0,-5.021491051E-1,7.692399025E-1,2.290292108E0
5.236350363E0,-2.064689636E0,-5.159765482E-1,7.500205040E-1,2.256480855E0
5.241325623E0,-2.036636353E0,-4.869008064E-1,7.299413681E-1,2.217605562E0
5.246300884E0,-1.975774765E0,-4.386676550E-1,6.895318031E-1,2.138122855E0
5.251276144E0,-1.872642994E0,-4.094889164E-1,6.287174225E-1,2.017364259E0
5.256251404E0,-1.741492748E0,-4.137611389E-1,5.573530197E-1,1.874736691E0
5.261226717E0,-1.543893337E0,-4.325574636E-1,4.996838570E-1,1.679403630E0
5.266202029E0,-1.327431679E0,-4.327709675E-1,3.940162659E-1,1.450728917E0
5.271177342E0,-1.072633743E0,-4.437737465E-1,2.552566528E-1,1.188542908E0
5.276152654E0,-8.268804550E-1,-4.758434296E-1,6.024456024E-2,9.559224149E-1
5.281127967E0,-5.562057495E-1,-5.154544115E-1,-1.424946785E-1,7.715975762E-1
5.286103279E0,-2.122077942E-1,-5.683739185E-1,-3.616876602E-1,7.063278437E-1
5.291078592E0,1.340312958E-1,-7.124607563E-1,-6.776876450E-1,9.923836262E-1
5.296053904E0,4.832038879E-1,-9.299063683E-1,-1.003540993E0,1.450967393E0
5.301029217E0,7.832565308E-1,-1.140736103E0,-1.243184566E0,1.860182119E0
5.306004529E0,1.063284874E0,-1.298316121E0,-1.339390278E0,2.147129663E0
5.310979842E0,1.347436905E0,-1.379503012E0,-1.287789822E0,2.318839666E0
5.315955154E0,1.583359718E0,-1.480615973E0,-1.160519123E0,2.458872972E0
5.320930467E0,1.780991554E0,-1.592229605E0,-9.147009850E-1,2.558085988E0
5.325905779E0,1.821169853E0,-1.685742140E0,-6.940417290E-1,2.576835291E0
5.330881092E0,1.694618225E0,-1.679705381E0,-5.325441360E-1,2.444738095E0
5.335856404E0,1.439428329E0,-1.559161186E0,-4.122157097E-1,2.161679743E0
5.340831717E0,1.136342049E0,-1.442544937E0,-2.962903976E-1,1.860106757E0
5.345807029E0,8.563718796E-1,-1.342859864E0,-1.049413681E-1,1.596138497E0
5.350782342E0,5.175466537E-1,-1.230023026E0,1.654667854E-1,1.344689719E0
5.355757654E0,1.674079895E-1,-1.112305999E0,4.187574387E-1,1.200253249E0
5.360732967E0,-1.414070129E-1,-9.790842533E-1,6.742858887E-1,1.197189784E0
5.365708279E0,-3.701868057E-1,-9.252634048E-1,8.947143555E-1,1.339277573E0
5.370683592E0,-4.657497406E-1,-9.360272884E-1,1.071517944E0,1.497070677E0
5.375658904E0,-4.896097183E-1,-9.872286320E-1,1.224948406E0,1.647676135E0
5.380634217E0,-4.602108002E-1,-1.011896372E0,1.394095182E0,1.783039435E0
5.385609529E0,-3.723526001E-1,-9.861614704E-1,1.531387568E0,1.859115055E0
5.390584842E0,-2.405595779E-1,-9.145328999E-1,1.593379736E0,1.852862196E0
5.395560154E0,-1.947417259E-1,-8.155210018E-1,1.646026373E0,1.847268704E0
5.400535467E0,-2.600893974E-1,-7.070608139E-1,1.640019178E0,1.804783753E0
5.405510779E0,-3.952174187E-1,-5.829746723E-1,1.612015009E0,1.759161353E0
5.410486092E0,-5.974946022E-1,-4.223506451E-1,1.632125616E0,1.788634645E0
5.415461404E0,-8.258795738E-1,-2.138504982E-1,1.699256182E0,1.901389144E0
5.420436717E0,-1.086866379E0,-3.731060028E-2,1.745915651E0,2.056913238E0
5.425412029E0,-1.381579399E0,1.181917191E-1,1.825098276E0,2.292098304E0
5.430387342E0,-1.691708565E0,2.728037834E-1,1.899120808E0,2.557920955E0
5.435362654E0,-2.032210827E0,4.608898163E-1,1.949754238E0,2.853741729E0
5.440337967E0,-2.322346687E0,6.448421478E-1,1.910854816E0,3.075789600E0
5.445313279E0,-2.452639103E0,7.486224174E-1,1.826330900E0,3.148231035E0
5.450288592E0,-2.490458012E0,7.915978432E-1,1.692147493E0,3.113257360E0
5.455263904E0,-2.454966068E0,7.735185623E-1,1.571069241E0,3.015534434E0
5.460239217E0,-2.369750023E0,7.368316650E-1,1.444445133E0,2.871420871E0
5.465214529E0,-2.167077541E0,6.805558205E-1,1.293707848E0,2.614012488E0
5.470189842E0,-1.874612808E0,5.889873505E-1,1.119348049E0,2.261419761E0
5.475165207E0,-1.529360294E0,4.080204964E-1,9.170217514E-1,1.829303837E0
5.480140571E0,-1.206375599E0,2.411632538E-1,6.965503693E-1,1.413748286E0
5.485115936E0,-9.043135643E-1,1.107220650E-1,4.915385246E-1,1.035206511E0
5.490091300E0,-6.365652084E-1,4.882574081E-2,3.305163383E-1,7.189160365E-1
5.495066665E0,-3.595309258E-1,6.627559662E-3,2.178883553E-1,4.204542145E-1
5.500042029E0,-1.159701347E-1,-3.570556641E-2,1.723766327E-1,2.108024267E-1
5.505017394E0,1.182856560E-1,-9.775686264E-2,1.362743378E-1,2.052281553E-1
5.509992759E0,2.859873772E-1,-1.416020393E-1,1.332387924E-1,3.458214760E-1
5.514968123E0,4.065675735E-1,-1.483793259E-1,1.392936707E-1,4.546606898E-1
5.519943488E0,4.801878929E-1,-1.469373703E-1,1.352725029E-1,5.200669700E-1
5.524918800E0,5.021381378E-1,-1.229157448E-1,1.690163612E-1,5.438910922E-1
5.529894113E0,4.725508690E-1,-8.587503433E-2,1.975159645E-1,5.193182084E-1
5.534869998E0,3.772063255E-1,-3.573465347E-2,2.065768242E-1,4.315501845E-1
5.539844738E0,2.258000374E-1,3.236436844E-2,2.154746056E-1,3.137872127E-1
5.544819529E0,5.178213120E-2,1.330156326E-1,2.100090981E-1,2.539259122E-1
5.549794269E0,-1.546602249E-1,2.234730721E-1,1.949901581E-1,3.344864136E-1
5.554769061E0,-3.747892380E-1,2.946429253E-1,2.325797081E-1,5.304476854E-1
5.559743904E0,-5.850830078E-1,3.470506668E-1,2.797508240E-1,7.355452501E-1
5.564718800E0,-7.334504128E-1,3.956503868E-1,3.365797997E-1,8.987628709E-1
5.569693800E0,-8.347249031E-1,4.217910767E-1,3.840222359E-1,1.011012588E0
5.574668904E0,-8.798637390E-1,3.781661987E-1,4.508600235E-1,1.058510573E0
5.579644113E0,-8.836989403E-1,2.986931801E-1,5.418386459E-1,1.078763436E0
5.584619425E0,-8.513517380E-1,2.411112785E-1,6.378946304E-1,1.090799702E0
5.589594842E0,-8.117856979E-1,1.674599648E-1,7.248802185E-1,1.101131323E0
5.594570363E0,-7.842726707E-1,9.229135513E-2,8.077344894E-1,1.129617777E0
5.599545936E0,-7.352747917E-1,-3.456115723E-3,8.723235130E-1,1.140872156E0
5.604521561E0,-6.933641434E-1,-1.006598473E-1,8.758316040E-1,1.121591387E0
5.609497238E0,-6.390285492E-1,-1.852993965E-1,7.945165634E-1,1.036315552E0
5.614472967E0,-6.294779778E-1,-2.576422691E-1,7.001743317E-1,9.761486352E-1
5.619448696E0,-6.502270699E-1,-2.892541885E-1,6.308994293E-1,9.510506390E-1
5.624424425E0,-6.916255951E-1,-3.185739517E-1,5.530982018E-1,9.411444880E-1
5.629400154E0,-7.393059731E-1,-3.554034233E-1,4.951877594E-1,9.581731744E-1
5.634375519E0,-7.357430458E-1,-3.952097893E-1,4.426321983E-1,9.452152506E-1
5.639350831E0,-7.383017540E-1,-4.142980576E-1,3.952560425E-1,9.343231237E-1
5.644326144E0,-7.371816635E-1,-4.321022034E-1,3.721075058E-1,9.319941604E-1
5.649301456E0,-6.986551285E-1,-4.393916130E-1,3.539142609E-1,8.980196446E-1
5.654276717E0,-6.368155479E-1,-4.412350655E-1,2.928633690E-1,8.282459647E-1
5.659251977E0,-5.800428391E-1,-4.524044991E-1,1.745462418E-1,7.560330128E-1
5.664227238E0,-5.232667923E-1,-4.684920311E-1,3.714609146E-2,7.033297600E-1
5.669202498E0,-4.328007698E-1,-4.802923203E-1,-8.126354218E-2,6.516141362E-1
5.674177759E0,-3.708405495E-1,-4.593520164E-1,-2.192358971E-1,6.297550053E-1
5.679153019E0,-3.087086678E-1,-4.393243790E-1,-3.100256920E-1,6.200184523E-1
5.684128279E0,-2.559628487E-1,-4.251294136E-1,-3.251652718E-1,5.932827759E-1
5.689103540E0,-1.744055748E-1,-4.120373726E-1,-3.031706810E-1,5.404669858E-1
5.694078800E0,-1.118702888E-1,-4.239029884E-1,-2.344250679E-1,4.971557277E-1
5.699054061E0,-4.438591003E-2,-4.223599434E-1,-1.427640915E-1,4.480397489E-1
5.704029321E0,1.851034164E-2,-3.738455772E-1,-6.152629852E-2,3.793265530E-1
5.709004581E0,4.338216782E-2,-3.356504440E-1,2.388381958E-2,3.392840549E-1
5.713979842E0,6.850337982E-2,-2.836031914E-1,9.460115433E-2,3.067129955E-1
5.718955102E0,8.416891098E-2,-2.366294861E-1,1.507511139E-1,2.929228868E-1
5.723930363E0,7.592296600E-2,-1.849079132E-1,2.116551399E-1,2.911239107E-1
5.728905623E0,7.717847824E-2,-1.377849579E-1,2.583489418E-1,3.027959509E-1
5.733880884E0,7.822418213E-2,-1.142306328E-1,2.861032486E-1,3.178407290E-1
5.738856144E0,5.992364883E-2,-8.070707321E-2,3.141045570E-1,3.297971317E-1
5.743831404E0,5.102443695E-2,-5.628681183E-2,3.185687065E-1,3.275022429E-1
5.748806665E0,6.106615067E-2,-3.140974045E-2,3.186178207E-1,3.259339845E-1
5.753781925E0,9.965276718E-2,-4.437828064E-2,3.190655708E-1,3.371986718E-1
5.758757186E0,9.985446930E-2,-5.218887329E-2,3.246583939E-1,3.436534100E-1
5.763732446E0,1.191868782E-1,-4.058027267E-2,3.401665688E-1,3.627196782E-1
5.768707706E0,1.193933487E-1,-5.267190933E-2,3.703246117E-1,3.926441388E-1
5.773682967E0,1.292247772E-1,-5.974531174E-2,4.151477814E-1,4.388806509E-1
5.778658227E0,1.343550682E-1,-7.137775421E-2,4.650874138E-1,4.893387075E-1
5.783633488E0,1.252331734E-1,-7.797765732E-2,4.866971970E-1,5.085646707E-1
5.788608748E0,1.258492470E-1,-9.863519669E-2,5.279703140E-1,5.516516904E-1
5.793584009E0,1.171369553E-1,-9.992647171E-2,5.362782478E-1,5.579432992E-1
5.798559321E0,7.525634766E-2,-1.009840965E-1,5.021977425E-1,5.177488562E-1
5.803534634E0,3.373289108E-2,-8.752059937E-2,4.687571526E-1,4.780491934E-1
5.808509946E0,6.888866425E-3,-7.868337631E-2,4.263586998E-1,4.336130430E-1
5.813485259E0,-1.975536346E-2,-8.402538300E-2,3.940119743E-1,4.033558916E-1
5.818460571E0,-6.534814835E-2,-8.443164825E-2,3.620753288E-1,3.774885793E-1
5.823435884E0,-9.167766571E-2,-5.602788925E-2,3.447656631E-1,3.611194833E-1
5.828411196E0,-1.131763458E-1,-5.620622635E-2,3.085570335E-1,3.334298548E-1
5.833386509E0,-1.824903488E-1,-6.579589844E-2,2.534384727E-1,3.191596577E-1
5.838361821E0,-2.566576004E-1,-5.130195618E-2,2.318773270E-1,3.496742903E-1
5.843337134E0,-3.022570610E-1,-2.706956863E-2,2.103228569E-1,3.692259425E-1
5.848312446E0,-3.242087364E-1,-2.632617950E-3,1.934890747E-1,3.775662293E-1
5.853287759E0,-3.369240761E-1,2.679729462E-2,2.100310326E-1,3.979308516E-1
5.858263071E0,-3.595514297E-1,2.776861191E-2,2.168970108E-1,4.208237633E-1
5.863238384E0,-3.633928299E-1,1.947879791E-2,2.332606316E-1,4.322548954E-1
5.868213696E0,-3.532009125E-1,1.939296722E-3,2.352623940E-1,4.243854845E-1
5.873189009E0,-3.385047913E-1,3.829956055E-3,2.516441345E-1,4.218114895E-1
5.878164321E0,-3.383526802E-1,1.077365875E-2,2.633566856E-1,4.289001653E-1
5.883139634E0,-3.240051270E-1,1.798152924E-2,2.369604111E-1,4.018120134E-1
5.888114946E0,-2.954716682E-1,1.509189606E-3,2.059478760E-1,3.601670612E-1
5.893090259E0,-2.623691559E-1,-5.077362061E-3,1.799244881E-1,3.181763269E-1
5.898065571E0,-2.342000008E-1,-1.147317886E-2,1.683793068E-1,2.886743237E-1
5.903040884E0,-2.157745361E-1,-3.298759460E-3,1.521649361E-1,2.640524570E-1
5.908016196E0,-1.878290176E-1,-4.628181458E-3,6.907796860E-2,2.001822312E-1
5.912991509E0,-1.729044914E-1,-2.505874634E-2,5.140304565E-3,1.747865174E-1
5.917966821E0,-1.627345085E-1,-6.456565857E-2,-5.369949341E-2,1.831253126E-1
5.922942134E0,-1.430001259E-1,-7.566881180E-2,-1.029043198E-1,1.917396780E-1
5.927917446E0,-9.953546524E-2,-8.714866638E-2,-9.513521194E-2,1.629506289E-1
5.932892759E0,-5.153179169E-2,-1.228256226E-1,-9.269809723E-2,1.622793774E-1
5.937868071E0,-2.278852463E-2,-1.587619781E-1,-7.658386230E-2,1.777351134E-1
5.942843384E0,2.487611771E-2,-1.759128571E-1,-1.831531525E-2,1.786046060E-1
5.947818696E0,4.384040833E-2,-1.981949806E-1,6.751775742E-2,2.139202639E-1
5.952794009E0,7.236528397E-2,-1.922230721E-1,1.428656578E-1,2.501940046E-1
5.957769321E0,8.652257919E-2,-1.865935326E-1,2.173542976E-1,2.992427005E-1
5.962744634E0,6.268787384E-2,-2.000570297E-1,2.912931442E-1,3.588931325E-1
5.967719946E0,2.483510971E-2,-1.895542145E-1,3.268036842E-1,3.786135641E-1
5.972695259E0,-2.222394943E-2,-2.026124001E-1,3.480863571E-1,4.033730291E-1
5.977670571E0,-8.334112167E-2,-1.771287918E-1,3.647623062E-1,4.139708824E-1
5.982645884E0,-1.348094940E-1,-1.512131691E-1,3.769397736E-1,4.279282826E-1
5.987621196E0,-1.577835083E-1,-1.532964706E-1,3.846564293E-1,4.431207646E-1
5.992596509E0,-1.620039940E-1,-1.546225548E-1,4.069752693E-1,4.645237328E-1
5.997571821E0,-1.476335526E-1,-1.599149704E-1,4.105648994E-1,4.646848397E-1
6.002547134E0,-1.431980133E-1,-1.644558907E-1,3.861465454E-1,4.434642776E-1
6.007522446E0,-1.487264633E-1,-1.682462692E-1,3.765602112E-1,4.384335305E-1
6.012497759E0,-1.451354027E-1,-1.807937622E-1,3.531908989E-1,4.224860715E-1
6.017473071E0,-1.325001717E-1,-1.688113213E-1,3.256144524E-1,3.899722160E-1
6.022448384E0,-1.155176163E-1,-1.659440994E-1,2.795162201E-1,3.449798271E-1
6.027423696E0,-1.226291656E-1,-1.675038338E-1,2.054820061E-1,2.920929671E-1
6.032399009E0,-1.440315247E-1,-1.783852577E-1,1.226310730E-1,2.600091543E-1
6.037374321E0,-1.652808189E-1,-1.749267578E-1,6.417131424E-2,2.490684189E-1
6.042349634E0,-1.720147133E-1,-1.764903069E-1,3.447961807E-2,2.488508269E-1
6.047324946E0,-1.452803612E-1,-1.499271393E-1,1.900148392E-2,2.096320272E-1
6.052300259E0,-1.326365471E-1,-1.336879730E-1,-1.090908051E-2,1.886370478E-1
6.057275571E0,-1.337733269E-1,-1.183300018E-1,-8.356142044E-2,1.971796219E-1
6.062250884E0,-1.341848373E-1,-1.136193275E-1,-1.370353699E-1,2.229206468E-1
6.067226196E0,-1.242671013E-1,-9.114122391E-2,-1.763072014E-1,2.341650367E-1
6.072201509E0,-1.325969696E-1,-7.961654663E-2,-1.968436241E-1,2.503361005E-1
6.077176821E0,-1.543598175E-1,-5.518150330E-2,-1.941156387E-1,2.540724951E-1
6.082152134E0,-1.990528107E-1,-4.157400131E-2,-1.968050003E-1,2.829887404E-1
6.087127446E0,-2.335104942E-1,-3.849792480E-2,-1.669392586E-1,2.896169145E-1
6.092102759E0,-2.674551010E-1,-3.148078918E-2,-1.142840385E-1,2.925476245E-1
6.097078071E0,-3.057851791E-1,-2.982950211E-2,-7.216691971E-2,3.155985413E-1
6.102053384E0,-3.297290802E-1,-3.324270248E-2,-3.099584579E-2,3.328469409E-1
6.107028696E0,-3.395538330E-1,-3.673315048E-2,4.729366302E-2,3.447938811E-1
6.112004009E0,-3.402457237E-1,-5.429458618E-2,1.293220520E-1,3.680207164E-1
6.116979321E0,-3.081912994E-1,-8.562326431E-2,2.104787827E-1,3.829027793E-1
6.121954634E0,-2.769618034E-1,-1.066713333E-1,2.766938210E-1,4.057660465E-1
6.126929946E0,-2.275757790E-1,-1.269207001E-1,3.329439163E-1,4.227898422E-1
6.131905259E0,-1.792049408E-1,-1.652402878E-1,3.841962814E-1,4.550006002E-1
6.136880571E0,-1.318325996E-1,-1.881680489E-1,4.400911331E-1,4.964546851E-1
6.141855884E0,-9.007215500E-2,-2.005972862E-1,4.912233353E-1,5.381938586E-1
6.146831196E0,-5.378913879E-2,-2.311406136E-1,4.949598312E-1,5.489120961E-1
6.151806509E0,-2.288532257E-2,-2.511572838E-1,4.944934845E-1,5.550923575E-1
6.156781821E0,7.546424866E-3,-2.608199120E-1,5.088815689E-1,5.718779819E-1
6.161757134E0,2.809858322E-2,-2.508039474E-1,5.237503052E-1,5.813832923E-1
6.166732446E0,2.472019196E-2,-2.545452118E-1,5.106983185E-1,5.711542044E-1
6.171707759E0,1.665639877E-2,-2.625374794E-1,5.126242638E-1,5.761831302E-1
6.176683071E0,3.246450424E-2,-2.747721672E-1,5.009093285E-1,5.722445659E-1
6.181658384E0,6.241416931E-2,-2.722396851E-1,4.993429184E-1,5.721479920E-1
6.186633696E0,9.698390961E-2,-2.741737366E-1,4.745655060E-1,5.565874020E-1
6.191609009E0,1.220388412E-1,-2.664394379E-1,4.267663956E-1,5.176997288E-1
6.196584321E0,1.377639771E-1,-2.777390480E-1,3.323578835E-1,4.545103463E-1
6.201559634E0,1.301274300E-1,-2.558946609E-1,2.343630791E-1,3.705958423E-1
6.206534946E0,1.325893402E-1,-2.108097076E-1,1.374287605E-1,2.844421386E-1
6.211510259E0,1.260652542E-1,-1.665453911E-1,7.937145233E-2,2.234494195E-1
6.216485571E0,1.343727112E-1,-1.707377434E-1,2.690792084E-3,2.172893069E-1
6.221460884E0,1.669707298E-1,-1.756100655E-1,-6.400012970E-2,2.506274851E-1
6.226436196E0,1.618738174E-1,-1.575198174E-1,-1.019835472E-1,2.478230609E-1
6.231411509E0,1.572532654E-1,-1.356277466E-1,-9.737873077E-2,2.293601803E-1
6.236386821E0,1.340265274E-1,-9.088754654E-2,-6.478357315E-2,1.744149292E-1
6.241362134E0,1.159844398E-1,-7.561874390E-2,-5.191326141E-2,1.478701167E-1
6.246337446E0,9.341049194E-2,-8.932209015E-2,-6.269931793E-3,1.293957798E-1
6.251312759E0,9.475374222E-2,-8.886146545E-2,1.499080658E-2,1.307645058E-1
6.256288071E0,1.007413864E-1,-6.467294693E-2,5.019283295E-2,1.298103905E-1
6.261263384E0,9.697055817E-2,-3.100347519E-2,8.032560349E-2,1.296792474E-1
6.266238696E0,6.920289993E-2,-2.099084854E-2,7.232475281E-2,1.022767175E-1
6.271214009E0,1.749563217E-2,3.223657608E-2,1.025519371E-1,1.089136988E-1
6.276189321E0,-4.385232925E-2,5.253887177E-2,9.952783585E-2,1.207855535E-1
6.281164634E0,-7.209587097E-2,9.257364273E-2,7.787179947E-2,1.408251082E-1
6.286139946E0,-1.055903435E-1,1.190547943E-1,1.877689362E-2,1.602371256E-1
6.291115259E0,-1.206154823E-1,1.368293762E-1,-1.581335068E-2,1.830858674E-1
6.296090571E0,-1.221132278E-1,1.554794312E-1,-4.038381577E-2,2.017829193E-1
6.301065884E0,-8.643388748E-2,1.512360573E-1,-5.502176285E-2,1.826760967E-1
6.306041196E0,-6.608724594E-2,1.384253502E-1,-5.991172791E-2,1.646770075E-1
6.311016509E0,-4.665279388E-2,1.407613754E-1,-5.520343781E-2,1.582329534E-1
6.315991821E0,-4.697179794E-2,1.342329979E-1,-3.148412704E-2,1.456574673E-1
6.320967134E0,-2.883768082E-2,1.188626289E-1,1.585960388E-3,1.223211006E-1
6.325942446E0,7.736206055E-3,8.989048004E-2,2.499628067E-2,9.362137221E-2
6.330917759E0,8.649063110E-2,6.152725220E-2,1.983118057E-2,1.079792006E-1
6.335893071E0,1.646313667E-1,2.083778381E-4,-2.795124054E-2,1.669874312E-1
6.340868384E0,2.281498909E-1,-5.605936050E-2,-8.479022980E-2,2.497687084E-1
6.345843696E0,2.821574211E-1,-1.076927185E-1,-1.270251274E-1,3.276368644E-1
6.350819009E0,3.126640320E-1,-1.264719963E-1,-1.405935287E-1,3.654045745E-1
6.355794321E0,2.725086212E-1,-1.081347466E-1,-1.400713921E-1,3.249216320E-1
6.360769634E0,2.097101212E-1,-1.099743843E-1,-1.161379814E-1,2.637436840E-1
6.365744946E0,1.196541786E-1,-8.903598785E-2,-8.797979355E-2,1.731616980E-1
6.370720259E0,2.418994904E-3,-6.907558441E-2,-5.559730530E-2,8.870371049E-2
6.375695571E0,-9.451484680E-2,-5.937910080E-2,-1.905775070E-2,1.132348521E-1
6.380670884E0,-1.715836525E-1,-6.434106827E-2,2.635240555E-2,1.851355507E-1
6.385646196E0,-2.528934479E-1,-4.559803009E-2,8.536863327E-2,2.707805013E-1
6.390621509E0,-3.481364250E-1,-2.680587769E-2,1.531896591E-1,3.812933217E-1
6.395596821E0,-4.242725372E-1,-1.714324951E-2,2.107443810E-1,4.740403685E-1
6.400572134E0,-4.912676811E-1,-3.521537781E-2,2.343692780E-1,5.454475372E-1
6.405547446E0,-5.495357513E-1,-5.679035187E-2,2.479858398E-1,6.055672240E-1
6.410522759E0,-6.183924675E-1,-7.203483582E-2,3.087124825E-1,6.949112593E-1
6.415498071E0,-6.933627129E-1,-8.068895340E-2,4.160785675E-1,8.126401006E-1
6.420473384E0,-7.223811150E-1,-7.772684097E-2,5.318179131E-1,9.003922644E-1
6.425448696E0,-7.486720085E-1,-1.010675430E-1,6.226634979E-1,9.789965558E-1
6.430424009E0,-7.912964821E-1,-1.361136436E-1,7.268810272E-1,1.083066514E0
6.435399321E0,-8.453402519E-1,-1.493577957E-1,8.398056030E-1,1.200908549E0
6.440374634E0,-8.535742760E-1,-1.505131721E-1,9.994516373E-1,1.322931153E0
6.445349946E0,-8.398408890E-1,-1.776180267E-1,1.110811234E0,1.403845604E0
6.450325259E0,-7.992234230E-1,-2.163434029E-1,1.203001499E0,1.460402395E0
6.455300571E0,-7.411074638E-1,-2.667050362E-1,1.228924751E0,1.459667049E0
6.460275884E0,-6.652946472E-1,-3.193712234E-1,1.217693329E0,1.423865158E0
6.465251196E0,-5.811386108E-1,-3.224897385E-1,1.197960854E0,1.369975154E0
6.470226509E0,-4.787096977E-1,-3.529620171E-1,1.146059513E0,1.291200049E0
6.475201821E0,-4.240360260E-1,-4.207558632E-1,1.009964466E0,1.173401155E0
6.480177134E0,-4.351172447E-1,-4.788546562E-1,8.424835205E-1,1.062265165E0
6.485152446E0,-4.539403915E-1,-5.186138153E-1,6.768856049E-1,9.660208541E-1
6.490127759E0,-4.896283150E-1,-5.597705841E-1,5.366783142E-1,9.171164629E-1
6.495103071E0,-5.418872833E-1,-5.600638390E-1,4.451041222E-1,8.974580832E-1
6.500078384E0,-5.726556778E-1,-5.675563812E-1,3.634910583E-1,8.844097018E-1
6.505053696E0,-5.774488449E-1,-5.680823326E-1,3.010535240E-1,8.641747100E-1
6.510029009E0,-5.804996490E-1,-6.043024063E-1,2.764768600E-1,8.823835305E-1
6.515004321E0,-6.200819016E-1,-6.520171165E-1,3.225555420E-1,9.558608490E-1
6.519979634E0,-6.676721573E-1,-6.538553238E-1,3.959712982E-1,1.014941458E0
6.524954946E0,-6.998429298E-1,-6.429886818E-1,5.107650757E-1,1.078932590E0
6.529930259E0,-7.692027092E-1,-6.190242767E-1,6.525816917E-1,1.183523015E0
6.534905571E0,-8.375926018E-1,-5.910959244E-1,7.503066063E-1,1.270399843E0
6.539880884E0,-8.957982063E-1,-5.919079781E-1,8.093137741E-1,1.344543888E0
6.544856248E0,-9.061326981E-1,-5.827846527E-1,8.396182060E-1,1.365896464E0
6.549831613E0,-9.261655807E-1,-5.967140198E-1,8.463134766E-1,1.389279239E0
6.554806977E0,-9.418358803E-1,-6.236524582E-1,8.201212883E-1,1.395921252E0
6.559782342E0,-9.677715302E-1,-6.394672394E-1,7.753968239E-1,1.395256363E0
6.564757706E0,-1.008952618E0,-6.155042648E-1,7.453727722E-1,1.397287177E0
6.569733071E0,-1.051431179E0,-5.897932053E-1,7.439022064E-1,1.416599464E0
6.574708436E0,-1.133471966E0,-5.526766777E-1,7.800230980E-1,1.482783275E0
6.579683800E0,-1.231180191E0,-5.040698051E-1,8.058519363E-1,1.555406177E0
6.584659165E0,-1.278122425E0,-4.438786507E-1,8.308901787E-1,1.587766884E0
6.589634529E0,-1.284311295E0,-3.863368034E-1,9.263057709E-1,1.629955217E0
6.594609894E0,-1.354347706E0,-4.644427299E-1,9.491901398E-1,1.717826149E0
6.599585259E0,-1.430537701E0,-5.489134789E-1,9.144945145E-1,1.784389066E0
6.604560623E0,-1.379611969E0,-5.686440468E-1,8.892617226E-1,1.737087116E0
6.609535988E0,-1.344776154E0,-5.340223312E-1,8.923873901E-1,1.699987649E0
6.614511352E0,-1.325598240E0,-4.871420860E-1,9.063239098E-1,1.678076618E0
6.619486717E0,-1.350648403E0,-4.434151649E-1,9.245967865E-1,1.695802859E0
6.624462081E0,-1.381568909E0,-4.172224998E-1,8.945522308E-1,1.697949044E0
6.629437446E0,-1.394369125E0,-4.278240204E-1,8.113522530E-1,1.669009026E0
6.634412811E0,-1.408161640E0,-4.562768936E-1,7.274441719E-1,1.649327994E0
6.639388175E0,-1.437300682E0,-4.691567421E-1,6.713843346E-1,1.654296897E0
6.644363540E0,-1.457890511E0,-4.474115372E-1,6.238484383E-1,1.647667654E0
6.649338904E0,-1.446271420E0,-4.197669029E-1,5.557532310E-1,1.605231113E0
6.654314269E0,-1.450392246E0,-4.005856514E-1,4.860625267E-1,1.581253715E0
6.659289634E0,-1.470291138E0,-3.852000237E-1,3.953819275E-1,1.570497360E0
6.664264998E0,-1.501263142E0,-3.400301933E-1,3.457822800E-1,1.577649181E0
6.669240363E0,-1.538630962E0,-2.697691917E-1,3.083734512E-1,1.592248360E0
6.674215727E0,-1.577591896E0,-1.935281754E-1,2.783164978E-1,1.613601381E0
6.679191092E0,-1.603798389E0,-1.446275711E-1,2.986731529E-1,1.637770454E0
6.684166404E0,-1.578750134E0,-1.278319359E-1,3.409261703E-1,1.620192471E0
6.689141717E0,-1.549933910E0,-1.384580135E-1,3.767075539E-1,1.601054131E0
6.694117029E0,-1.497657299E0,-1.815972328E-1,3.921346664E-1,1.558757369E0
6.699092342E0,-1.445181370E0,-2.050204277E-1,4.643650055E-1,1.531736735E0
6.704067654E0,-1.391791344E0,-2.475035191E-1,5.270385742E-1,1.508678493E0
6.709042967E0,-1.279353142E0,-2.903037071E-1,6.288371086E-1,1.454804734E0
6.714018279E0,-1.126422405E0,-3.386478424E-1,6.891374588E-1,1.363238876E0
6.718993592E0,-9.803862572E-1,-4.073381424E-1,6.367754936E-1,1.237967934E0
6.723968904E0,-8.172173500E-1,-4.488987923E-1,5.532164574E-1,1.084159938E0
6.728944217E0,-6.561279297E-1,-5.402650833E-1,4.287023544E-1,9.519327335E-1
6.733919529E0,-5.451879501E-1,-6.290776730E-1,3.345408440E-1,8.971544994E-1
6.738894842E0,-4.464545250E-1,-7.153854370E-1,2.701969147E-1,8.854966624E-1
6.743870154E0,-3.937463760E-1,-7.323515415E-1,2.972726822E-1,8.830322965E-1
6.748845467E0,-3.538851738E-1,-7.086548805E-1,3.674378395E-1,8.731763979E-1
6.753820779E0,-3.366932869E-1,-6.728489399E-1,4.134750366E-1,8.585159703E-1
6.758796092E0,-3.663582802E-1,-6.485643387E-1,4.543375969E-1,8.725117437E-1
6.763771404E0,-4.143943787E-1,-6.068036556E-1,5.281195641E-1,9.048998019E-1
6.768746717E0,-4.379267693E-1,-5.662820339E-1,6.300339699E-1,9.536236157E-1
6.773722029E0,-4.848775864E-1,-5.315067768E-1,6.884222031E-1,9.957564246E-1
6.778697342E0,-4.930963516E-1,-5.165352821E-1,7.369523048E-1,1.026182932E0
6.783672654E0,-4.579215050E-1,-4.875566959E-1,7.661790848E-1,1.017071299E0
6.788647967E0,-4.080715179E-1,-4.683396816E-1,7.906446457E-1,1.005476691E0
6.793623279E0,-3.339638710E-1,-4.778959751E-1,7.722387314E-1,9.676099878E-1
6.798598592E0,-2.499151230E-1,-4.970302582E-1,7.589731216E-1,9.410296731E-1
6.803573904E0,-1.272158623E-1,-5.210328102E-1,7.508440018E-1,9.227273595E-1
6.808549217E0,1.502323151E-2,-5.595655441E-1,7.000808716E-1,8.963551319E-1
6.813524529E0,1.146831512E-1,-5.745685101E-1,6.163158417E-1,8.503683994E-1
6.818499842E0,1.861691475E-1,-6.189198494E-1,5.425076485E-1,8.438218296E-1
6.823475154E0,2.438831329E-1,-6.354010105E-1,4.546627998E-1,8.184935481E-1
6.828450467E0,2.639002800E-1,-6.194479465E-1,3.813581467E-1,7.738172603E-1
6.833425779E0,2.940807343E-1,-5.951344967E-1,3.320775032E-1,7.422560310E-1
6.838401092E0,3.249673843E-1,-5.770294666E-1,2.543072701E-1,7.093933985E-1
6.843376404E0,3.423643112E-1,-5.749278069E-1,1.673846245E-1,6.897629428E-1
6.848351717E0,3.847188950E-1,-5.604209900E-1,8.584547043E-2,6.851640380E-1
6.853327029E0,3.996000290E-1,-5.624103546E-1,2.912521362E-2,6.905315838E-1
6.858302342E0,4.110679626E-1,-5.619273186E-1,1.169872284E-2,6.963304111E-1
6.863277654E0,4.717044830E-1,-5.541486740E-1,1.919698715E-2,7.279796677E-1
6.868252967E0,5.717678070E-1,-5.437679291E-1,-1.126289368E-3,7.890521240E-1
6.873228279E0,6.487932205E-1,-5.449029207E-1,5.091857910E-2,8.487900434E-1
6.878203592E0,7.026033401E-1,-5.286782980E-1,1.462950706E-1,8.913778346E-1
6.883178904E0,7.187538147E-1,-5.090991259E-1,2.610349655E-1,9.186556587E-1
6.888154217E0,7.450494766E-1,-4.763076305E-1,3.903956413E-1,9.666314904E-1
6.893129529E0,7.766647339E-1,-4.634811878E-1,5.010185242E-1,1.033945106E0
6.898104842E0,8.136072159E-1,-4.798892736E-1,5.931196213E-1,1.115365995E0
6.903080154E0,8.798398972E-1,-5.111010075E-1,6.764271259E-1,1.221841291E0
6.908055467E0,9.323625565E-1,-5.283315182E-1,7.559278011E-1,1.311434699E0
6.913030779E0,9.904479980E-1,-5.172493458E-1,7.792623043E-1,1.362271581E0
6.918006092E0,1.030266762E0,-4.970667362E-1,7.801239491E-1,1.384600418E0
6.922981404E0,1.061498642E0,-4.679279327E-1,7.825572491E-1,1.399332614E0
6.927956717E0,1.031592369E0,-4.442603588E-1,7.770431042E-1,1.365776727E0
6.932932029E0,9.885654449E-1,-4.308619499E-1,7.590129375E-1,1.318713122E0
6.937907342E0,9.611759186E-1,-3.943110704E-1,7.285296917E-1,1.268895535E0
6.942882654E0,9.589481354E-1,-3.584372997E-1,6.617076397E-1,1.218981470E0
6.947857967E0,9.673738480E-1,-3.087370396E-1,5.823421478E-1,1.170578104E0
6.952833279E0,9.671211243E-1,-2.642807961E-1,4.709906578E-1,1.107700234E0
6.957808592E0,9.579200745E-1,-2.153370380E-1,3.368182182E-1,1.037992014E0
6.962783904E0,8.963775635E-1,-1.615972519E-1,2.415108681E-1,9.423024501E-1
6.967759217E0,8.158206940E-1,-7.418847084E-2,1.655941010E-1,8.357563881E-1
6.972734529E0,7.448129654E-1,-1.040840149E-2,7.056760788E-2,7.482208735E-1
6.977709842E0,6.880340576E-1,3.953242302E-2,-3.403759003E-2,6.900088655E-1
6.982685154E0,6.454553604E-1,9.481859207E-2,-1.099576950E-1,6.615843728E-1
6.987660467E0,6.458091736E-1,1.124610901E-1,-2.001380920E-1,6.853993298E-1
6.992635779E0,6.412191391E-1,9.241294861E-2,-3.189578056E-1,7.221054073E-1
6.997611092E0,6.364746094E-1,7.277607918E-2,-4.377927780E-1,7.759244825E-1
7.002586404E0,6.171550751E-1,8.209991455E-2,-5.472812653E-1,8.289376128E-1
7.007561717E0,5.784215927E-1,7.723331451E-2,-6.045565605E-1,8.402530325E-1
7.012537029E0,5.633754730E-1,4.365587234E-2,-6.288428307E-1,8.454236006E-1
7.017512342E0,5.721187592E-1,1.465249062E-2,-6.726632118E-1,8.831819555E-1
7.022487654E0,5.281515121E-1,9.172916412E-3,-7.407712936E-1,9.098188125E-1
7.027462967E0,4.794607162E-1,-1.767396927E-3,-7.996120453E-1,9.323438878E-1
7.032438279E0,4.214029312E-1,-3.947496414E-3,-8.251085281E-1,9.264988378E-1
7.037413592E0,3.923254013E-1,-7.096052170E-3,-8.411540985E-1,9.281755178E-1
7.042388904E0,4.066381454E-1,3.055334091E-3,-8.715333939E-1,9.617350846E-1
7.047364217E0,4.308242798E-1,-2.302408218E-3,-8.779911995E-1,9.779996971E-1
7.052339529E0,4.361391068E-1,-4.044055939E-3,-8.749756813E-1,9.776584873E-1
7.057314842E0,4.081096649E-1,-2.118492126E-2,-8.292188644E-1,9.244491466E-1
7.062290154E0,3.706398010E-1,3.693103790E-3,-7.791128159E-1,8.627886653E-1
7.067265467E0,3.140869141E-1,8.579969406E-3,-7.247090340E-1,7.898907452E-1
7.072240779E0,2.622613907E-1,3.238439560E-3,-6.804904938E-1,7.292865258E-1
7.077216092E0,2.198019028E-1,-2.174305916E-2,-6.370449066E-1,6.742491009E-1
7.082191404E0,1.866159439E-1,-3.752017021E-2,-5.800919533E-1,6.105243222E-1
7.087166717E0,1.195735931E-1,-7.274913788E-2,-5.097517967E-1,5.286181755E-1
7.092142029E0,7.136917114E-2,-1.178753376E-1,-4.307560921E-1,4.522598420E-1
7.097117342E0,4.206562042E-2,-1.537482738E-1,-3.573122025E-1,3.912544673E-1
7.102092654E0,-1.791000366E-3,-1.517949104E-1,-2.702512741E-1,3.099687947E-1
7.107067967E0,-4.089927673E-2,-1.216275692E-1,-1.789016724E-1,2.201631777E-1
7.112043279E0,-9.904098511E-2,-9.199237823E-2,-1.069574356E-1,1.723705526E-1
7.117018592E0,-1.665606499E-1,-6.749296188E-2,-4.463672638E-2,1.851760982E-1
7.121993904E0,-2.003784180E-1,-5.285477638E-2,-2.055644989E-2,2.082491426E-1
7.126969217E0,-2.197155952E-1,-3.831338882E-2,3.228950500E-2,2.253563194E-1
7.131944529E0,-2.151131630E-1,-4.518032074E-3,8.512830734E-2,2.313890970E-1
7.136919842E0,-2.057938576E-1,2.479171753E-2,1.092519760E-1,2.343111934E-1
7.141895154E0,-2.157397270E-1,4.506087303E-2,8.078575134E-2,2.347348498E-1
7.146870467E0,-2.306680679E-1,7.557630539E-2,6.188964844E-2,2.504992297E-1
7.151845779E0,-2.218513489E-1,8.298516273E-2,9.619712830E-3,2.370592692E-1
7.156821092E0,-1.844477654E-1,5.292868614E-2,-3.759574890E-2,1.955399302E-1
7.161796404E0,-1.089153290E-1,2.848720551E-2,-1.084384918E-1,1.563105124E-1
7.166771717E0,-7.178258896E-2,9.536266327E-3,-1.885256767E-1,2.019544781E-1
7.171747029E0,-6.343603134E-2,-3.275322914E-2,-2.300815582E-1,2.409033572E-1
7.176722342E0,-8.857297897E-2,-5.547070503E-2,-2.618436813E-1,2.819295749E-1
7.181697654E0,-1.232113838E-1,-8.257102966E-2,-2.646579742E-1,3.033856677E-1
7.186672967E0,-9.562683105E-2,-9.966778755E-2,-2.577152252E-1,2.923957866E-1
7.191648279E0,-3.456544876E-2,-1.307370663E-1,-2.553572655E-1,2.889537745E-1
7.196623592E0,2.656984329E-2,-1.663155556E-1,-2.670111656E-1,3.156925453E-1
7.201598904E0,9.261274338E-2,-1.874296665E-1,-2.735247612E-1,3.442713975E-1
7.206574217E0,1.923308372E-1,-2.084968090E-1,-2.939329147E-1,4.084833273E-1
7.211549529E0,3.257570267E-1,-2.153890133E-1,-3.568944931E-1,5.290404017E-1
7.216524842E0,4.498596191E-1,-2.130432129E-1,-4.097328186E-1,6.447030868E-1
7.221500154E0,5.837492943E-1,-2.207410336E-1,-4.956159592E-1,7.969473141E-1
7.226475467E0,6.508307457E-1,-2.003052235E-1,-6.098699570E-1,9.141357703E-1
7.231450779E0,6.605658531E-1,-1.661226749E-1,-7.192826271E-1,9.906116732E-1
7.236426092E0,6.559753418E-1,-1.565115452E-1,-8.096790314E-1,1.053745532E0
7.241401404E0,6.369347572E-1,-1.426208019E-1,-8.716845512E-1,1.088972238E0
7.246376717E0,6.129617691E-1,-1.005289555E-1,-9.054298401E-1,1.098012476E0
7.251352081E0,5.935778618E-1,-4.931330681E-2,-9.205489159E-1,1.096438228E0
7.256327446E0,5.835494995E-1,-8.017063141E-3,-8.979053497E-1,1.070900700E0
7.261302811E0,5.685052872E-1,-1.976180077E-2,-8.949942589E-1,1.060473250E0
7.266278175E0,5.819292068E-1,-6.534910202E-2,-8.735256195E-1,1.051645908E0
7.271253540E0,6.046552658E-1,-1.209330559E-1,-7.857465744E-1,9.988145342E-1
7.276228904E0,6.366977692E-1,-1.435401440E-1,-6.556453705E-1,9.251263017E-1
7.281204269E0,7.259607315E-1,-1.523315907E-1,-4.783439636E-1,8.826306389E-1
7.286179634E0,7.863926888E-1,-1.425199509E-1,-2.585124969E-1,8.399726831E-1
7.291154998E0,8.276872635E-1,-1.284101009E-1,-7.255125046E-2,8.407253084E-1
7.296130363E0,8.834347725E-1,-1.100256443E-1,5.101966858E-2,8.917206100E-1
7.301105727E0,9.202213287E-1,-8.248281479E-2,1.507081985E-1,9.361216105E-1
7.306081092E0,9.523916245E-1,-4.092979431E-2,2.408866882E-1,9.832351962E-1
7.311056456E0,9.777784348E-1,1.936721802E-2,3.288717270E-1,1.031786010E0
7.316031821E0,9.889221191E-1,6.490874290E-2,3.832039833E-1,1.062556067E0
7.321007186E0,9.716281891E-1,1.196260452E-1,4.135856628E-1,1.062744009E0
7.325982550E0,9.498891830E-1,1.787593365E-1,3.965234756E-1,1.044736918E0
7.330957915E0,8.951354027E-1,2.519195080E-1,3.607931137E-1,9.974479929E-1
7.335933279E0,8.407649994E-1,3.106501102E-1,3.206849098E-1,9.519601287E-1
7.340908644E0,7.629957199E-1,3.504478931E-1,2.572422028E-1,8.781513225E-1
7.345884009E0,6.761651039E-1,3.858814240E-1,2.275595665E-1,8.111023840E-1
7.350859373E0,5.803356171E-1,4.169228077E-1,2.075648308E-1,7.441083355E-1
7.355834738E0,5.230288506E-1,4.246592522E-1,1.686491966E-1,6.945050111E-1
7.360810102E0,4.945054054E-1,4.186749458E-1,1.062965393E-1,6.565997720E-1
7.365785467E0,4.708771706E-1,3.894681931E-1,4.928302765E-2,6.130575829E-1
7.370760831E0,4.759125710E-1,3.559703827E-1,7.043838501E-3,5.943545274E-1
7.375736196E0,4.761991501E-1,3.180410862E-1,1.271486282E-2,5.727804386E-1
7.380711561E0,4.718818665E-1,2.803015709E-1,2.799367905E-2,5.495681146E-1
7.385686925E0,4.487662315E-1,2.663962841E-1,3.852939606E-2,5.232997469E-1
7.390662290E0,4.308180809E-1,2.523152828E-1,9.191465378E-2,5.076568963E-1
7.395637654E0,4.228367805E-1,2.712833881E-1,1.594362259E-1,5.270726039E-1
7.400613019E0,4.058279991E-1,2.946412563E-1,1.936650276E-1,5.376020626E-1
7.405588384E0,3.988213539E-1,3.177797794E-1,2.043952942E-1,5.493813765E-1
7.410563748E0,3.636507988E-1,3.408479691E-1,1.822481155E-1,5.306916403E-1
7.415539113E0,3.337106705E-1,3.450152874E-1,1.559405327E-1,5.046937783E-1
7.420514477E0,2.661819458E-1,3.495552540E-1,8.751583099E-2,4.479963443E-1
7.425489790E0,1.993255615E-1,3.640022278E-1,-3.726959229E-3,4.150207122E-1
7.430465102E0,1.709642410E-1,3.740839958E-1,-1.273121834E-1,4.305531322E-1
7.435440415E0,1.522450447E-1,3.654952049E-1,-2.735819817E-1,4.812612587E-1
7.440415727E0,9.549427032E-2,3.430302143E-1,-3.475928307E-1,4.976039183E-1
7.445391040E0,5.794286728E-2,3.400032520E-1,-3.500676155E-1,4.914335384E-1
7.450366352E0,2.051734924E-2,3.229296207E-1,-2.957630157E-1,4.383836939E-1
7.455341665E0,1.181793213E-2,3.014223576E-1,-2.277245522E-1,3.779597503E-1
7.460316977E0,1.272058487E-2,2.565793991E-1,-1.648702621E-1,3.052490863E-1
7.465292290E0,3.272294998E-2,2.028133869E-1,-1.165471077E-1,2.361933312E-1
7.470267602E0,6.691837311E-2,1.308398247E-1,-6.832408905E-2,1.620657568E-1
7.475242915E0,8.197546005E-2,8.838105202E-2,1.311731339E-2,1.212569599E-1
7.480218227E0,7.809305191E-2,9.428620338E-2,6.112480164E-2,1.368380586E-1
7.485193540E0,3.166007996E-2,1.340477467E-1,4.275941849E-2,1.442204109E-1
7.490168852E0,-9.564399719E-3,1.363801956E-1,-1.770067215E-2,1.378562632E-1
7.495144790E0,-4.563379288E-2,1.538734436E-1,-1.531448364E-1,2.218396282E-1
7.500119738E0,-5.769062042E-2,1.389281750E-1,-3.061046600E-1,3.410708260E-1
7.505094686E0,-6.020736694E-2,1.105635166E-1,-4.386038780E-1,4.563141243E-1
7.510069634E0,-5.803775787E-2,6.872558594E-2,-5.556812286E-1,5.629149273E-1
7.515044581E0,-8.921003342E-2,8.922505379E-2,-6.148595810E-1,6.276717650E-1
7.520019581E0,-1.296877861E-1,1.192088127E-1,-6.641297340E-1,6.870938557E-1
7.524994634E0,-1.603550911E-1,1.537475586E-1,-6.988091469E-1,7.332709532E-1
7.529969738E0,-1.765007973E-1,1.927573681E-1,-7.332205772E-1,7.784088574E-1
7.534945415E0,-1.450996399E-1,1.698136330E-1,-7.817049026E-1,8.129902400E-1
7.539921144E0,-9.982872009E-2,1.472005844E-1,-8.014488220E-1,8.209470140E-1
7.544896873E0,-2.664756775E-2,1.201131344E-1,-8.165822029E-1,8.257988569E-1
7.549872602E0,3.608942032E-2,8.869218826E-2,-8.415269852E-1,8.469571520E-1
7.554848331E0,1.264314651E-1,4.808115959E-2,-8.810434341E-1,8.913665049E-1
7.559823748E0,1.917624474E-1,-1.116251945E-2,-9.399747849E-1,9.594008725E-1
7.564799061E0,2.465233803E-1,-3.209066391E-2,-9.992561340E-1,1.029716664E0
7.569774373E0,2.290463448E-1,-5.324792862E-2,-1.035271168E0,1.061642106E0
7.574749686E0,2.064070702E-1,-6.525421143E-2,-1.057758331E0,1.079682675E0
7.579724998E0,1.929655075E-1,-6.832313538E-2,-1.057285309E0,1.076919664E0
7.584700311E0,1.983017921E-1,-8.163332939E-2,-1.048107624E0,1.069821103E0
7.589675623E0,2.365489006E-1,-9.568381310E-2,-1.035013199E0,1.066003328E0
7.594650936E0,2.884836197E-1,-1.247353554E-1,-9.799890518E-1,1.029155114E0
7.599626248E0,3.682465553E-1,-1.449341774E-1,-9.118614197E-1,9.940335457E-1
7.604601561E0,4.518742561E-1,-1.800494194E-1,-8.307018280E-1,9.626389063E-1
7.609576873E0,5.155963898E-1,-2.062170506E-1,-7.223658562E-1,9.111407900E-1
7.614552186E0,5.834088326E-1,-2.281415462E-1,-6.153998375E-1,8.781408720E-1
7.619527498E0,6.600975990E-1,-2.457792759E-1,-5.001659393E-1,8.638878744E-1
7.624502811E0,7.172117233E-1,-2.305159569E-1,-3.765144348E-1,8.421955723E-1
7.629478123E0,7.454872131E-1,-2.299711704E-1,-3.060932159E-1,8.380518964E-1
7.634453436E0,7.404761314E-1,-2.153213024E-1,-2.740464211E-1,8.183945292E-1
7.639428748E0,7.357506752E-1,-1.866152287E-1,-2.799534798E-1,8.090292025E-1
7.644404061E0,7.408113480E-1,-1.437981129E-1,-2.949304581E-1,8.102242440E-1
7.649379373E0,7.508335114E-1,-8.212828636E-2,-3.093519211E-1,8.162074664E-1
7.654354686E0,7.373752594E-1,1.257419586E-2,-3.705496788E-1,8.253408072E-1
7.659329998E0,7.006406784E-1,9.731936455E-2,-4.258828163E-1,8.256782619E-1
7.664305311E0,6.550259590E-1,1.769199371E-1,-5.182018280E-1,8.537521922E-1
7.669280623E0,6.290011406E-1,2.562618256E-1,-6.377935410E-1,9.317151705E-1
7.674255936E0,5.795221329E-1,3.305914402E-1,-7.656359673E-1,1.015546669E0
7.679231248E0,5.302972794E-1,4.047725201E-1,-8.592042923E-1,1.087790427E0
7.684206561E0,4.716200829E-1,4.360623360E-1,-9.285602570E-1,1.129070420E0
7.689181873E0,4.176115990E-1,4.771242142E-1,-9.741458893E-1,1.162328343E0
7.694157186E0,3.680963516E-1,4.850597382E-1,-1.010615826E0,1.179882291E0
7.699132498E0,3.277769089E-1,4.981019497E-1,-1.004828453E0,1.168427779E0
7.704107811E0,2.919173241E-1,4.780666828E-1,-9.380817413E-1,1.092593626E0
7.709083123E0,2.368407249E-1,4.631943703E-1,-8.439941406E-1,9.914477611E-1
7.714058436E0,2.340688705E-1,4.247863293E-1,-7.274279594E-1,8.742900536E-1
7.719033748E0,2.357797623E-1,3.868298531E-1,-6.121649742E-1,7.615611513E-1
7.724009061E0,2.562112808E-1,3.350749016E-1,-5.076503754E-1,6.600214494E-1
7.728984373E0,2.952828407E-1,2.317295074E-1,-3.756756783E-1,5.310581285E-1
7.733959686E0,3.433480263E-1,1.484839916E-1,-2.259464264E-1,4.370207667E-1
7.738934998E0,3.861055374E-1,8.991003036E-2,-1.013278961E-1,4.091804518E-1
7.743910311E0,4.140348434E-1,4.175257683E-2,-1.622676849E-3,4.161379126E-1
7.748885623E0,4.320030212E-1,8.746623993E-3,8.289194107E-2,4.399706668E-1
7.753860936E0,4.353690147E-1,-2.340793610E-2,1.191635132E-1,4.519889969E-1
7.758836248E0,4.147644043E-1,-5.480980873E-2,1.218085289E-1,4.357418317E-1
7.763811561E0,3.798980713E-1,-8.553767204E-2,1.148357391E-1,4.059882817E-1
7.768786873E0,3.546981812E-1,-9.684991837E-2,1.125612259E-1,3.845266388E-1
7.773762186E0,3.201999664E-1,-1.129999161E-1,4.372692108E-2,3.423580628E-1
7.778737498E0,2.718791962E-1,-1.295890808E-1,-3.408622742E-2,3.031064138E-1
7.783712811E0,2.145905495E-1,-1.326658726E-1,-8.768749237E-2,2.670925570E-1
7.788688123E0,1.532177925E-1,-1.083743572E-1,-7.931375504E-2,2.037433802E-1
7.793663436E0,5.931472778E-2,-8.088088036E-2,-2.378511429E-2,1.030809653E-1
7.798638748E0,-3.830671310E-2,-7.394480705E-2,7.351398468E-3,8.360192473E-2
7.803614061E0,-1.063389778E-1,-7.312798500E-2,2.385616302E-2,1.312432738E-1
7.808589373E0,-1.592979431E-1,-9.732174873E-2,6.844997406E-3,1.867999236E-1
7.813564686E0,-1.783380508E-1,-1.368286610E-1,1.829338074E-2,2.255242573E-1
7.818539998E0,-1.257476807E-1,-1.582911015E-1,8.171033859E-2,2.180484612E-1
7.823515311E0,-9.231424332E-2,-1.950361729E-1,1.919789314E-1,2.888199064E-1
7.828490623E0,-3.984737396E-2,-2.279508114E-1,3.060235977E-1,3.836662977E-1
7.833465936E0,7.721900940E-3,-2.664389610E-1,4.048223495E-1,4.846962785E-1
7.838441248E0,5.997419357E-2,-3.055918217E-1,5.075960159E-1,5.955140475E-1
7.843416561E0,1.073727608E-1,-3.024507761E-1,6.143922806E-1,6.931689954E-1
7.848391873E0,1.499404907E-1,-3.141460419E-1,7.062382698E-1,7.873641979E-1
7.853367186E0,1.876144409E-1,-3.069366217E-1,8.117566109E-1,8.878952998E-1
7.858342498E0,1.965889931E-1,-2.806351185E-1,9.118380547E-1,9.740903140E-1
7.863317811E0,2.149763107E-1,-2.539792061E-1,9.353113174E-1,9.927373831E-1
7.868293123E0,2.425780296E-1,-2.503836155E-1,9.112768173E-1,9.756851404E-1
7.873268436E0,2.697472572E-1,-2.362589836E-1,8.828368187E-1,9.528812825E-1
7.878243748E0,3.059678078E-1,-2.258327007E-1,8.405528069E-1,9.225755954E-1
7.883219061E0,3.560209274E-1,-1.858282089E-1,7.704491615E-1,8.688353898E-1
7.888194373E0,4.009294510E-1,-1.545853615E-1,6.349110603E-1,7.666505809E-1
7.893169686E0,4.455995560E-1,-1.275489330E-1,4.820189476E-1,6.687076794E-1
7.898145050E0,4.521894455E-1,-6.698989868E-2,3.262438774E-1,5.616030704E-1
7.903120415E0,4.401721954E-1,2.647113800E-2,1.629443169E-1,4.701097033E-1
7.908095779E0,4.097867012E-1,1.144864559E-1,1.600551605E-2,4.257798323E-1
7.913071144E0,3.944325447E-1,2.064719200E-1,-1.669855118E-1,4.754911642E-1
7.918046509E0,3.986492157E-1,2.880232334E-1,-3.051724434E-1,5.787994474E-1
7.923021873E0,4.126029015E-1,3.782749176E-1,-4.276375771E-1,7.044195943E-1
7.927997238E0,4.170694351E-1,4.724063873E-1,-5.062265396E-1,8.083192549E-1
7.932972602E0,3.977384567E-1,5.515649319E-1,-6.031627655E-1,9.089692380E-1
7.937947967E0,3.831539154E-1,6.207361221E-1,-6.757092476E-1,9.943355789E-1
7.942923331E0,3.589744568E-1,6.800866127E-1,-7.003679276E-1,1.040142152E0
7.947898696E0,3.300819397E-1,7.536251545E-1,-7.011318207E-1,1.080967525E0
7.952874061E0,3.345499039E-1,8.317780495E-1,-7.113566399E-1,1.144467837E0
7.957849425E0,3.626146317E-1,8.719654083E-1,-7.451138496E-1,1.202916328E0
7.962824790E0,3.665919304E-1,8.935289383E-1,-7.879490852E-1,1.246453917E0
7.967800154E0,3.608536720E-1,9.109418392E-1,-8.351073265E-1,1.287413940E0
7.972775519E0,3.548545837E-1,9.194602966E-1,-8.772339821E-1,1.319419748E0
7.977750884E0,3.579578400E-1,9.334769249E-1,-9.240202904E-1,1.361369341E0
7.982726248E0,3.699617386E-1,9.102404118E-1,-9.613347054E-1,1.374617660E0
7.987701613E0,3.574285507E-1,8.737435341E-1,-1.022687435E0,1.391787528E0
7.992676977E0,3.252472878E-1,8.334710598E-1,-1.051031113E0,1.380263093E0
7.997652342E0,3.116106987E-1,7.797315121E-1,-1.051426411E0,1.345577926E0
8.002627706E0,2.831854820E-1,7.267277241E-1,-1.038334370E0,1.298639852E0
8.007603071E0,2.639293671E-1,6.648318768E-1,-9.975500107E-1,1.227504036E0
8.012578436E0,2.823610306E-1,6.082291603E-1,-9.339690208E-1,1.149768931E0
8.017553800E0,3.049845695E-1,5.472323895E-1,-8.905014992E-1,1.088793734E0
8.022529165E0,3.603744507E-1,4.675803185E-1,-8.241076469E-1,1.013732959E0
8.027504529E0,3.913016319E-1,3.788108826E-1,-7.349910736E-1,9.147822310E-1
8.032479894E0,3.980712891E-1,2.999629974E-1,-6.327176094E-1,8.054626771E-1
