"Time (s)","Acceleration x (m/s^2)","Acceleration y (m/s^2)","Acceleration z (m/s^2)"
4.665152300E-2,8.462306023E0,5.096656799E0,-1.741781682E-1
4.910787700E-2,8.476671219E0,5.101445198E0,-1.885433793E-1
5.156423200E-2,8.476671219E0,5.125387192E0,-1.981201917E-1
5.402407500E-2,8.486248016E0,5.149329185E0,-1.933317930E-1
5.648391900E-2,8.495824814E0,5.144540787E0,-1.981201917E-1
5.894938800E-2,8.505401611E0,5.149329185E0,-1.981201917E-1
6.142115900E-2,8.519766808E0,5.168482780E0,-1.981201917E-1
6.389959600E-2,8.529343605E0,5.154117584E0,-1.933317930E-1
6.638480500E-2,8.543708801E0,5.158905983E0,-2.029085904E-1
6.887662700E-2,8.543708801E0,5.158905983E0,-1.885433793E-1
7.137464800E-2,8.553285599E0,5.144540787E0,-1.741781682E-1
7.387824200E-2,8.562862396E0,5.134963989E0,-1.693897694E-1
7.638652300E-2,8.572439194E0,5.125387192E0,-1.310825497E-1
7.889850200E-2,8.596381187E0,5.134963989E0,-1.119289324E-1
8.141308600E-2,8.615534782E0,5.120598793E0,-9.277531505E-2
8.392907500E-2,8.620323181E0,5.115810394E0,-7.362170517E-2
8.644532500E-2,8.629899979E0,5.111021996E0,-4.489128292E-2
8.893985700E-2,8.629899979E0,5.115810394E0,-3.052607179E-2
9.142777300E-2,8.639476776E0,5.134963989E0,-3.531447425E-2
9.391569000E-2,8.634688377E0,5.144540787E0,-5.925649032E-2
9.640360700E-2,8.605957985E0,5.163694382E0,-7.362170517E-2
9.889152300E-2,8.610746384E0,5.158905983E0,-8.798690885E-2
1.013794400E-1,8.605957985E0,5.158905983E0,-7.841010392E-2
1.038673570E-1,8.610746384E0,5.173271179E0,-9.277531505E-2
1.063552730E-1,8.610746384E0,5.187636375E0,-9.756372124E-2
1.088431900E-1,8.596381187E0,5.206789970E0,-1.167173311E-1
1.113311070E-1,8.596381187E0,5.216366768E0,-1.406593472E-1
1.138190230E-1,8.596381187E0,5.225943565E0,-1.550245583E-1
1.163069400E-1,8.572439194E0,5.230731964E0,-1.741781682E-1
1.187948570E-1,8.548497200E0,5.235520363E0,-1.789665818E-1
1.212827730E-1,8.538920403E0,5.230731964E0,-2.029085904E-1
1.237706900E-1,8.534132004E0,5.216366768E0,-1.933317930E-1
1.262586070E-1,8.524555206E0,5.206789970E0,-2.124854028E-1
1.287465230E-1,8.514978409E0,5.211578369E0,-1.933317930E-1
1.312344400E-1,8.519766808E0,5.202001572E0,-1.741781682E-1
1.337223570E-1,8.524555206E0,5.182847977E0,-1.741781682E-1
1.362102730E-1,8.514978409E0,5.187636375E0,-1.933317930E-1
1.386981900E-1,8.505401611E0,5.173271179E0,-1.693897694E-1
1.411861070E-1,8.495824814E0,5.158905983E0,-1.502361596E-1
1.436740230E-1,8.471882820E0,5.158905983E0,-1.358709484E-1
1.461619400E-1,8.457517624E0,5.154117584E0,-1.071405262E-1
1.486498570E-1,8.443152428E0,5.149329185E0,-6.883329898E-2
1.511377730E-1,8.419210434E0,5.130175591E0,-1.616086066E-2
1.536256900E-1,8.414422035E0,5.120598793E0,1.735796221E-2
1.561136070E-1,8.414422035E0,5.096656799E0,4.129998013E-2
1.586015230E-1,8.395268440E0,5.091868401E0,7.003039867E-2
1.610894400E-1,8.390480042E0,5.087080002E0,7.003039867E-2
1.635773570E-1,8.395268440E0,5.067926407E0,8.918401599E-2
1.660652730E-1,8.400056839E0,5.048772812E0,9.397241473E-2
1.685531900E-1,8.419210434E0,5.043984413E0,8.439560980E-2
1.710411070E-1,8.423998833E0,5.029619217E0,9.876082093E-2
1.735290230E-1,8.433575630E0,5.029619217E0,8.439560980E-2
1.760169400E-1,8.433575630E0,5.039196014E0,7.481880486E-2
1.785048570E-1,8.443152428E0,5.039196014E0,7.481880486E-2
1.809927730E-1,8.428787231E0,5.024830818E0,5.087678507E-2
1.834806900E-1,8.428787231E0,5.029619217E0,3.172317147E-2
1.859686070E-1,8.400056839E0,5.024830818E0,3.651157767E-2
1.884565230E-1,8.376114845E0,5.039196014E0,2.214636654E-2
1.909444400E-1,8.356961250E0,5.043984413E0,-1.137245819E-2
1.934324090E-1,8.352172852E0,5.048772812E0,-3.052607179E-2
1.959203770E-1,8.347384453E0,5.034407616E0,-3.052607179E-2
1.984083460E-1,8.323442459E0,5.043984413E0,-4.967968538E-2
2.008963150E-1,8.313865662E0,5.039196014E0,-3.531447425E-2
2.033842840E-1,8.309077263E0,5.039196014E0,-4.010287672E-2
2.058722520E-1,8.299500465E0,5.034407616E0,-4.010287672E-2
2.083602210E-1,8.299500465E0,5.043984413E0,-4.967968538E-2
2.108481900E-1,8.294712067E0,5.020042419E0,-5.925649032E-2
2.133361590E-1,8.294712067E0,5.020042419E0,-6.404489279E-2
2.158241270E-1,8.309077263E0,5.020042419E0,-7.362170517E-2
2.183120960E-1,8.318654060E0,5.000888824E0,-9.756372124E-2
2.208000650E-1,8.313865662E0,4.986523628E0,-1.167173311E-1
2.232880340E-1,8.309077263E0,4.953004837E0,-1.167173311E-1
2.257760020E-1,8.313865662E0,4.924274445E0,-1.310825497E-1
2.282639710E-1,8.328230858E0,4.924274445E0,-1.502361596E-1
2.307519400E-1,8.337807655E0,4.914697647E0,-1.358709484E-1
2.332399090E-1,8.352172852E0,4.905120850E0,-1.502361596E-1
2.357278770E-1,8.356961250E0,4.900332451E0,-1.646013707E-1
2.382158460E-1,8.361749649E0,4.895544052E0,-1.646013707E-1
2.407038150E-1,8.371326447E0,4.885967255E0,-1.646013707E-1
2.431917840E-1,8.366538048E0,4.895544052E0,-1.741781682E-1
2.456797520E-1,8.356961250E0,4.885967255E0,-1.789665818E-1
2.481677210E-1,8.361749649E0,4.909909248E0,-1.933317930E-1
2.506556900E-1,8.361749649E0,4.909909248E0,-1.837549806E-1
2.531436590E-1,8.366538048E0,4.924274445E0,-1.885433793E-1
2.556316270E-1,8.342596054E0,4.938639641E0,-2.029085904E-1
2.581195960E-1,8.328230858E0,4.924274445E0,-1.885433793E-1
2.606075650E-1,8.309077263E0,4.933851242E0,-1.981201917E-1
2.630955340E-1,8.299500465E0,4.938639641E0,-1.789665818E-1
2.655835020E-1,8.285135269E0,4.929062843E0,-1.981201917E-1
2.680714710E-1,8.265981674E0,4.943428040E0,-1.693897694E-1
2.705594400E-1,8.232462883E0,4.962581635E0,-1.693897694E-1
2.730474090E-1,8.213309288E0,4.976946831E0,-1.741781682E-1
2.755353770E-1,8.160636902E0,4.986523628E0,-1.933317930E-1
2.780233460E-1,8.141483307E0,4.991312027E0,-1.837549806E-1
2.805113150E-1,8.122329712E0,5.000888824E0,-1.741781682E-1
2.829992840E-1,8.131906509E0,5.015254021E0,-1.789665818E-1
2.854872520E-1,8.136694908E0,5.024830818E0,-2.076970041E-1
2.879752210E-1,8.146271706E0,5.029619217E0,-2.364274114E-1
2.904631900E-1,8.155848503E0,5.039196014E0,-2.603694201E-1
2.929511590E-1,8.155848503E0,5.039196014E0,-3.178302646E-1
2.954391270E-1,8.155848503E0,5.048772812E0,-3.561375141E-1
2.979270960E-1,8.131906509E0,5.063138008E0,-3.896563351E-1
3.004150650E-1,8.136694908E0,5.039196014E0,-3.992331326E-1
3.029030340E-1,8.141483307E0,5.039196014E0,-4.135983288E-1
3.053910020E-1,8.122329712E0,5.053561211E0,-4.471171796E-1
3.078789710E-1,8.117541313E0,5.063138008E0,-4.806360006E-1
3.103669400E-1,8.122329712E0,5.067926407E0,-4.997895956E-1
3.128549090E-1,8.122329712E0,5.072714806E0,-4.950011969E-1
3.153428770E-1,8.131906509E0,5.082291603E0,-5.045779943E-1
3.178308460E-1,8.131906509E0,5.096656799E0,-5.045779943E-1
3.203188150E-1,8.131906509E0,5.091868401E0,-4.950011969E-1
3.228067840E-1,8.131906509E0,5.115810394E0,-4.614823759E-1
3.252947520E-1,8.127118111E0,5.120598793E0,-4.375403523E-1
3.277827210E-1,8.151060104E0,5.115810394E0,-3.944447339E-1
3.302706900E-1,8.160636902E0,5.101445198E0,-3.657143116E-1
3.327586070E-1,8.175002098E0,5.101445198E0,-3.274070919E-1
3.352465230E-1,8.189367294E0,5.111021996E0,-2.747346461E-1
3.377344400E-1,8.189367294E0,5.125387192E0,-2.460042238E-1
3.402223570E-1,8.203732491E0,5.125387192E0,-2.172738016E-1
3.427102730E-1,8.218097687E0,5.149329185E0,-2.076970041E-1
3.451981900E-1,8.246828079E0,5.168482780E0,-1.789665818E-1
3.476861070E-1,8.261193275E0,5.187636375E0,-1.741781682E-1
3.501740230E-1,8.265981674E0,5.206789970E0,-1.646013707E-1
3.526619400E-1,8.285135269E0,5.225943565E0,-1.454477459E-1
3.551498570E-1,8.304288864E0,5.264250755E0,-1.310825497E-1
3.576377730E-1,8.342596054E0,5.292981625E0,-1.454477459E-1
3.601256900E-1,8.390480042E0,5.321712017E0,-1.310825497E-1
3.626136070E-1,8.438364029E0,5.331288815E0,-1.502361596E-1
3.651015230E-1,8.471882820E0,5.360019207E0,-1.741781682E-1
3.675894400E-1,8.529343605E0,5.398326397E0,-2.029085904E-1
3.700773570E-1,8.591592789E0,5.398326397E0,-2.651578486E-1
3.725652730E-1,8.634688377E0,5.417479992E0,-2.938882709E-1
3.750531900E-1,8.716091156E0,5.431845188E0,-3.034650683E-1
3.775411070E-1,8.783128738E0,5.446210384E0,-3.130418658E-1
3.800290230E-1,8.859743118E0,5.450998783E0,-3.130418658E-1
3.825169400E-1,8.945934296E0,5.484517574E0,-3.274070919E-1
3.850048570E-1,9.046490669E0,5.513247967E0,-3.369838893E-1
3.874927730E-1,9.151836395E0,5.561131954E0,-3.274070919E-1
3.899806900E-1,9.266757965E0,5.618592739E0,-3.465606868E-1
3.924686070E-1,9.386467934E0,5.676053524E0,-3.274070919E-1
3.949565230E-1,9.515754700E0,5.752667904E0,-3.321954906E-1
3.974444400E-1,9.659406662E0,5.848436356E0,-3.274070919E-1
3.999323570E-1,9.798270226E0,5.939415932E0,-2.986766696E-1
4.024202730E-1,9.937133789E0,6.049549103E0,-2.938882709E-1
4.049081900E-1,1.009994030E1,6.150105476E0,-2.795230448E-1
4.073961070E-1,1.024838066E1,6.250661850E0,-2.843114436E-1
4.098840230E-1,1.043512821E1,6.317699909E0,-2.986766696E-1
4.123719400E-1,1.060751057E1,6.408679485E0,-3.561375141E-1
4.148598570E-1,1.073679733E1,6.494870663E0,-4.279635549E-1
4.173477730E-1,1.091396809E1,6.561908245E0,-4.758476019E-1
4.198356900E-1,1.108156300E1,6.628945827E0,-5.141547918E-1
4.223236070E-1,1.126352215E1,6.681618214E0,-5.620388389E-1
4.248118880E-1,1.144069290E1,6.719925404E0,-6.194996834E-1
4.273001690E-1,1.163701725E1,6.777386665E0,-6.482301354E-1
4.297884500E-1,1.181418800E1,6.839635849E0,-6.865373254E-1
4.322763670E-1,1.197699356E1,6.882731438E0,-6.865373254E-1
4.347642840E-1,1.214458847E1,6.935403824E0,-6.865373254E-1
4.372522000E-1,1.230739403E1,6.997653008E0,-6.769605279E-1
4.397401170E-1,1.243668079E1,7.045536995E0,-6.482301354E-1
4.422280340E-1,1.254681396E1,7.079055786E0,-6.099228859E-1
4.447159500E-1,1.265215874E1,7.146093369E0,-5.572504401E-1
4.472038670E-1,1.272877312E1,7.184400558E0,-5.237316489E-1
4.496917840E-1,1.280059910E1,7.227496147E0,-4.566939771E-1
4.521797000E-1,1.287721348E1,7.256227016E0,-4.135983288E-1
4.546676170E-1,1.292030907E1,7.289745808E0,-3.800795078E-1
4.571555340E-1,1.294425106E1,7.328052998E0,-3.130418658E-1
4.596434500E-1,1.296340466E1,7.332841396E0,-2.507926226E-1
4.621313670E-1,1.298255825E1,7.385513783E0,-1.885433793E-1
4.646192840E-1,1.299213505E1,7.419032574E0,-9.756372124E-2
4.671072000E-1,1.296819305E1,7.447762966E0,-1.616086066E-2
4.695951170E-1,1.293467426E1,7.471704960E0,5.566519126E-2
4.720830340E-1,1.289636707E1,7.500435352E0,1.274912357E-1
4.745709500E-1,1.283411789E1,7.514800549E0,1.993172914E-1
4.770588670E-1,1.274792671E1,7.519588947E0,2.759317458E-1
4.795467840E-1,1.263300514E1,7.514800549E0,3.429693878E-1
4.820347000E-1,1.253244877E1,7.510012150E0,4.243722558E-1
4.845226170E-1,1.243189240E1,7.514800549E0,4.961982965E-1
4.870105340E-1,1.235048962E1,7.514800549E0,5.823895931E-1
4.894984500E-1,1.230260563E1,7.500435352E0,6.542156339E-1
4.919863670E-1,1.226429844E1,7.466916561E0,7.068880796E-1
4.944742840E-1,1.224993324E1,7.423820972E0,7.643488646E-1
4.969622000E-1,1.222120285E1,7.356783390E0,8.026561141E-1
4.994501170E-1,1.217810726E1,7.299322605E0,8.265981078E-1
5.019380340E-1,1.216374207E1,7.198765755E0,8.361749649E-1
5.044259500E-1,1.217331886E1,7.098209381E0,8.218097091E-1
5.069138670E-1,1.218768406E1,7.007229805E0,7.882909179E-1
5.094017840E-1,1.219726086E1,6.887519836E0,7.739257216E-1
5.118897000E-1,1.221162605E1,6.786963463E0,7.164648771E-1
5.143776170E-1,1.222120285E1,6.652887821E0,6.733692288E-1
5.168655340E-1,1.223077965E1,6.537966251E0,6.398503780E-1
5.193534500E-1,1.224993324E1,6.456563473E0,6.111199856E-1
5.218413670E-1,1.227387524E1,6.375160694E0,5.728127360E-1
5.243292840E-1,1.227866364E1,6.308123112E0,5.440823436E-1
5.268172000E-1,1.228345203E1,6.245873451E0,5.009866953E-1
5.293051170E-1,1.230260563E1,6.202777863E0,4.531026781E-1
5.317930340E-1,1.231697083E1,6.178835869E0,3.860650361E-1
5.342809500E-1,1.230739403E1,6.135740280E0,2.950853705E-1
5.367688670E-1,1.228824043E1,6.073491096E0,1.993172914E-1
5.392567840E-1,1.226429844E1,6.020818710E0,7.960720360E-2
5.417447000E-1,1.225472164E1,5.982511520E0,-2.094926499E-2
5.442326170E-1,1.226429844E1,5.953781128E0,-1.406593472E-1
5.467205340E-1,1.227387524E1,5.953781128E0,-2.507926226E-1
5.492084500E-1,1.226908684E1,5.972934723E0,-3.800795078E-1
5.516964190E-1,1.224993324E1,5.968146324E0,-4.902127981E-1
5.541843880E-1,1.221162605E1,5.982511520E0,-6.051344872E-1
5.566723570E-1,1.214937687E1,6.025607109E0,-7.248445749E-1
5.591603250E-1,1.207755089E1,6.078279495E0,-8.254010081E-1
5.616482940E-1,1.196741676E1,6.121375084E0,-9.307458997E-1
5.641362630E-1,1.183813000E1,6.169259071E0,-9.882067442E-1
5.666242320E-1,1.169926643E1,6.241085052E0,-1.055244446E0
5.691122000E-1,1.153646088E1,6.303334713E0,-1.141435623E0
5.716001690E-1,1.133534813E1,6.384737492E0,-1.198896527E0
5.740881380E-1,1.112944698E1,6.456563473E0,-1.285087705E0
5.765761070E-1,1.092354488E1,6.494870663E0,-1.366490602E0
5.790640750E-1,1.076073933E1,6.518812656E0,-1.433528304E0
5.815520440E-1,1.063624096E1,6.504447460E0,-1.495777488E0
5.840400130E-1,1.052610779E1,6.451775074E0,-1.548449993E0
5.865279820E-1,1.046385860E1,6.427833080E0,-1.601122379E0
5.890159500E-1,1.039203262E1,6.399102688E0,-1.653794765E0
5.915039190E-1,1.032499504E1,6.365583897E0,-1.725620866E0
5.939918880E-1,1.027232265E1,6.336853504E0,-1.763928056E0
5.964798570E-1,1.024838066E1,6.298546314E0,-1.816600561E0
5.989678250E-1,1.023401546E1,6.226719856E0,-1.878849745E0
6.014557940E-1,1.020528507E1,6.145317078E0,-1.912368655E0
6.039437630E-1,1.019570827E1,6.054337502E0,-1.921945453E0
6.064317320E-1,1.019091988E1,5.953781128E0,-1.921945453E0
6.089197000E-1,1.020528507E1,5.858013153E0,-1.907580256E0
6.114076690E-1,1.023880386E1,5.771821976E0,-1.854907751E0
6.138956380E-1,1.028668785E1,5.661688328E0,-1.783081770E0
6.163836070E-1,1.033457184E1,5.594650745E0,-1.730409265E0
6.188715750E-1,1.040160942E1,5.494094372E0,-1.658583283E0
6.213595440E-1,1.046864700E1,5.403114796E0,-1.586757183E0
6.238475130E-1,1.052610779E1,5.336077213E0,-1.519719481E0
6.263354820E-1,1.059314537E1,5.273828030E0,-1.438316703E0
6.288234500E-1,1.065539455E1,5.192424774E0,-1.380855799E0
6.313114190E-1,1.067933655E1,5.115810394E0,-1.332971811E0
6.337993880E-1,1.073200893E1,5.043984413E0,-1.285087705E0
6.362873570E-1,1.080862331E1,5.000888824E0,-1.256357312E0
6.387753250E-1,1.089481449E1,4.953004837E0,-1.189319730E0
6.412632940E-1,1.098579407E1,4.943428040E0,-1.107916832E0
6.437512630E-1,1.105762100E1,4.953004837E0,-1.026513934E0
6.462392320E-1,1.108156300E1,4.953004837E0,-9.355342984E-1
6.487272000E-1,1.103367901E1,4.976946831E0,-8.158242106E-1
6.512151690E-1,1.094269848E1,4.996100426E0,-6.961141229E-1
6.537031380E-1,1.081341171E1,5.020042419E0,-5.811924338E-1
6.561911070E-1,1.066018295E1,5.072714806E0,-4.471171796E-1
6.586790750E-1,1.050216579E1,5.087080002E0,-3.274070919E-1
6.611670440E-1,1.031062984E1,5.134963989E0,-2.076970041E-1
6.636550130E-1,1.013345909E1,5.187636375E0,-9.756372124E-2
6.661429820E-1,9.956287384E0,5.245097160E0,-1.795651275E-3
6.686309500E-1,9.827000618E0,5.288193226E0,6.045359373E-2
6.711188670E-1,9.673771858E0,5.316923618E0,1.131260321E-1
6.736067840E-1,9.539696693E0,5.312135220E0,1.322796494E-1
6.760947000E-1,9.400833130E0,5.297770023E0,1.370680481E-1
6.785826170E-1,9.314641953E0,5.288193226E0,1.035492271E-1
6.810705340E-1,9.209297180E0,5.259462357E0,8.439560980E-2
6.835584500E-1,9.113529205E0,5.254673958E0,3.172317147E-2
6.860463670E-1,8.998606682E0,5.269039154E0,-1.795651275E-3
6.885342840E-1,8.926780701E0,5.292981625E0,-3.052607179E-2
6.910230340E-1,8.835801125E0,5.307346821E0,-6.404489279E-2
6.935103250E-1,8.763975143E0,5.364807606E0,-7.841010392E-2
6.959976170E-1,8.672995567E0,5.422268391E0,-8.319851011E-2
6.984849610E-1,8.582015991E0,5.484517574E0,-1.071405262E-1
7.009723570E-1,8.519766808E0,5.561131954E0,-1.598129570E-1
7.034598050E-1,8.443152428E0,5.599439144E0,-2.412158251E-1
7.059473570E-1,8.366538048E0,5.642534733E0,-2.890998423E-1
7.084350130E-1,8.304288864E0,5.695207119E0,-3.369838893E-1
7.109227730E-1,8.261193275E0,5.733514309E0,-3.992331326E-1
7.134106380E-1,8.261193275E0,5.771821976E0,-4.902127981E-1
7.158986070E-1,8.313865662E0,5.800552368E0,-5.811924338E-1
7.183866800E-1,8.323442459E0,5.843647957E0,-6.578069329E-1
7.208748570E-1,8.342596054E0,5.886743546E0,-7.392097712E-1
7.233631380E-1,8.347384453E0,5.925050735E0,-8.206126094E-1
7.258514710E-1,8.333019257E0,5.920262337E0,-8.828618526E-1
7.283398570E-1,8.275558472E0,5.920262337E0,-9.546879530E-1
7.308282420E-1,8.175002098E0,5.901108742E0,-1.007360339E0
7.333166270E-1,8.060079575E0,5.905897141E0,-1.026513934E0
7.358050130E-1,7.930793285E0,5.968146324E0,-1.036090732E0
7.382932420E-1,7.801506042E0,6.030395508E0,-1.074398041E0
7.407812110E-1,7.662642479E0,6.087856293E0,-1.103128433E0
7.432691270E-1,7.518990517E0,6.126163483E0,-1.079186440E0
7.457570440E-1,7.370550156E0,6.154893875E0,-1.079186440E0
7.482449610E-1,7.222109318E0,6.140528679E0,-1.074398041E0
7.507328770E-1,7.111976147E0,6.130951881E0,-1.060032845E0
7.532207940E-1,7.001842976E0,6.087856293E0,-1.045667648E0
7.557087110E-1,6.915651798E0,6.030395508E0,-1.016937137E0
7.581966270E-1,6.810306549E0,5.953781128E0,-9.546879530E-1
7.606845440E-1,6.743268967E0,5.877166748E0,-8.780734539E-1
7.631724610E-1,6.704961777E0,5.790975571E0,-7.775170207E-1
7.656603770E-1,6.676231384E0,5.690418720E0,-6.338648796E-1
7.681482940E-1,6.690596581E0,5.561131954E0,-5.093663931E-1
7.706362110E-1,6.752845764E0,5.431845188E0,-4.088099301E-1
7.731241270E-1,6.839036942E0,5.292981625E0,-2.843114436E-1
7.756120440E-1,6.930016994E0,5.154117584E0,-2.076970041E-1
7.780999610E-1,7.020996571E0,5.039196014E0,-1.598129570E-1
7.805878770E-1,7.131129742E0,4.890755653E0,-9.756372124E-2
7.830757940E-1,7.241262913E0,4.756680012E0,-3.052607179E-2
7.855637110E-1,7.346607685E0,4.646546841E0,-1.795651275E-3
7.880516270E-1,7.447164536E0,4.536413670E0,1.256955881E-2
7.905395440E-1,7.566874504E0,4.416703701E0,-3.531447425E-2
7.930274610E-1,7.667430878E0,4.311358929E0,-1.406593472E-1
7.955153770E-1,7.763198853E0,4.244320869E0,-2.699462473E-1
7.980032940E-1,7.825448036E0,4.206013680E0,-4.088099301E-1
8.004912110E-1,7.839813232E0,4.182071686E0,-5.428852439E-1
8.029791270E-1,7.782352448E0,4.172494888E0,-7.056909800E-1
8.054670440E-1,7.662642479E0,4.177283287E0,-8.397662640E-1
8.079549610E-1,7.523778915E0,4.196436882E0,-9.642647505E-1
8.104428770E-1,7.418434143E0,4.206013680E0,-1.088763237E0
8.129307940E-1,7.317877293E0,4.229955673E0,-1.218050122E0
8.154187110E-1,7.250839710E0,4.244320869E0,-1.347337008E0
8.179066270E-1,7.222109318E0,4.253897667E0,-1.467047095E0
8.203945440E-1,7.217320919E0,4.234744072E0,-1.577180386E0
8.228824610E-1,7.222109318E0,4.210802078E0,-1.682525277E0
8.253703770E-1,7.217320919E0,4.162918091E0,-1.768716455E0
8.278582940E-1,7.217320919E0,4.091092110E0,-1.850119352E0
8.303462110E-1,7.183802128E0,4.014477730E0,-1.912368655E0
8.328341270E-1,7.155071735E0,3.957016945E0,-1.960252643E0
8.353220440E-1,7.107187748E0,3.889979124E0,-2.003348351E0
8.378099610E-1,7.054515362E0,3.822941542E0,-2.017713547E0
8.402978770E-1,7.001842976E0,3.794211149E0,-1.993771434E0
8.427857940E-1,6.930016994E0,3.760692358E0,-1.950675845E0
8.452737110E-1,6.858190536E0,3.731961966E0,-1.850119352E0
8.477616270E-1,6.786364555E0,3.717596769E0,-1.754351258E0
8.502495440E-1,6.748057365E0,3.688866377E0,-1.625064373E0
8.527374610E-1,6.709750175E0,3.645770550E0,-1.510142684E0
8.552253770E-1,6.676231384E0,3.612251759E0,-1.428739905E0
8.577132940E-1,6.685808182E0,3.583521366E0,-1.304241419E0
8.602012110E-1,6.709750175E0,3.535637379E0,-1.203684926E0
8.626891270E-1,6.728903770E0,3.487753391E0,-1.136647224E0
8.651770440E-1,6.791152954E0,3.444657803E0,-1.074398041E0
8.676649610E-1,6.862978935E0,3.406350374E0,-1.012148738E0
8.701528770E-1,6.930016994E0,3.339312792E0,-9.546879530E-1
8.726407940E-1,7.054515362E0,3.291428804E0,-8.780734539E-1
8.751287110E-1,7.202955723E0,3.233968019E0,-8.014590144E-1
8.776166270E-1,7.380126953E0,3.152565002E0,-7.200561762E-1
8.801045440E-1,7.557297707E0,3.085527420E0,-6.194996834E-1
8.825925130E-1,7.715314865E0,3.037643433E0,-5.476736426E-1
8.850804820E-1,7.835024834E0,3.013701439E0,-4.950011969E-1
8.875684500E-1,7.945158482E0,2.965817451E0,-4.423287511E-1
8.900564190E-1,8.074444771E0,2.927510023E0,-3.896563351E-1
8.925443880E-1,8.208520889E0,2.898779631E0,-3.992331326E-1
8.950323570E-1,8.289923668E0,2.870049238E0,-4.183867574E-1
8.975203250E-1,8.328230858E0,2.826953650E0,-4.806360006E-1
9.000082940E-1,8.304288864E0,2.803011656E0,-5.572504401E-1
9.024962630E-1,8.232462883E0,2.764704466E0,-6.099228859E-1
9.049842320E-1,8.112752914E0,2.779069662E0,-6.578069329E-1
9.074722000E-1,7.954735279E0,2.807800055E0,-6.865373254E-1
9.099601690E-1,7.763198853E0,2.893991232E0,-6.961141229E-1
9.124481380E-1,7.552509308E0,2.970605850E0,-7.056909800E-1
9.149361070E-1,7.341819286E0,3.037643433E0,-7.056909800E-1
9.174240750E-1,7.159860134E0,3.095104218E0,-6.817489266E-1
9.199120440E-1,6.997054577E0,3.119046211E0,-6.865373254E-1
9.224000130E-1,6.829460144E0,3.147776604E0,-6.817489266E-1
9.248879820E-1,6.714538574E0,3.142988205E0,-6.434416771E-1
9.273759500E-1,6.637924194E0,3.138199806E0,-6.817489266E-1
9.298639190E-1,6.546944618E0,3.142988205E0,-7.200561762E-1
9.323518880E-1,6.489483833E0,3.147776604E0,-7.152677774E-1
9.348398570E-1,6.470330238E0,3.171718597E0,-6.961141229E-1
9.373278250E-1,6.513425827E0,3.166930199E0,-7.200561762E-1
9.398157940E-1,6.628347397E0,3.128623009E0,-7.583633661E-1
9.423037630E-1,6.791152954E0,3.099892616E0,-8.206126094E-1
9.447917320E-1,6.939593792E0,3.037643433E0,-9.163807034E-1
9.472797000E-1,7.102399349E0,2.975394249E0,-1.040879130E0
9.497676690E-1,7.265204906E0,2.898779631E0,-1.122282028E0
9.522556380E-1,7.432799339E0,2.817376852E0,-1.203684926E0
9.547436070E-1,7.600393295E0,2.759916067E0,-1.251568913E0
9.572315750E-1,7.767987251E0,2.750339270E0,-1.280299306E0
9.597195440E-1,7.878120899E0,2.721608877E0,-1.285087705E0
9.622075130E-1,7.969100475E0,2.721608877E0,-1.280299306E0
9.646954820E-1,8.026560783E0,2.731185675E0,-1.265934110E0
9.671834500E-1,8.093599319E0,2.712032080E0,-1.256357312E0
9.696714190E-1,8.112752914E0,2.688089848E0,-1.270722508E0
9.721593880E-1,8.103176117E0,2.668936253E0,-1.285087705E0
9.746473570E-1,8.093599319E0,2.659359455E0,-1.270722508E0
9.771353250E-1,8.084021568E0,2.664147854E0,-1.261145711E0
9.796232940E-1,8.040925980E0,2.668936253E0,-1.227626920E0
9.821112630E-1,8.002618790E0,2.697666883E0,-1.160589218E0
9.845992320E-1,7.959523678E0,2.716820478E0,-1.098340034E0
9.870871480E-1,7.921216488E0,2.707243681E0,-1.074398041E0
9.895750650E-1,7.878120899E0,2.716820478E0,-1.060032845E0
9.920629820E-1,7.830236435E0,2.740762472E0,-1.060032845E0
9.945508980E-1,7.758410454E0,2.788646460E0,-1.079186440E0
9.970388150E-1,7.662642479E0,2.874837637E0,-1.122282028E0
9.995267320E-1,7.523778915E0,2.951452255E0,-1.160589218E0
1.002014648E0,7.375338554E0,3.047220230E0,-1.184531331E0
1.004502565E0,7.265204906E0,3.114257812E0,-1.241992116E0
1.006990482E0,7.145494938E0,3.195660830E0,-1.265934110E0
1.009478398E0,7.078457355E0,3.272275209E0,-1.294664621E0
1.011966315E0,7.030573368E0,3.344101191E0,-1.342548609E0
1.014454232E0,6.987477779E0,3.401561975E0,-1.380855799E0
1.016942148E0,6.977900982E0,3.454234600E0,-1.409586191E0
1.019430065E0,6.968324184E0,3.535637379E0,-1.467047095E0
1.021917982E0,6.953958988E0,3.621828556E0,-1.529296279E0
1.024405898E0,6.925228596E0,3.708019972E0,-1.581968784E0
1.026893815E0,6.906075001E0,3.798999548E0,-1.581968784E0
1.029381732E0,6.934805393E0,3.870825529E0,-1.553238392E0
1.031869648E0,6.987477779E0,3.918709517E0,-1.500565886E0
1.034357565E0,7.059303761E0,3.947440147E0,-1.433528304E0
1.036845482E0,7.164648533E0,3.980958939E0,-1.347337008E0
1.039333398E0,7.269993305E0,3.990535736E0,-1.289876223E0
1.041821315E0,7.346607685E0,3.995324135E0,-1.251568913E0
1.044309232E0,7.404068947E0,3.980958939E0,-1.198896527E0
1.046797148E0,7.471106529E0,3.957016945E0,-1.203684926E0
1.049285065E0,7.504625320E0,3.904344320E0,-1.218050122E0
1.051772982E0,7.562086105E0,3.851671934E0,-1.256357312E0
1.054260898E0,7.609970093E0,3.779845953E0,-1.294664621E0
1.056748815E0,7.657854080E0,3.703231573E0,-1.361702204E0
1.059236732E0,7.696161270E0,3.617040157E0,-1.452681899E0
1.061724648E0,7.744045258E0,3.545214176E0,-1.538873196E0
1.064212565E0,7.796717644E0,3.459022999E0,-1.625064373E0
1.066700482E0,7.868544102E0,3.391985178E0,-1.744774461E0
1.069188398E0,7.930793285E0,3.320159197E0,-1.898003340E0
1.071676315E0,8.002618790E0,3.277063608E0,-2.070385933E0
1.074164232E0,8.045714378E0,3.233968019E0,-2.218826532E0
1.076652148E0,8.036137581E0,3.214814425E0,-2.357690096E0
1.079140065E0,7.964312077E0,3.214814425E0,-2.491765499E0
1.081627982E0,7.878120899E0,3.253121614E0,-2.592321873E0
1.084115898E0,7.772775650E0,3.296217203E0,-2.678513050E0
1.086603815E0,7.633912086E0,3.334524393E0,-2.721608877E0
1.089091732E0,7.495048523E0,3.391985178E0,-2.745550871E0
1.091579648E0,7.399280548E0,3.444657803E0,-2.726397276E0
1.094067565E0,7.317877293E0,3.506906986E0,-2.688089848E0
1.096555482E0,7.250839710E0,3.607463360E0,-2.644994259E0
1.099043398E0,7.241262913E0,3.703231573E0,-2.597110271E0
1.101531315E0,7.222109318E0,3.779845953E0,-2.563591480E0
1.104019232E0,7.188590527E0,3.856460333E0,-2.534861088E0
1.106507148E0,7.179013729E0,3.889979124E0,-2.506130695E0
1.108995065E0,7.188590527E0,3.913921118E0,-2.439092875E0
1.111482982E0,7.198167324E0,3.942651749E0,-2.367266893E0
1.113970898E0,7.207744122E0,3.966593742E0,-2.309806108E0
1.116458815E0,7.241262913E0,3.990535736E0,-2.271498919E0
1.118946732E0,7.289146900E0,4.004900932E0,-2.237980127E0
1.121434648E0,7.384915352E0,4.004900932E0,-2.223614931E0
1.123922565E0,7.480683327E0,3.995324135E0,-2.218826532E0
1.126410482E0,7.609970093E0,3.990535736E0,-2.257133722E0
1.128898398E0,7.720103264E0,3.995324135E0,-2.305017710E0
1.131386315E0,7.796717644E0,3.966593742E0,-2.395997286E0
1.133874232E0,7.873332500E0,3.933074951E0,-2.506130695E0
1.136362148E0,7.930793285E0,3.913921118E0,-2.582745075E0
1.138850065E0,7.954735279E0,3.885190725E0,-2.649782658E0
1.141337982E0,7.959523678E0,3.842095137E0,-2.697666883E0
1.143825898E0,7.959523678E0,3.798999548E0,-2.726397276E0
1.146313815E0,7.964312077E0,3.765480757E0,-2.740762472E0
1.148801784E0,8.026560783E0,3.698443174E0,-2.755127668E0
1.151289752E0,8.117541313E0,3.645770550E0,-2.788646460E0
1.153777721E0,8.179790497E0,3.612251759E0,-2.793434858E0
1.156265690E0,8.218097687E0,3.593098164E0,-2.841318846E0
1.158753659E0,8.213309288E0,3.588309765E0,-2.860472441E0
1.161241627E0,8.179790497E0,3.588309765E0,-2.913144827E0
1.163729596E0,8.127118111E0,3.588309765E0,-2.932298422E0
1.166217565E0,8.050502777E0,3.573944569E0,-2.965817451E0
1.168705534E0,7.964312077E0,3.550002575E0,-2.994547844E0
1.171193502E0,7.911639690E0,3.535637379E0,-2.970605850E0
1.173681471E0,7.858967304E0,3.530848980E0,-2.941875219E0
1.176169440E0,7.849390507E0,3.530848980E0,-2.922721624E0
1.178657409E0,7.835024834E0,3.554790974E0,-2.874837637E0
1.181145377E0,7.839813232E0,3.607463360E0,-2.855684042E0
1.183633346E0,7.825448036E0,3.684077978E0,-2.850895643E0
1.186121315E0,7.777564049E0,3.765480757E0,-2.841318846E0
1.188609284E0,7.710526466E0,3.851671934E0,-2.855684042E0
1.191097721E0,7.657854080E0,3.933074951E0,-2.893991232E0
1.193585846E0,7.590816498E0,3.976170540E0,-2.961029053E0
1.196073815E0,7.518990517E0,4.024054527E0,-3.008913040E0
1.198561732E0,7.442376137E0,4.076726913E0,-3.052008629E0
1.201049648E0,7.365761757E0,4.134187698E0,-3.085527420E0
1.203537565E0,7.274781704E0,4.206013680E0,-3.114257812E0
1.206025482E0,7.222109318E0,4.249109268E0,-3.162141800E0
1.208513398E0,7.135918140E0,4.292205334E0,-3.224391222E0
1.211001315E0,7.035361767E0,4.340089321E0,-3.320159197E0
1.213489232E0,6.987477779E0,4.359242916E0,-3.315370798E0
1.215977148E0,6.949170589E0,4.383184910E0,-3.310582399E0
1.218465065E0,6.915651798E0,4.354454517E0,-3.329735994E0
1.220952982E0,6.906075001E0,4.320935726E0,-3.329735994E0
1.223440898E0,6.930016994E0,4.273051262E0,-3.315370798E0
1.225928815E0,6.992266178E0,4.234744072E0,-3.315370798E0
1.228416732E0,7.064092159E0,4.220378876E0,-3.301005602E0
1.230904648E0,7.164648533E0,4.196436882E0,-3.305794001E0
1.233392565E0,7.279570103E0,4.177283287E0,-3.315370798E0
1.235880482E0,7.404068947E0,4.158129692E0,-3.339312792E0
1.238368398E0,7.523778915E0,4.105457306E0,-3.372831583E0
1.240856315E0,7.595604897E0,4.047996521E0,-3.425503969E0
1.243344232E0,7.657854080E0,3.971382141E0,-3.516483784E0
1.245832148E0,7.705738068E0,3.875613928E0,-3.593098164E0
1.248320065E0,7.767987251E0,3.770269156E0,-3.640982151E0
1.250807982E0,7.858967304E0,3.693654776E0,-3.703231573E0
1.253295898E0,7.959523678E0,3.621828556E0,-3.760692358E0
1.255783815E0,8.098387718E0,3.550002575E0,-3.818153143E0
1.258271732E0,8.261193275E0,3.482964993E0,-3.909132719E0
1.260759648E0,8.419210434E0,3.439869404E0,-4.000112534E0
1.263247565E0,8.586804390E0,3.368043184E0,-4.067150116E0
1.265735482E0,8.749609947E0,3.296217203E0,-4.129399300E0
1.268223398E0,8.926780701E0,3.205237627E0,-4.206013680E0
1.270711315E0,9.065644264E0,3.133411407E0,-4.287416458E0
1.273199232E0,9.151836395E0,3.075950623E0,-4.354454517E0
1.275687148E0,9.199720383E0,3.028066635E0,-4.392761707E0
1.278175065E0,9.204508781E0,2.999336243E0,-4.407126904E0
1.280662982E0,9.166201591E0,2.961029053E0,-4.411915302E0
1.283150898E0,9.127894402E0,2.956240654E0,-4.378396511E0
1.285638815E0,9.070432663E0,2.951452255E0,-4.340089321E0
1.288126732E0,9.008183479E0,2.980182648E0,-4.344877720E0
1.290614648E0,8.974664688E0,3.018489838E0,-4.397550106E0
1.293102565E0,8.945934296E0,3.042431831E0,-4.474164486E0
1.295590482E0,8.926780701E0,3.056797028E0,-4.589086056E0
1.298078398E0,8.921992302E0,3.032855034E0,-4.718372822E0
1.300566315E0,8.907627106E0,3.004124641E0,-4.818929672E0
1.303054232E0,8.874108315E0,2.970605850E0,-4.909909248E0
1.305542148E0,8.835801125E0,2.956240654E0,-4.938639641E0
1.308030065E0,8.826224327E0,2.975394249E0,-4.948216438E0
1.310517982E0,8.821435928E0,3.008913040E0,-4.909909248E0
1.313005898E0,8.778340340E0,3.052008629E0,-4.818929672E0
1.315493815E0,8.749609947E0,3.052008629E0,-4.708796024E0
1.317981732E0,8.701725960E0,3.071162224E0,-4.522048473E0
1.320469648E0,8.663418770E0,3.056797028E0,-4.335300922E0
1.322957565E0,8.677783966E0,3.066373825E0,-4.119822502E0
1.325445482E0,8.696937561E0,3.075950623E0,-3.947440147E0
1.327933398E0,8.725667953E0,3.109469414E0,-3.798999548E0
1.330421315E0,8.735244751E0,3.190872431E0,-3.664924145E0
1.332909232E0,8.701725960E0,3.310582399E0,-3.564367771E0
1.335397148E0,8.663418770E0,3.406350374E0,-3.473388195E0
1.337885065E0,8.625111580E0,3.463811398E0,-3.396773577E0
1.340372982E0,8.605957985E0,3.502118587E0,-3.339312792E0
1.342860898E0,8.582015991E0,3.540425777E0,-3.305794001E0
1.345348815E0,8.586804390E0,3.593098164E0,-3.310582399E0
1.347836732E0,8.582015991E0,3.708019972E0,-3.334524393E0
1.350324648E0,8.543708801E0,3.842095137E0,-3.401561975E0
1.352812565E0,8.491036415E0,3.985747337E0,-3.454234600E0
1.355300482E0,8.395268440E0,4.115034103E0,-3.487753391E0
1.357788398E0,8.285135269E0,4.258686066E0,-3.463811398E0
1.360276315E0,8.194155693E0,4.407126904E0,-3.497330189E0
1.362764232E0,8.093599319E0,4.536413670E0,-3.530848980E0
1.365252148E0,7.964312077E0,4.704007626E0,-3.612251759E0
1.367740065E0,7.796717644E0,4.847660065E0,-3.708019972E0
1.370227982E0,7.576451302E0,4.986523628E0,-3.760692358E0
1.372715898E0,7.327454090E0,5.106233597E0,-3.813364744E0
1.375203815E0,7.097610950E0,5.216366768E0,-3.827729940E0
1.377691784E0,6.853402138E0,5.288193226E0,-3.813364744E0
1.380179752E0,6.657077789E0,5.360019207E0,-3.832518339E0
1.382667721E0,6.465541840E0,5.374384403E0,-3.870825529E0
1.385155690E0,6.274005413E0,5.355230808E0,-3.923498154E0
1.387643659E0,6.082469463E0,5.321712017E0,-3.937863350E0
1.390131627E0,5.919663906E0,5.249885559E0,-3.937863350E0
1.392619596E0,5.756857872E0,5.163694382E0,-3.894767523E0
1.395107565E0,5.665878296E0,5.048772812E0,-3.822941542E0
1.397595534E0,5.622782707E0,4.909909248E0,-3.708019972E0
1.400083502E0,5.613205910E0,4.804564476E0,-3.602674961E0
1.402571471E0,5.608417511E0,4.732738018E0,-3.463811398E0
1.405059440E0,5.632359505E0,4.636970043E0,-3.348889589E0
1.407547409E0,5.665878296E0,4.507683277E0,-3.262698412E0
1.410035377E0,5.713762283E0,4.330512524E0,-3.229179621E0
1.412523346E0,5.756857872E0,4.148552895E0,-3.195660830E0
1.415011315E0,5.799953461E0,3.957016945E0,-3.142988205E0
1.417499284E0,5.843049049E0,3.741538763E0,-3.090315819E0
1.419987252E0,5.929240704E0,3.516483784E0,-3.023278236E0
1.422475221E0,6.034585476E0,3.315370798E0,-2.932298422E0
1.424963190E0,6.149507046E0,3.186083794E0,-2.817376852E0
1.427451159E0,6.283582211E0,3.090315819E0,-2.640205860E0
1.429939127E0,6.403292656E0,3.004124641E0,-2.439092875E0
1.432427096E0,6.523002625E0,2.946663857E0,-2.214038134E0
1.434915065E0,6.623558998E0,2.937086821E0,-2.008136749E0
1.437403034E0,6.661866188E0,2.975394249E0,-1.835754156E0
1.439891002E0,6.623558998E0,3.056797028E0,-1.677736878E0
1.442378971E0,6.475118637E0,3.157353401E0,-1.567603588E0
1.444866940E0,6.274005413E0,3.233968019E0,-1.500565886E0
1.447354909E0,6.082469463E0,3.277063608E0,-1.438316703E0
1.449842877E0,5.929240704E0,3.272275209E0,-1.419163108E0
1.452330846E0,5.776011467E0,3.257910013E0,-1.419163108E0
1.454818815E0,5.685031891E0,3.320159197E0,-1.481412292E0
1.457306784E0,5.608417511E0,3.415927172E0,-1.572391987E0
1.459794752E0,5.570110321E0,3.535637379E0,-1.763928056E0
1.462282721E0,5.522226334E0,3.669712543E0,-2.017713547E0
1.464770690E0,5.464765549E0,3.784634352E0,-2.314594507E0
1.467258607E0,5.354631901E0,3.851671934E0,-2.673724651E0
1.469746523E0,5.297171116E0,3.827729940E0,-3.099892616E0
1.472234440E0,5.234921932E0,3.784634352E0,-3.511695385E0
1.474722357E0,5.187037945E0,3.755903959E0,-3.899555922E0
1.477210273E0,5.158307552E0,3.770269156E0,-4.258686066E0
1.479698190E0,5.177461147E0,3.794211149E0,-4.565144062E0
1.482186107E0,5.187037945E0,3.813364744E0,-4.804564476E0
1.484674023E0,5.215768337E0,3.798999548E0,-4.996100426E0
1.487161940E0,5.215768337E0,3.751115561E0,-5.120598793E0
1.489649857E0,5.225345135E0,3.717596769E0,-5.202001572E0
1.492137773E0,5.254075527E0,3.703231573E0,-5.245097160E0
1.494625690E0,5.258863926E0,3.698443174E0,-5.259462357E0
1.497113607E0,5.278017521E0,3.693654776E0,-5.292981625E0
1.499601523E0,5.292382717E0,3.703231573E0,-5.316923618E0
1.502089440E0,5.335478306E0,3.669712543E0,-5.312135220E0
1.504577357E0,5.378573895E0,3.660135746E0,-5.321712017E0
1.507065273E0,5.407304764E0,3.664924145E0,-5.307346821E0
1.509553190E0,5.416881561E0,3.684077978E0,-5.273828030E0
1.512041107E0,5.392939091E0,3.746327162E0,-5.302558422E0
1.514529023E0,5.368997097E0,3.803787947E0,-5.350442410E0
1.517016940E0,5.368997097E0,3.866037130E0,-5.412691593E0
1.519504857E0,5.364208698E0,3.918709517E0,-5.446210384E0
1.521992773E0,5.383362293E0,4.000112534E0,-5.460575581E0
1.524481159E0,5.431246758E0,4.095880508E0,-5.441421986E0
1.526969023E0,5.474342346E0,4.196436882E0,-5.403114796E0
1.529456888E0,5.536591530E0,4.311358929E0,-5.312135220E0
1.531944752E0,5.608417511E0,4.416703701E0,-5.230731964E0
1.534432617E0,5.675455093E0,4.536413670E0,-5.130175591E0
1.536920482E0,5.728127480E0,4.641758442E0,-5.015254021E0
1.539408346E0,5.790376663E0,4.727949619E0,-4.914697647E0
1.541896211E0,5.866991043E0,4.794987679E0,-4.823718071E0
1.544384075E0,5.934029102E0,4.828506470E0,-4.766256809E0
1.546871940E0,5.996278286E0,4.866813660E0,-4.737526417E0
1.549359805E0,6.058527470E0,4.890755653E0,-4.718372822E0
1.551847669E0,6.135141850E0,4.909909248E0,-4.727949619E0
1.554335534E0,6.206967831E0,4.929062843E0,-4.708796024E0
1.556823398E0,6.254851818E0,4.986523628E0,-4.680065632E0
1.559311263E0,6.278793812E0,5.072714806E0,-4.694430828E0
1.561799127E0,6.283582211E0,5.091868401E0,-4.713584423E0
1.564286992E0,6.250063419E0,5.096656799E0,-4.766256809E0
1.566774857E0,6.245275021E0,5.106233597E0,-4.838083267E0
1.569262721E0,6.264428616E0,5.091868401E0,-4.905120850E0
1.571750586E0,6.259640217E0,5.067926407E0,-5.005677223E0
1.574238450E0,6.221333027E0,5.063138008E0,-5.077503204E0
1.576726367E0,6.163872242E0,5.091868401E0,-5.178059578E0
1.579214336E0,6.096834660E0,5.125387192E0,-5.259462357E0
1.581702305E0,6.020220280E0,5.130175591E0,-5.388749599E0
1.584190273E0,6.001066685E0,5.134963989E0,-5.513247967E0
1.586678242E0,5.972336292E0,5.163694382E0,-5.647323132E0
1.589166211E0,5.953182697E0,5.158905983E0,-5.810129166E0
1.591654180E0,5.934029102E0,5.111021996E0,-5.996876717E0
1.594142148E0,5.929240704E0,5.024830818E0,-6.212354660E0
1.596630117E0,5.962759495E0,4.933851242E0,-6.375160694E0
1.599118086E0,6.044162273E0,4.847660065E0,-6.533177853E0
1.601606055E0,6.163872242E0,4.766256809E0,-6.628945827E0
1.604094023E0,6.317101002E0,4.713584423E0,-6.691195011E0
1.606581992E0,6.417657852E0,4.699219227E0,-6.743867874E0
1.609069961E0,6.508637428E0,4.684854031E0,-6.791751862E0
1.611557930E0,6.580463409E0,4.665700436E0,-6.830059052E0
1.614045898E0,6.604405403E0,4.660912037E0,-6.839635849E0
1.616533867E0,6.623558998E0,4.627393246E0,-6.830059052E0
1.619021836E0,6.637924194E0,4.584297657E0,-6.791751862E0
1.621509805E0,6.676231384E0,4.541202068E0,-6.705560207E0
1.623997773E0,6.728903770E0,4.507683277E0,-6.595427036E0
1.626485742E0,6.805518150E0,4.478952885E0,-6.461351871E0
1.628973711E0,6.896498203E0,4.478952885E0,-6.288969517E0
1.631461680E0,6.963535786E0,4.474164486E0,-6.097433090E0
1.633949648E0,7.030573368E0,4.498106480E0,-5.905897141E0
1.636437617E0,7.064092159E0,4.531625271E0,-5.714360714E0
1.638925586E0,7.073668957E0,4.569932461E0,-5.508459568E0
1.641413555E0,7.088034153E0,4.608239651E0,-5.321712017E0
1.643901523E0,7.088034153E0,4.632181644E0,-5.144540787E0
1.646389492E0,7.078457355E0,4.646546841E0,-4.976946831E0
1.648877461E0,7.097610950E0,4.680065632E0,-4.871602058E0
1.651365430E0,7.135918140E0,4.704007626E0,-4.775833607E0
1.653853398E0,7.207744122E0,4.713584423E0,-4.684854031E0
1.656341367E0,7.246051311E0,4.718372822E0,-4.641758442E0
1.658829336E0,7.279570103E0,4.723161221E0,-4.622604847E0
1.661317305E0,7.293935299E0,4.694430828E0,-4.598662853E0
1.663805221E0,7.327454090E0,4.646546841E0,-4.569932461E0
1.666293138E0,7.370550156E0,4.613028049E0,-4.536413670E0
1.668781055E0,7.437587738E0,4.608239651E0,-4.493318081E0
1.671268971E0,7.490260124E0,4.589086056E0,-4.450222492E0
1.673756888E0,7.528567314E0,4.550778866E0,-4.407126904E0
1.676244805E0,7.518990517E0,4.512471676E0,-4.354454517E0
1.678732721E0,7.495048523E0,4.450222492E0,-4.277839661E0
1.681220638E0,7.480683327E0,4.373608112E0,-4.201225281E0
1.683708555E0,7.485471725E0,4.292205334E0,-4.067150116E0
1.686196471E0,7.499836922E0,4.225167274E0,-3.909132719E0
1.688684388E0,7.514202118E0,4.186860085E0,-3.712808371E0
1.691173034E0,7.552509308E0,4.153341293E0,-3.487753391E0
1.693660377E0,7.586028099E0,4.115034103E0,-3.301005602E0
1.696147721E0,7.629123688E0,4.091092110E0,-3.138199806E0
1.698635065E0,7.686584473E0,4.043208122E0,-2.999336243E0
1.701122461E0,7.748833656E0,3.985747337E0,-2.860472441E0
1.703609909E0,7.791929245E0,3.913921118E0,-2.688089848E0
1.706097461E0,7.830236435E0,3.846883535E0,-2.544437885E0
1.708585117E0,7.902062893E0,3.784634352E0,-2.357690096E0
1.711072877E0,7.983465672E0,3.722385168E0,-2.199672699E0
1.713560742E0,8.060079575E0,3.679289579E0,-2.060809135E0
1.716048711E0,8.131906509E0,3.660135746E0,-1.979406238E0
1.718536784E0,8.184578896E0,3.674500942E0,-1.945887446E0
1.721024961E0,8.232462883E0,3.712808371E0,-1.969829440E0
1.723513190E0,8.242039680E0,3.784634352E0,-2.022501945E0
1.726001471E0,8.232462883E0,3.832518339E0,-2.132635117E0
1.728489805E0,8.198944092E0,3.870825529E0,-2.285864115E0
1.730978138E0,8.155848503E0,3.933074951E0,-2.443881273E0
1.733466471E0,8.093599319E0,4.019266129E0,-2.597110271E0
1.735954805E0,8.021772385E0,4.134187698E0,-2.750339270E0
1.738443138E0,7.949946880E0,4.253897667E0,-2.913144827E0
1.740931055E0,7.873332500E0,4.378396511E0,-3.032855034E0
1.743418971E0,7.801506042E0,4.469376087E0,-3.171718597E0
1.745906888E0,7.748833656E0,4.536413670E0,-3.334524393E0
1.748394805E0,7.724891663E0,4.584297657E0,-3.478176594E0
1.750882721E0,7.696161270E0,4.603451252E0,-3.607463360E0
1.753370638E0,7.667430878E0,4.617816448E0,-3.712808371E0
1.755858555E0,7.643488884E0,4.617816448E0,-3.803787947E0
1.758346471E0,7.638700485E0,4.617816448E0,-3.885190725E0
1.760834388E0,7.629123688E0,4.622604847E0,-3.947440147E0
1.763322305E0,7.619546890E0,4.627393246E0,-3.971382141E0
1.765810221E0,7.566874504E0,4.627393246E0,-3.961805344E0
1.768298138E0,7.518990517E0,4.660912037E0,-3.933074951E0
1.770786055E0,7.432799339E0,4.680065632E0,-3.885190725E0
1.773273971E0,7.341819286E0,4.694430828E0,-3.885190725E0
1.775761888E0,7.222109318E0,4.718372822E0,-3.913921118E0
1.778249805E0,7.121552944E0,4.723161221E0,-3.971382141E0
1.780737721E0,7.016208172E0,4.718372822E0,-4.081515312E0
1.783225638E0,6.915651798E0,4.708796024E0,-4.119822502E0
1.785713555E0,6.819883347E0,4.708796024E0,-4.153341293E0
1.788201471E0,6.728903770E0,4.704007626E0,-4.115034103E0
1.790689388E0,6.623558998E0,4.742314816E0,-4.057573318E0
1.793177305E0,6.503849030E0,4.780622005E0,-3.966593742E0
1.795665221E0,6.398504257E0,4.818929672E0,-3.889979124E0
1.798153138E0,6.259640217E0,4.842871666E0,-3.798999548E0
1.800641055E0,6.135141850E0,4.818929672E0,-3.717596769E0
1.803128971E0,6.044162273E0,4.794987679E0,-3.640982151E0
1.805616888E0,5.967547894E0,4.756680012E0,-3.545214176E0
1.808104805E0,5.905298710E0,4.723161221E0,-3.420715570E0
1.810592721E0,5.905298710E0,4.665700436E0,-3.281852007E0
1.813080638E0,5.957971096E0,4.574720860E0,-3.147776604E0
1.815568555E0,6.039373875E0,4.512471676E0,-3.013701439E0
1.818056471E0,6.139930248E0,4.459799290E0,-2.860472441E0
1.820544388E0,6.274005413E0,4.421492100E0,-2.735974073E0
1.823032305E0,6.388927460E0,4.364031315E0,-2.621052265E0
1.825520221E0,6.508637428E0,4.325724125E0,-2.506130695E0
1.828008138E0,6.594828606E0,4.306570530E0,-2.405574083E0
1.830496055E0,6.695384979E0,4.325724125E0,-2.295440912E0
1.832983971E0,6.829460144E0,4.311358929E0,-2.175730705E0
1.835471888E0,7.006631374E0,4.277839661E0,-2.060809135E0
1.837959805E0,7.188590527E0,4.239532471E0,-1.965041041E0
1.840447721E0,7.380126953E0,4.191648483E0,-1.854907751E0
1.842935638E0,7.586028099E0,4.095880508E0,-1.773504853E0
1.845423555E0,7.772775650E0,4.028842926E0,-1.687313676E0
1.847911471E0,7.897274494E0,3.961805344E0,-1.653794765E0
1.850399388E0,7.988254070E0,3.933074951E0,-1.601122379E0
1.852887305E0,8.031349182E0,3.937863350E0,-1.562815189E0
1.855375221E0,8.002618790E0,3.971382141E0,-1.562815189E0
1.857863138E0,7.926004887E0,3.980958939E0,-1.601122379E0
1.860351055E0,7.820659637E0,3.985747337E0,-1.639429569E0
1.862838971E0,7.681796074E0,3.980958939E0,-1.720832467E0
1.865326888E0,7.528567314E0,3.961805344E0,-1.754351258E0
1.867814805E0,7.413645744E0,3.961805344E0,-1.811812162E0
1.870302721E0,7.303512096E0,3.990535736E0,-1.869272947E0
1.872790638E0,7.207744122E0,4.028842926E0,-1.960252643E0
1.875278555E0,7.073668957E0,4.067150116E0,-2.036867142E0
1.877766471E0,6.939593792E0,4.091092110E0,-2.137423515E0
1.880254388E0,6.771999359E0,4.124610901E0,-2.233191729E0
1.882742305E0,6.633135796E0,4.167706490E0,-2.348113298E0
1.885230221E0,6.503849030E0,4.172494888E0,-2.482188702E0
1.887718138E0,6.393715858E0,4.177283287E0,-2.587533474E0
1.890206055E0,6.350619793E0,4.177283287E0,-2.688089848E0
1.892693971E0,6.302735806E0,4.182071686E0,-2.759916067E0
1.895181888E0,6.283582211E0,4.206013680E0,-2.841318846E0
1.897669805E0,6.254851818E0,4.244320869E0,-2.917933226E0
1.900157721E0,6.254851818E0,4.249109268E0,-2.984971046E0
1.902645638E0,6.274005413E0,4.249109268E0,-3.037643433E0
1.905133555E0,6.269217014E0,4.234744072E0,-3.066373825E0
1.907621471E0,6.278793812E0,4.225167274E0,-3.075950623E0
1.910109388E0,6.326677799E0,4.206013680E0,-3.080739021E0
1.912597305E0,6.355408192E0,4.186860085E0,-3.075950623E0
1.915085221E0,6.412869453E0,4.191648483E0,-3.047220230E0
1.917573138E0,6.446388245E0,4.201225281E0,-3.028066635E0
1.920061055E0,6.475118637E0,4.210802078E0,-2.956240654E0
1.922548971E0,6.527791023E0,4.239532471E0,-2.860472441E0
1.925036888E0,6.604405403E0,4.229955673E0,-2.788646460E0
1.927524805E0,6.714538574E0,4.206013680E0,-2.707243681E0
1.930012721E0,6.819883347E0,4.182071686E0,-2.582745075E0
1.932500638E0,6.939593792E0,4.167706490E0,-2.424727678E0
1.934988555E0,7.088034153E0,4.148552895E0,-2.261922121E0
1.937476471E0,7.222109318E0,4.153341293E0,-2.123058319E0
1.939964388E0,7.351396084E0,4.158129692E0,-2.012925148E0
1.942452305E0,7.485471725E0,4.162918091E0,-1.921945453E0
1.944940221E0,7.590816498E0,4.138976097E0,-1.859696150E0
1.947428138E0,7.710526466E0,4.110245705E0,-1.778293371E0
1.949916055E0,7.777564049E0,4.057573318E0,-1.701678872E0
1.952403971E0,7.858967304E0,3.995324135E0,-1.649006367E0
1.954891888E0,7.921216488E0,3.966593742E0,-1.653794765E0
1.957379805E0,7.959523678E0,3.961805344E0,-1.701678872E0
1.959867721E0,7.959523678E0,3.980958939E0,-1.768716455E0
1.962355638E0,7.935581684E0,4.019266129E0,-1.859696150E0
1.964843555E0,7.863755703E0,4.067150116E0,-1.993771434E0
1.967331471E0,7.763198853E0,4.095880508E0,-2.194884300E0
1.969819388E0,7.662642479E0,4.129399300E0,-2.434304476E0
1.972307305E0,7.552509308E0,4.138976097E0,-2.745550871E0
1.974795221E0,7.447164536E0,4.186860085E0,-3.114257812E0
1.977283138E0,7.308300495E0,4.253897667E0,-3.502118587E0
1.979771055E0,7.169436932E0,4.301782131E0,-3.913921118E0
1.982258971E0,7.040150166E0,4.330512524E0,-4.325724125E0
1.984747200E0,6.906075001E0,4.364031315E0,-4.737526417E0
1.987235430E0,6.786364555E0,4.435857296E0,-5.101445198E0
1.989723659E0,6.700173378E0,4.469376087E0,-5.455787182E0
1.992211784E0,6.642712593E0,4.507683277E0,-5.790975571E0
1.994699700E0,6.590040207E0,4.536413670E0,-6.092644691E0
1.997187617E0,6.556521416E0,4.589086056E0,-6.322488308E0
1.999675534E0,6.499060631E0,4.651335239E0,-6.528389454E0
2.002163450E0,6.417657852E0,4.689642429E0,-6.700771809E0
2.004651367E0,6.350619793E0,4.737526417E0,-6.810905457E0
2.007139284E0,6.264428616E0,4.790199280E0,-6.858789444E0
2.009627200E0,6.187814236E0,4.818929672E0,-6.830059052E0
2.012115117E0,6.149507046E0,4.823718071E0,-6.748656273E0
2.014603034E0,6.130353451E0,4.833294868E0,-6.576273441E0
2.017090950E0,6.144718647E0,4.866813660E0,-6.351218700E0
2.019578867E0,6.168660641E0,4.881178856E0,-6.083067894E0
2.022066784E0,6.235698223E0,4.871602058E0,-5.790975571E0
2.024554752E0,6.355408192E0,4.866813660E0,-5.508459568E0
2.027042721E0,6.479907036E0,4.823718071E0,-5.206789970E0
2.029530690E0,6.652289391E0,4.761468410E0,-4.967370033E0
2.032018607E0,6.829460144E0,4.718372822E0,-4.761468410E0
2.034506523E0,6.992266178E0,4.675277233E0,-4.569932461E0
2.036994440E0,7.179013729E0,4.627393246E0,-4.383184910E0
2.039482357E0,7.322665691E0,4.550778866E0,-4.263474464E0
2.041970273E0,7.480683327E0,4.474164486E0,-4.172494888E0
2.044458190E0,7.595604897E0,4.387973309E0,-4.095880508E0
2.046946107E0,7.691372871E0,4.316147327E0,-4.024054527E0
2.049434023E0,7.739256859E0,4.234744072E0,-3.980958939E0
2.051921940E0,7.744045258E0,4.124610901E0,-3.947440147E0
2.054409857E0,7.715314865E0,4.028842926E0,-3.937863350E0
2.056897773E0,7.677007675E0,3.933074951E0,-3.885190725E0
2.059385690E0,7.643488884E0,3.808576345E0,-3.866037130E0
2.061873607E0,7.605181694E0,3.698443174E0,-3.851671934E0
2.064361523E0,7.576451302E0,3.617040157E0,-3.870825529E0
2.066849440E0,7.518990517E0,3.578732967E0,-3.885190725E0
2.069337357E0,7.447164536E0,3.540425777E0,-3.894767523E0
2.071825273E0,7.375338554E0,3.526060581E0,-3.947440147E0
2.074313190E0,7.289146900E0,3.506906986E0,-4.033631325E0
2.076801107E0,7.193378925E0,3.482964993E0,-4.134187698E0
2.079289023E0,7.054515362E0,3.468599796E0,-4.229955673E0
2.081776940E0,6.901286602E0,3.444657803E0,-4.344877720E0
2.084264857E0,6.771999359E0,3.468599796E0,-4.445434093E0
2.086752773E0,6.690596581E0,3.492541790E0,-4.488529682E0
2.089240690E0,6.642712593E0,3.545214176E0,-4.507683277E0
2.091728607E0,6.628347397E0,3.597886562E0,-4.545990467E0
2.094216523E0,6.642712593E0,3.660135746E0,-4.598662853E0
2.096704440E0,6.676231384E0,3.703231573E0,-4.680065632E0
2.099192357E0,6.690596581E0,3.736750364E0,-4.818929672E0
2.101680273E0,6.719326973E0,3.731961966E0,-4.943428040E0
2.104168190E0,6.728903770E0,3.727173567E0,-5.058349609E0
2.106656107E0,6.767210960E0,3.717596769E0,-5.154117584E0
2.109144023E0,6.791152954E0,3.731961966E0,-5.230731964E0
2.111631940E0,6.834248543E0,3.789422750E0,-5.278616428E0
2.114119857E0,6.886921406E0,3.856460333E0,-5.288193226E0
2.116607773E0,6.925228596E0,3.923498154E0,-5.302558422E0
2.119095690E0,6.953958988E0,3.952228546E0,-5.312135220E0
2.121583607E0,6.963535786E0,3.957016945E0,-5.283404827E0
2.124071523E0,6.963535786E0,3.937863350E0,-5.245097160E0
2.126559440E0,6.973112583E0,3.899555922E0,-5.230731964E0
2.129047357E0,7.016208172E0,3.818153143E0,-5.230731964E0
2.131535273E0,7.059303761E0,3.765480757E0,-5.225943565E0
2.134023190E0,7.083245754E0,3.684077978E0,-5.206789970E0
2.136511107E0,7.145494938E0,3.602674961E0,-5.206789970E0
2.138999023E0,7.202955723E0,3.535637379E0,-5.187636375E0
2.141486940E0,7.236474514E0,3.463811398E0,-5.168482780E0
2.143974857E0,7.269993305E0,3.377619982E0,-5.125387192E0
2.146462773E0,7.308300495E0,3.329735994E0,-5.087080002E0
2.148950690E0,7.356184959E0,3.301005602E0,-5.048772812E0
2.151438607E0,7.389703751E0,3.305794001E0,-5.043984413E0
2.153926523E0,7.394492149E0,3.310582399E0,-5.043984413E0
2.156414440E0,7.356184959E0,3.291428804E0,-5.082291603E0
2.158902357E0,7.308300495E0,3.286640406E0,-5.106233597E0
2.161390273E0,7.231686115E0,3.301005602E0,-5.134963989E0
2.163878190E0,7.164648533E0,3.267486811E0,-5.139752388E0
2.166366107E0,7.088034153E0,3.248333216E0,-5.111021996E0
2.168854023E0,7.006631374E0,3.262698412E0,-5.043984413E0
2.171341940E0,6.930016994E0,3.291428804E0,-4.957793236E0
2.173829857E0,6.877344608E0,3.368043184E0,-4.862025261E0
2.176317773E0,6.819883347E0,3.473388195E0,-4.742314816E0
2.178805690E0,6.795941353E0,3.602674961E0,-4.641758442E0
2.181293607E0,6.771999359E0,3.717596769E0,-4.589086056E0
2.183781523E0,6.781576157E0,3.818153143E0,-4.584297657E0
2.186269440E0,6.786364555E0,3.889979124E0,-4.589086056E0
2.188757357E0,6.781576157E0,3.985747337E0,-4.632181644E0
2.191245273E0,6.781576157E0,4.047996521E0,-4.660912037E0
2.193733190E0,6.810306549E0,4.071938515E0,-4.708796024E0
2.196221107E0,6.891709805E0,4.115034103E0,-4.775833607E0
2.198709023E0,6.939593792E0,4.167706490E0,-4.823718071E0
2.201196940E0,6.987477779E0,4.234744072E0,-4.890755653E0
2.203684857E0,7.040150166E0,4.306570530E0,-4.991312027E0
2.206172773E0,7.054515362E0,4.364031315E0,-5.096656799E0
2.208660690E0,7.040150166E0,4.459799290E0,-5.216366768E0
2.211148607E0,6.992266178E0,4.526836872E0,-5.350442410E0
2.213636523E0,6.930016994E0,4.584297657E0,-5.474940777E0
2.216124440E0,6.839036942E0,4.646546841E0,-5.628169537E0
2.218612357E0,6.743268967E0,4.732738018E0,-5.790975571E0
2.221100273E0,6.647500992E0,4.823718071E0,-5.944204330E0
2.223588190E0,6.551733017E0,4.905120850E0,-6.102221489E0
2.226076107E0,6.446388245E0,5.005677223E0,-6.260239124E0
2.228564023E0,6.331466198E0,5.087080002E0,-6.427833080E0
2.231051940E0,6.245275021E0,5.168482780E0,-6.566696644E0
2.233539857E0,6.125565052E0,5.235520363E0,-6.719925404E0
2.236027773E0,5.996278286E0,5.288193226E0,-6.868366241E0
2.238515690E0,5.881356239E0,5.340865612E0,-6.997653008E0
2.241003607E0,5.809530258E0,5.369596004E0,-7.083844185E0
2.243491523E0,5.752069473E0,5.412691593E0,-7.102997780E0
2.245979440E0,5.708973885E0,5.436633587E0,-7.126939774E0
2.248467357E0,5.670666695E0,5.446210384E0,-7.141304970E0
2.250955273E0,5.627571106E0,5.479729176E0,-7.189188957E0
2.253443190E0,5.598840714E0,5.532401562E0,-7.227496147E0
2.255931107E0,5.560533524E0,5.575497150E0,-7.265803814E0
2.258419023E0,5.555745125E0,5.613804340E0,-7.284957409E0
2.260906940E0,5.555745125E0,5.642534733E0,-7.270592213E0
2.263394857E0,5.546168327E0,5.652111530E0,-7.251438618E0
2.265882773E0,5.589263916E0,5.632957935E0,-7.203554153E0
2.268370690E0,5.665878296E0,5.628169537E0,-7.088632584E0
2.270858607E0,5.747281075E0,5.637746334E0,-6.978499413E0
2.273346523E0,5.876567841E0,5.661688328E0,-6.868366241E0
2.275834440E0,6.020220280E0,5.666476727E0,-6.782175064E0
2.278322357E0,6.192602634E0,5.680841923E0,-6.700771809E0
2.280810273E0,6.479907036E0,5.714360714E0,-6.499659061E0
2.283298190E0,6.877344608E0,5.786187172E0,-7.342418194E0
2.285786107E0,6.920440197E0,5.819705963E0,-7.495646954E0
2.288274023E0,6.781576157E0,5.819705963E0,-6.997653008E0
2.290761940E0,6.599617004E0,5.623381138E0,-6.351218700E0
2.293249857E0,6.546944618E0,5.446210384E0,-5.858013153E0
2.295737773E0,6.580463409E0,5.446210384E0,-5.431845188E0
2.298225690E0,6.613982201E0,5.585073948E0,-5.144540787E0
2.300713607E0,6.671442986E0,5.752667904E0,-4.948216438E0
2.303201523E0,6.714538574E0,5.872378349E0,-4.771045208E0
2.305689440E0,6.728903770E0,5.896320343E0,-4.656123638E0
2.308177357E0,6.724115372E0,5.814917564E0,-4.584297657E0
2.310665273E0,6.781576157E0,5.723937511E0,-4.493318081E0
2.313153190E0,6.853402138E0,5.637746334E0,-4.364031315E0
2.315641107E0,6.910863400E0,5.585073948E0,-4.244320869E0
2.318129023E0,6.901286602E0,5.546766758E0,-4.143764496E0
2.320616940E0,6.862978935E0,5.508459568E0,-4.095880508E0
2.323104857E0,6.795941353E0,5.470152378E0,-4.086303711E0
2.325592773E0,6.700173378E0,5.450998783E0,-4.115034103E0
2.328080690E0,6.585251808E0,5.403114796E0,-4.162918091E0
2.330568607E0,6.470330238E0,5.369596004E0,-4.244320869E0
2.333056523E0,6.369773388E0,5.345654011E0,-4.320935726E0
2.335544440E0,6.254851818E0,5.364807606E0,-4.478952885E0
2.338032357E0,6.187814236E0,5.355230808E0,-4.646546841E0
2.340520273E0,6.144718647E0,5.374384403E0,-4.828506470E0
2.343008190E0,6.144718647E0,5.388749599E0,-5.048772812E0
2.345496107E0,6.168660641E0,5.407903194E0,-5.269039154E0
2.347984023E0,6.216544628E0,5.403114796E0,-5.489305973E0
2.350471940E0,6.293159008E0,5.388749599E0,-5.743091106E0
2.352959857E0,6.388927460E0,5.374384403E0,-6.006453514E0
2.355447773E0,6.503849030E0,5.431845188E0,-6.274604321E0
2.357935690E0,6.613982201E0,5.508459568E0,-6.552331448E0
2.360423607E0,6.719326973E0,5.585073948E0,-6.839635849E0
2.362911523E0,6.843825340E0,5.652111530E0,-7.117362976E0
2.365399440E0,6.958747387E0,5.704783916E0,-7.361571789E0
2.367887357E0,7.020996571E0,5.738302708E0,-7.577049732E0
2.370375273E0,7.078457355E0,5.733514309E0,-7.711124897E0
2.372863190E0,7.155071735E0,5.743091106E0,-7.806893349E0
2.375351107E0,7.226897717E0,5.733514309E0,-7.878719330E0
2.377839023E0,7.241262913E0,5.738302708E0,-7.902661324E0
2.380326940E0,7.231686115E0,5.747879505E0,-7.869142532E0
2.382814857E0,7.231686115E0,5.752667904E0,-7.759009361E0
2.385302773E0,7.202955723E0,5.776610374E0,-7.624933720E0
2.387790690E0,7.179013729E0,5.790975571E0,-7.438186169E0
2.390278607E0,7.183802128E0,5.781398773E0,-7.189188957E0
2.392766523E0,7.193378925E0,5.795763969E0,-6.949769020E0
2.395254440E0,7.188590527E0,5.762245178E0,-6.719925404E0
2.397742357E0,7.179013729E0,5.757456303E0,-6.518812656E0
2.400230273E0,7.179013729E0,5.709572315E0,-6.370372295E0
2.402718190E0,7.169436932E0,5.680841923E0,-6.197989464E0
2.405206107E0,7.169436932E0,5.613804340E0,-6.030395508E0
2.407694023E0,7.140706539E0,5.541978359E0,-5.848436356E0
2.410181940E0,7.121552944E0,5.479729176E0,-5.671265125E0
2.412669857E0,7.097610950E0,5.446210384E0,-5.489305973E0
2.415157773E0,7.064092159E0,5.450998783E0,-5.292981625E0
2.417645690E0,7.088034153E0,5.446210384E0,-5.091868401E0
2.420133607E0,7.092822552E0,5.470152378E0,-4.914697647E0
2.422621523E0,7.097610950E0,5.446210384E0,-4.713584423E0
2.425109440E0,7.092822552E0,5.417479992E0,-4.560355663E0
2.427597357E0,7.049726963E0,5.393537998E0,-4.344877720E0
2.430085273E0,6.987477779E0,5.369596004E0,-4.186860085E0
2.432573190E0,6.910863400E0,5.340865612E0,-4.014477730E0
2.435061107E0,6.882133007E0,5.326500416E0,-3.856460333E0
2.437549023E0,6.886921406E0,5.302558422E0,-3.722385168E0
2.440036940E0,6.944382191E0,5.283404827E0,-3.593098164E0
2.442524857E0,7.040150166E0,5.235520363E0,-3.487753391E0
2.445012773E0,7.188590527E0,5.206789970E0,-3.396773577E0
2.447500690E0,7.365761757E0,5.178059578E0,-3.324947596E0
2.449988607E0,7.557297707E0,5.134963989E0,-3.305794001E0
2.452476523E0,7.758410454E0,5.091868401E0,-3.334524393E0
2.454964440E0,7.930793285E0,5.015254021E0,-3.411138773E0
2.457452357E0,8.055291176E0,4.957793236E0,-3.497330189E0
2.459940273E0,8.184578896E0,4.948216438E0,-3.564367771E0
2.462428190E0,8.299500465E0,4.909909248E0,-3.645770550E0
2.464916107E0,8.356961250E0,4.885967255E0,-3.755903959E0
2.467404023E0,8.380903244E0,4.862025261E0,-3.846883535E0
2.469891940E0,8.376114845E0,4.866813660E0,-3.957016945E0
2.472379857E0,8.347384453E0,4.885967255E0,-4.028842926E0
2.474867773E0,8.256404877E0,4.895544052E0,-4.086303711E0
2.477355690E0,8.170213699E0,4.924274445E0,-4.134187698E0
2.479843607E0,8.107964516E0,4.976946831E0,-4.138976097E0
2.482331523E0,8.021772385E0,5.053561211E0,-4.167706490E0
2.484819440E0,7.921216488E0,5.101445198E0,-4.220378876E0
2.487307357E0,7.811082840E0,5.149329185E0,-4.316147327E0
2.489795273E0,7.729680061E0,5.192424774E0,-4.421492100E0
2.492283190E0,7.643488884E0,5.202001572E0,-4.526836872E0
2.494771107E0,7.590816498E0,5.221155167E0,-4.636970043E0
2.497259023E0,7.547720909E0,5.216366768E0,-4.713584423E0
2.499746940E0,7.514202118E0,5.225943565E0,-4.766256809E0
2.502234857E0,7.485471725E0,5.259462357E0,-4.794987679E0
2.504722773E0,7.442376137E0,5.316923618E0,-4.818929672E0
2.507210690E0,7.384915352E0,5.340865612E0,-4.838083267E0
2.509698607E0,7.317877293E0,5.374384403E0,-4.828506470E0
2.512186523E0,7.250839710E0,5.388749599E0,-4.814141273E0
2.514674440E0,7.183802128E0,5.379172802E0,-4.794987679E0
2.517162357E0,7.126341343E0,5.355230808E0,-4.756680012E0
2.519650273E0,7.073668957E0,5.316923618E0,-4.718372822E0
2.522138190E0,7.030573368E0,5.297770023E0,-4.665700436E0
2.524626107E0,6.987477779E0,5.283404827E0,-4.589086056E0
2.527114023E0,6.977900982E0,5.240308762E0,-4.526836872E0
2.529601940E0,6.992266178E0,5.216366768E0,-4.445434093E0
2.532089857E0,7.040150166E0,5.173271179E0,-4.359242916E0
2.534577773E0,7.121552944E0,5.096656799E0,-4.292205334E0
2.537065690E0,7.188590527E0,5.053561211E0,-4.206013680E0
2.539553607E0,7.279570103E0,4.986523628E0,-4.110245705E0
2.542041523E0,7.432799339E0,4.890755653E0,-4.004900932E0
2.544529440E0,7.595604897E0,4.809352875E0,-3.889979124E0
2.547017357E0,7.777564049E0,4.732738018E0,-3.789422750E0
2.549505273E0,7.964312077E0,4.656123638E0,-3.684077978E0
2.551993190E0,8.136694908E0,4.584297657E0,-3.573944569E0
2.554481107E0,8.304288864E0,4.550778866E0,-3.487753391E0
2.556969023E0,8.462306023E0,4.493318081E0,-3.372831583E0
2.559456940E0,8.596381187E0,4.459799290E0,-3.301005602E0
2.561944857E0,8.682572365E0,4.411915302E0,-3.210026026E0
2.564432773E0,8.725667953E0,4.368819714E0,-3.099892616E0
2.566920690E0,8.768763542E0,4.325724125E0,-3.028066635E0
2.569408607E0,8.792705536E0,4.296993732E0,-2.937086821E0
2.571896523E0,8.826224327E0,4.282628059E0,-2.855684042E0
2.574384440E0,8.835801125E0,4.311358929E0,-2.798223257E0
2.576872357E0,8.835801125E0,4.344877720E0,-2.755127668E0
2.579360273E0,8.807070732E0,4.373608112E0,-2.764704466E0
2.581848190E0,8.773551941E0,4.397550106E0,-2.793434858E0
2.584336107E0,8.711302757E0,4.440645695E0,-2.870049238E0
2.586824023E0,8.601169586E0,4.469376087E0,-2.975394249E0
2.589311940E0,8.476671219E0,4.474164486E0,-3.104681015E0
2.591799857E0,8.309077263E0,4.469376087E0,-3.243544817E0
2.594287773E0,8.151060104E0,4.431068897E0,-3.358466387E0
2.596775690E0,7.993042469E0,4.411915302E0,-3.439869404E0
2.599263607E0,7.835024834E0,4.431068897E0,-3.530848980E0
2.601751523E0,7.715314865E0,4.464587688E0,-3.612251759E0
2.604239440E0,7.609970093E0,4.512471676E0,-3.698443174E0
2.606727357E0,7.552509308E0,4.560355663E0,-3.842095137E0
2.609215273E0,7.495048523E0,4.613028049E0,-4.000112534E0
2.611703190E0,7.437587738E0,4.665700436E0,-4.206013680E0
2.614191107E0,7.394492149E0,4.704007626E0,-4.431068897E0
2.616679023E0,7.365761757E0,4.742314816E0,-4.670488834E0
2.619166940E0,7.365761757E0,4.771045208E0,-4.881178856E0
2.621654857E0,7.399280548E0,4.771045208E0,-5.067926407E0
2.624142773E0,7.451952934E0,4.756680012E0,-5.225943565E0
2.626630690E0,7.509413719E0,4.732738018E0,-5.355230808E0
2.629118607E0,7.605181694E0,4.732738018E0,-5.470152378E0
2.631606523E0,7.705738068E0,4.708796024E0,-5.546766758E0
2.634094440E0,7.801506042E0,4.684854031E0,-5.609015942E0
2.636582357E0,7.902062893E0,4.632181644E0,-5.680841923E0
2.639070273E0,8.016983986E0,4.579509258E0,-5.695207119E0
2.641558190E0,8.151060104E0,4.541202068E0,-5.676053524E0
2.644046107E0,8.256404877E0,4.512471676E0,-5.613804340E0
2.646534023E0,8.356961250E0,4.493318081E0,-5.470152378E0
2.649021940E0,8.433575630E0,4.478952885E0,-5.292981625E0
2.651509857E0,8.495824814E0,4.445434093E0,-5.087080002E0
2.653997773E0,8.529343605E0,4.421492100E0,-4.871602058E0
2.656485690E0,8.582015991E0,4.407126904E0,-4.632181644E0
2.658973607E0,8.629899979E0,4.383184910E0,-4.411915302E0
2.661461523E0,8.663418770E0,4.378396511E0,-4.220378876E0
2.663949440E0,8.696937561E0,4.349666119E0,-4.071938515E0
2.666437357E0,8.677783966E0,4.306570530E0,-3.909132719E0
2.668925273E0,8.668207169E0,4.301782131E0,-3.755903959E0
2.671413190E0,8.634688377E0,4.316147327E0,-3.588309765E0
2.673901107E0,8.601169586E0,4.316147327E0,-3.444657803E0
2.676389023E0,8.558073997E0,4.325724125E0,-3.281852007E0
2.678876940E0,8.524555206E0,4.330512524E0,-3.152565002E0
2.681364857E0,8.514978409E0,4.311358929E0,-3.052008629E0
2.683852773E0,8.505401611E0,4.282628059E0,-2.956240654E0
2.686340690E0,8.471882820E0,4.258686066E0,-2.889202833E0
2.688828607E0,8.457517624E0,4.225167274E0,-2.831742048E0
2.691316523E0,8.443152428E0,4.210802078E0,-2.779069662E0
2.693804440E0,8.419210434E0,4.201225281E0,-2.731185675E0
2.696292357E0,8.385691643E0,4.196436882E0,-2.688089848E0
2.698780273E0,8.337807655E0,4.177283287E0,-2.659359455E0
2.701268190E0,8.309077263E0,4.143764496E0,-2.644994259E0
2.703756107E0,8.285135269E0,4.115034103E0,-2.625840664E0
2.706244023E0,8.270770073E0,4.067150116E0,-2.616263866E0
2.708731940E0,8.251616478E0,4.028842926E0,-2.630629063E0
2.711219857E0,8.242039680E0,4.009689331E0,-2.654571056E0
2.713707773E0,8.280346870E0,3.971382141E0,-2.664147854E0
2.716195690E0,8.371326447E0,3.952228546E0,-2.678513050E0
2.718683607E0,8.452729225E0,3.957016945E0,-2.683301449E0
2.721171523E0,8.543708801E0,3.942651749E0,-2.731185675E0
2.723659440E0,8.644265175E0,3.928286552E0,-2.807800055E0
2.726147357E0,8.735244751E0,3.913921118E0,-2.898779631E0
2.728635273E0,8.797493935E0,3.889979124E0,-2.989759445E0
2.731123190E0,8.826224327E0,3.904344320E0,-3.090315819E0
2.733611107E0,8.831012726E0,3.913921118E0,-3.147776604E0
2.736099023E0,8.816647530E0,3.985747337E0,-3.190872431E0
2.738586940E0,8.802282333E0,4.047996521E0,-3.219602823E0
2.741074857E0,8.787917137E0,4.110245705E0,-3.219602823E0
2.743562773E0,8.816647530E0,4.186860085E0,-3.238756418E0
2.746050690E0,8.840589523E0,4.249109268E0,-3.267486811E0
2.748538607E0,8.874108315E0,4.306570530E0,-3.281852007E0
2.751026523E0,8.912415504E0,4.364031315E0,-3.291428804E0
2.753514440E0,8.917203903E0,4.411915302E0,-3.296217203E0
2.756002357E0,8.912415504E0,4.483741283E0,-3.310582399E0
2.758490273E0,8.898050308E0,4.545990467E0,-3.301005602E0
2.760978190E0,8.869319916E0,4.593874454E0,-3.301005602E0
2.763466107E0,8.826224327E0,4.656123638E0,-3.334524393E0
2.765954023E0,8.778340340E0,4.723161221E0,-3.368043184E0
2.768441940E0,8.759186745E0,4.799776077E0,-3.391985178E0
2.770929857E0,8.773551941E0,4.871602058E0,-3.444657803E0
2.773417773E0,8.797493935E0,4.981735229E0,-3.540425777E0
2.775905690E0,8.816647530E0,5.101445198E0,-3.645770550E0
2.778393607E0,8.826224327E0,5.211578369E0,-3.751115561E0
2.780881523E0,8.807070732E0,5.288193226E0,-3.894767523E0
2.783369440E0,8.763975143E0,5.355230808E0,-4.009689331E0
2.785857357E0,8.720879555E0,5.403114796E0,-4.100668907E0
2.788345273E0,8.625111580E0,5.412691593E0,-4.177283287E0
2.790833190E0,8.562862396E0,5.431845188E0,-4.225167274E0
2.793321107E0,8.491036415E0,5.436633587E0,-4.282628059E0
2.795809023E0,8.428787231E0,5.412691593E0,-4.292205334E0
2.798296940E0,8.376114845E0,5.398326397E0,-4.292205334E0
2.800784857E0,8.328230858E0,5.383961201E0,-4.287416458E0
2.803272773E0,8.337807655E0,5.355230808E0,-4.287416458E0
2.805760690E0,8.376114845E0,5.307346821E0,-4.282628059E0
2.808248607E0,8.433575630E0,5.283404827E0,-4.263474464E0
2.810736523E0,8.491036415E0,5.221155167E0,-4.253897667E0
2.813224440E0,8.577227592E0,5.154117584E0,-4.239532471E0
2.815712357E0,8.653841972E0,5.077503204E0,-4.220378876E0
2.818200273E0,8.701725960E0,4.986523628E0,-4.215590477E0
2.820688190E0,8.735244751E0,4.914697647E0,-4.162918091E0
2.823176107E0,8.759186745E0,4.838083267E0,-4.143764496E0
2.825664023E0,8.778340340E0,4.756680012E0,-4.134187698E0
2.828151940E0,8.792705536E0,4.670488834E0,-4.115034103E0
2.830639857E0,8.792705536E0,4.608239651E0,-4.052784920E0
2.833127773E0,8.783128738E0,4.536413670E0,-3.976170540E0
2.835615690E0,8.783128738E0,4.483741283E0,-3.866037130E0
2.838103607E0,8.802282333E0,4.455010891E0,-3.770269156E0
2.840591523E0,8.840589523E0,4.445434093E0,-3.679289579E0
2.843079440E0,8.907627106E0,4.455010891E0,-3.583521366E0
2.845567357E0,8.960299492E0,4.483741283E0,-3.497330189E0
2.848055273E0,9.022548676E0,4.483741283E0,-3.406350374E0
2.850543190E0,9.094375610E0,4.502894878E0,-3.344101191E0
2.853031107E0,9.147047997E0,4.498106480E0,-3.277063608E0
2.855519023E0,9.166201591E0,4.493318081E0,-3.195660830E0
2.858006940E0,9.199720383E0,4.507683277E0,-3.114257812E0
2.860494857E0,9.223662376E0,4.522048473E0,-3.061585426E0
2.862982773E0,9.261969566E0,4.522048473E0,-3.018489838E0
2.865470690E0,9.300276756E0,4.536413670E0,-2.970605850E0
2.867958607E0,9.333795547E0,4.584297657E0,-2.927510023E0
2.870446523E0,9.357737541E0,4.608239651E0,-2.893991232E0
2.872934440E0,9.381679535E0,4.651335239E0,-2.879626036E0
2.875422357E0,9.400833130E0,4.684854031E0,-2.865260839E0
2.877910273E0,9.405621529E0,4.713584423E0,-2.850895643E0
2.880398190E0,9.391256332E0,4.727949619E0,-2.850895643E0
2.882886107E0,9.400833130E0,4.727949619E0,-2.870049238E0
2.885374023E0,9.419986725E0,4.732738018E0,-2.884414434E0
2.887861940E0,9.443928719E0,4.761468410E0,-2.903568029E0
2.890349857E0,9.467870712E0,4.818929672E0,-2.946663857E0
2.892837773E0,9.487024307E0,4.890755653E0,-2.999336243E0
2.895325690E0,9.501389503E0,4.948216438E0,-3.037643433E0
2.897813607E0,9.520543098E0,4.991312027E0,-3.090315819E0
2.900301523E0,9.525331497E0,5.015254021E0,-3.123834610E0
2.902789440E0,9.549273491E0,5.020042419E0,-3.181295395E0
2.905277357E0,9.568427086E0,5.020042419E0,-3.219602823E0
2.907765273E0,9.592369080E0,4.991312027E0,-3.253121614E0
2.910253190E0,9.587580681E0,4.962581635E0,-3.320159197E0
2.912741107E0,9.587580681E0,4.919486046E0,-3.382408381E0
2.915229023E0,9.578003883E0,4.890755653E0,-3.444657803E0
2.917716940E0,9.573215485E0,4.847660065E0,-3.502118587E0
2.920204857E0,9.544485092E0,4.780622005E0,-3.535637379E0
2.922692773E0,9.534908295E0,4.723161221E0,-3.559579372E0
2.925180690E0,9.506177902E0,4.680065632E0,-3.550002575E0
2.927668607E0,9.496601105E0,4.613028049E0,-3.530848980E0
2.930156523E0,9.506177902E0,4.545990467E0,-3.468599796E0
2.932644440E0,9.530119896E0,4.478952885E0,-3.396773577E0
2.935132357E0,9.582792282E0,4.440645695E0,-3.334524393E0
2.937620273E0,9.621099472E0,4.397550106E0,-3.277063608E0
2.940108190E0,9.659406662E0,4.330512524E0,-3.224391222E0
2.942596107E0,9.678560257E0,4.268262863E0,-3.205237627E0
2.945084023E0,9.692925453E0,4.229955673E0,-3.190872431E0
2.947571940E0,9.678560257E0,4.206013680E0,-3.152565002E0
2.950059857E0,9.683348656E0,4.196436882E0,-3.176506996E0
2.952547773E0,9.702502251E0,4.177283287E0,-3.186083794E0
2.955035690E0,9.702502251E0,4.162918091E0,-3.205237627E0
2.957523607E0,9.716867447E0,4.143764496E0,-3.214814425E0
2.960011523E0,9.726444244E0,4.143764496E0,-3.195660830E0
2.962499440E0,9.755174637E0,4.148552895E0,-3.195660830E0
2.964987357E0,9.783905029E0,4.158129692E0,-3.200449228E0
2.967475273E0,9.812635422E0,4.191648483E0,-3.205237627E0
2.969963190E0,9.874884605E0,4.234744072E0,-3.219602823E0
2.972451107E0,9.927556992E0,4.273051262E0,-3.267486811E0
2.974939023E0,9.961075783E0,4.320935726E0,-3.324947596E0
2.977426940E0,9.980229378E0,4.364031315E0,-3.391985178E0
2.979914857E0,9.956287384E0,4.383184910E0,-3.478176594E0
2.982402773E0,9.946710587E0,4.387973309E0,-3.564367771E0
2.984890690E0,9.932345390E0,4.368819714E0,-3.617040157E0
2.987378607E0,9.932345390E0,4.359242916E0,-3.664924145E0
2.989866523E0,9.937133789E0,4.340089321E0,-3.736750364E0
2.992354440E0,9.932345390E0,4.320935726E0,-3.770269156E0
2.994842357E0,9.922768593E0,4.306570530E0,-3.794211149E0
2.997330273E0,9.913191795E0,4.292205334E0,-3.794211149E0
2.999818190E0,9.889249802E0,4.287416458E0,-3.798999548E0
3.002306107E0,9.874884605E0,4.273051262E0,-3.813364744E0
3.004794023E0,9.822212219E0,4.258686066E0,-3.827729940E0
3.007281940E0,9.750386238E0,4.239532471E0,-3.846883535E0
3.009769857E0,9.664195061E0,4.206013680E0,-3.837306738E0
3.012257773E0,9.611522675E0,4.182071686E0,-3.827729940E0
3.014745690E0,9.544485092E0,4.186860085E0,-3.808576345E0
3.017233607E0,9.482235909E0,4.167706490E0,-3.751115561E0
3.019721523E0,9.424775124E0,4.172494888E0,-3.717596769E0
3.022209440E0,9.386467934E0,4.162918091E0,-3.674500942E0
3.024697357E0,9.338583946E0,4.153341293E0,-3.655347347E0
3.027185273E0,9.300276756E0,4.148552895E0,-3.617040157E0
3.029673190E0,9.257181168E0,4.134187698E0,-3.564367771E0
3.032161107E0,9.194931984E0,4.148552895E0,-3.511695385E0
3.034649023E0,9.151836395E0,4.162918091E0,-3.449446201E0
3.037136940E0,9.103952408E0,4.182071686E0,-3.387196779E0
3.039624857E0,9.046490669E0,4.196436882E0,-3.291428804E0
3.042112773E0,9.022548676E0,4.182071686E0,-3.214814425E0
3.044600690E0,8.998606682E0,4.172494888E0,-3.152565002E0
3.047088607E0,8.965087891E0,4.172494888E0,-3.066373825E0
3.049576523E0,8.945934296E0,4.167706490E0,-3.008913040E0
3.052064440E0,8.921992302E0,4.182071686E0,-2.970605850E0
3.054552357E0,8.898050308E0,4.182071686E0,-2.927510023E0
3.057040273E0,8.878896713E0,4.196436882E0,-2.922721624E0
3.059528190E0,8.869319916E0,4.191648483E0,-2.917933226E0
3.062016107E0,8.859743118E0,4.206013680E0,-2.932298422E0
3.064504023E0,8.821435928E0,4.201225281E0,-2.941875219E0
3.066991940E0,8.783128738E0,4.215590477E0,-2.965817451E0
3.069479857E0,8.744821548E0,4.225167274E0,-2.999336243E0
3.071967773E0,8.720879555E0,4.239532471E0,-3.032855034E0
3.074455690E0,8.687360764E0,4.239532471E0,-3.066373825E0
3.076943607E0,8.644265175E0,4.244320869E0,-3.090315819E0
3.079431523E0,8.620323181E0,4.229955673E0,-3.138199806E0
3.081919440E0,8.591592789E0,4.210802078E0,-3.171718597E0
3.084407357E0,8.562862396E0,4.210802078E0,-3.190872431E0
3.086895273E0,8.514978409E0,4.239532471E0,-3.186083794E0
3.089383190E0,8.476671219E0,4.239532471E0,-3.205237627E0
3.091871107E0,8.452729225E0,4.253897667E0,-3.210026026E0
3.094359023E0,8.438364029E0,4.273051262E0,-3.214814425E0
3.096846940E0,8.419210434E0,4.282628059E0,-3.190872431E0
3.099334857E0,8.409633636E0,4.296993732E0,-3.162141800E0
3.101822773E0,8.400056839E0,4.301782131E0,-3.138199806E0
3.104310690E0,8.404845238E0,4.292205334E0,-3.114257812E0
3.106798607E0,8.390480042E0,4.277839661E0,-3.085527420E0
3.109286523E0,8.385691643E0,4.268262863E0,-3.032855034E0
3.111774440E0,8.371326447E0,4.263474464E0,-2.951452255E0
3.114262357E0,8.366538048E0,4.234744072E0,-2.884414434E0
3.116750273E0,8.352172852E0,4.229955673E0,-2.812588453E0
3.119238190E0,8.347384453E0,4.234744072E0,-2.731185675E0
3.121726107E0,8.328230858E0,4.229955673E0,-2.659359455E0
3.124214023E0,8.318654060E0,4.234744072E0,-2.592321873E0
3.126701940E0,8.304288864E0,4.229955673E0,-2.539649487E0
3.129189857E0,8.304288864E0,4.225167274E0,-2.510919094E0
3.131677773E0,8.323442459E0,4.206013680E0,-2.463035107E0
3.134165690E0,8.337807655E0,4.196436882E0,-2.410362482E0
3.136653607E0,8.342596054E0,4.186860085E0,-2.405574083E0
3.139141523E0,8.366538048E0,4.172494888E0,-2.410362482E0
3.141629440E0,8.380903244E0,4.138976097E0,-2.415150881E0
3.144117357E0,8.376114845E0,4.148552895E0,-2.419939280E0
3.146605273E0,8.376114845E0,4.158129692E0,-2.429516077E0
3.149093190E0,8.347384453E0,4.153341293E0,-2.453458309E0
3.151581107E0,8.313865662E0,4.148552895E0,-2.458246708E0
3.154068971E0,8.299500465E0,4.148552895E0,-2.443881273E0
3.156556836E0,8.299500465E0,4.167706490E0,-2.429516077E0
3.159044700E0,8.313865662E0,4.182071686E0,-2.439092875E0
3.161532565E0,8.304288864E0,4.210802078E0,-2.443881273E0
3.164020430E0,8.333019257E0,4.225167274E0,-2.434304476E0
3.166508294E0,8.328230858E0,4.229955673E0,-2.424727678E0
3.168996159E0,8.342596054E0,4.220378876E0,-2.429516077E0
3.171484023E0,8.356961250E0,4.201225281E0,-2.415150881E0
3.173971888E0,8.380903244E0,4.167706490E0,-2.395997286E0
3.176459752E0,8.404845238E0,4.129399300E0,-2.376843691E0
3.178947617E0,8.433575630E0,4.100668907E0,-2.319382906E0
3.181435482E0,8.471882820E0,4.052784920E0,-2.290652514E0
3.183923346E0,8.519766808E0,4.009689331E0,-2.247556925E0
3.186411211E0,8.558073997E0,3.980958939E0,-2.199672699E0
3.188899075E0,8.582015991E0,3.961805344E0,-2.161365509E0
3.191386940E0,8.620323181E0,3.957016945E0,-2.118269920E0
3.193874805E0,8.625111580E0,3.923498154E0,-2.075174332E0
3.196362669E0,8.625111580E0,3.909132719E0,-2.027290344E0
3.198850534E0,8.625111580E0,3.899555922E0,-1.969829440E0
3.201338398E0,8.634688377E0,3.894767523E0,-1.941099048E0
3.203826263E0,8.634688377E0,3.899555922E0,-1.888426542E0
3.206314127E0,8.625111580E0,3.937863350E0,-1.854907751E0
3.208801992E0,8.620323181E0,3.976170540E0,-1.830965757E0
3.211289857E0,8.610746384E0,4.009689331E0,-1.830965757E0
3.213777721E0,8.610746384E0,4.038419724E0,-1.845330954E0
3.216265586E0,8.620323181E0,4.091092110E0,-1.854907751E0
3.218753450E0,8.610746384E0,4.110245705E0,-1.869272947E0
3.221241315E0,8.586804390E0,4.119822502E0,-1.931522250E0
3.223729180E0,8.582015991E0,4.124610901E0,-1.984194636E0
3.226217044E0,8.577227592E0,4.119822502E0,-2.056020737E0
3.228704961E0,8.582015991E0,4.095880508E0,-2.113481522E0
3.231192877E0,8.649053574E0,4.052784920E0,-2.185307503E0
3.233680794E0,8.687360764E0,4.028842926E0,-2.233191729E0
3.236168711E0,8.730456352E0,4.009689331E0,-2.285864115E0
3.238656627E0,8.778340340E0,3.971382141E0,-2.333748102E0
3.241144544E0,8.850166321E0,3.918709517E0,-2.376843691E0
3.243632461E0,8.936357498E0,3.866037130E0,-2.463035107E0
3.246120377E0,9.003395081E0,3.803787947E0,-2.515707493E0
3.248608294E0,9.080010414E0,3.770269156E0,-2.568379879E0
3.251096211E0,9.147047997E0,3.741538763E0,-2.601898670E0
3.253584127E0,9.218873978E0,3.712808371E0,-2.601898670E0
3.256072044E0,9.218873978E0,3.708019972E0,-2.630629063E0
3.258559961E0,9.223662376E0,3.688866377E0,-2.640205860E0
3.261047877E0,9.209297180E0,3.717596769E0,-2.630629063E0
3.263535794E0,9.199720383E0,3.722385168E0,-2.597110271E0
3.266023711E0,9.199720383E0,3.741538763E0,-2.558803082E0
3.268511627E0,9.180566788E0,3.775057554E0,-2.491765499E0
3.270999544E0,9.151836395E0,3.784634352E0,-2.439092875E0
3.273487461E0,9.118317604E0,3.827729940E0,-2.367266893E0
3.275975377E0,9.084798813E0,3.880402327E0,-2.300229311E0
3.278463294E0,9.032125473E0,3.942651749E0,-2.228403330E0
3.280951211E0,8.989029884E0,4.000112534E0,-2.204461098E0
3.283439127E0,8.950722694E0,4.057573318E0,-2.194884300E0
3.285927044E0,8.912415504E0,4.119822502E0,-2.185307503E0
3.288414961E0,8.883685112E0,4.158129692E0,-2.194884300E0
3.290902877E0,8.854954720E0,4.206013680E0,-2.218826532E0
3.293390794E0,8.835801125E0,4.258686066E0,-2.247556925E0
3.295878711E0,8.807070732E0,4.316147327E0,-2.257133722E0
3.298366627E0,8.792705536E0,4.368819714E0,-2.309806108E0
3.300854544E0,8.783128738E0,4.411915302E0,-2.367266893E0
3.303342461E0,8.754398346E0,4.474164486E0,-2.400785685E0
3.305830377E0,8.744821548E0,4.536413670E0,-2.463035107E0
3.308318294E0,8.720879555E0,4.569932461E0,-2.530072689E0
3.310806211E0,8.672995567E0,4.627393246E0,-2.601898670E0
3.313294127E0,8.649053574E0,4.670488834E0,-2.678513050E0
3.315782044E0,8.591592789E0,4.723161221E0,-2.740762472E0
3.318269961E0,8.558073997E0,4.775833607E0,-2.831742048E0
3.320757877E0,8.505401611E0,4.823718071E0,-2.908356428E0
3.323245794E0,8.462306023E0,4.871602058E0,-2.994547844E0
3.325733711E0,8.423998833E0,4.924274445E0,-3.056797028E0
3.328221627E0,8.366538048E0,4.953004837E0,-3.104681015E0
3.330709544E0,8.313865662E0,5.000888824E0,-3.142988205E0
3.333197461E0,8.280346870E0,5.039196014E0,-3.157353401E0
3.335685377E0,8.232462883E0,5.067926407E0,-3.166930199E0
3.338173294E0,8.194155693E0,5.082291603E0,-3.171718597E0
3.340661211E0,8.151060104E0,5.101445198E0,-3.166930199E0
3.343149127E0,8.131906509E0,5.091868401E0,-3.147776604E0
3.345637044E0,8.127118111E0,5.096656799E0,-3.119046211E0
3.348124961E0,8.127118111E0,5.087080002E0,-3.066373825E0
3.350612877E0,8.155848503E0,5.058349609E0,-3.008913040E0
3.353100794E0,8.155848503E0,5.039196014E0,-2.975394249E0
3.355588711E0,8.175002098E0,5.015254021E0,-2.913144827E0
3.358076627E0,8.194155693E0,4.962581635E0,-2.870049238E0
3.360564544E0,8.213309288E0,4.914697647E0,-2.865260839E0
3.363052461E0,8.218097687E0,4.852448463E0,-2.803011656E0
3.365540377E0,8.227674484E0,4.799776077E0,-2.764704466E0
3.368028294E0,8.261193275E0,4.751891613E0,-2.750339270E0
3.370516211E0,8.299500465E0,4.718372822E0,-2.702455282E0
3.373004127E0,8.342596054E0,4.660912037E0,-2.673724651E0
3.375492044E0,8.356961250E0,4.617816448E0,-2.654571056E0
3.377979961E0,8.361749649E0,4.560355663E0,-2.640205860E0
3.380467877E0,8.366538048E0,4.522048473E0,-2.625840664E0
3.382955794E0,8.356961250E0,4.502894878E0,-2.621052265E0
3.385443711E0,8.328230858E0,4.488529682E0,-2.616263866E0
3.387931627E0,8.304288864E0,4.483741283E0,-2.635417461E0
3.390419544E0,8.299500465E0,4.455010891E0,-2.649782658E0
3.392907461E0,8.289923668E0,4.426280499E0,-2.683301449E0
3.395395377E0,8.261193275E0,4.411915302E0,-2.697666883E0
3.397883294E0,8.246828079E0,4.392761707E0,-2.745550871E0
3.400371211E0,8.237251282E0,4.373608112E0,-2.788646460E0
3.402859127E0,8.237251282E0,4.349666119E0,-2.817376852E0
3.405347044E0,8.251616478E0,4.316147327E0,-2.841318846E0
3.407834961E0,8.256404877E0,4.301782131E0,-2.879626036E0
3.410322877E0,8.289923668E0,4.282628059E0,-2.922721624E0
3.412810794E0,8.313865662E0,4.253897667E0,-2.932298422E0
3.415298711E0,8.318654060E0,4.229955673E0,-2.951452255E0
3.417786627E0,8.333019257E0,4.220378876E0,-2.956240654E0
3.420274544E0,8.323442459E0,4.201225281E0,-2.961029053E0
3.422762461E0,8.313865662E0,4.177283287E0,-2.961029053E0
3.425250377E0,8.289923668E0,4.158129692E0,-2.956240654E0
3.427738294E0,8.289923668E0,4.148552895E0,-2.932298422E0
3.430226211E0,8.280346870E0,4.158129692E0,-2.917933226E0
3.432714127E0,8.265981674E0,4.153341293E0,-2.884414434E0
3.435202044E0,8.237251282E0,4.153341293E0,-2.846107244E0
3.437689961E0,8.242039680E0,4.172494888E0,-2.788646460E0
3.440177877E0,8.213309288E0,4.177283287E0,-2.721608877E0
3.442665794E0,8.203732491E0,4.186860085E0,-2.673724651E0
3.445153711E0,8.179790497E0,4.191648483E0,-2.635417461E0
3.447641627E0,8.165425301E0,4.182071686E0,-2.592321873E0
3.450129544E0,8.127118111E0,4.186860085E0,-2.563591480E0
3.452617461E0,8.112752914E0,4.186860085E0,-2.515707493E0
3.455105377E0,8.117541313E0,4.186860085E0,-2.458246708E0
3.457593294E0,8.127118111E0,4.191648483E0,-2.434304476E0
3.460081211E0,8.136694908E0,4.191648483E0,-2.419939280E0
3.462569127E0,8.170213699E0,4.191648483E0,-2.381632090E0
3.465057044E0,8.198944092E0,4.206013680E0,-2.348113298E0
3.467544909E0,8.208520889E0,4.201225281E0,-2.372055292E0
3.470032773E0,8.232462883E0,4.167706490E0,-2.415150881E0
3.472520638E0,8.237251282E0,4.172494888E0,-2.443881273E0
3.475008502E0,8.256404877E0,4.182071686E0,-2.477400303E0
3.477496367E0,8.256404877E0,4.172494888E0,-2.525284290E0
3.479984232E0,8.270770073E0,4.177283287E0,-2.558803082E0
3.482472096E0,8.270770073E0,4.196436882E0,-2.611475468E0
3.484959961E0,8.285135269E0,4.206013680E0,-2.664147854E0
3.487447825E0,8.270770073E0,4.201225281E0,-2.692878246E0
3.489935690E0,8.270770073E0,4.196436882E0,-2.707243681E0
3.492423555E0,8.285135269E0,4.206013680E0,-2.726397276E0
3.494911419E0,8.275558472E0,4.220378876E0,-2.745550871E0
3.497399284E0,8.280346870E0,4.220378876E0,-2.726397276E0
3.499887148E0,8.294712067E0,4.220378876E0,-2.740762472E0
3.502375013E0,8.285135269E0,4.239532471E0,-2.726397276E0
3.504862877E0,8.285135269E0,4.244320869E0,-2.731185675E0
3.507350742E0,8.285135269E0,4.239532471E0,-2.735974073E0
3.509838607E0,8.285135269E0,4.253897667E0,-2.740762472E0
3.512326471E0,8.294712067E0,4.253897667E0,-2.735974073E0
3.514814336E0,8.304288864E0,4.239532471E0,-2.721608877E0
3.517302200E0,8.304288864E0,4.234744072E0,-2.697666883E0
3.519790065E0,8.285135269E0,4.225167274E0,-2.668936253E0
3.522277930E0,8.285135269E0,4.210802078E0,-2.630629063E0
3.524765794E0,8.299500465E0,4.215590477E0,-2.573168278E0
3.527253659E0,8.309077263E0,4.206013680E0,-2.544437885E0
3.529741523E0,8.309077263E0,4.191648483E0,-2.525284290E0
3.532229388E0,8.323442459E0,4.167706490E0,-2.496553898E0
3.534717252E0,8.342596054E0,4.134187698E0,-2.477400303E0
3.537205117E0,8.380903244E0,4.115034103E0,-2.443881273E0
3.539692982E0,8.404845238E0,4.062361717E0,-2.448669672E0
3.542180846E0,8.438364029E0,4.038419724E0,-2.419939280E0
3.544668711E0,8.471882820E0,4.014477730E0,-2.367266893E0
3.547156575E0,8.519766808E0,3.971382141E0,-2.343324900E0
3.549644440E0,8.577227592E0,3.923498154E0,-2.305017710E0
3.552132305E0,8.620323181E0,3.913921118E0,-2.237980127E0
3.554620221E0,8.677783966E0,3.880402327E0,-2.190095901E0
3.557108138E0,8.701725960E0,3.856460333E0,-2.156577110E0
3.559596055E0,8.720879555E0,3.846883535E0,-2.123058319E0
3.562083971E0,8.744821548E0,3.842095137E0,-2.079962730E0
3.564571888E0,8.768763542E0,3.822941542E0,-2.051232338E0
3.567059805E0,8.783128738E0,3.813364744E0,-2.017713547E0
3.569547721E0,8.792705536E0,3.822941542E0,-2.041655540E0
3.572035638E0,8.802282333E0,3.837306738E0,-2.022501945E0
3.574523555E0,8.797493935E0,3.856460333E0,-2.022501945E0
3.577011471E0,8.802282333E0,3.885190725E0,-2.017713547E0
3.579499388E0,8.816647530E0,3.933074951E0,-2.027290344E0
3.581987305E0,8.835801125E0,3.961805344E0,-2.008136749E0
3.584475221E0,8.850166321E0,4.004900932E0,-1.998559833E0
3.586963138E0,8.869319916E0,4.047996521E0,-2.003348351E0
3.589451055E0,8.878896713E0,4.081515312E0,-1.984194636E0
3.591938971E0,8.883685112E0,4.100668907E0,-1.988983035E0
3.594426888E0,8.888473511E0,4.143764496E0,-1.984194636E0
3.596914805E0,8.907627106E0,4.196436882E0,-1.974617839E0
3.599402721E0,8.921992302E0,4.263474464E0,-1.974617839E0
3.601890638E0,8.950722694E0,4.296993732E0,-1.969829440E0
3.604378555E0,8.965087891E0,4.340089321E0,-1.984194636E0
3.606866471E0,8.993818283E0,4.378396511E0,-1.969829440E0
3.609354388E0,9.017760277E0,4.402338505E0,-1.969829440E0
3.611842305E0,9.041702271E0,4.411915302E0,-1.988983035E0
3.614330221E0,9.051279068E0,4.435857296E0,-2.012925148E0
3.616818138E0,9.094375610E0,4.474164486E0,-2.070385933E0
3.619306055E0,9.127894402E0,4.469376087E0,-2.127846718E0
3.621793971E0,9.127894402E0,4.488529682E0,-2.161365509E0
3.624281888E0,9.151836395E0,4.522048473E0,-2.218826532E0
3.626769805E0,9.147047997E0,4.560355663E0,-2.247556925E0
3.629257721E0,9.137471199E0,4.603451252E0,-2.271498919E0
3.631745638E0,9.151836395E0,4.622604847E0,-2.300229311E0
3.634233555E0,9.147047997E0,4.646546841E0,-2.305017710E0
3.636721471E0,9.147047997E0,4.656123638E0,-2.305017710E0
3.639209388E0,9.161413193E0,4.656123638E0,-2.300229311E0
3.641697305E0,9.180566788E0,4.651335239E0,-2.319382906E0
3.644185221E0,9.199720383E0,4.656123638E0,-2.309806108E0
3.646673138E0,9.247604370E0,4.670488834E0,-2.338536501E0
3.649161055E0,9.285911560E0,4.680065632E0,-2.367266893E0
3.651648971E0,9.329007149E0,4.704007626E0,-2.386420488E0
3.654136888E0,9.386467934E0,4.732738018E0,-2.434304476E0
3.656624805E0,9.453505516E0,4.732738018E0,-2.467823505E0
3.659112721E0,9.482235909E0,4.713584423E0,-2.501342297E0
3.661600638E0,9.534908295E0,4.723161221E0,-2.515707493E0
3.664088555E0,9.601945877E0,4.723161221E0,-2.530072689E0
3.666576471E0,9.640253067E0,4.723161221E0,-2.544437885E0
3.669064388E0,9.688137054E0,4.727949619E0,-2.577956676E0
3.671552305E0,9.707290649E0,4.742314816E0,-2.616263866E0
3.674040221E0,9.745597839E0,4.737526417E0,-2.616263866E0
3.676528138E0,9.769539833E0,4.766256809E0,-2.625840664E0
3.679016055E0,9.793481827E0,4.794987679E0,-2.659359455E0
3.681503971E0,9.827000618E0,4.818929672E0,-2.692878246E0
3.683991888E0,9.865307808E0,4.847660065E0,-2.702455282E0
3.686479805E0,9.917980194E0,4.876390457E0,-2.692878246E0
3.688967721E0,9.961075783E0,4.914697647E0,-2.697666883E0
3.691455638E0,1.001374817E1,4.948216438E0,-2.683301449E0
3.693943555E0,1.006642151E1,4.972158432E0,-2.688089848E0
3.696431471E0,1.010472870E1,4.967370033E0,-2.712032080E0
3.698919388E0,1.013345909E1,4.976946831E0,-2.712032080E0
3.701407305E0,1.017655468E1,4.972158432E0,-2.750339270E0
3.703895221E0,1.021965027E1,4.948216438E0,-2.788646460E0
3.706383138E0,1.023880386E1,4.929062843E0,-2.850895643E0
3.708871055E0,1.026274586E1,4.924274445E0,-2.893991232E0
3.711358971E0,1.027232265E1,4.943428040E0,-2.941875219E0
3.713846888E0,1.032020664E1,4.957793236E0,-2.994547844E0
3.716334805E0,1.035372543E1,4.929062843E0,-3.047220230E0
3.718822721E0,1.041118622E1,4.924274445E0,-3.109469414E0
3.721310638E0,1.046864700E1,4.895544052E0,-3.157353401E0
3.723798555E0,1.049737740E1,4.866813660E0,-3.205237627E0
3.726286471E0,1.053089619E1,4.852448463E0,-3.267486811E0
3.728774388E0,1.054526138E1,4.833294868E0,-3.291428804E0
3.731262305E0,1.052610779E1,4.818929672E0,-3.286640406E0
3.733750169E0,1.054526138E1,4.785410881E0,-3.296217203E0
3.736238034E0,1.053568459E1,4.775833607E0,-3.277063608E0
3.738725898E0,1.051653099E1,4.785410881E0,-3.257910013E0
3.741213763E0,1.052131939E1,4.771045208E0,-3.305794001E0
3.743701627E0,1.050695419E1,4.751891613E0,-3.344101191E0
3.746189492E0,1.049258900E1,4.732738018E0,-3.396773577E0
3.748677357E0,1.045907021E1,4.751891613E0,-3.463811398E0
3.751165221E0,1.041118622E1,4.747103214E0,-3.530848980E0
3.753653086E0,1.038245583E1,4.766256809E0,-3.597886562E0
3.756140950E0,1.037287903E1,4.794987679E0,-3.674500942E0
3.758628815E0,1.035372543E1,4.818929672E0,-3.727173567E0
3.761116680E0,1.034414864E1,4.847660065E0,-3.784634352E0
3.763604544E0,1.031541824E1,4.857236862E0,-3.846883535E0
3.766092409E0,1.029626465E1,4.885967255E0,-3.894767523E0
3.768580273E0,1.030584145E1,4.905120850E0,-3.894767523E0
3.771068138E0,1.030105305E1,4.933851242E0,-3.918709517E0
3.773556002E0,1.033936024E1,4.943428040E0,-3.933074951E0
3.776043867E0,1.036330223E1,4.948216438E0,-3.952228546E0
3.778531732E0,1.039682102E1,4.957793236E0,-3.947440147E0
3.781019596E0,1.044470501E1,4.972158432E0,-3.913921118E0
3.783507461E0,1.052610779E1,4.953004837E0,-3.885190725E0
3.785995325E0,1.059793377E1,4.957793236E0,-3.880402327E0
3.788483190E0,1.065539455E1,4.948216438E0,-3.885190725E0
3.790971055E0,1.069370174E1,4.948216438E0,-3.904344320E0
3.793458919E0,1.074637413E1,4.972158432E0,-3.947440147E0
3.795946784E0,1.076073933E1,4.972158432E0,-4.009689331E0
3.798434648E0,1.075116253E1,4.967370033E0,-4.081515312E0
3.800922513E0,1.075116253E1,4.953004837E0,-4.105457306E0
3.803410377E0,1.074637413E1,4.953004837E0,-4.124610901E0
3.805898242E0,1.072722054E1,4.938639641E0,-4.134187698E0
3.808386107E0,1.072243214E1,4.929062843E0,-4.095880508E0
3.810873971E0,1.069370174E1,4.900332451E0,-4.067150116E0
3.813361836E0,1.068412495E1,4.890755653E0,-4.052784920E0
3.815849700E0,1.067454815E1,4.885967255E0,-4.047996521E0
3.818337565E0,1.063624096E1,4.866813660E0,-4.047996521E0
3.820825430E0,1.057878017E1,4.838083267E0,-4.047996521E0
3.823313294E0,1.052610779E1,4.838083267E0,-4.071938515E0
3.825801159E0,1.045428181E1,4.842871666E0,-4.095880508E0
3.828289023E0,1.037287903E1,4.838083267E0,-4.124610901E0
3.830776888E0,1.027232265E1,4.823718071E0,-4.115034103E0
3.833264805E0,1.015740108E1,4.809352875E0,-4.119822502E0
3.835752721E0,1.004247856E1,4.804564476E0,-4.110245705E0
3.838240638E0,9.922768593E0,4.828506470E0,-4.100668907E0
3.840728555E0,9.793481827E0,4.852448463E0,-4.071938515E0
3.843216471E0,9.673771858E0,4.890755653E0,-4.038419724E0
3.845704388E0,9.539696693E0,4.924274445E0,-3.971382141E0
3.848192305E0,9.419986725E0,4.972158432E0,-3.880402327E0
3.850680221E0,9.309853554E0,4.996100426E0,-3.760692358E0
3.853168138E0,9.199720383E0,5.039196014E0,-3.617040157E0
3.855656055E0,9.099164009E0,5.077503204E0,-3.444657803E0
3.858143971E0,9.036913872E0,5.115810394E0,-3.315370798E0
3.860631888E0,9.008183479E0,5.120598793E0,-3.195660830E0
3.863119805E0,8.984241486E0,5.096656799E0,-3.066373825E0
3.865607721E0,8.974664688E0,5.034407616E0,-2.932298422E0
3.868095638E0,8.998606682E0,4.962581635E0,-2.812588453E0
3.870583555E0,9.046490669E0,4.900332451E0,-2.673724651E0
3.873071471E0,9.099164009E0,4.842871666E0,-2.534861088E0
3.875559388E0,9.161413193E0,4.766256809E0,-2.434304476E0
3.878047305E0,9.218873978E0,4.699219227E0,-2.400785685E0
3.880535221E0,9.314641953E0,4.636970043E0,-2.328959703E0
3.883023138E0,9.400833130E0,4.560355663E0,-2.305017710E0
3.885511055E0,9.477447510E0,4.483741283E0,-2.305017710E0
3.887998971E0,9.578003883E0,4.426280499E0,-2.324171305E0
3.890486888E0,9.640253067E0,4.387973309E0,-2.391208887E0
3.892974805E0,9.697713852E0,4.344877720E0,-2.472611904E0
3.895462721E0,9.750386238E0,4.268262863E0,-2.587533474E0
3.897950638E0,9.793481827E0,4.229955673E0,-2.716820478E0
3.900438555E0,9.812635422E0,4.177283287E0,-2.865260839E0
3.902926471E0,9.827000618E0,4.124610901E0,-3.018489838E0
3.905414388E0,9.812635422E0,4.091092110E0,-3.171718597E0
3.907902305E0,9.822212219E0,4.081515312E0,-3.334524393E0
3.910390221E0,9.817423820E0,4.091092110E0,-3.492541790E0
3.912878138E0,9.817423820E0,4.138976097E0,-3.664924145E0
3.915366055E0,9.793481827E0,4.172494888E0,-3.851671934E0
3.917853971E0,9.731232643E0,4.220378876E0,-4.062361717E0
3.920341888E0,9.640253067E0,4.249109268E0,-4.296993732E0
3.922829805E0,9.530119896E0,4.273051262E0,-4.560355663E0
3.925317721E0,9.415198326E0,4.282628059E0,-4.771045208E0
3.927805638E0,9.271546364E0,4.292205334E0,-4.943428040E0
3.930293555E0,9.147047997E0,4.296993732E0,-5.067926407E0
3.932781471E0,9.022548676E0,4.301782131E0,-5.091868401E0
3.935269388E0,8.907627106E0,4.311358929E0,-5.087080002E0
3.937757305E0,8.787917137E0,4.325724125E0,-5.039196014E0
3.940245221E0,8.653841972E0,4.383184910E0,-4.929062843E0
3.942733138E0,8.519766808E0,4.421492100E0,-4.771045208E0
3.945221055E0,8.414422035E0,4.431068897E0,-4.569932461E0
3.947708971E0,8.328230858E0,4.431068897E0,-4.340089321E0
3.950196888E0,8.246828079E0,4.416703701E0,-4.086303711E0
3.952684805E0,8.237251282E0,4.359242916E0,-3.822941542E0
3.955172721E0,8.222886086E0,4.273051262E0,-3.583521366E0
3.957660638E0,8.213309288E0,4.196436882E0,-3.286640406E0
3.960148555E0,8.275558472E0,4.100668907E0,-2.961029053E0
3.962636471E0,8.356961250E0,4.009689331E0,-2.649782658E0
3.965124388E0,8.462306023E0,3.933074951E0,-2.328959703E0
3.967612305E0,8.601169586E0,3.851671934E0,-2.027290344E0
3.970100221E0,8.749609947E0,3.765480757E0,-1.739986062E0
3.972588138E0,8.912415504E0,3.660135746E0,-1.495777488E0
3.975076002E0,9.056067467E0,3.554790974E0,-1.261145711E0
3.977563867E0,9.194931984E0,3.497330189E0,-1.064821243E0
3.980051732E0,9.309853554E0,3.420715570E0,-8.924387097E-1
3.982539596E0,9.405621529E0,3.339312792E0,-7.631517649E-1
3.985027461E0,9.506177902E0,3.277063608E0,-6.530185342E-1
3.987515325E0,9.563638687E0,3.219602823E0,-5.811924338E-1
3.990003190E0,9.592369080E0,3.176506996E0,-5.524620414E-1
3.992491055E0,9.621099472E0,3.152565002E0,-5.524620414E-1
3.994978919E0,9.649829865E0,3.142988205E0,-5.572504401E-1
3.997466784E0,9.659406662E0,3.171718597E0,-6.003460884E-1
3.999954648E0,9.635464668E0,3.214814425E0,-6.961141229E-1
4.002442513E0,9.616311073E0,3.253121614E0,-8.301894665E-1
4.004930377E0,9.592369080E0,3.315370798E0,-1.012148738E0
4.007418242E0,9.539696693E0,3.348889589E0,-1.194108129E0
4.009906107E0,9.482235909E0,3.425503969E0,-1.385644197E0
4.012393971E0,9.400833130E0,3.492541790E0,-1.543661594E0
4.014881836E0,9.319430351E0,3.588309765E0,-1.720832467E0
4.017369700E0,9.233239174E0,3.703231573E0,-1.874061346E0
4.019857565E0,9.142259598E0,3.779845953E0,-2.003348351E0
4.022345430E0,9.051279068E0,3.866037130E0,-2.137423515E0
4.024833294E0,8.945934296E0,3.971382141E0,-2.242768526E0
4.027321159E0,8.840589523E0,4.067150116E0,-2.348113298E0
4.029809023E0,8.730456352E0,4.148552895E0,-2.463035107E0
4.032296888E0,8.601169586E0,4.220378876E0,-2.592321873E0
4.034784752E0,8.481459618E0,4.268262863E0,-2.716820478E0
4.037272617E0,8.333019257E0,4.330512524E0,-2.874837637E0
4.039760482E0,8.184578896E0,4.378396511E0,-3.004124641E0
4.042248346E0,8.055291176E0,4.440645695E0,-3.128623009E0
4.044736211E0,7.935581684E0,4.507683277E0,-3.229179621E0
4.047224075E0,7.830236435E0,4.555567265E0,-3.296217203E0
4.049711940E0,7.758410454E0,4.603451252E0,-3.363254786E0
4.052199805E0,7.700949669E0,4.641758442E0,-3.401561975E0
4.054687669E0,7.681796074E0,4.660912037E0,-3.430292368E0
4.057175534E0,7.705738068E0,4.680065632E0,-3.444657803E0
4.059663398E0,7.748833656E0,4.680065632E0,-3.444657803E0
4.062151263E0,7.825448036E0,4.680065632E0,-3.425503969E0
4.064639127E0,7.906851292E0,4.665700436E0,-3.415927172E0
4.067126992E0,8.007407188E0,4.598662853E0,-3.396773577E0
4.069614857E0,8.107964516E0,4.560355663E0,-3.353677988E0
4.072102721E0,8.227674484E0,4.493318081E0,-3.315370798E0
4.074590586E0,8.328230858E0,4.411915302E0,-3.253121614E0
4.077078450E0,8.447940826E0,4.349666119E0,-3.123834610E0
4.079566315E0,8.577227592E0,4.282628059E0,-2.937086821E0
4.082054180E0,8.696937561E0,4.234744072E0,-2.716820478E0
4.084542044E0,8.807070732E0,4.177283287E0,-2.510919094E0
4.087029909E0,8.931569099E0,4.138976097E0,-2.305017710E0
4.089517825E0,9.022548676E0,4.081515312E0,-2.094327927E0
4.092005742E0,9.094375610E0,4.033631325E0,-1.888426542E0
4.094493659E0,9.142259598E0,3.990535736E0,-1.716044068E0
4.096981575E0,9.161413193E0,3.966593742E0,-1.538873196E0
4.099469492E0,9.161413193E0,3.961805344E0,-1.395220995E0
4.101957409E0,9.147047997E0,3.971382141E0,-1.261145711E0
4.104445898E0,9.118317604E0,3.976170540E0,-1.131858826E0
4.106934284E0,9.075222015E0,3.995324135E0,-1.040879130E0
4.109422200E0,8.998606682E0,4.047996521E0,-9.403226972E-1
4.111910065E0,8.869319916E0,4.124610901E0,-8.684966564E-1
4.114397930E0,8.730456352E0,4.210802078E0,-8.493430614E-1
4.116885794E0,8.586804390E0,4.296993732E0,-8.637082577E-1
4.119373659E0,8.457517624E0,4.359242916E0,-9.020155072E-1
4.121861523E0,8.380903244E0,4.411915302E0,-9.451110959E-1
4.124349388E0,8.328230858E0,4.498106480E0,-1.050456047E0
4.126837252E0,8.299500465E0,4.545990467E0,-1.189319730E0
4.129325117E0,8.261193275E0,4.593874454E0,-1.385644197E0
4.131812982E0,8.222886086E0,4.651335239E0,-1.586757183E0
4.134300846E0,8.179790497E0,4.704007626E0,-1.807023764E0
4.136788711E0,8.131906509E0,4.756680012E0,-2.027290344E0
4.139276575E0,8.112752914E0,4.799776077E0,-2.266710520E0
4.141764440E0,8.079233170E0,4.857236862E0,-2.463035107E0
4.144252305E0,8.088809967E0,4.914697647E0,-2.659359455E0
4.146740169E0,8.107964516E0,4.938639641E0,-2.903568029E0
4.149228034E0,8.117541313E0,4.981735229E0,-3.147776604E0
4.151715898E0,8.136694908E0,5.000888824E0,-3.411138773E0
4.154203763E0,8.155848503E0,5.010465622E0,-3.684077978E0
4.156691627E0,8.179790497E0,5.024830818E0,-3.937863350E0
4.159179492E0,8.179790497E0,5.029619217E0,-4.148552895E0
4.161667357E0,8.160636902E0,5.067926407E0,-4.359242916E0
4.164155221E0,8.141483307E0,5.096656799E0,-4.555567265E0
4.166643086E0,8.117541313E0,5.111021996E0,-4.737526417E0
4.169130950E0,8.107964516E0,5.120598793E0,-4.895544052E0
4.171618815E0,8.098387718E0,5.111021996E0,-5.015254021E0
4.174106680E0,8.093599319E0,5.115810394E0,-5.111021996E0
4.176594544E0,8.093599319E0,5.091868401E0,-5.173271179E0
4.179082409E0,8.093599319E0,5.063138008E0,-5.187636375E0
4.181570273E0,8.107964516E0,5.043984413E0,-5.178059578E0
4.184058138E0,8.103176117E0,5.005677223E0,-5.130175591E0
4.186546002E0,8.117541313E0,4.972158432E0,-5.039196014E0
4.189033867E0,8.131906509E0,4.919486046E0,-4.909909248E0
4.191521732E0,8.117541313E0,4.871602058E0,-4.747103214E0
4.194009596E0,8.103176117E0,4.828506470E0,-4.550778866E0
4.196497461E0,8.074444771E0,4.804564476E0,-4.296993732E0
4.198985325E0,8.050502777E0,4.804564476E0,-4.024054527E0
4.201473190E0,8.031349182E0,4.780622005E0,-3.775057554E0
4.203961055E0,8.021772385E0,4.780622005E0,-3.502118587E0
4.206448919E0,8.002618790E0,4.785410881E0,-3.277063608E0
4.208936784E0,7.954735279E0,4.794987679E0,-3.018489838E0
4.211424648E0,7.935581684E0,4.814141273E0,-2.769492865E0
4.213912513E0,7.935581684E0,4.823718071E0,-2.530072689E0
4.216400377E0,7.978677273E0,4.804564476E0,-2.328959703E0
4.218888242E0,8.074444771E0,4.747103214E0,-2.156577110E0
4.221376107E0,8.208520889E0,4.694430828E0,-2.008136749E0
4.223863971E0,8.361749649E0,4.613028049E0,-1.902791858E0
4.226351836E0,8.524555206E0,4.545990467E0,-1.811812162E0
4.228839700E0,8.711302757E0,4.478952885E0,-1.744774461E0
4.231327565E0,8.926780701E0,4.464587688E0,-1.711255670E0
4.233815430E0,9.137471199E0,4.440645695E0,-1.701678872E0
4.236303346E0,9.329007149E0,4.411915302E0,-1.716044068E0
4.238791263E0,9.467870712E0,4.383184910E0,-1.797446966E0
4.241279180E0,9.568427086E0,4.378396511E0,-1.907580256E0
4.243767096E0,9.645041466E0,4.364031315E0,-2.046443939E0
4.246255013E0,9.635464668E0,4.359242916E0,-2.209249735E0
4.248742930E0,9.578003883E0,4.364031315E0,-2.386420488E0
4.251230846E0,9.496601105E0,4.383184910E0,-2.558803082E0
4.253718763E0,9.357737541E0,4.416703701E0,-2.712032080E0
4.256206680E0,9.175778389E0,4.450222492E0,-2.831742048E0
4.258694596E0,8.984241486E0,4.502894878E0,-2.898779631E0
4.261182513E0,8.816647530E0,4.589086056E0,-2.946663857E0
4.263670430E0,8.668207169E0,4.660912037E0,-2.956240654E0
4.266158346E0,8.534132004E0,4.732738018E0,-2.984971046E0
4.268646263E0,8.390480042E0,4.785410881E0,-2.984971046E0
4.271134180E0,8.270770073E0,4.823718071E0,-3.008913040E0
4.273622096E0,8.122329712E0,4.823718071E0,-3.061585426E0
4.276110013E0,8.012195587E0,4.804564476E0,-3.114257812E0
4.278597930E0,7.930793285E0,4.780622005E0,-3.162141800E0
4.281085846E0,7.921216488E0,4.732738018E0,-3.176506996E0
4.283573763E0,7.949946880E0,4.684854031E0,-3.195660830E0
4.286061680E0,8.026560783E0,4.646546841E0,-3.224391222E0
4.288549596E0,8.131906509E0,4.627393246E0,-3.229179621E0
4.291037513E0,8.237251282E0,4.608239651E0,-3.210026026E0
4.293525430E0,8.390480042E0,4.565144062E0,-3.190872431E0
4.296013346E0,8.529343605E0,4.512471676E0,-3.176506996E0
4.298501263E0,8.639476776E0,4.435857296E0,-3.128623009E0
4.300989180E0,8.716091156E0,4.344877720E0,-3.114257812E0
4.303477096E0,8.792705536E0,4.268262863E0,-3.042431831E0
4.305965013E0,8.831012726E0,4.239532471E0,-2.927510023E0
4.308452930E0,8.878896713E0,4.206013680E0,-2.807800055E0
4.310940846E0,8.893261909E0,4.196436882E0,-2.683301449E0
4.313428763E0,8.945934296E0,4.201225281E0,-2.577956676E0
4.315916680E0,8.989029884E0,4.210802078E0,-2.491765499E0
4.318404596E0,8.993818283E0,4.201225281E0,-2.434304476E0
4.320892513E0,8.993818283E0,4.206013680E0,-2.439092875E0
4.323380430E0,9.003395081E0,4.206013680E0,-2.434304476E0
4.325868346E0,9.008183479E0,4.210802078E0,-2.424727678E0
4.328356263E0,9.003395081E0,4.182071686E0,-2.429516077E0
4.330844180E0,9.027337074E0,4.162918091E0,-2.424727678E0
4.333332096E0,9.012971878E0,4.129399300E0,-2.391208887E0
4.335820013E0,9.003395081E0,4.138976097E0,-2.348113298E0
4.338307930E0,8.960299492E0,4.148552895E0,-2.290652514E0
4.340795846E0,8.883685112E0,4.172494888E0,-2.247556925E0
4.343283763E0,8.807070732E0,4.206013680E0,-2.209249735E0
4.345771680E0,8.735244751E0,4.239532471E0,-2.199672699E0
4.348259544E0,8.692149162E0,4.239532471E0,-2.194884300E0
4.350747409E0,8.620323181E0,4.225167274E0,-2.218826532E0
4.353235273E0,8.534132004E0,4.196436882E0,-2.214038134E0
4.355723138E0,8.423998833E0,4.182071686E0,-2.199672699E0
4.358211002E0,8.304288864E0,4.167706490E0,-2.190095901E0
4.360698867E0,8.208520889E0,4.158129692E0,-2.156577110E0
4.363186732E0,8.122329712E0,4.172494888E0,-2.156577110E0
4.365674596E0,8.040925980E0,4.186860085E0,-2.180519104E0
4.368162461E0,7.945158482E0,4.196436882E0,-2.199672699E0
4.370650325E0,7.849390507E0,4.201225281E0,-2.199672699E0
4.373138190E0,7.753622055E0,4.186860085E0,-2.218826532E0
4.375626055E0,7.672219276E0,4.191648483E0,-2.266710520E0
4.378113919E0,7.633912086E0,4.196436882E0,-2.328959703E0
4.380601784E0,7.619546890E0,4.215590477E0,-2.410362482E0
4.383089648E0,7.619546890E0,4.234744072E0,-2.472611904E0
4.385577513E0,7.638700485E0,4.234744072E0,-2.554014683E0
4.388065377E0,7.677007675E0,4.215590477E0,-2.635417461E0
4.390553242E0,7.720103264E0,4.177283287E0,-2.668936253E0
4.393041107E0,7.777564049E0,4.138976097E0,-2.697666883E0
4.395528971E0,7.825448036E0,4.100668907E0,-2.726397276E0
4.398016836E0,7.868544102E0,4.067150116E0,-2.750339270E0
4.400504700E0,7.911639690E0,4.047996521E0,-2.759916067E0
4.402992565E0,7.969100475E0,4.038419724E0,-2.740762472E0
4.405480430E0,8.055291176E0,4.024054527E0,-2.688089848E0
4.407968294E0,8.146271706E0,3.985747337E0,-2.640205860E0
4.410456159E0,8.227674484E0,3.957016945E0,-2.606687069E0
4.412944023E0,8.294712067E0,3.933074951E0,-2.592321873E0
4.415431888E0,8.352172852E0,3.909132719E0,-2.630629063E0
4.417919752E0,8.380903244E0,3.880402327E0,-2.659359455E0
4.420407617E0,8.380903244E0,3.875613928E0,-2.716820478E0
4.422895482E0,8.371326447E0,3.885190725E0,-2.745550871E0
4.425383346E0,8.361749649E0,3.894767523E0,-2.788646460E0
4.427871211E0,8.304288864E0,3.894767523E0,-2.788646460E0
4.430359075E0,8.246828079E0,3.909132719E0,-2.798223257E0
4.432846940E0,8.194155693E0,3.928286552E0,-2.750339270E0
4.435334805E0,8.146271706E0,3.961805344E0,-2.683301449E0
4.437822669E0,8.088809967E0,3.990535736E0,-2.611475468E0
4.440310534E0,8.007407188E0,4.033631325E0,-2.530072689E0
4.442798398E0,7.935581684E0,4.062361717E0,-2.448669672E0
4.445286263E0,7.858967304E0,4.062361717E0,-2.367266893E0
4.447774127E0,7.811082840E0,4.057573318E0,-2.261922121E0
4.450261992E0,7.811082840E0,4.067150116E0,-2.180519104E0
4.452749857E0,7.844601631E0,4.076726913E0,-2.103904724E0
4.455237721E0,7.878120899E0,4.086303711E0,-2.036867142E0
4.457725586E0,7.906851292E0,4.110245705E0,-1.993771434E0
4.460213450E0,7.935581684E0,4.129399300E0,-1.969829440E0
4.462701315E0,7.978677273E0,4.138976097E0,-1.945887446E0
4.465189180E0,7.983465672E0,4.167706490E0,-1.902791858E0
4.467677044E0,7.983465672E0,4.186860085E0,-1.864484549E0
4.470164909E0,7.983465672E0,4.191648483E0,-1.869272947E0
4.472652773E0,7.978677273E0,4.191648483E0,-1.883638144E0
4.475140638E0,7.978677273E0,4.186860085E0,-1.859696150E0
4.477628502E0,7.969100475E0,4.186860085E0,-1.854907751E0
4.480116367E0,7.993042469E0,4.182071686E0,-1.821388960E0
4.482604232E0,8.021772385E0,4.158129692E0,-1.802235365E0
4.485092096E0,8.079233170E0,4.134187698E0,-1.807023764E0
4.487579961E0,8.146271706E0,4.129399300E0,-1.850119352E0
4.490067825E0,8.184578896E0,4.110245705E0,-1.931522250E0
4.492555690E0,8.222886086E0,4.071938515E0,-2.022501945E0
4.495043555E0,8.270770073E0,4.057573318E0,-2.118269920E0
4.497531471E0,8.313865662E0,4.028842926E0,-2.204461098E0
4.500019388E0,8.361749649E0,3.976170540E0,-2.276287317E0
4.502507305E0,8.423998833E0,3.923498154E0,-2.367266893E0
4.504995221E0,8.476671219E0,3.880402327E0,-2.477400303E0
4.507483138E0,8.500613213E0,3.842095137E0,-2.568379879E0
4.509971055E0,8.467094421E0,3.789422750E0,-2.668936253E0
4.512458971E0,8.452729225E0,3.770269156E0,-2.764704466E0
4.514946888E0,8.447940826E0,3.708019972E0,-2.759916067E0
4.517434805E0,8.447940826E0,3.636193752E0,-2.755127668E0
4.519922721E0,8.361749649E0,3.727173567E0,-2.745550871E0
4.522410638E0,8.313865662E0,3.851671934E0,-2.731185675E0
4.524898555E0,8.261193275E0,3.899555922E0,-2.826953650E0
4.527386471E0,8.160636902E0,3.851671934E0,-2.961029053E0
4.529874388E0,8.045714378E0,3.784634352E0,-3.037643433E0
4.532362305E0,7.935581684E0,3.717596769E0,-3.052008629E0
4.534850221E0,7.868544102E0,3.669712543E0,-2.984971046E0
4.537338138E0,7.849390507E0,3.660135746E0,-2.870049238E0
4.539826055E0,7.839813232E0,3.698443174E0,-2.716820478E0
4.542313971E0,7.863755703E0,3.727173567E0,-2.530072689E0
4.544801888E0,7.892486095E0,3.727173567E0,-2.357690096E0
4.547289805E0,7.930793285E0,3.708019972E0,-2.185307503E0
4.549777721E0,7.964312077E0,3.664924145E0,-2.022501945E0
4.552265638E0,7.997830868E0,3.607463360E0,-1.864484549E0
4.554753555E0,8.088809967E0,3.521272182E0,-1.725620866E0
4.557241471E0,8.189367294E0,3.425503969E0,-1.601122379E0
4.559729388E0,8.280346870E0,3.329735994E0,-1.490989089E0
4.562217305E0,8.366538048E0,3.243544817E0,-1.361702204E0
4.564705846E0,8.500613213E0,3.152565002E0,-1.227626920E0
4.567193502E0,8.692149162E0,3.052008629E0,-1.136647224E0
4.569681159E0,8.888473511E0,2.961029053E0,-1.021725535E0
4.572168815E0,9.084798813E0,2.898779631E0,-9.546879530E-1
4.574656471E0,9.266757965E0,2.841318846E0,-9.498994946E-1
4.577144127E0,9.386467934E0,2.783858061E0,-9.977835417E-1
4.579631784E0,9.448717117E0,2.731185675E0,-1.074398041E0
4.582119492E0,9.448717117E0,2.702455282E0,-1.155800819E0
4.584607252E0,9.396044731E0,2.678513050E0,-1.256357312E0
4.587095065E0,9.290699959E0,2.668936253E0,-1.342548609E0
4.589582930E0,9.190143585E0,2.678513050E0,-1.390432596E0
4.592070846E0,9.051279068E0,2.735974073E0,-1.443105102E0
4.594558815E0,8.902838707E0,2.807800055E0,-1.486200690E0
4.597046836E0,8.706514359E0,2.865260839E0,-1.529296279E0
4.599534857E0,8.519766808E0,2.913144827E0,-1.567603588E0
4.602022877E0,8.376114845E0,2.965817451E0,-1.591545582E0
4.604510898E0,8.289923668E0,3.013701439E0,-1.601122379E0
4.606998919E0,8.237251282E0,3.047220230E0,-1.620275974E0
4.609486940E0,8.218097687E0,3.052008629E0,-1.653794765E0
4.611974961E0,8.213309288E0,3.052008629E0,-1.706467271E0
4.614462982E0,8.198944092E0,3.047220230E0,-1.811812162E0
4.616951002E0,8.213309288E0,3.023278236E0,-1.921945453E0
4.619439023E0,8.237251282E0,2.989759445E0,-2.003348351E0
4.621926940E0,8.261193275E0,2.941875219E0,-2.060809135E0
4.624414805E0,8.265981674E0,2.927510023E0,-2.070385933E0
4.626902669E0,8.294712067E0,2.913144827E0,-2.065597534E0
4.629390534E0,8.356961250E0,2.908356428E0,-2.056020737E0
4.631878398E0,8.452729225E0,2.922721624E0,-2.022501945E0
4.634366263E0,8.524555206E0,2.913144827E0,-2.041655540E0
4.636854127E0,8.625111580E0,2.893991232E0,-2.079962730E0
4.639341992E0,8.687360764E0,2.893991232E0,-2.113481522E0
4.641829857E0,8.716091156E0,2.870049238E0,-2.132635117E0
4.644317721E0,8.730456352E0,2.865260839E0,-2.180519104E0
4.646805586E0,8.735244751E0,2.889202833E0,-2.242768526E0
4.649293450E0,8.706514359E0,2.903568029E0,-2.290652514E0
4.651781315E0,8.696937561E0,2.932298422E0,-2.300229311E0
4.654269180E0,8.696937561E0,2.984971046E0,-2.261922121E0
4.656757044E0,8.682572365E0,3.075950623E0,-2.214038134E0
4.659244909E0,8.634688377E0,3.157353401E0,-2.142211914E0
4.661732773E0,8.572439194E0,3.224391222E0,-2.099116325E0
4.664220638E0,8.514978409E0,3.233968019E0,-2.075174332E0
4.666708502E0,8.476671219E0,3.195660830E0,-2.123058319E0
4.669196367E0,8.471882820E0,3.166930199E0,-2.147000313E0
4.671684232E0,8.491036415E0,3.128623009E0,-2.185307503E0
4.674172096E0,8.476671219E0,3.080739021E0,-2.185307503E0
4.676659961E0,8.467094421E0,3.023278236E0,-2.199672699E0
4.679147825E0,8.452729225E0,2.961029053E0,-2.151788712E0
4.681635690E0,8.428787231E0,2.913144827E0,-2.075174332E0
4.684123555E0,8.371326447E0,2.889202833E0,-2.012925148E0
4.686611419E0,8.289923668E0,2.850895643E0,-1.960252643E0
4.689099284E0,8.184578896E0,2.836530447E0,-1.907580256E0
4.691587148E0,8.060079575E0,2.860472441E0,-1.845330954E0
4.694075013E0,7.926004887E0,2.865260839E0,-1.797446966E0
4.696562877E0,7.811082840E0,2.879626036E0,-1.730409265E0
4.699050742E0,7.710526466E0,2.874837637E0,-1.653794765E0
4.701538607E0,7.629123688E0,2.889202833E0,-1.548449993E0
4.704026471E0,7.542932510E0,2.937086821E0,-1.419163108E0
4.706514336E0,7.485471725E0,2.961029053E0,-1.361702204E0
4.709002200E0,7.456741333E0,3.008913040E0,-1.352125406E0
4.711490065E0,7.447164536E0,3.071162224E0,-1.400009394E0
4.713977930E0,7.437587738E0,3.147776604E0,-1.462258697E0
4.716465794E0,7.432799339E0,3.200449228E0,-1.577180386E0
4.718953659E0,7.451952934E0,3.214814425E0,-1.682525277E0
4.721441523E0,7.485471725E0,3.210026026E0,-1.787870169E0
4.723929388E0,7.581239700E0,3.210026026E0,-1.830965757E0
4.726417252E0,7.686584473E0,3.262698412E0,-1.917157054E0
4.728905117E0,7.806294441E0,3.363254786E0,-2.017713547E0
4.731392982E0,7.916428089E0,3.478176594E0,-2.127846718E0
4.733880846E0,7.988254070E0,3.545214176E0,-2.300229311E0
4.736368711E0,8.026560783E0,3.612251759E0,-2.525284290E0
4.738856575E0,8.026560783E0,3.674500942E0,-2.807800055E0
4.741344440E0,7.973888874E0,3.751115561E0,-3.066373825E0
4.743832305E0,7.906851292E0,3.851671934E0,-3.329735994E0
4.746320169E0,7.801506042E0,3.942651749E0,-3.583521366E0
4.748808034E0,7.677007675E0,4.038419724E0,-3.842095137E0
4.751295898E0,7.557297707E0,4.119822502E0,-4.095880508E0
4.753783763E0,7.428010941E0,4.186860085E0,-4.383184910E0
4.756271627E0,7.293935299E0,4.263474464E0,-4.675277233E0
4.758759492E0,7.179013729E0,4.335300922E0,-4.933851242E0
4.761247357E0,7.097610950E0,4.378396511E0,-5.202001572E0
4.763735221E0,7.040150166E0,4.431068897E0,-5.431845188E0
4.766223086E0,6.934805393E0,4.507683277E0,-5.609015942E0
4.768710950E0,6.834248543E0,4.579509258E0,-5.719149113E0
4.771198815E0,6.762422562E0,4.646546841E0,-5.790975571E0
4.773686680E0,6.671442986E0,4.680065632E0,-5.834071159E0
4.776174544E0,6.594828606E0,4.704007626E0,-5.819705963E0
4.778662409E0,6.570886612E0,4.704007626E0,-5.747879505E0
4.781150273E0,6.618770599E0,4.694430828E0,-5.628169537E0
4.783638138E0,6.676231384E0,4.675277233E0,-5.436633587E0
4.786126002E0,6.762422562E0,4.670488834E0,-5.216366768E0
4.788613867E0,6.867767811E0,4.641758442E0,-4.972158432E0
4.791101732E0,6.958747387E0,4.646546841E0,-4.756680012E0
4.793589596E0,7.030573368E0,4.660912037E0,-4.579509258E0
4.796077461E0,7.064092159E0,4.651335239E0,-4.392761707E0
4.798565325E0,7.059303761E0,4.617816448E0,-4.172494888E0
4.801053190E0,7.040150166E0,4.526836872E0,-3.952228546E0
4.803541055E0,7.030573368E0,4.416703701E0,-3.794211149E0
4.806028919E0,7.083245754E0,4.287416458E0,-3.660135746E0
4.808516836E0,7.155071735E0,4.182071686E0,-3.530848980E0
4.811004752E0,7.250839710E0,4.129399300E0,-3.463811398E0
4.813492669E0,7.322665691E0,4.110245705E0,-3.478176594E0
4.815980586E0,7.337030888E0,4.076726913E0,-3.583521366E0
4.818468502E0,7.327454090E0,4.062361717E0,-3.688866377E0
4.820956419E0,7.308300495E0,4.038419724E0,-3.784634352E0
4.823444336E0,7.298723698E0,4.014477730E0,-3.909132719E0
4.825932252E0,7.279570103E0,4.004900932E0,-4.038419724E0
4.828420169E0,7.217320919E0,4.009689331E0,-4.158129692E0
4.830908086E0,7.092822552E0,4.014477730E0,-4.306570530E0
4.833396002E0,6.963535786E0,3.985747337E0,-4.517260075E0
4.835883919E0,6.786364555E0,3.961805344E0,-4.775833607E0
4.838371836E0,6.575675011E0,3.933074951E0,-5.034407616E0
4.840859752E0,6.398504257E0,3.889979124E0,-5.264250755E0
4.843347669E0,6.264428616E0,3.866037130E0,-5.417479992E0
4.845835586E0,6.163872242E0,3.875613928E0,-5.513247967E0
4.848323502E0,6.044162273E0,3.918709517E0,-5.537189960E0
4.850811419E0,5.924452305E0,3.980958939E0,-5.580285549E0
4.853299336E0,5.809530258E0,4.019266129E0,-5.618592739E0
4.855787252E0,5.766434669E0,4.004900932E0,-5.714360714E0
4.858275169E0,5.790376663E0,3.961805344E0,-5.848436356E0
4.860763086E0,5.828683853E0,3.913921118E0,-5.982511520E0
4.863251002E0,5.852625847E0,3.818153143E0,-6.063914299E0
4.865738919E0,5.914875507E0,3.717596769E0,-6.116586685E0
4.868226836E0,6.044162273E0,3.588309765E0,-6.107009888E0
4.870714752E0,6.235698223E0,3.492541790E0,-6.054337502E0
4.873202669E0,6.451176643E0,3.420715570E0,-5.948992729E0
4.875690586E0,6.681019783E0,3.363254786E0,-5.824494362E0
4.878178502E0,6.901286602E0,3.301005602E0,-5.709572315E0
4.880666419E0,7.073668957E0,3.224391222E0,-5.623381138E0
4.883154336E0,7.217320919E0,3.171718597E0,-5.551555157E0
4.885642252E0,7.322665691E0,3.152565002E0,-5.494094372E0
4.888130169E0,7.384915352E0,3.109469414E0,-5.403114796E0
4.890618086E0,7.456741333E0,3.061585426E0,-5.331288815E0
4.893106002E0,7.523778915E0,2.984971046E0,-5.245097160E0
4.895593867E0,7.605181694E0,2.846107244E0,-5.163694382E0
4.898081732E0,7.700949669E0,2.779069662E0,-5.043984413E0
4.900569596E0,7.753622055E0,2.779069662E0,-4.914697647E0
4.903057461E0,7.772775650E0,2.841318846E0,-4.775833607E0
4.905545325E0,7.782352448E0,2.884414434E0,-4.713584423E0
4.908033190E0,7.729680061E0,2.917933226E0,-4.704007626E0
4.910521055E0,7.624335289E0,2.937086821E0,-4.756680012E0
4.913008919E0,7.471106529E0,2.932298422E0,-4.799776077E0
4.915496784E0,7.289146900E0,2.951452255E0,-4.857236862E0
4.917984648E0,7.107187748E0,2.965817451E0,-4.857236862E0
4.920472513E0,6.949170589E0,3.008913040E0,-4.833294868E0
4.922960377E0,6.877344608E0,3.061585426E0,-4.799776077E0
4.925448242E0,6.815094948E0,3.138199806E0,-4.747103214E0
4.927936107E0,6.757634163E0,3.200449228E0,-4.689642429E0
4.930423971E0,6.618770599E0,3.296217203E0,-4.684854031E0
4.932911836E0,6.441599846E0,3.368043184E0,-4.737526417E0
4.935399700E0,6.259640217E0,3.401561975E0,-4.876390457E0
4.937887565E0,6.077681065E0,3.401561975E0,-5.067926407E0
4.940375430E0,5.919663906E0,3.377619982E0,-5.273828030E0
4.942863294E0,5.809530258E0,3.344101191E0,-5.450998783E0
4.945351159E0,5.723339081E0,3.320159197E0,-5.570708752E0
4.947839023E0,5.680243492E0,3.329735994E0,-5.656899929E0
4.950326888E0,5.656301498E0,3.329735994E0,-5.719149113E0
4.952814752E0,5.732915878E0,3.320159197E0,-5.771821976E0
4.955302617E0,5.852625847E0,3.320159197E0,-5.776610374E0
4.957790482E0,6.020220280E0,3.329735994E0,-5.709572315E0
4.960278346E0,6.187814236E0,3.329735994E0,-5.671265125E0
4.962766211E0,6.230909824E0,3.344101191E0,-5.647323132E0
4.965254075E0,6.192602634E0,3.348889589E0,-5.652111530E0
4.967741940E0,6.106411457E0,3.348889589E0,-5.666476727E0
4.970229805E0,6.010643482E0,3.358466387E0,-5.589862347E0
4.972717669E0,5.919663906E0,3.387196779E0,-5.494094372E0
4.975205534E0,5.886145115E0,3.449446201E0,-5.398326397E0
4.977693398E0,5.866991043E0,3.497330189E0,-5.292981625E0
4.980181263E0,5.876567841E0,3.521272182E0,-5.158905983E0
4.982669127E0,5.905298710E0,3.588309765E0,-5.039196014E0
4.985156992E0,5.938817501E0,3.679289579E0,-4.900332451E0
4.987644857E0,5.981913090E0,3.746327162E0,-4.794987679E0
4.990132721E0,6.053739071E0,3.755903959E0,-4.689642429E0
4.992620586E0,6.159083843E0,3.727173567E0,-4.574720860E0
4.995108450E0,6.312312603E0,3.664924145E0,-4.402338505E0
4.997596315E0,6.508637428E0,3.626616955E0,-4.225167274E0
5.000084180E0,6.690596581E0,3.573944569E0,-4.086303711E0
5.002572044E0,6.848613739E0,3.516483784E0,-3.976170540E0
5.005059909E0,6.992266178E0,3.482964993E0,-3.846883535E0
5.007547773E0,7.092822552E0,3.468599796E0,-3.693654776E0
5.010035638E0,7.193378925E0,3.459022999E0,-3.526060581E0
5.012523502E0,7.308300495E0,3.444657803E0,-3.324947596E0
5.015011367E0,7.418434143E0,3.444657803E0,-3.119046211E0
5.017499232E0,7.509413719E0,3.492541790E0,-2.937086821E0
5.019987096E0,7.533355713E0,3.607463360E0,-2.855684042E0
5.022474961E0,7.456741333E0,3.736750364E0,-2.879626036E0
5.024962825E0,7.337030888E0,3.842095137E0,-3.123834610E0
5.027450690E0,7.217320919E0,3.942651749E0,-3.569156170E0
5.029938555E0,7.102399349E0,4.019266129E0,-4.095880508E0
5.032426419E0,6.982689381E0,4.071938515E0,-4.656123638E0
5.034914284E0,6.867767811E0,4.124610901E0,-5.158905983E0
5.037402148E0,6.743268967E0,4.201225281E0,-5.565920353E0
5.039890013E0,6.609193802E0,4.316147327E0,-5.858013153E0
5.042377877E0,6.455965042E0,4.421492100E0,-6.073491096E0
5.044865742E0,6.269217014E0,4.483741283E0,-6.245873451E0
5.047353607E0,6.135141850E0,4.512471676E0,-6.384737492E0
5.049841471E0,6.034585476E0,4.550778866E0,-6.485293865E0
5.052329336E0,6.015431881E0,4.593874454E0,-6.566696644E0
5.054817200E0,6.025008678E0,4.665700436E0,-6.619369030E0
5.057305065E0,6.010643482E0,4.766256809E0,-6.695983410E0
5.059792930E0,5.943605900E0,4.799776077E0,-6.839635849E0
5.062280794E0,5.843049049E0,4.766256809E0,-6.978499413E0
5.064769180E0,5.766434669E0,4.732738018E0,-7.079055786E0
5.067257461E0,5.732915878E0,4.732738018E0,-7.107786179E0
5.069745377E0,5.752069473E0,4.751891613E0,-7.093420982E0
5.072233242E0,5.761646271E0,4.780622005E0,-7.012018204E0
5.074721107E0,5.780799866E0,4.804564476E0,-6.916250229E0
5.077208971E0,5.790376663E0,4.761468410E0,-6.782175064E0
5.079696836E0,5.795165062E0,4.670488834E0,-6.590638638E0
5.082184700E0,5.843049049E0,4.550778866E0,-6.312911510E0
5.084672565E0,5.914875507E0,4.435857296E0,-5.948992729E0
5.087160430E0,6.020220280E0,4.378396511E0,-5.570708752E0
5.089648294E0,6.130353451E0,4.368819714E0,-5.225943565E0
5.092136159E0,6.216544628E0,4.325724125E0,-4.929062843E0
5.094624023E0,6.331466198E0,4.229955673E0,-4.646546841E0
5.097111888E0,6.484695435E0,4.091092110E0,-4.378396511E0
5.099599752E0,6.719326973E0,3.957016945E0,-4.076726913E0
5.102087617E0,6.987477779E0,3.842095137E0,-3.794211149E0
5.104575482E0,7.284358501E0,3.765480757E0,-3.550002575E0
5.107063346E0,7.547720909E0,3.755903959E0,-3.320159197E0
5.109551211E0,7.830236435E0,3.789422750E0,-3.095104218E0
5.112039075E0,8.064867973E0,3.846883535E0,-2.884414434E0
5.114526940E0,8.251616478E0,3.913921118E0,-2.659359455E0
5.117014805E0,8.366538048E0,3.966593742E0,-2.458246708E0
5.119502669E0,8.385691643E0,4.024054527E0,-2.309806108E0
5.121990534E0,8.352172852E0,4.081515312E0,-2.204461098E0
5.124478398E0,8.261193275E0,4.134187698E0,-2.142211914E0
5.126966263E0,8.141483307E0,4.143764496E0,-2.137423515E0
5.129454127E0,8.050502777E0,4.172494888E0,-2.190095901E0
5.131941992E0,8.007407188E0,4.273051262E0,-2.233191729E0
5.134429857E0,7.940370083E0,4.421492100E0,-2.300229311E0
5.136917721E0,7.849390507E0,4.512471676E0,-2.506130695E0
5.139405586E0,7.710526466E0,4.545990467E0,-2.874837637E0
5.141893450E0,7.518990517E0,4.565144062E0,-3.301005602E0
5.144381315E0,7.313088894E0,4.545990467E0,-3.765480757E0
5.146869180E0,7.068880558E0,4.488529682E0,-4.282628059E0
5.149357044E0,6.824671745E0,4.455010891E0,-4.780622005E0
5.151844909E0,6.661866188E0,4.402338505E0,-5.225943565E0
5.154332773E0,6.523002625E0,4.354454517E0,-5.666476727E0
5.156820638E0,6.451176643E0,4.316147327E0,-6.020818710E0
5.159308502E0,6.446388245E0,4.268262863E0,-6.384737492E0
5.161796367E0,6.475118637E0,4.215590477E0,-6.638522625E0
5.164284232E0,6.570886612E0,4.138976097E0,-6.825270653E0
5.166772096E0,6.642712593E0,4.067150116E0,-6.911461830E0
5.169259961E0,6.700173378E0,4.033631325E0,-6.930615425E0
5.171747825E0,6.709750175E0,4.000112534E0,-6.868366241E0
5.174235690E0,6.724115372E0,3.980958939E0,-6.705560207E0
5.176723555E0,6.704961777E0,4.000112534E0,-6.437409878E0
5.179211419E0,6.719326973E0,4.009689331E0,-6.097433090E0
5.181699284E0,6.786364555E0,4.009689331E0,-5.709572315E0
5.184187148E0,6.949170589E0,4.004900932E0,-5.283404827E0
5.186675013E0,7.193378925E0,4.014477730E0,-4.818929672E0
5.189162877E0,7.432799339E0,4.014477730E0,-4.387973309E0
5.191650742E0,7.638700485E0,4.033631325E0,-4.024054527E0
5.194138607E0,7.782352448E0,4.038419724E0,-3.660135746E0
5.196626471E0,7.873332500E0,4.038419724E0,-3.339312792E0
5.199114336E0,7.930793285E0,4.052784920E0,-3.037643433E0
5.201602200E0,7.906851292E0,4.100668907E0,-2.779069662E0
5.204090065E0,7.835024834E0,4.134187698E0,-2.568379879E0
5.206577930E0,7.744045258E0,4.186860085E0,-2.415150881E0
5.209065794E0,7.662642479E0,4.215590477E0,-2.290652514E0
5.211553659E0,7.614758492E0,4.225167274E0,-2.228403330E0
5.214041523E0,7.590816498E0,4.229955673E0,-2.199672699E0
5.216529388E0,7.581239700E0,4.239532471E0,-2.233191729E0
5.219017252E0,7.581239700E0,4.201225281E0,-2.352901697E0
5.221505117E0,7.638700485E0,4.095880508E0,-2.515707493E0
5.223992982E0,7.720103264E0,3.980958939E0,-2.697666883E0
5.226480846E0,7.854178905E0,3.880402327E0,-2.850895643E0
5.228968711E0,8.031349182E0,3.789422750E0,-2.975394249E0
5.231456575E0,8.232462883E0,3.650558949E0,-3.095104218E0
5.233944440E0,8.366538048E0,3.540425777E0,-3.219602823E0
5.236432305E0,8.471882820E0,3.411138773E0,-3.324947596E0
5.238920169E0,8.462306023E0,3.281852007E0,-3.439869404E0
5.241408034E0,8.419210434E0,3.147776604E0,-3.554790974E0
5.243895898E0,8.342596054E0,3.075950623E0,-3.636193752E0
5.246383763E0,8.280346870E0,3.032855034E0,-3.693654776E0
5.248871627E0,8.222886086E0,3.023278236E0,-3.731961966E0
