"Time (s)","Gyroscope x (rad/s)","Gyroscope y (rad/s)","Gyroscope z (rad/s)"
5.402407500E-2,-5.326318205E-4,3.954791278E-2,5.459476262E-3
5.648391900E-2,-1.597895520E-3,4.167843983E-2,7.590003312E-3
5.894938800E-2,-4.793686327E-3,4.274370521E-2,9.720530361E-3
6.142115900E-2,-6.924213842E-3,4.487423226E-2,1.291632187E-2
6.389959600E-2,-9.054740891E-3,4.593949392E-2,1.611211337E-2
6.638480500E-2,-1.012000442E-2,4.593949392E-2,1.824264042E-2
6.887662700E-2,-1.331579592E-2,4.593949392E-2,2.143843099E-2
7.137464800E-2,-1.651158556E-2,4.593949392E-2,2.356895804E-2
7.387824200E-2,-1.864211448E-2,4.487423226E-2,2.569948509E-2
7.638652300E-2,-2.077264152E-2,4.274370521E-2,2.783001214E-2
7.889850200E-2,-2.396843210E-2,3.954791278E-2,2.996053919E-2
8.141308600E-2,-2.716422267E-2,3.635212034E-2,2.996053919E-2
8.392907500E-2,-2.929474972E-2,3.102580272E-2,3.102580272E-2
8.644532500E-2,-3.142527863E-2,2.676474862E-2,2.996053919E-2
8.893985700E-2,-3.355580568E-2,2.143843099E-2,2.783001214E-2
9.142777300E-2,-3.568633273E-2,1.504684892E-2,2.569948509E-2
9.391569000E-2,-3.781685978E-2,9.720530361E-3,2.356895804E-2
9.640360700E-2,-3.994738683E-2,4.394212738E-3,2.037316747E-2
9.889152300E-2,-4.207791388E-2,-1.997369342E-3,1.717737690E-2
1.013794400E-1,-4.420844093E-2,-8.388951421E-3,1.398158539E-2
1.038673570E-1,-4.633896798E-2,-1.478053257E-2,1.078579482E-2
1.063552730E-1,-4.846949503E-2,-2.223737910E-2,7.590003312E-3
1.088431900E-1,-5.060002208E-2,-2.756369673E-2,4.394212738E-3
1.113311070E-1,-5.273054913E-2,-3.395527974E-2,2.263685223E-3
1.138190230E-1,-5.486107618E-2,-3.928159550E-2,1.331579551E-4
1.163069400E-1,-5.699160323E-2,-4.354264960E-2,-1.997369342E-3
1.187948570E-1,-6.018739566E-2,-4.673844203E-2,-4.127896391E-3
1.212827730E-1,-6.338318437E-2,-4.993423447E-2,-5.193160381E-3
1.237706900E-1,-6.551371515E-2,-5.313002318E-2,-7.323687430E-3
1.262586070E-1,-6.764423847E-2,-5.419528857E-2,-6.258423906E-3
1.287465230E-1,-6.977476925E-2,-5.526055023E-2,-7.323687430E-3
1.312344400E-1,-7.190529257E-2,-5.526055023E-2,-6.258423906E-3
1.337223570E-1,-7.297056168E-2,-5.526055023E-2,-6.258423906E-3
1.362102730E-1,-7.510108501E-2,-5.313002318E-2,-6.258423906E-3
1.386981900E-1,-7.510108501E-2,-5.206476152E-2,-6.258423906E-3
1.411861070E-1,-7.510108501E-2,-4.886896908E-2,-4.127896391E-3
1.436740230E-1,-7.297056168E-2,-4.567318037E-2,-3.062632866E-3
1.461619400E-1,-7.084003091E-2,-4.141212255E-2,-9.321057005E-4
1.486498570E-1,-6.870950758E-2,-3.715106845E-2,2.263685223E-3
1.511377730E-1,-6.444845349E-2,-3.289001435E-2,4.394212738E-3
1.536256900E-1,-5.912213027E-2,-2.862896025E-2,7.590003312E-3
1.561136070E-1,-5.273054913E-2,-2.436790615E-2,9.720530361E-3
1.586015230E-1,-4.740423337E-2,-2.010685205E-2,1.185105834E-2
1.610894400E-1,-3.994738683E-2,-1.691105962E-2,1.504684892E-2
1.635773570E-1,-3.355580568E-2,-1.478053257E-2,1.717737690E-2
1.660652730E-1,-2.609895915E-2,-1.265000552E-2,1.930790395E-2
1.685531900E-1,-1.757685095E-2,-1.051947847E-2,2.143843099E-2
1.710411070E-1,-1.012000442E-2,-9.454214945E-3,2.250369452E-2
1.735290230E-1,-4.793686327E-3,-9.454214945E-3,2.250369452E-2
1.760169400E-1,1.597895520E-3,-8.388951421E-3,2.143843099E-2
1.785048570E-1,6.924213842E-3,-1.051947847E-2,2.143843099E-2
1.809927730E-1,1.118526794E-2,-1.158474199E-2,2.037316747E-2
1.834806900E-1,1.544632297E-2,-1.371526904E-2,1.930790395E-2
1.859686070E-1,1.757685095E-2,-1.584579609E-2,1.717737690E-2
1.884565230E-1,1.970737800E-2,-1.904158667E-2,1.504684892E-2
1.909444400E-1,2.077264152E-2,-2.117211558E-2,1.185105834E-2
1.934324090E-1,2.077264152E-2,-2.436790615E-2,1.078579482E-2
1.959203770E-1,2.077264152E-2,-2.649843320E-2,9.720530361E-3
1.984083460E-1,1.864211448E-2,-3.075948730E-2,7.590003312E-3
2.008963150E-1,1.651158556E-2,-3.395527974E-2,7.590003312E-3
2.033842840E-1,1.438105945E-2,-3.821633384E-2,6.524739787E-3
2.058722520E-1,1.118526794E-2,-4.141212255E-2,4.394212738E-3
2.083602210E-1,7.989477366E-3,-4.567318037E-2,4.394212738E-3
2.108481900E-1,5.858949851E-3,-4.886896908E-2,3.328948980E-3
2.133361590E-1,1.597895520E-3,-5.206476152E-2,3.328948980E-3
2.158241270E-1,-5.326318205E-4,-5.419528857E-2,3.328948980E-3
2.183120960E-1,-3.728422802E-3,-5.739107728E-2,2.263685223E-3
2.208000650E-1,-5.858949851E-3,-5.845634267E-2,2.263685223E-3
2.232880340E-1,-7.989477366E-3,-5.952160433E-2,1.331579551E-4
2.257760020E-1,-1.012000442E-2,-5.952160433E-2,-1.997369342E-3
2.282639710E-1,-1.118526794E-2,-6.058686972E-2,-4.127896391E-3
2.307519400E-1,-1.225053146E-2,-6.058686972E-2,-6.258423906E-3
2.332399090E-1,-1.438105945E-2,-6.058686972E-2,-8.388951421E-3
2.357278770E-1,-1.438105945E-2,-5.952160433E-2,-1.051947847E-2
2.382158460E-1,-1.544632297E-2,-5.952160433E-2,-1.371526904E-2
2.407038150E-1,-1.544632297E-2,-5.845634267E-2,-1.691105962E-2
2.431917840E-1,-1.544632297E-2,-5.632581562E-2,-2.010685205E-2
2.456797520E-1,-1.544632297E-2,-5.419528857E-2,-2.330264263E-2
2.481677210E-1,-1.438105945E-2,-5.206476152E-2,-2.756369673E-2
2.506556900E-1,-1.225053146E-2,-4.780370742E-2,-3.075948730E-2
2.531436590E-1,-1.012000442E-2,-4.354264960E-2,-3.502054140E-2
2.556316270E-1,-6.924213842E-3,-3.928159550E-2,-3.821633384E-2
2.581195960E-1,-2.663159044E-3,-3.395527974E-2,-4.034686089E-2
2.606075650E-1,5.326318205E-4,-2.862896025E-2,-4.460791498E-2
2.630955340E-1,5.858949851E-3,-2.330264263E-2,-4.673844203E-2
2.655835020E-1,1.012000442E-2,-1.691105962E-2,-4.886896908E-2
2.680714710E-1,1.651158556E-2,-1.158474199E-2,-5.099949613E-2
2.705594400E-1,2.183790505E-2,-6.258423906E-3,-5.313002318E-2
2.730474090E-1,2.609895915E-2,-9.321057005E-4,-5.419528857E-2
2.755353770E-1,3.142527863E-2,3.328948980E-3,-5.526055023E-2
2.780233460E-1,3.568633273E-2,5.459476262E-3,-5.526055023E-2
2.805113150E-1,3.994738683E-2,8.655266836E-3,-5.526055023E-2
2.829992840E-1,4.420844093E-2,1.078579482E-2,-5.419528857E-2
2.854872520E-1,4.740423337E-2,1.291632187E-2,-5.313002318E-2
2.879752210E-1,5.060002208E-2,1.398158539E-2,-5.206476152E-2
2.904631900E-1,5.166528746E-2,1.398158539E-2,-4.993423447E-2
2.929511590E-1,5.166528746E-2,1.504684892E-2,-4.886896908E-2
2.954391270E-1,5.060002208E-2,1.504684892E-2,-4.780370742E-2
2.979270960E-1,4.846949503E-2,1.611211337E-2,-4.673844203E-2
3.004150650E-1,4.420844093E-2,1.717737690E-2,-4.460791498E-2
3.029030340E-1,3.888212144E-2,1.717737690E-2,-4.247738793E-2
3.053910020E-1,3.249054030E-2,1.717737690E-2,-4.034686089E-2
3.078789710E-1,2.503369562E-2,1.717737690E-2,-3.821633384E-2
3.103669400E-1,1.651158556E-2,1.824264042E-2,-3.502054140E-2
3.128549090E-1,5.858949851E-3,1.717737690E-2,-3.182475269E-2
3.153428770E-1,-4.793686327E-3,1.717737690E-2,-2.969422378E-2
3.178308460E-1,-1.544632297E-2,1.717737690E-2,-2.649843320E-2
3.203188150E-1,-2.716422267E-2,1.611211337E-2,-2.330264263E-2
3.228067840E-1,-3.994738683E-2,1.504684892E-2,-2.010685205E-2
3.252947520E-1,-5.166528746E-2,1.504684892E-2,-1.691105962E-2
3.277827210E-1,-6.444845349E-2,1.504684892E-2,-1.478053257E-2
3.302706900E-1,-7.510108501E-2,1.504684892E-2,-1.158474199E-2
3.327586070E-1,-8.575372398E-2,1.398158539E-2,-9.454214945E-3
3.352465230E-1,-9.534109384E-2,1.185105834E-2,-7.323687430E-3
3.377344400E-1,-1.059937328E-1,1.078579482E-2,-5.193160381E-3
3.402223570E-1,-1.134505793E-1,8.655266836E-3,-4.127896391E-3
3.427102730E-1,-1.209074259E-1,6.524739787E-3,-4.127896391E-3
3.451981900E-1,-1.262337416E-1,4.394212738E-3,-3.062632866E-3
3.476861070E-1,-1.315600574E-1,1.198421582E-3,-3.062632866E-3
3.501740230E-1,-1.358211190E-1,-9.321057005E-4,-1.997369342E-3
3.526619400E-1,-1.390169114E-1,-3.062632866E-3,-9.321057005E-4
3.551498570E-1,-1.400821656E-1,-5.193160381E-3,1.331579551E-4
3.576377730E-1,-1.411474347E-1,-6.258423906E-3,1.331579551E-4
3.601256900E-1,-1.400821656E-1,-8.388951421E-3,1.198421582E-3
3.626136070E-1,-1.390169114E-1,-1.051947847E-2,2.263685223E-3
3.651015230E-1,-1.368863732E-1,-1.158474199E-2,4.394212738E-3
3.675894400E-1,-1.347558498E-1,-1.265000552E-2,6.524739787E-3
3.700773570E-1,-1.326253265E-1,-1.371526904E-2,8.655266836E-3
3.725652730E-1,-1.315600574E-1,-1.478053257E-2,1.185105834E-2
3.750531900E-1,-1.294295341E-1,-1.584579609E-2,1.611211337E-2
3.775411070E-1,-1.272990108E-1,-1.691105962E-2,2.037316747E-2
3.800290230E-1,-1.251684725E-1,-1.797632314E-2,2.463422157E-2
3.825169400E-1,-1.230379492E-1,-1.691105962E-2,2.996053919E-2
3.850048570E-1,-1.209074259E-1,-1.691105962E-2,3.528685868E-2
3.874927730E-1,-1.187768951E-1,-1.691105962E-2,3.954791278E-2
3.899806900E-1,-1.155811027E-1,-1.478053257E-2,4.487423226E-2
3.924686070E-1,-1.123853177E-1,-1.371526904E-2,4.807002097E-2
3.949565230E-1,-1.081242561E-1,-1.158474199E-2,5.339634046E-2
3.974444400E-1,-1.038632020E-1,-1.051947847E-2,5.765739456E-2
3.999323570E-1,-9.960214794E-2,-9.454214945E-3,6.404897571E-2
4.024202730E-1,-9.534109384E-2,-9.454214945E-3,6.937529147E-2
4.049081900E-1,-9.108003974E-2,-1.051947847E-2,7.576687634E-2
4.073961070E-1,-8.681898564E-2,-1.478053257E-2,8.322372288E-2
4.098840230E-1,-8.468846232E-2,-2.117211558E-2,9.281109273E-2
4.123719400E-1,-8.362319320E-2,-2.862896025E-2,1.023984700E-1
4.148598570E-1,-8.362319320E-2,-3.821633384E-2,1.119858399E-1
4.173477730E-1,-8.788424730E-2,-5.099949613E-2,1.215732098E-1
4.198356900E-1,-9.427583218E-2,-6.484792382E-2,1.322258562E-1
4.223236070E-1,-1.027979404E-1,-8.082687855E-2,1.428784877E-1
4.248118880E-1,-1.155811027E-1,-1.000016257E-1,1.524658650E-1
4.273001690E-1,-1.315600574E-1,-1.202416345E-1,1.620532274E-1
4.297884500E-1,-1.496695429E-1,-1.436774284E-1,1.716406047E-1
4.322763670E-1,-1.688442826E-1,-1.660479754E-1,1.790974438E-1
4.347642840E-1,-1.912148297E-1,-1.905490309E-1,1.844237745E-1
4.372522000E-1,-2.146506310E-1,-2.161153555E-1,1.908153445E-1
4.397401170E-1,-2.391516864E-1,-2.406164259E-1,1.950764060E-1
4.422280340E-1,-2.636527419E-1,-2.651174963E-1,1.993374527E-1
4.447159500E-1,-2.881538272E-1,-2.885532975E-1,2.014679909E-1
4.472038670E-1,-3.115896285E-1,-3.130543530E-1,2.025332451E-1
4.496917840E-1,-3.350254297E-1,-3.354249001E-1,2.035985142E-1
4.521797000E-1,-3.563306928E-1,-3.577954173E-1,2.035985142E-1
4.546676170E-1,-3.744401634E-1,-3.801659644E-1,2.025332451E-1
4.571555340E-1,-3.914843798E-1,-4.004059732E-1,2.004027218E-1
4.596434500E-1,-4.063980877E-1,-4.185154438E-1,1.982721984E-1
4.621313670E-1,-4.191812575E-1,-4.366249442E-1,1.961416751E-1
4.646192840E-1,-4.287686050E-1,-4.515386224E-1,1.929458827E-1
4.671072000E-1,-4.362254739E-1,-4.643217921E-1,1.908153445E-1
4.695951170E-1,-4.404865205E-1,-4.749744236E-1,1.897500902E-1
4.720830340E-1,-4.415517747E-1,-4.834965467E-1,1.897500902E-1
4.745709500E-1,-4.394212663E-1,-4.898881316E-1,1.918806136E-1
4.770588670E-1,-4.362254739E-1,-4.962796867E-1,1.929458827E-1
4.795467840E-1,-4.298338890E-1,-5.005407333E-1,1.950764060E-1
4.820347000E-1,-4.202465117E-1,-5.037365556E-1,2.004027218E-1
4.845226170E-1,-4.095938802E-1,-5.058670640E-1,2.078595608E-1
4.870105340E-1,-3.946801722E-1,-5.090628862E-1,2.163816839E-1
4.894984500E-1,-3.787012100E-1,-5.101281404E-1,2.280995846E-1
4.919863670E-1,-3.595264852E-1,-5.122586489E-1,2.408827394E-1
4.944742840E-1,-3.392864764E-1,-5.143891573E-1,2.536658943E-1
4.969622000E-1,-3.147853911E-1,-5.154544711E-1,2.675143182E-1
4.994501170E-1,-2.902843356E-1,-5.186502337E-1,2.813627720E-1
5.019380340E-1,-2.636527419E-1,-5.218459964E-1,2.941459119E-1
5.044259500E-1,-2.370211631E-1,-5.261070728E-1,3.069290817E-1
5.069138670E-1,-2.114548385E-1,-5.314334035E-1,3.175817132E-1
5.094017840E-1,-1.858884990E-1,-5.378249884E-1,3.261038363E-1
5.118897000E-1,-1.603221744E-1,-5.463470817E-1,3.314301372E-1
5.143776170E-1,-1.368863732E-1,-5.548691750E-1,3.356912136E-1
5.168655340E-1,-1.134505793E-1,-5.644565821E-1,3.378217220E-1
5.193534500E-1,-9.108003974E-2,-5.772397518E-1,3.367564678E-1
5.218413670E-1,-6.870950758E-2,-5.900229216E-1,3.335606754E-1
5.243292840E-1,-4.633896798E-2,-6.049365997E-1,3.282343447E-1
5.268172000E-1,-2.503369562E-2,-6.209155321E-1,3.197122514E-1
5.293051170E-1,-2.663159044E-3,-6.379597783E-1,3.090596199E-1
5.317930340E-1,2.077264152E-2,-6.571345329E-1,2.962764502E-1
5.342809500E-1,4.527370632E-2,-6.752439737E-1,2.813627720E-1
5.367688670E-1,6.870950758E-2,-6.944187284E-1,2.653838098E-1
5.392567840E-1,9.321057051E-2,-7.114629745E-1,2.472743243E-1
5.417447000E-1,1.187768951E-1,-7.285071611E-1,2.291648388E-1
5.442326170E-1,1.432779580E-1,-7.434208393E-1,2.089248300E-1
5.467205340E-1,1.688442826E-1,-7.572692633E-1,1.886848211E-1
5.492084500E-1,1.933453530E-1,-7.689871788E-1,1.673795432E-1
5.516964190E-1,2.178464085E-1,-7.785745859E-1,1.460742801E-1
5.541843880E-1,2.423474789E-1,-7.849661708E-1,1.247690022E-1
5.566723570E-1,2.679138184E-1,-7.892271876E-1,1.034637317E-1
5.591603250E-1,2.913496196E-1,-7.913577557E-1,8.215846121E-2
5.616482940E-1,3.147853911E-1,-7.892271876E-1,6.191844866E-2
5.641362630E-1,3.360906839E-1,-7.849661708E-1,4.380896688E-2
5.666242320E-1,3.573959470E-1,-7.775092721E-1,2.783001214E-2
5.691122000E-1,3.765707016E-1,-7.689871788E-1,1.504684892E-2
5.716001690E-1,3.936149180E-1,-7.572692633E-1,5.459476262E-3
5.740881380E-1,4.085285962E-1,-7.434208393E-1,1.331579551E-4
5.765761070E-1,4.202465117E-1,-7.285071611E-1,-3.062632866E-3
5.790640750E-1,4.287686050E-1,-7.114629745E-1,-1.997369342E-3
5.815520440E-1,4.340949357E-1,-6.944187284E-1,3.328948980E-3
5.840400130E-1,4.351601899E-1,-6.773745418E-1,1.078579482E-2
5.865279820E-1,4.319643974E-1,-6.613955498E-1,2.143843099E-2
5.890159500E-1,4.245075583E-1,-6.454166174E-1,3.422159329E-2
5.915039190E-1,4.138549268E-1,-6.305029392E-1,4.807002097E-2
5.939918880E-1,3.989412189E-1,-6.155892015E-1,6.298371404E-2
5.964798570E-1,3.808317482E-1,-6.017407775E-1,7.789740711E-2
5.989678250E-1,3.595264852E-1,-5.878923535E-1,9.281109273E-2
6.014557940E-1,3.350254297E-1,-5.740439296E-1,1.077247858E-1
6.039437630E-1,3.083938360E-1,-5.601955056E-1,1.205079481E-1
6.064317320E-1,2.796317041E-1,-5.463470817E-1,1.332911104E-1
6.089197000E-1,2.498043180E-1,-5.324986577E-1,1.439437568E-1
6.114076690E-1,2.189116776E-1,-5.186502337E-1,1.535311192E-1
6.138956380E-1,1.880190372E-1,-5.058670640E-1,1.620532274E-1
6.163836070E-1,1.571263820E-1,-4.952144325E-1,1.684448123E-1
6.188715750E-1,1.251684725E-1,-4.856270552E-1,1.716406047E-1
6.213595440E-1,9.427583218E-2,-4.792354703E-1,1.727058738E-1
6.238475130E-1,6.444845349E-2,-4.739091694E-1,1.716406047E-1
6.263354820E-1,3.568633273E-2,-4.696480930E-1,1.684448123E-1
6.288234500E-1,7.989477366E-3,-4.675175846E-1,1.620532274E-1
6.313114190E-1,-1.757685095E-2,-4.675175846E-1,1.535311192E-1
6.337993880E-1,-4.420844093E-2,-4.685828388E-1,1.428784877E-1
6.362873570E-1,-6.977476925E-2,-4.707133770E-1,1.290300637E-1
6.387753250E-1,-9.534109384E-2,-4.771049619E-1,1.141163707E-1
6.412632940E-1,-1.198421568E-1,-4.856270552E-1,9.707214683E-2
6.437512630E-1,-1.443432271E-1,-4.962796867E-1,7.789740711E-2
6.462392320E-1,-1.677790284E-1,-5.090628862E-1,5.765739456E-2
6.487272000E-1,-1.901495606E-1,-5.229113102E-1,3.635212034E-2
6.512151690E-1,-2.114548385E-1,-5.378249884E-1,1.504684892E-2
6.537031380E-1,-2.295643091E-1,-5.538039207E-1,-6.258423906E-3
6.561911070E-1,-2.444780022E-1,-5.697829127E-1,-2.649843320E-2
6.586790750E-1,-2.561959028E-1,-5.825660825E-1,-4.567318037E-2
6.611670440E-1,-2.636527419E-1,-5.932186842E-1,-6.165213138E-2
6.636550130E-1,-2.647180259E-1,-6.017407775E-1,-7.550056279E-2
6.661429820E-1,-2.604569495E-1,-6.060018539E-1,-8.721846342E-2
6.686309500E-1,-2.498043180E-1,-6.060018539E-1,-9.787109494E-2
6.711188670E-1,-2.348906398E-1,-6.017407775E-1,-1.053279415E-1
6.736067840E-1,-2.146506310E-1,-5.932186842E-1,-1.117195264E-1
6.760947000E-1,-1.901495606E-1,-5.804355145E-1,-1.170458421E-1
6.785826170E-1,-1.624527127E-1,-5.644565821E-1,-1.202416345E-1
6.810705340E-1,-1.315600574E-1,-5.463470817E-1,-1.255679578E-1
6.835584500E-1,-9.960214794E-2,-5.261070728E-1,-1.287637353E-1
6.860463670E-1,-6.764423847E-2,-5.037365556E-1,-1.340900660E-1
6.885342840E-1,-3.568633273E-2,-4.813660085E-1,-1.383511126E-1
6.910230340E-1,-3.728422802E-3,-4.579302073E-1,-1.436774284E-1
6.935103250E-1,2.609895915E-2,-4.355596602E-1,-1.500690132E-1
6.959976170E-1,5.699160323E-2,-4.142543972E-1,-1.564605981E-1
6.984849610E-1,8.681898564E-2,-3.950796425E-1,-1.628521830E-1
7.009723570E-1,1.145158410E-1,-3.780354261E-1,-1.703090221E-1
7.034598050E-1,1.400821656E-1,-3.620564938E-1,-1.756353378E-1
7.059473570E-1,1.635179669E-1,-3.492733240E-1,-1.788311303E-1
7.084350130E-1,1.848232448E-1,-3.364901543E-1,-1.809616536E-1
7.109227730E-1,2.039979845E-1,-3.258375227E-1,-1.820269227E-1
7.134106380E-1,2.210422009E-1,-3.173153996E-1,-1.820269227E-1
7.158986070E-1,2.348906398E-1,-3.098585606E-1,-1.820269227E-1
7.183866800E-1,2.466085255E-1,-3.055975139E-1,-1.809616536E-1
7.208748570E-1,2.540653646E-1,-3.013364673E-1,-1.809616536E-1
7.233631380E-1,2.572611570E-1,-3.002711833E-1,-1.798963994E-1
7.258514710E-1,2.540653646E-1,-3.024017215E-1,-1.788311303E-1
7.283398570E-1,2.476737946E-1,-3.066627681E-1,-1.777658761E-1
7.308282420E-1,2.348906398E-1,-3.141196072E-1,-1.767006069E-1
7.333166270E-1,2.189116776E-1,-3.247722387E-1,-1.735048145E-1
7.358050130E-1,1.997369379E-1,-3.375554085E-1,-1.703090221E-1
7.382932420E-1,1.773663908E-1,-3.514038324E-1,-1.639174372E-1
7.407812110E-1,1.539305896E-1,-3.641870022E-1,-1.564605981E-1
7.432691270E-1,1.283642650E-1,-3.769701719E-1,-1.447426975E-1
7.457570440E-1,1.038632020E-1,-3.865575492E-1,-1.319595277E-1
7.482449610E-1,7.936213911E-2,-3.940143883E-1,-1.149153188E-1
7.507328770E-1,5.592634156E-2,-3.982754350E-1,-9.787109494E-2
7.532207940E-1,3.355580568E-2,-3.993407190E-1,-7.656582445E-2
7.557087110E-1,1.331579592E-2,-3.982754350E-1,-5.526055023E-2
7.581966270E-1,-3.728422802E-3,-3.929491341E-1,-3.182475269E-2
7.606845440E-1,-1.864211448E-2,-3.833617568E-1,-6.258423906E-3
7.631724610E-1,-3.036001325E-2,-3.727091253E-1,1.930790395E-2
7.656603770E-1,-3.568633273E-2,-3.588607013E-1,4.487423226E-2
7.681482940E-1,-3.781685978E-2,-3.439469934E-1,6.831002980E-2
7.706362110E-1,-3.462106735E-2,-3.279680312E-1,9.174583107E-2
7.731241270E-1,-2.716422267E-2,-3.119890988E-1,1.119858399E-1
7.756120440E-1,-1.544632297E-2,-2.960101366E-1,1.300953180E-1
7.780999610E-1,1.597895520E-3,-2.810964286E-1,1.450090110E-1
7.805878770E-1,2.290316857E-2,-2.672480047E-1,1.567269117E-1
7.830757940E-1,4.740423337E-2,-2.555301189E-1,1.652490199E-1
7.855637110E-1,7.510108501E-2,-2.470080107E-1,1.705753356E-1
7.880516270E-1,1.049284711E-1,-2.406164259E-1,1.716406047E-1
7.905395440E-1,1.368863732E-1,-2.352901101E-1,1.695100814E-1
7.930274610E-1,1.699095517E-1,-2.320943177E-1,1.620532274E-1
7.955153770E-1,2.029327303E-1,-2.310290486E-1,1.503353268E-1
7.980032940E-1,2.338253707E-1,-2.299637944E-1,1.364869028E-1
8.004912110E-1,2.647180259E-1,-2.288985252E-1,1.215732098E-1
8.029791270E-1,2.924148738E-1,-2.299637944E-1,1.055942550E-1
8.054670440E-1,3.190464675E-1,-2.299637944E-1,8.961530030E-2
8.079549610E-1,3.435475230E-1,-2.299637944E-1,7.470161468E-2
8.104428770E-1,3.669833243E-1,-2.310290486E-1,6.404897571E-2
8.129307940E-1,3.882885873E-1,-2.288985252E-1,5.552686751E-2
8.154187110E-1,4.074633420E-1,-2.257027328E-1,5.126581341E-2
8.179066270E-1,4.266380966E-1,-2.182458937E-1,5.020054802E-2
8.203945440E-1,4.426170290E-1,-2.086585164E-1,5.233107507E-2
8.228824610E-1,4.575307369E-1,-1.948100924E-1,5.659212917E-2
8.253703770E-1,4.703139067E-1,-1.777658761E-1,6.298371404E-2
8.278582940E-1,4.788360000E-1,-1.596563905E-1,6.937529147E-2
8.303462110E-1,4.852275848E-1,-1.415469050E-1,7.683213800E-2
8.328341270E-1,4.873581231E-1,-1.223721579E-1,8.535424620E-2
8.353220440E-1,4.852275848E-1,-1.031974182E-1,9.281109273E-2
8.378099610E-1,4.799012840E-1,-8.295740932E-2,1.013332009E-1
8.402978770E-1,4.713791609E-1,-6.484792382E-2,1.087900475E-1
8.427857940E-1,4.596612751E-1,-4.673844203E-2,1.173121557E-1
8.452737110E-1,4.447475672E-1,-2.862896025E-2,1.247690022E-1
8.477616270E-1,4.287686050E-1,-1.265000552E-2,1.332911104E-1
8.502495440E-1,4.106591344E-1,1.198421582E-3,1.418132186E-1
8.527374610E-1,3.914843798E-1,1.291632187E-2,1.514005959E-1
8.552253770E-1,3.723096550E-1,2.143843099E-2,1.599227041E-1
8.577132940E-1,3.520696461E-1,2.783001214E-2,1.695100814E-1
8.602012110E-1,3.307643533E-1,2.996053919E-2,1.801627129E-1
8.626891270E-1,3.094590902E-1,2.889527567E-2,1.897500902E-1
8.651770440E-1,2.860232890E-1,2.463422157E-2,1.982721984E-1
8.676649610E-1,2.625874877E-1,1.611211337E-2,2.067943066E-1
8.701528770E-1,2.380864173E-1,5.459476262E-3,2.153164148E-1
8.726407940E-1,2.146506310E-1,-9.454214945E-3,2.217079997E-1
8.751287110E-1,1.901495606E-1,-2.862896025E-2,2.270343155E-1
8.776166270E-1,1.677790284E-1,-5.099949613E-2,2.302301079E-1
8.801045440E-1,1.454084814E-1,-7.656582445E-2,2.312953621E-1
8.825925130E-1,1.262337416E-1,-1.042626798E-1,2.291648388E-1
8.850804820E-1,1.123853177E-1,-1.330247968E-1,2.238385230E-1
8.875684500E-1,1.017326787E-1,-1.617869139E-1,2.163816839E-1
8.900564190E-1,9.427583218E-2,-1.894837767E-1,2.067943066E-1
8.925443880E-1,9.321057051E-2,-2.150501013E-1,1.940111369E-1
8.950323570E-1,9.640636295E-2,-2.374206334E-1,1.780321896E-1
8.975203250E-1,1.038632020E-1,-2.576606572E-1,1.588574350E-1
9.000082940E-1,1.134505793E-1,-2.747048736E-1,1.375521719E-1
9.024962630E-1,1.262337416E-1,-2.864227593E-1,1.151816323E-1
9.049842320E-1,1.422126889E-1,-2.949448824E-1,9.281109273E-2
9.074722000E-1,1.592569202E-1,-3.002711833E-1,7.044056058E-2
9.099601690E-1,1.805621833E-1,-3.002711833E-1,5.020054802E-2
9.124481380E-1,2.039979845E-1,-2.949448824E-1,3.315633163E-2
9.149361070E-1,2.316948473E-1,-2.853575051E-1,2.143843099E-2
9.174240750E-1,2.604569495E-1,-2.715090811E-1,1.291632187E-2
9.199120440E-1,2.913496196E-1,-2.544648647E-1,7.590003312E-3
9.224000130E-1,3.233075142E-1,-2.342248410E-1,6.524739787E-3
9.248879820E-1,3.573959470E-1,-2.139848322E-1,1.185105834E-2
9.273759500E-1,3.904191256E-1,-1.937448233E-1,1.930790395E-2
9.298639190E-1,4.234423041E-1,-1.703090221E-1,2.889527567E-2
9.323518880E-1,4.554001987E-1,-1.479384899E-1,4.274370521E-2
9.348398570E-1,4.884233773E-1,-1.255679578E-1,5.978792161E-2
9.373278250E-1,5.182507634E-1,-1.063932031E-1,7.683213800E-2
9.398157940E-1,5.448823571E-1,-8.721846342E-2,9.494162351E-2
9.423037630E-1,5.672528744E-1,-7.230477035E-2,1.141163707E-1
9.447917320E-1,5.842971206E-1,-6.058686972E-2,1.311605871E-1
9.472797000E-1,5.960150361E-1,-5.419528857E-2,1.450090110E-1
9.497676690E-1,6.013413072E-1,-5.099949613E-2,1.556616426E-1
9.522556380E-1,6.002760530E-1,-5.099949613E-2,1.652490199E-1
9.547436070E-1,5.928192139E-1,-5.526055023E-2,1.716406047E-1
9.572315750E-1,5.811012983E-1,-6.271740049E-2,1.727058738E-1
9.597195440E-1,5.651223660E-1,-7.230477035E-2,1.705753356E-1
9.622075130E-1,5.448823571E-1,-8.402267098E-2,1.641837656E-1
9.646954820E-1,5.225118399E-1,-9.893636405E-2,1.545963883E-1
9.671834500E-1,4.980107546E-1,-1.159805804E-1,1.428784877E-1
9.696714190E-1,4.703139067E-1,-1.351553202E-1,1.279647946E-1
9.721593880E-1,4.415517747E-1,-1.564605981E-1,1.109205782E-1
9.746473570E-1,4.117243886E-1,-1.798963994E-1,9.174583107E-2
9.771353250E-1,3.818970025E-1,-2.043974549E-1,7.257108390E-2
9.796232940E-1,3.520696461E-1,-2.310290486E-1,5.233107507E-2
9.821112630E-1,3.243727684E-1,-2.576606572E-1,3.102580272E-2
9.845992320E-1,2.988064587E-1,-2.842922211E-1,1.078579482E-2
9.870871480E-1,2.764359117E-1,-3.098585606E-1,-1.051947847E-2
9.895750650E-1,2.561959028E-1,-3.364901543E-1,-3.182475269E-2
9.920629820E-1,2.412822098E-1,-3.620564938E-1,-5.313002318E-2
9.945508980E-1,2.306295782E-1,-3.854922652E-1,-7.337003201E-2
9.970388150E-1,2.221074700E-1,-4.046670198E-1,-9.361004084E-2
9.995267320E-1,2.199769467E-1,-4.195807278E-1,-1.117195264E-1
1.002014648E0,2.210422009E-1,-4.302333593E-1,-1.266332120E-1
1.004502565E0,2.263685167E-1,-4.344944060E-1,-1.383511126E-1
1.006990482E0,2.370211631E-1,-4.334291518E-1,-1.468732208E-1
1.009478398E0,2.530001104E-1,-4.259723127E-1,-1.521995366E-1
1.011966315E0,2.732401192E-1,-4.121238589E-1,-1.543300748E-1
1.014454232E0,2.966759205E-1,-3.950796425E-1,-1.543300748E-1
1.016942148E0,3.211769760E-1,-3.737743795E-1,-1.521995366E-1
1.019430065E0,3.488738537E-1,-3.492733240E-1,-1.479384899E-1
1.021917982E0,3.776359558E-1,-3.226417303E-1,-1.415469050E-1
1.024405898E0,4.074633420E-1,-2.949448824E-1,-1.319595277E-1
1.026893815E0,4.383559823E-1,-2.651174963E-1,-1.202416345E-1
1.029381732E0,4.703139067E-1,-2.320943177E-1,-1.063932031E-1
1.031869648E0,5.033370852E-1,-1.990711391E-1,-9.147951752E-2
1.034357565E0,5.363602638E-1,-1.660479754E-1,-7.656582445E-2
1.036845482E0,5.693834424E-1,-1.362205893E-1,-6.165213138E-2
1.039333398E0,6.013413072E-1,-1.095889956E-1,-4.673844203E-2
1.041821315E0,6.332992315E-1,-8.934898674E-2,-3.502054140E-2
1.044309232E0,6.609960794E-1,-7.443529367E-2,-2.330264263E-2
1.046797148E0,6.876276731E-1,-6.697845459E-2,-1.158474199E-2
1.049285065E0,7.110635042E-1,-6.484792382E-2,-9.321057005E-4
1.051772982E0,7.302381992E-1,-6.804371625E-2,8.655266836E-3
1.054260898E0,7.462171912E-1,-7.656582445E-2,1.717737690E-2
1.056748815E0,7.600656152E-1,-8.934898674E-2,2.356895804E-2
1.059236732E0,7.707182169E-1,-1.053279415E-1,2.783001214E-2
1.061724648E0,7.781751156E-1,-1.234374270E-1,2.889527567E-2
1.064212565E0,7.813708782E-1,-1.426121742E-1,2.783001214E-2
1.066700482E0,7.803056240E-1,-1.649827063E-1,2.463422157E-2
1.069188398E0,7.771098018E-1,-1.884185076E-1,1.717737690E-2
1.071676315E0,7.696529627E-1,-2.129195631E-1,9.720530361E-3
1.074164232E0,7.590003610E-1,-2.363553643E-1,-1.997369342E-3
1.076652148E0,7.430213690E-1,-2.587259114E-1,-1.478053257E-2
1.079140065E0,7.249119282E-1,-2.789659202E-1,-3.075948730E-2
1.081627982E0,7.036066055E-1,-2.949448824E-1,-4.673844203E-2
1.084115898E0,6.791055799E-1,-3.087933064E-1,-6.271740049E-2
1.086603815E0,6.546044946E-1,-3.183806837E-1,-7.763108611E-2
1.089091732E0,6.290381551E-1,-3.247722387E-1,-9.254477918E-2
1.091579648E0,6.034718752E-1,-3.279680312E-1,-1.031974182E-1
1.094067565E0,5.800360441E-1,-3.290333152E-1,-1.127847880E-1
1.096555482E0,5.576655269E-1,-3.290333152E-1,-1.181111038E-1
1.099043398E0,5.363602638E-1,-3.279680312E-1,-1.213068962E-1
1.101531315E0,5.182507634E-1,-3.269027770E-1,-1.213068962E-1
1.104019232E0,5.022718310E-1,-3.247722387E-1,-1.202416345E-1
1.106507148E0,4.873581231E-1,-3.215764761E-1,-1.159805804E-1
1.108995065E0,4.756402075E-1,-3.162501454E-1,-1.095889956E-1
1.111482982E0,4.660528302E-1,-3.119890988E-1,-1.021321490E-1
1.113970898E0,4.596612751E-1,-3.066627681E-1,-9.361004084E-2
1.116458815E0,4.564654827E-1,-3.034669757E-1,-8.402267098E-2
1.118946732E0,4.554001987E-1,-3.002711833E-1,-7.337003201E-2
1.121434648E0,4.554001987E-1,-2.992059290E-1,-6.165213138E-2
1.123922565E0,4.575307369E-1,-3.002711833E-1,-4.993423447E-2
1.126410482E0,4.607265294E-1,-3.013364673E-1,-3.928159550E-2
1.128898398E0,4.649875760E-1,-3.034669757E-1,-2.862896025E-2
1.131386315E0,4.692486227E-1,-3.066627681E-1,-2.010685205E-2
1.133874232E0,4.735096991E-1,-3.087933064E-1,-1.158474199E-2
1.136362148E0,4.767054915E-1,-3.098585606E-1,-5.193160381E-3
1.138850065E0,4.788360000E-1,-3.109238148E-1,-9.321057005E-4
1.141337982E0,4.788360000E-1,-3.109238148E-1,4.394212738E-3
1.143825898E0,4.777707458E-1,-3.109238148E-1,7.590003312E-3
1.146313815E0,4.756402075E-1,-3.119890988E-1,8.655266836E-3
1.148801784E0,4.713791609E-1,-3.141196072E-1,1.078579482E-2
1.151289752E0,4.660528302E-1,-3.183806837E-1,1.185105834E-2
1.153777721E0,4.607265294E-1,-3.237069845E-1,9.720530361E-3
1.156265690E0,4.522044063E-1,-3.300985694E-1,6.524739787E-3
1.158753659E0,4.447475672E-1,-3.364901543E-1,1.198421582E-3
1.161241627E0,4.362254739E-1,-3.428817391E-1,-4.127896391E-3
1.163729596E0,4.266380966E-1,-3.482080400E-1,-1.051947847E-2
1.166217565E0,4.170507193E-1,-3.535343707E-1,-1.904158667E-2
1.168705534E0,4.074633420E-1,-3.556649089E-1,-2.756369673E-2
1.171193502E0,3.968107104E-1,-3.577954173E-1,-3.608580679E-2
1.173681471E0,3.861580789E-1,-3.599259555E-1,-4.354264960E-2
1.176169440E0,3.765707016E-1,-3.641870022E-1,-4.993423447E-2
1.178657409E0,3.680485785E-1,-3.684480488E-1,-5.739107728E-2
1.181145377E0,3.584612012E-1,-3.737743795E-1,-6.591318548E-2
1.183633346E0,3.510043621E-1,-3.791007102E-1,-7.443529367E-2
1.186121315E0,3.456780612E-1,-3.844270110E-1,-8.189214021E-2
1.188609284E0,3.403517306E-1,-3.886880577E-1,-8.828372508E-2
1.191097721E0,3.360906839E-1,-3.929491341E-1,-9.361004084E-2
1.193585846E0,3.339601457E-1,-3.950796425E-1,-9.787109494E-2
1.196073815E0,3.328948915E-1,-3.950796425E-1,-1.000016257E-1
1.198561732E0,3.318296373E-1,-3.940143883E-1,-1.010668874E-1
1.201049648E0,3.318296373E-1,-3.886880577E-1,-1.000016257E-1
1.203537565E0,3.318296373E-1,-3.812312186E-1,-9.680583328E-2
1.206025482E0,3.318296373E-1,-3.716438413E-1,-9.254477918E-2
1.208513398E0,3.307643533E-1,-3.599259555E-1,-8.508793265E-2
1.211001315E0,3.286338449E-1,-3.471427858E-1,-7.550056279E-2
1.213489232E0,3.243727684E-1,-3.343596160E-1,-6.484792382E-2
1.215977148E0,3.169159293E-1,-3.215764761E-1,-4.993423447E-2
1.218465065E0,3.051980436E-1,-3.109238148E-1,-3.395527974E-2
1.220952982E0,2.902843356E-1,-3.045322299E-1,-1.691105962E-2
1.223440898E0,2.721748650E-1,-3.024017215E-1,2.263685223E-3
1.225928815E0,2.508696020E-1,-3.045322299E-1,2.250369452E-2
1.228416732E0,2.253032625E-1,-3.130543530E-1,4.380896688E-2
1.230904648E0,1.965411454E-1,-3.258375227E-1,6.511423737E-2
1.233392565E0,1.645832360E-1,-3.428817391E-1,8.641951531E-2
1.235880482E0,1.304948032E-1,-3.652522564E-1,1.055942550E-1
1.238368398E0,9.534109384E-2,-3.908185959E-1,1.237037405E-1
1.240856315E0,5.912213027E-2,-4.195807278E-1,1.396826953E-1
1.243344232E0,2.183790505E-2,-4.504733682E-1,1.535311192E-1
1.245832148E0,-1.438105945E-2,-4.824312627E-1,1.663142890E-1
1.248320065E0,-4.953476042E-2,-5.154544711E-1,1.780321896E-1
1.250807982E0,-8.362319320E-2,-5.452818274E-1,1.897500902E-1
1.253295898E0,-1.134505793E-1,-5.740439296E-1,1.982721984E-1
1.255783815E0,-1.400821656E-1,-6.006755233E-1,2.067943066E-1
1.258271732E0,-1.603221744E-1,-6.209155321E-1,2.121206224E-1
1.260759648E0,-1.763011366E-1,-6.358292103E-1,2.153164148E-1
1.263247565E0,-1.858884990E-1,-6.432861090E-1,2.163816839E-1
1.265735482E0,-1.901495606E-1,-6.454166174E-1,2.153164148E-1
1.268223398E0,-1.880190372E-1,-6.411555409E-1,2.099900991E-1
1.270711315E0,-1.805621833E-1,-6.305029392E-1,2.025332451E-1
1.273199232E0,-1.688442826E-1,-6.134586930E-1,1.918806136E-1
1.275687148E0,-1.518000662E-1,-5.900229216E-1,1.790974438E-1
1.278175065E0,-1.304948032E-1,-5.612607598E-1,1.652490199E-1
1.280662982E0,-1.049284711E-1,-5.261070728E-1,1.492700726E-1
1.283150898E0,-7.510108501E-2,-4.856270552E-1,1.322258562E-1
1.285638815E0,-4.207791388E-2,-4.419512451E-1,1.173121557E-1
1.288126732E0,-6.924213842E-3,-3.961449265E-1,1.034637317E-1
1.290614648E0,2.822948620E-2,-3.482080400E-1,9.068056941E-2
1.293102565E0,6.338318437E-2,-3.013364673E-1,7.896266878E-2
1.295590482E0,9.534109384E-2,-2.555301189E-1,7.044056058E-2
1.298078398E0,1.241032109E-1,-2.107890397E-1,6.298371404E-2
1.300566315E0,1.454084814E-1,-1.671132296E-1,5.659212917E-2
1.303054232E0,1.592569202E-1,-1.245026886E-1,5.233107507E-2
1.305542148E0,1.667137593E-1,-8.402267098E-2,4.913528636E-2
1.308030065E0,1.667137593E-1,-4.567318037E-2,4.593949392E-2
1.310517982E0,1.571263820E-1,-1.265000552E-2,4.487423226E-2
1.313005898E0,1.400821656E-1,1.611211337E-2,4.274370521E-2
1.315493815E0,1.145158410E-1,3.741738573E-2,4.274370521E-2
1.317981732E0,8.362319320E-2,5.233107507E-2,4.167843983E-2
1.320469648E0,4.846949503E-2,5.872265995E-2,4.274370521E-2
1.322957565E0,1.012000442E-2,5.659212917E-2,4.274370521E-2
1.325445482E0,-3.036001325E-2,4.487423226E-2,4.274370521E-2
1.327933398E0,-7.190529257E-2,2.463422157E-2,3.954791278E-2
1.330421315E0,-1.123853177E-1,-1.997369342E-3,3.528685868E-2
1.332909232E0,-1.486042738E-1,-3.182475269E-2,2.889527567E-2
1.335397148E0,-1.826927215E-1,-6.484792382E-2,2.143843099E-2
1.337885065E0,-2.125200927E-1,-9.787109494E-2,1.398158539E-2
1.340372982E0,-2.359558940E-1,-1.298290044E-1,6.524739787E-3
1.342860898E0,-2.519348562E-1,-1.617869139E-1,-1.997369342E-3
1.345348815E0,-2.604569495E-1,-1.905490309E-1,-1.265000552E-2
1.347836732E0,-2.593916953E-1,-2.139848322E-1,-2.223737910E-2
1.350324648E0,-2.508696020E-1,-2.299637944E-1,-3.395527974E-2
1.352812565E0,-2.327601016E-1,-2.352901101E-1,-4.673844203E-2
1.355300482E0,-2.071937770E-1,-2.320943177E-1,-5.952160433E-2
1.357788398E0,-1.741705984E-1,-2.214416862E-1,-7.123950869E-2
1.360276315E0,-1.347558498E-1,-2.012016773E-1,-8.402267098E-2
1.362764232E0,-8.788424730E-2,-1.767006069E-1,-9.361004084E-2
1.365252148E0,-3.781685978E-2,-1.479384899E-1,-1.010668874E-1
1.367740065E0,1.438105945E-2,-1.138500497E-1,-1.063932031E-1
1.370227982E0,6.657897681E-2,-7.443529367E-2,-1.095889956E-1
1.372715898E0,1.198421568E-1,-3.182475269E-2,-1.085237339E-1
1.375203815E0,1.699095517E-1,1.504684892E-2,-1.053279415E-1
1.377691784E0,2.167811543E-1,6.404897571E-2,-9.893636405E-2
1.380179752E0,2.593916953E-1,1.119858399E-1,-8.828372508E-2
1.382667721E0,2.956106663E-1,1.567269117E-1,-7.443529367E-2
1.385155690E0,3.233075142E-1,1.982721984E-1,-5.739107728E-2
1.387643659E0,3.435475230E-1,2.344911546E-1,-3.715106845E-2
1.390131627E0,3.520696461E-1,2.653838098E-1,-1.584579609E-2
1.392619596E0,3.520696461E-1,2.909501195E-1,7.590003312E-3
1.395107565E0,3.403517306E-1,3.079943359E-1,3.209106624E-2
1.397595534E0,3.201117218E-1,3.186469972E-1,5.872265995E-2
1.400083502E0,2.902843356E-1,3.197122514E-1,8.428898454E-2
1.402571471E0,2.519348562E-1,3.133206666E-1,1.098553166E-1
1.405059440E0,2.061285079E-1,2.973417044E-1,1.332911104E-1
1.407547409E0,1.528653353E-1,2.739059031E-1,1.545963883E-1
1.410035377E0,9.321057051E-2,2.408827394E-1,1.737711281E-1
1.412523346E0,2.822948620E-2,2.014679909E-1,1.908153445E-1
1.415011315E0,-4.314317927E-2,1.556616426E-1,2.046637833E-1
1.417499284E0,-1.187768951E-1,1.034637317E-1,2.142511457E-1
1.419987252E0,-1.965411454E-1,4.593949392E-2,2.206427306E-1
1.422475221E0,-2.753706574E-1,-1.478053257E-2,2.217079997E-1
1.424963190E0,-3.510043621E-1,-7.656582445E-2,2.174469382E-1
1.427451159E0,-4.234423041E-1,-1.394163817E-1,2.067943066E-1
1.429939127E0,-4.873581231E-1,-2.001364082E-1,1.897500902E-1
1.432427096E0,-5.416865349E-1,-2.597911656E-1,1.652490199E-1
1.434915065E0,-5.842971206E-1,-3.162501454E-1,1.332911104E-1
1.437403034E0,-6.141244769E-1,-3.684480488E-1,9.494162351E-2
1.439891002E0,-6.290381551E-1,-4.153196514E-1,5.233107507E-2
1.442378971E0,-6.279729009E-1,-4.557996690E-1,6.524739787E-3
1.444866940E0,-6.119939685E-1,-4.888228476E-1,-4.141212255E-2
1.447354909E0,-5.811012983E-1,-5.133239031E-1,-8.721846342E-2
1.449842877E0,-5.342296958E-1,-5.303681493E-1,-1.330247968E-1
1.452330846E0,-4.745749533E-1,-5.399554968E-1,-1.756353378E-1
1.454818815E0,-3.989412189E-1,-5.420860648E-1,-2.161153555E-1
1.457306784E0,-3.115896285E-1,-5.367597342E-1,-2.533995807E-1
1.459794752E0,-2.114548385E-1,-5.229113102E-1,-2.874880135E-1
1.462282721E0,-1.017326787E-1,-4.994754791E-1,-3.194459379E-1
1.464770690E0,1.331579592E-2,-4.664523304E-1,-3.460775316E-1
1.467258607E0,1.315600574E-1,-4.238417745E-1,-3.684480488E-1
1.469746523E0,2.498043180E-1,-3.727091253E-1,-3.865575492E-1
1.472234440E0,3.659180701E-1,-3.162501454E-1,-4.004059732E-1
1.474722357E0,4.767054915E-1,-2.523343265E-1,-4.089280665E-1
1.477210273E0,5.811012983E-1,-1.884185076E-1,-4.142543972E-1
1.479698190E0,6.759097576E-1,-1.202416345E-1,-4.163849354E-1
1.482186107E0,7.621961236E-1,-5.419528857E-2,-4.153196514E-1
1.484674023E0,8.346340656E-1,1.185105834E-2,-4.121238589E-1
1.487161940E0,8.964193463E-1,7.257108390E-2,-4.078628123E-1
1.489649857E0,9.454214573E-1,1.279647946E-1,-4.036017656E-1
1.492137773E0,9.816404581E-1,1.748363972E-1,-3.982754350E-1
1.494625690E0,1.005076289E0,2.142511457E-1,-3.940143883E-1
1.497113607E0,1.015728831E0,2.440785319E-1,-3.897533417E-1
1.499601523E0,1.013598323E0,2.632532716E-1,-3.865575492E-1
1.502089440E0,9.976193905E-1,2.707101107E-1,-3.844270110E-1
1.504577357E0,9.699225426E-1,2.664490640E-1,-3.844270110E-1
1.507065273E0,9.305077791E-1,2.494048476E-1,-3.865575492E-1
1.509553190E0,8.793751597E-1,2.217079997E-1,-3.897533417E-1
1.512041107E0,8.197203875E-1,1.822932363E-1,-3.961449265E-1
1.514529023E0,7.526087761E-1,1.364869028E-1,-4.025365114E-1
1.517016940E0,6.780403256E-1,8.428898454E-2,-4.099933505E-1
1.519504857E0,5.981455445E-1,2.783001214E-2,-4.163849354E-1
1.521992773E0,5.139896870E-1,-3.182475269E-2,-4.227765203E-1
1.524481159E0,4.308991432E-1,-9.254477918E-2,-4.281028211E-1
1.526969023E0,3.488738537E-1,-1.521995366E-1,-4.334291518E-1
1.529456888E0,2.700443268E-1,-2.097237855E-1,-4.387554526E-1
1.531944752E0,1.965411454E-1,-2.619217038E-1,-4.430165291E-1
1.534432617E0,1.304948032E-1,-3.087933064E-1,-4.472775757E-1
1.536920482E0,7.403582335E-2,-3.503385782E-1,-4.504733682E-1
1.539408346E0,2.716422267E-2,-3.865575492E-1,-4.526038766E-1
1.541896211E0,-9.054740891E-3,-4.153196514E-1,-4.536691606E-1
1.544384075E0,-3.355580568E-2,-4.387554526E-1,-4.536691606E-1
1.546871940E0,-4.740423337E-2,-4.568649530E-1,-4.526038766E-1
1.549359805E0,-5.060002208E-2,-4.675175846E-1,-4.515386224E-1
1.551847669E0,-4.420844093E-2,-4.707133770E-1,-4.494080842E-1
1.554335534E0,-2.503369562E-2,-4.685828388E-1,-4.472775757E-1
1.556823398E0,1.597895520E-3,-4.579302073E-1,-4.451470375E-1
1.559311263E0,3.568633273E-2,-4.419512451E-1,-4.419512451E-1
1.561799127E0,7.829687744E-2,-4.195807278E-1,-4.376901984E-1
1.564286992E0,1.251684725E-1,-3.918838501E-1,-4.344944060E-1
1.566774857E0,1.763011366E-1,-3.599259555E-1,-4.302333593E-1
1.569262721E0,2.295643091E-1,-3.237069845E-1,-4.249070287E-1
1.571750586E0,2.828274965E-1,-2.874880135E-1,-4.195807278E-1
1.574238450E0,3.350254297E-1,-2.491385341E-1,-4.131891429E-1
1.576726367E0,3.850927949E-1,-2.107890397E-1,-4.067975581E-1
1.579214336E0,4.330296814E-1,-1.745700836E-1,-3.982754350E-1
1.581702305E0,4.767054915E-1,-1.394163817E-1,-3.876228034E-1
1.584190273E0,5.150549412E-1,-1.063932031E-1,-3.748396337E-1
1.586678242E0,5.459476113E-1,-7.550056279E-2,-3.609912097E-1
1.589166211E0,5.693834424E-1,-4.886896908E-2,-3.439469934E-1
1.591654180E0,5.821665525E-1,-2.649843320E-2,-3.258375227E-1
1.594142148E0,5.842971206E-1,-8.388951421E-3,-3.055975139E-1
1.596630117E0,5.747097135E-1,3.328948980E-3,-2.842922211E-1
1.599118086E0,5.555350184E-1,9.720530361E-3,-2.640522122E-1
1.601606055E0,5.257076025E-1,1.078579482E-2,-2.438122183E-1
1.604094023E0,4.852275848E-1,6.524739787E-3,-2.235722095E-1
1.606581992E0,4.372907281E-1,-9.321057005E-4,-2.065279931E-1
1.609069961E0,3.850927949E-1,-1.158474199E-2,-1.905490309E-1
1.611557930E0,3.275685608E-1,-2.330264263E-2,-1.767006069E-1
1.614045898E0,2.668485343E-1,-3.395527974E-2,-1.639174372E-1
1.616533867E0,2.039979845E-1,-4.354264960E-2,-1.521995366E-1
1.619021836E0,1.411474347E-1,-4.993423447E-2,-1.415469050E-1
1.621509805E0,8.042740822E-2,-5.526055023E-2,-1.308942735E-1
1.623997773E0,2.183790505E-2,-5.632581562E-2,-1.202416345E-1
1.626485742E0,-3.249054030E-2,-5.526055023E-2,-1.095889956E-1
1.628973711E0,-8.362319320E-2,-5.206476152E-2,-1.021321490E-1
1.631461680E0,-1.283642650E-1,-4.673844203E-2,-9.361004084E-2
1.633949648E0,-1.667137593E-1,-4.034686089E-2,-8.615319431E-2
1.636437617E0,-1.997369379E-1,-3.075948730E-2,-7.976161689E-2
1.638925586E0,-2.253032625E-1,-2.010685205E-2,-7.443529367E-2
1.641413555E0,-2.444780022E-1,-6.258423906E-3,-6.910897791E-2
1.643901523E0,-2.572611570E-1,7.590003312E-3,-6.484792382E-2
1.646389492E0,-2.636527419E-1,2.356895804E-2,-5.952160433E-2
1.648877461E0,-2.647180259E-1,3.954791278E-2,-5.313002318E-2
1.651365430E0,-2.604569495E-1,5.659212917E-2,-4.673844203E-2
1.653853398E0,-2.540653646E-1,7.470161468E-2,-4.141212255E-2
1.656341367E0,-2.444780022E-1,9.281109273E-2,-3.502054140E-2
1.658829336E0,-2.338253707E-1,1.098553166E-1,-2.862896025E-2
1.661317305E0,-2.231727391E-1,1.279647946E-1,-2.436790615E-2
1.663805221E0,-2.125200927E-1,1.460742801E-1,-1.797632314E-2
1.666293138E0,-2.008021921E-1,1.631184965E-1,-1.265000552E-2
1.668781055E0,-1.912148297E-1,1.801627129E-1,-7.323687430E-3
1.671268971E0,-1.805621833E-1,1.961416751E-1,-1.997369342E-3
1.673756888E0,-1.720400751E-1,2.121206224E-1,2.263685223E-3
1.676244805E0,-1.624527127E-1,2.302301079E-1,7.590003312E-3
1.678732721E0,-1.539305896E-1,2.483395934E-1,1.078579482E-2
1.681220638E0,-1.475390196E-1,2.675143182E-1,1.504684892E-2
1.683708555E0,-1.400821656E-1,2.888196111E-1,1.824264042E-2
1.686196471E0,-1.326253265E-1,3.090596199E-1,2.143843099E-2
1.688684388E0,-1.241032109E-1,3.282343447E-1,2.463422157E-2
1.691173034E0,-1.145158410E-1,3.452785909E-1,2.783001214E-2
1.693660377E0,-1.038632020E-1,3.591270149E-1,2.996053919E-2
1.696147721E0,-9.321057051E-2,3.708449006E-1,3.102580272E-2
1.698635065E0,-8.255793154E-2,3.772364855E-1,3.209106624E-2
1.701122461E0,-7.190529257E-2,3.804322779E-1,2.996053919E-2
1.703609909E0,-6.125266105E-2,3.783017397E-1,2.783001214E-2
1.706097461E0,-5.166528746E-2,3.729754388E-1,2.250369452E-2
1.708585117E0,-4.101264849E-2,3.601922691E-1,1.611211337E-2
1.711072877E0,-2.929474972E-2,3.431480527E-1,6.524739787E-3
1.713560742E0,-1.651158556E-2,3.197122514E-1,-7.323687430E-3
1.716048711E0,-5.326318205E-4,2.909501195E-1,-2.223737910E-2
1.718536784E0,1.864211448E-2,2.611227632E-1,-4.034686089E-2
1.721024961E0,4.314317927E-2,2.302301079E-1,-6.165213138E-2
1.723513190E0,6.977476925E-2,1.993374527E-1,-8.402267098E-2
1.726001471E0,1.017326787E-1,1.716406047E-1,-1.085237339E-1
1.728489805E0,1.379516423E-1,1.492700726E-1,-1.330247968E-1
1.730978138E0,1.773663908E-1,1.300953180E-1,-1.564605981E-1
1.733466471E0,2.189116776E-1,1.183774248E-1,-1.777658761E-1
1.735954805E0,2.636527419E-1,1.130511016E-1,-1.990711391E-1
1.738443138E0,3.126548827E-1,1.130511016E-1,-2.182458937E-1
1.740931055E0,3.627222776E-1,1.194426864E-1,-2.342248410E-1
1.743418971E0,4.138549268E-1,1.322258562E-1,-2.459427416E-1
1.745906888E0,4.649875760E-1,1.492700726E-1,-2.555301189E-1
1.748394805E0,5.150549412E-1,1.705753356E-1,-2.597911656E-1
1.750882721E0,5.629918575E-1,1.940111369E-1,-2.608564198E-1
1.753370638E0,6.077328920E-1,2.185122073E-1,-2.608564198E-1
1.755858555E0,6.482129097E-1,2.440785319E-1,-2.597911656E-1
1.758346471E0,6.833665967E-1,2.685796022E-1,-2.587259114E-1
1.760834388E0,7.142592669E-1,2.930806577E-1,-2.565953732E-1
1.763322305E0,7.387603521E-1,3.143859208E-1,-2.544648647E-1
1.765810221E0,7.590003610E-1,3.335606754E-1,-2.512690723E-1
1.768298138E0,7.739140391E-1,3.495396376E-1,-2.491385341E-1
1.770786055E0,7.835013866E-1,3.623228073E-1,-2.459427416E-1
1.773273971E0,7.888277173E-1,3.719101548E-1,-2.406164259E-1
1.775761888E0,7.877624631E-1,3.783017397E-1,-2.374206334E-1
1.778249805E0,7.813708782E-1,3.814975321E-1,-2.310290486E-1
1.780737721E0,7.675224543E-1,3.804322779E-1,-2.246374637E-1
1.783225638E0,7.472824454E-1,3.783017397E-1,-2.171806246E-1
1.785713555E0,7.195855975E-1,3.708449006E-1,-2.086585164E-1
1.788201471E0,6.854971647E-1,3.623228073E-1,-1.990711391E-1
1.790689388E0,6.450171471E-1,3.495396376E-1,-1.884185076E-1
1.793177305E0,5.992107987E-1,3.346259296E-1,-1.767006069E-1
1.795665221E0,5.502086878E-1,3.165164590E-1,-1.628521830E-1
1.798153138E0,4.980107546E-1,2.973417044E-1,-1.479384899E-1
1.800641055E0,4.415517747E-1,2.749711871E-1,-1.319595277E-1
1.803128971E0,3.850927949E-1,2.515353858E-1,-1.138500497E-1
1.805616888E0,3.254380524E-1,2.270343155E-1,-9.361004084E-2
1.808104805E0,2.647180259E-1,2.014679909E-1,-7.230477035E-2
1.810592721E0,2.039979845E-1,1.748363972E-1,-4.993423447E-2
1.813080638E0,1.422126889E-1,1.460742801E-1,-2.756369673E-2
1.815568555E0,8.255793154E-2,1.151816323E-1,-5.193160381E-3
1.818056471E0,2.609895915E-2,8.322372288E-2,1.504684892E-2
1.820544388E0,-2.716422267E-2,5.020054802E-2,3.422159329E-2
1.823032305E0,-7.723161578E-2,2.037316747E-2,5.126581341E-2
1.825520221E0,-1.219726875E-1,-9.454214945E-3,6.724476814E-2
1.828008138E0,-1.613874435E-1,-3.608580679E-2,8.002793044E-2
1.830496055E0,-1.954758763E-1,-6.058686972E-2,9.174583107E-2
1.832983971E0,-2.253032625E-1,-8.295740932E-2,1.023984700E-1
1.835471888E0,-2.498043180E-1,-1.042626798E-1,1.119858399E-1
1.837959805E0,-2.679138184E-1,-1.266332120E-1,1.215732098E-1
1.840447721E0,-2.817622423E-1,-1.479384899E-1,1.279647946E-1
1.842935638E0,-2.913496196E-1,-1.703090221E-1,1.311605871E-1
1.845423555E0,-2.945453823E-1,-1.948100924E-1,1.311605871E-1
1.847911471E0,-2.924148738E-1,-2.182458937E-1,1.258342713E-1
1.850399388E0,-2.870885432E-1,-2.416816950E-1,1.162468940E-1
1.852887305E0,-2.775011659E-1,-2.640522122E-1,1.023984700E-1
1.855375221E0,-2.647180259E-1,-2.853575051E-1,8.535424620E-2
1.857863138E0,-2.476737946E-1,-3.055975139E-1,6.724476814E-2
1.860351055E0,-2.284990549E-1,-3.247722387E-1,4.700475931E-2
1.862838971E0,-2.082590461E-1,-3.428817391E-1,2.676474862E-2
1.865326888E0,-1.869537681E-1,-3.599259555E-1,8.655266836E-3
1.867814805E0,-1.645832360E-1,-3.759049177E-1,-8.388951421E-3
1.870302721E0,-1.432779580E-1,-3.918838501E-1,-2.436790615E-2
1.872790638E0,-1.219726875E-1,-4.089280665E-1,-3.821633384E-2
1.875278555E0,-1.006674170E-1,-4.238417745E-1,-4.993423447E-2
1.877766471E0,-8.042740822E-2,-4.355596602E-1,-5.952160433E-2
1.880254388E0,-6.125266105E-2,-4.462123215E-1,-6.910897791E-2
1.882742305E0,-4.527370632E-2,-4.547344148E-1,-7.443529367E-2
1.885230221E0,-3.249054030E-2,-4.621912539E-1,-7.869634777E-2
1.887718138E0,-2.396843210E-2,-4.685828388E-1,-7.976161689E-2
1.890206055E0,-1.970737800E-2,-4.760396779E-1,-7.763108611E-2
1.892693971E0,-1.864211448E-2,-4.834965467E-1,-7.443529367E-2
1.895181888E0,-2.183790505E-2,-4.930838943E-1,-6.804371625E-2
1.897669805E0,-2.822948620E-2,-5.016059875E-1,-6.058686972E-2
1.900157721E0,-3.781685978E-2,-5.101281404E-1,-5.206476152E-2
1.902645638E0,-4.953476042E-2,-5.165197253E-1,-4.354264960E-2
1.905133555E0,-6.231792271E-2,-5.207807422E-1,-3.395527974E-2
1.907621471E0,-7.616634667E-2,-5.239765644E-1,-2.436790615E-2
1.910109388E0,-9.108003974E-2,-5.271723270E-1,-1.584579609E-2
1.912597305E0,-1.070589945E-1,-5.271723270E-1,-8.388951421E-3
1.915085221E0,-1.230379492E-1,-5.282375813E-1,-1.997369342E-3
1.917573138E0,-1.400821656E-1,-5.282375813E-1,4.394212738E-3
1.920061055E0,-1.571263820E-1,-5.282375813E-1,1.185105834E-2
1.922548971E0,-1.741705984E-1,-5.303681493E-1,1.824264042E-2
1.925036888E0,-1.901495606E-1,-5.324986577E-1,2.463422157E-2
1.927524805E0,-2.050632536E-1,-5.378249884E-1,2.996053919E-2
1.930012721E0,-2.167811543E-1,-5.431513190E-1,3.422159329E-2
1.932500638E0,-2.263685167E-1,-5.516734123E-1,3.848264739E-2
1.934988555E0,-2.306295782E-1,-5.612607598E-1,3.954791278E-2
1.937476471E0,-2.295643091E-1,-5.729786754E-1,3.848264739E-2
1.939964388E0,-2.221074700E-1,-5.868270993E-1,3.422159329E-2
1.942452305E0,-2.082590461E-1,-6.006755233E-1,2.676474862E-2
1.944940221E0,-1.880190372E-1,-6.134586930E-1,1.824264042E-2
1.947428138E0,-1.592569202E-1,-6.262418628E-1,5.459476262E-3
1.949916055E0,-1.241032109E-1,-6.390250325E-1,-1.051947847E-2
1.952403971E0,-8.149266988E-2,-6.518082023E-1,-2.862896025E-2
1.954891888E0,-3.036001325E-2,-6.624608040E-1,-4.886896908E-2
1.957379805E0,2.716422267E-2,-6.720482111E-1,-7.230477035E-2
1.959867721E0,9.427583218E-2,-6.795050502E-1,-9.893636405E-2
1.962355638E0,1.677790284E-1,-6.816355586E-1,-1.276984811E-1
1.964843555E0,2.466085255E-1,-6.784397960E-1,-1.564605981E-1
1.967331471E0,3.296990991E-1,-6.709829569E-1,-1.841574460E-1
1.969819388E0,4.149201810E-1,-6.592650414E-1,-2.118543088E-1
1.972307305E0,5.012065172E-1,-6.432861090E-1,-2.374206334E-1
1.974795221E0,5.842971206E-1,-6.241113544E-1,-2.608564198E-1
1.977283138E0,6.620613337E-1,-6.038713455E-1,-2.810964286E-1
1.979771055E0,7.302381992E-1,-5.836313367E-1,-2.970753908E-1
1.982258971E0,7.877624631E-1,-5.655218363E-1,-3.098585606E-1
1.984747200E0,8.325035572E-1,-5.484775901E-1,-3.194459379E-1
1.987235430E0,8.644614220E-1,-5.324986577E-1,-3.237069845E-1
1.989723659E0,8.825709224E-1,-5.175849795E-1,-3.226417303E-1
1.992211784E0,8.868319988E-1,-5.048018098E-1,-3.194459379E-1
1.994699700E0,8.751140833E-1,-4.930838943E-1,-3.119890988E-1
1.997187617E0,8.484824896E-1,-4.803007543E-1,-3.024017215E-1
1.999675534E0,8.080024719E-1,-4.707133770E-1,-2.906838059E-1
2.002163450E0,7.547392845E-1,-4.621912539E-1,-2.768353820E-1
2.004651367E0,6.918887496E-1,-4.557996690E-1,-2.608564198E-1
2.007139284E0,6.173202991E-1,-4.504733682E-1,-2.427469492E-1
2.009627200E0,5.352949500E-1,-4.483428299E-1,-2.225069404E-1
2.012115117E0,4.458128214E-1,-4.472775757E-1,-2.001364082E-1
2.014603034E0,3.520696461E-1,-4.494080842E-1,-1.756353378E-1
2.017090950E0,2.583264410E-1,-4.536691606E-1,-1.521995366E-1
2.019578867E0,1.656484902E-1,-4.589954615E-1,-1.266332120E-1
2.022066784E0,7.616634667E-2,-4.675175846E-1,-1.021321490E-1
2.024554752E0,-5.858949851E-3,-4.771049619E-1,-7.763108611E-2
2.027042721E0,-7.936213911E-2,-4.888228476E-1,-5.526055023E-2
2.029530690E0,-1.443432271E-1,-5.026713014E-1,-3.608580679E-2
2.032018607E0,-1.965411454E-1,-5.165197253E-1,-1.904158667E-2
2.034506523E0,-2.380864173E-1,-5.293028951E-1,-5.193160381E-3
2.036994440E0,-2.657832801E-1,-5.399554968E-1,4.394212738E-3
2.039482357E0,-2.828274965E-1,-5.474123359E-1,1.185105834E-2
2.041970273E0,-2.870885432E-1,-5.516734123E-1,1.504684892E-2
2.044458190E0,-2.806969583E-1,-5.506081581E-1,1.504684892E-2
2.046946107E0,-2.647180259E-1,-5.452818274E-1,8.655266836E-3
2.049434023E0,-2.391516864E-1,-5.367597342E-1,1.198421582E-3
2.051921940E0,-2.061285079E-1,-5.229113102E-1,-9.454214945E-3
2.054409857E0,-1.677790284E-1,-5.069323182E-1,-2.436790615E-2
2.056897773E0,-1.251684725E-1,-4.888228476E-1,-3.928159550E-2
2.059385690E0,-7.723161578E-2,-4.685828388E-1,-5.526055023E-2
2.061873607E0,-2.716422267E-2,-4.483428299E-1,-7.337003201E-2
2.064361523E0,2.396843210E-2,-4.281028211E-1,-9.254477918E-2
2.066849440E0,7.510108501E-2,-4.078628123E-1,-1.106542572E-1
2.069337357E0,1.241032109E-1,-3.897533417E-1,-1.319595277E-1
2.071825273E0,1.720400751E-1,-3.727091253E-1,-1.521995366E-1
2.074313190E0,2.146506310E-1,-3.588607013E-1,-1.713742912E-1
2.076801107E0,2.540653646E-1,-3.471427858E-1,-1.905490309E-1
2.079289023E0,2.860232890E-1,-3.375554085E-1,-2.086585164E-1
2.081776940E0,3.137201369E-1,-3.300985694E-1,-2.246374637E-1
2.084264857E0,3.350254297E-1,-3.226417303E-1,-2.395511568E-1
2.086752773E0,3.510043621E-1,-3.173153996E-1,-2.502037883E-1
2.089240690E0,3.627222776E-1,-3.130543530E-1,-2.597911656E-1
2.091728607E0,3.701791167E-1,-3.087933064E-1,-2.672480047E-1
2.094216523E0,3.744401634E-1,-3.077280223E-1,-2.725743353E-1
2.096704440E0,3.755054474E-1,-3.066627681E-1,-2.768353820E-1
2.099192357E0,3.723096550E-1,-3.066627681E-1,-2.810964286E-1
2.101680273E0,3.669833243E-1,-3.087933064E-1,-2.842922211E-1
2.104168190E0,3.584612012E-1,-3.119890988E-1,-2.885532975E-1
2.106656107E0,3.456780612E-1,-3.151848912E-1,-2.917490900E-1
2.109144023E0,3.307643533E-1,-3.183806837E-1,-2.938795984E-1
2.111631940E0,3.147853911E-1,-3.205111921E-1,-2.970753908E-1
2.114119857E0,2.977411747E-1,-3.215764761E-1,-2.992059290E-1
2.116607773E0,2.817622423E-1,-3.215764761E-1,-3.024017215E-1
2.119095690E0,2.657832801E-1,-3.205111921E-1,-3.034669757E-1
2.121583607E0,2.508696020E-1,-3.173153996E-1,-3.045322299E-1
2.124071523E0,2.370211631E-1,-3.141196072E-1,-3.045322299E-1
2.126559440E0,2.242379934E-1,-3.098585606E-1,-3.034669757E-1
2.129047357E0,2.146506310E-1,-3.055975139E-1,-3.024017215E-1
2.131535273E0,2.050632536E-1,-3.013364673E-1,-3.002711833E-1
2.134023190E0,1.976063997E-1,-2.960101366E-1,-3.002711833E-1
2.136511107E0,1.901495606E-1,-2.917490900E-1,-3.002711833E-1
2.138999023E0,1.858884990E-1,-2.864227593E-1,-3.013364673E-1
2.141486940E0,1.826927215E-1,-2.810964286E-1,-3.045322299E-1
2.143974857E0,1.805621833E-1,-2.747048736E-1,-3.077280223E-1
2.146462773E0,1.794969290E-1,-2.672480047E-1,-3.130543530E-1
2.148950690E0,1.816274524E-1,-2.587259114E-1,-3.194459379E-1
2.151438607E0,1.837579757E-1,-2.491385341E-1,-3.279680312E-1
2.153926523E0,1.858884990E-1,-2.395511568E-1,-3.375554085E-1
2.156414440E0,1.880190372E-1,-2.310290486E-1,-3.492733240E-1
2.158902357E0,1.869537681E-1,-2.235722095E-1,-3.609912097E-1
2.161390273E0,1.837579757E-1,-2.171806246E-1,-3.748396337E-1
2.163878190E0,1.794969290E-1,-2.107890397E-1,-3.865575492E-1
2.166366107E0,1.720400751E-1,-2.065279931E-1,-3.993407190E-1
2.168854023E0,1.624527127E-1,-2.033322006E-1,-4.110586047E-1
2.171341940E0,1.528653353E-1,-2.022669315E-1,-4.217112362E-1
2.173829857E0,1.411474347E-1,-2.022669315E-1,-4.323638678E-1
2.176317773E0,1.304948032E-1,-2.043974549E-1,-4.419512451E-1
2.178805690E0,1.219726875E-1,-2.075932473E-1,-4.504733682E-1
2.181293607E0,1.145158410E-1,-2.129195631E-1,-4.579302073E-1
2.183781523E0,1.102547869E-1,-2.193111479E-1,-4.632565379E-1
2.186269440E0,1.059937328E-1,-2.278332561E-1,-4.675175846E-1
2.188757357E0,1.027979404E-1,-2.363553643E-1,-4.696480930E-1
2.191245273E0,1.027979404E-1,-2.448774725E-1,-4.707133770E-1
2.193733190E0,1.027979404E-1,-2.533995807E-1,-4.717786312E-1
2.196221107E0,1.049284711E-1,-2.608564198E-1,-4.728438854E-1
2.198709023E0,1.081242561E-1,-2.683132887E-1,-4.749744236E-1
2.201196940E0,1.123853177E-1,-2.757701278E-1,-4.760396779E-1
2.203684857E0,1.166463718E-1,-2.821617126E-1,-4.781702161E-1
2.206172773E0,1.241032109E-1,-2.874880135E-1,-4.813660085E-1
2.208660690E0,1.326253265E-1,-2.906838059E-1,-4.866923392E-1
2.211148607E0,1.400821656E-1,-2.917490900E-1,-4.909533858E-1
2.213636523E0,1.486042738E-1,-2.917490900E-1,-4.952144325E-1
2.216124440E0,1.571263820E-1,-2.874880135E-1,-5.005407333E-1
2.218612357E0,1.645832360E-1,-2.832269669E-1,-5.037365556E-1
2.221100273E0,1.731053442E-1,-2.757701278E-1,-5.058670640E-1
2.223588190E0,1.816274524E-1,-2.683132887E-1,-5.069323182E-1
2.226076107E0,1.880190372E-1,-2.587259114E-1,-5.058670640E-1
2.228564023E0,1.933453530E-1,-2.459427416E-1,-5.026713014E-1
2.231051940E0,1.976063997E-1,-2.320943177E-1,-4.973449707E-1
2.233539857E0,2.008021921E-1,-2.139848322E-1,-4.888228476E-1
2.236027773E0,2.029327303E-1,-1.926795542E-1,-4.781702161E-1
2.238515690E0,2.018674612E-1,-1.692437679E-1,-4.653870463E-1
2.241003607E0,1.986716688E-1,-1.436774284E-1,-4.504733682E-1
2.243491523E0,1.933453530E-1,-1.170458421E-1,-4.344944060E-1
2.245979440E0,1.848232448E-1,-9.147951752E-2,-4.185154438E-1
2.248467357E0,1.731053442E-1,-6.697845459E-2,-4.004059732E-1
2.250955273E0,1.581916511E-1,-4.354264960E-2,-3.801659644E-1
2.253443190E0,1.400821656E-1,-2.117211558E-2,-3.599259555E-1
2.255931107E0,1.187768951E-1,-1.997369342E-3,-3.386206925E-1
2.258419023E0,9.321057051E-2,1.824264042E-2,-3.151848912E-1
2.260906940E0,6.551371515E-2,3.635212034E-2,-2.917490900E-1
2.263394857E0,3.462106735E-2,5.446160212E-2,-2.661827505E-1
2.265882773E0,1.597895520E-3,7.044056058E-2,-2.395511568E-1
2.268370690E0,-3.355580568E-2,8.428898454E-2,-2.129195631E-1
2.270858607E0,-7.084003091E-2,9.494162351E-2,-1.852227151E-1
2.273346523E0,-1.070589945E-1,1.045289934E-1,-1.585911214E-1
2.275834440E0,-1.443432271E-1,1.109205782E-1,-1.308942735E-1
2.278322357E0,-1.805621833E-1,1.151816323E-1,-1.053279415E-1
2.280810273E0,-2.146506310E-1,1.141163707E-1,-8.082687855E-2
2.283298190E0,-2.519348562E-1,1.151816323E-1,-6.271740049E-2
2.285786107E0,-3.009369671E-1,1.322258562E-1,-4.993423447E-2
2.288274023E0,-3.595264852E-1,1.535311192E-1,-3.715106845E-2
2.290761940E0,-4.213117659E-1,1.620532274E-1,-2.330264263E-2
2.293249857E0,-4.767054915E-1,1.577921808E-1,-1.158474199E-2
2.295737773E0,-5.225118399E-1,1.418132186E-1,-9.321057005E-4
2.298225690E0,-5.597960353E-1,1.205079481E-1,9.720530361E-3
2.300713607E0,-5.885581374E-1,9.707214683E-2,1.930790395E-2
2.303201523E0,-6.066676378E-1,7.576687634E-2,2.676474862E-2
2.305689440E0,-6.130592227E-1,5.765739456E-2,3.422159329E-2
2.308177357E0,-6.056023836E-1,4.487423226E-2,4.274370521E-2
2.310665273E0,-5.842971206E-1,3.848264739E-2,5.020054802E-2
2.313153190E0,-5.491434336E-1,4.061317816E-2,5.659212917E-2
2.315641107E0,-4.990760088E-1,5.126581341E-2,5.978792161E-2
2.318129023E0,-4.362254739E-1,6.831002980E-2,5.978792161E-2
2.320616940E0,-3.616569936E-1,9.174583107E-2,5.659212917E-2
2.323104857E0,-2.775011659E-1,1.226384789E-1,5.126581341E-2
2.325592773E0,-1.837579757E-1,1.577921808E-1,4.487423226E-2
2.328080690E0,-8.681898564E-2,1.961416751E-1,3.528685868E-2
2.330568607E0,1.438105945E-2,2.366216928E-1,2.676474862E-2
2.333056523E0,1.155811027E-1,2.771016955E-1,1.717737690E-2
2.335544440E0,2.157158852E-1,3.143859208E-1,9.720530361E-3
2.338032357E0,3.126548827E-1,3.516701460E-1,4.394212738E-3
2.340520273E0,4.032022953E-1,3.857586086E-1,1.331579551E-4
2.343008190E0,4.862928391E-1,4.177165031E-1,-9.321057005E-4
2.345496107E0,5.608612895E-1,4.443480968E-1,-1.997369342E-3
2.347984023E0,6.237118840E-1,4.667186439E-1,1.198421582E-3
2.350471940E0,6.759097576E-1,4.837628603E-1,5.459476262E-3
2.352959857E0,7.153245211E-1,4.976112843E-1,9.720530361E-3
2.355447773E0,7.408908606E-1,5.071986318E-1,1.611211337E-2
2.357935690E0,7.536740303E-1,5.114597082E-1,2.250369452E-2
2.360423607E0,7.515435219E-1,5.125249624E-1,3.102580272E-2
2.362911523E0,7.366297841E-1,5.103944540E-1,4.061317816E-2
2.365399440E0,7.068024278E-1,5.061333776E-1,5.126581341E-2
2.367887357E0,6.641919017E-1,5.008070469E-1,6.298371404E-2
2.370375273E0,6.098634601E-1,4.933502376E-1,7.470161468E-2
2.372863190E0,5.438171029E-1,4.837628603E-1,8.641951531E-2
2.375351107E0,4.681833684E-1,4.720449448E-1,9.920267761E-2
2.377839023E0,3.829622865E-1,4.592617750E-1,1.119858399E-1
2.380326940E0,2.913496196E-1,4.454133511E-1,1.247690022E-1
2.382814857E0,1.944106072E-1,4.304996729E-1,1.396826953E-1
2.385302773E0,9.427583218E-2,4.155859649E-1,1.545963883E-1
2.387790690E0,-4.793686327E-3,4.006722867E-1,1.716406047E-1
2.390278607E0,-1.017326787E-1,3.868238628E-1,1.897500902E-1
2.392766523E0,-1.944106072E-1,3.740406930E-1,2.089248300E-1
2.395254440E0,-2.817622423E-1,3.612575233E-1,2.280995846E-1
2.397742357E0,-3.637875319E-1,3.506048918E-1,2.462090552E-1
2.400230273E0,-4.372907281E-1,3.410175145E-1,2.643185556E-1
2.402718190E0,-5.044023395E-1,3.346259296E-1,2.813627720E-1
2.405206107E0,-5.651223660E-1,3.303648829E-1,2.973417044E-1
2.407694023E0,-6.194508076E-1,3.282343447E-1,3.122554123E-1
2.410181940E0,-6.652571559E-1,3.282343447E-1,3.261038363E-1
2.412669857E0,-7.046719193E-1,3.303648829E-1,3.388870060E-1
2.415157773E0,-7.344992757E-1,3.356912136E-1,3.516701460E-1
2.417645690E0,-7.579351068E-1,3.431480527E-1,3.623228073E-1
2.420133607E0,-7.717835307E-1,3.516701460E-1,3.719101548E-1
2.422621523E0,-7.792403698E-1,3.633880615E-1,3.814975321E-1
2.425109440E0,-7.803056240E-1,3.751059473E-1,3.878891170E-1
2.427597357E0,-7.739140391E-1,3.889544010E-1,3.942807019E-1
2.430085273E0,-7.621961236E-1,4.028028250E-1,4.006722867E-1
2.432573190E0,-7.462171912E-1,4.155859649E-1,4.070638716E-1
2.435061107E0,-7.259771824E-1,4.273038805E-1,4.145207107E-1
2.437549023E0,-7.014760971E-1,4.368912578E-1,4.219775498E-1
2.440036940E0,-6.737792492E-1,4.443480968E-1,4.304996729E-1
2.442524857E0,-6.428865790E-1,4.486091435E-1,4.390217662E-1
2.445012773E0,-6.098634601E-1,4.507396817E-1,4.486091435E-1
2.447500690E0,-5.747097135E-1,4.507396817E-1,4.571312666E-1
2.449988607E0,-5.395560265E-1,4.464786351E-1,4.645881057E-1
2.452476523E0,-5.044023395E-1,4.400870502E-1,4.699144363E-1
2.454964440E0,-4.703139067E-1,4.326302111E-1,4.720449448E-1
2.457452357E0,-4.383559823E-1,4.241080880E-1,4.720449448E-1
2.459940273E0,-4.085285962E-1,4.155859649E-1,4.699144363E-1
2.462428190E0,-3.818970025E-1,4.059986174E-1,4.645881057E-1
2.464916107E0,-3.584612012E-1,3.953459561E-1,4.571312666E-1
2.467404023E0,-3.382211924E-1,3.846933246E-1,4.475438893E-1
2.469891940E0,-3.201117218E-1,3.740406930E-1,4.368912578E-1
2.472379857E0,-3.062632978E-1,3.633880615E-1,4.251733422E-1
2.474867773E0,-2.945453823E-1,3.548659384E-1,4.134554565E-1
2.477355690E0,-2.860232890E-1,3.474090993E-1,4.028028250E-1
2.479843607E0,-2.785664499E-1,3.410175145E-1,3.921501637E-1
2.482331523E0,-2.743053734E-1,3.346259296E-1,3.825628161E-1
2.484819440E0,-2.721748650E-1,3.271690905E-1,3.740406930E-1
2.487307357E0,-2.721748650E-1,3.207775056E-1,3.665838540E-1
2.489795273E0,-2.753706574E-1,3.122554123E-1,3.601922691E-1
2.492283190E0,-2.828274965E-1,3.047985733E-1,3.569964767E-1
2.494771107E0,-2.924148738E-1,2.952111959E-1,3.559312224E-1
2.497259023E0,-3.051980436E-1,2.877543271E-1,3.559312224E-1
2.499746940E0,-3.201117218E-1,2.781669796E-1,3.580617309E-1
2.502234857E0,-3.371559381E-1,2.707101107E-1,3.612575233E-1
2.504722773E0,-3.552654386E-1,2.632532716E-1,3.644533157E-1
2.507210690E0,-3.733749092E-1,2.579269707E-1,3.697796464E-1
2.509698607E0,-3.914843798E-1,2.536658943E-1,3.751059473E-1
2.512186523E0,-4.117243886E-1,2.494048476E-1,3.814975321E-1
2.514674440E0,-4.308991432E-1,2.472743243E-1,3.900196552E-1
2.517162357E0,-4.500738978E-1,2.462090552E-1,3.996070325E-1
2.519650273E0,-4.681833684E-1,2.462090552E-1,4.102596641E-1
2.522138190E0,-4.852275848E-1,2.472743243E-1,4.209122956E-1
2.524626107E0,-5.022718310E-1,2.504701018E-1,4.336954653E-1
2.527114023E0,-5.171855092E-1,2.536658943E-1,4.464786351E-1
2.529601940E0,-5.299686790E-1,2.589922249E-1,4.613923132E-1
2.532089857E0,-5.406212807E-1,2.643185556E-1,4.763059914E-1
2.534577773E0,-5.512739420E-1,2.707101107E-1,4.912196994E-1
2.537065690E0,-5.587307811E-1,2.760364413E-1,5.061333776E-1
2.539553607E0,-5.651223660E-1,2.824280262E-1,5.210470557E-1
2.542041523E0,-5.683181286E-1,2.898848653E-1,5.348954797E-1
2.544529440E0,-5.704486966E-1,2.952111959E-1,5.466133952E-1
2.547017357E0,-5.683181286E-1,3.005374968E-1,5.562008023E-1
2.549505273E0,-5.651223660E-1,3.047985733E-1,5.625923872E-1
2.551993190E0,-5.576655269E-1,3.090596199E-1,5.668534040E-1
2.554481107E0,-5.480781198E-1,3.122554123E-1,5.668534040E-1
2.556969023E0,-5.331644416E-1,3.143859208E-1,5.625923872E-1
2.559456940E0,-5.150549412E-1,3.154512048E-1,5.551354885E-1
2.561944857E0,-4.926844239E-1,3.165164590E-1,5.444828868E-1
2.564432773E0,-4.681833684E-1,3.165164590E-1,5.316997170E-1
2.566920690E0,-4.383559823E-1,3.165164590E-1,5.146554708E-1
2.569408607E0,-4.021370113E-1,3.165164590E-1,4.965460002E-1
2.571896523E0,-3.627222776E-1,3.165164590E-1,4.773712754E-1
2.574384440E0,-3.169159293E-1,3.175817132E-1,4.560659826E-1
2.576872357E0,-2.668485343E-1,3.207775056E-1,4.347607195E-1
2.579360273E0,-2.114548385E-1,3.250385821E-1,4.134554565E-1
2.581848190E0,-1.528653353E-1,3.314301372E-1,3.910849094E-1
2.584336107E0,-9.001477808E-2,3.399522603E-1,3.697796464E-1
2.586824023E0,-2.716422267E-2,3.506048918E-1,3.484743834E-1
2.589311940E0,3.355580568E-2,3.623228073E-1,3.282343447E-1
2.591799857E0,9.108003974E-2,3.740406930E-1,3.101248741E-1
2.594287773E0,1.454084814E-1,3.857586086E-1,2.941459119E-1
2.596775690E0,1.965411454E-1,3.953459561E-1,2.813627720E-1
2.599263607E0,2.412822098E-1,4.028028250E-1,2.717753947E-1
2.601751523E0,2.817622423E-1,4.081291258E-1,2.643185556E-1
2.604239440E0,3.179811835E-1,4.123901725E-1,2.611227632E-1
2.606727357E0,3.488738537E-1,4.134554565E-1,2.589922249E-1
2.609215273E0,3.733749092E-1,4.155859649E-1,2.600574791E-1
2.611703190E0,3.914843798E-1,4.155859649E-1,2.621880174E-1
2.614191107E0,4.010717571E-1,4.155859649E-1,2.664490640E-1
2.616679023E0,4.032022953E-1,4.134554565E-1,2.728406489E-1
2.619166940E0,3.978759646E-1,4.113249183E-1,2.813627720E-1
2.621654857E0,3.818970025E-1,4.070638716E-1,2.920154035E-1
2.624142773E0,3.595264852E-1,4.038680792E-1,3.037332892E-1
2.626630690E0,3.275685608E-1,3.974764943E-1,3.175817132E-1
2.629118607E0,2.892190814E-1,3.921501637E-1,3.324954212E-1
2.631606523E0,2.444780022E-1,3.846933246E-1,3.452785909E-1
2.634094440E0,1.944106072E-1,3.783017397E-1,3.580617309E-1
2.636582357E0,1.400821656E-1,3.729754388E-1,3.719101548E-1
2.639070273E0,8.149266988E-2,3.676491082E-1,3.825628161E-1
2.641558190E0,2.077264152E-2,3.633880615E-1,3.932154477E-1
2.644046107E0,-4.101264849E-2,3.612575233E-1,4.006722867E-1
2.646534023E0,-1.027979404E-1,3.601922691E-1,4.081291258E-1
2.649021940E0,-1.635179669E-1,3.601922691E-1,4.123901725E-1
2.651509857E0,-2.199769467E-1,3.612575233E-1,4.155859649E-1
2.653997773E0,-2.743053734E-1,3.612575233E-1,4.177165031E-1
2.656485690E0,-3.233075142E-1,3.601922691E-1,4.177165031E-1
2.658973607E0,-3.669833243E-1,3.591270149E-1,4.177165031E-1
2.661461523E0,-4.053328037E-1,3.569964767E-1,4.155859649E-1
2.663949440E0,-4.372907281E-1,3.538006842E-1,4.134554565E-1
2.666437357E0,-4.639223218E-1,3.506048918E-1,4.091944098E-1
2.668925273E0,-4.830970466E-1,3.484743834E-1,4.038680792E-1
2.671413190E0,-4.969455004E-1,3.463438451E-1,3.985417485E-1
2.673901107E0,-5.044023395E-1,3.452785909E-1,3.942807019E-1
2.676389023E0,-5.054675937E-1,3.474090993E-1,3.878891170E-1
2.678876940E0,-5.012065172E-1,3.506048918E-1,3.825628161E-1
2.681364857E0,-4.905539155E-1,3.538006842E-1,3.761712313E-1
2.683852773E0,-4.756402075E-1,3.580617309E-1,3.697796464E-1
2.686340690E0,-4.554001987E-1,3.633880615E-1,3.612575233E-1
2.688828607E0,-4.330296814E-1,3.687143922E-1,3.527354300E-1
2.691316523E0,-4.085285962E-1,3.740406930E-1,3.452785909E-1
2.693804440E0,-3.818970025E-1,3.783017397E-1,3.356912136E-1
2.696292357E0,-3.542001545E-1,3.825628161E-1,3.261038363E-1
2.698780273E0,-3.265033066E-1,3.857586086E-1,3.165164590E-1
2.701268190E0,-2.966759205E-1,3.878891170E-1,3.090596199E-1
2.703756107E0,-2.679138184E-1,3.889544010E-1,2.994722426E-1
2.706244023E0,-2.391516864E-1,3.900196552E-1,2.909501195E-1
2.708731940E0,-2.103895694E-1,3.900196552E-1,2.824280262E-1
2.711219857E0,-1.826927215E-1,3.900196552E-1,2.739059031E-1
2.713707773E0,-1.560611278E-1,3.889544010E-1,2.653838098E-1
2.716195690E0,-1.315600574E-1,3.878891170E-1,2.557964325E-1
2.718683607E0,-1.081242561E-1,3.846933246E-1,2.462090552E-1
2.721171523E0,-8.681898564E-2,3.804322779E-1,2.355564237E-1
2.723659440E0,-6.764423847E-2,3.740406930E-1,2.249037921E-1
2.726147357E0,-5.166528746E-2,3.665838540E-1,2.131858915E-1
2.728635273E0,-3.781685978E-2,3.569964767E-1,2.014679909E-1
2.731123190E0,-2.716422267E-2,3.474090993E-1,1.886848211E-1
2.733611107E0,-1.970737800E-2,3.378217220E-1,1.759016514E-1
2.736099023E0,-1.438105945E-2,3.282343447E-1,1.631184965E-1
2.738586940E0,-9.054740891E-3,3.197122514E-1,1.514005959E-1
2.741074857E0,-4.793686327E-3,3.143859208E-1,1.396826953E-1
2.743562773E0,5.326318205E-4,3.101248741E-1,1.290300637E-1
2.746050690E0,5.858949851E-3,3.090596199E-1,1.205079481E-1
2.748538607E0,1.118526794E-2,3.101248741E-1,1.141163707E-1
2.751026523E0,1.864211448E-2,3.122554123E-1,1.066595241E-1
2.753514440E0,2.609895915E-2,3.154512048E-1,1.013332009E-1
2.756002357E0,3.249054030E-2,3.186469972E-1,9.600688517E-2
2.758490273E0,3.994738683E-2,3.229080439E-1,9.174583107E-2
2.760978190E0,4.527370632E-2,3.250385821E-1,8.641951531E-2
2.763466107E0,4.846949503E-2,3.261038363E-1,8.215846121E-2
2.765954023E0,5.166528746E-2,3.250385821E-1,7.896266878E-2
2.768441940E0,5.166528746E-2,3.218427896E-1,7.576687634E-2
2.770929857E0,4.953476042E-2,3.175817132E-1,7.363634557E-2
2.773417773E0,4.420844093E-2,3.101248741E-1,7.257108390E-2
2.775905690E0,3.462106735E-2,2.994722426E-1,7.150582224E-2
2.778393607E0,2.183790505E-2,2.877543271E-1,7.150582224E-2
2.780881523E0,3.728422802E-3,2.739059031E-1,7.150582224E-2
2.783369440E0,-1.651158556E-2,2.589922249E-1,7.363634557E-2
2.785857357E0,-3.994738683E-2,2.440785319E-1,7.683213800E-2
2.788345273E0,-6.764423847E-2,2.302301079E-1,8.215846121E-2
2.790833190E0,-9.534109384E-2,2.174469382E-1,8.748477697E-2
2.793321107E0,-1.251684725E-1,2.057290375E-1,9.707214683E-2
2.795809023E0,-1.560611278E-1,1.972069293E-1,1.066595241E-1
2.798296940E0,-1.869537681E-1,1.886848211E-1,1.173121557E-1
2.800784857E0,-2.167811543E-1,1.822932363E-1,1.311605871E-1
2.803272773E0,-2.455432713E-1,1.780321896E-1,1.450090110E-1
2.805760690E0,-2.743053734E-1,1.759016514E-1,1.599227041E-1
2.808248607E0,-3.009369671E-1,1.727058738E-1,1.748363972E-1
2.810736523E0,-3.265033066E-1,1.716406047E-1,1.897500902E-1
2.813224440E0,-3.510043621E-1,1.695100814E-1,2.035985142E-1
2.815712357E0,-3.744401634E-1,1.695100814E-1,2.163816839E-1
2.818200273E0,-3.968107104E-1,1.695100814E-1,2.280995846E-1
2.820688190E0,-4.170507193E-1,1.716406047E-1,2.387522161E-1
2.823176107E0,-4.362254739E-1,1.748363972E-1,2.483395934E-1
2.825664023E0,-4.532696903E-1,1.801627129E-1,2.547311783E-1
2.828151940E0,-4.681833684E-1,1.865542978E-1,2.611227632E-1
2.830639857E0,-4.809665382E-1,1.940111369E-1,2.653838098E-1
2.833127773E0,-4.916191697E-1,2.035985142E-1,2.696448565E-1
2.835615690E0,-5.012065172E-1,2.131858915E-1,2.717753947E-1
2.838103607E0,-5.086634159E-1,2.238385230E-1,2.728406489E-1
2.840591523E0,-5.150549412E-1,2.334259003E-1,2.749711871E-1
2.843079440E0,-5.182507634E-1,2.419480085E-1,2.749711871E-1
2.845567357E0,-5.214465261E-1,2.504701018E-1,2.760364413E-1
2.848055273E0,-5.214465261E-1,2.568616867E-1,2.760364413E-1
2.850543190E0,-5.214465261E-1,2.632532716E-1,2.760364413E-1
2.853031107E0,-5.182507634E-1,2.685796022E-1,2.739059031E-1
2.855519023E0,-5.139896870E-1,2.739059031E-1,2.717753947E-1
2.858006940E0,-5.097286701E-1,2.781669796E-1,2.696448565E-1
2.860494857E0,-5.044023395E-1,2.824280262E-1,2.653838098E-1
2.862982773E0,-4.969455004E-1,2.845585644E-1,2.600574791E-1
2.865470690E0,-4.873581231E-1,2.866890728E-1,2.557964325E-1
2.867958607E0,-4.788360000E-1,2.877543271E-1,2.504701018E-1
2.870446523E0,-4.681833684E-1,2.877543271E-1,2.462090552E-1
2.872934440E0,-4.575307369E-1,2.866890728E-1,2.398174703E-1
2.875422357E0,-4.468781054E-1,2.866890728E-1,2.355564237E-1
2.877910273E0,-4.351601899E-1,2.834932804E-1,2.302301079E-1
2.880398190E0,-4.234423041E-1,2.802974880E-1,2.259690464E-1
2.882886107E0,-4.138549268E-1,2.760364413E-1,2.206427306E-1
2.885374023E0,-4.032022953E-1,2.685796022E-1,2.163816839E-1
2.887861940E0,-3.946801722E-1,2.611227632E-1,2.121206224E-1
2.890349857E0,-3.872233331E-1,2.515353858E-1,2.078595608E-1
2.892837773E0,-3.808317482E-1,2.398174703E-1,2.057290375E-1
2.895325690E0,-3.765707016E-1,2.270343155E-1,2.035985142E-1
2.897813607E0,-3.744401634E-1,2.131858915E-1,2.035985142E-1
2.900301523E0,-3.744401634E-1,1.982721984E-1,2.046637833E-1
2.902789440E0,-3.744401634E-1,1.812279820E-1,2.057290375E-1
2.905277357E0,-3.765707016E-1,1.652490199E-1,2.089248300E-1
2.907765273E0,-3.797664940E-1,1.492700726E-1,2.131858915E-1
2.910253190E0,-3.829622865E-1,1.332911104E-1,2.174469382E-1
2.912741107E0,-3.861580789E-1,1.183774248E-1,2.227732539E-1
2.915229023E0,-3.893538713E-1,1.055942550E-1,2.270343155E-1
2.917716940E0,-3.925496638E-1,9.387636185E-2,2.323606312E-1
2.920204857E0,-3.936149180E-1,8.535424620E-2,2.366216928E-1
2.922692773E0,-3.936149180E-1,8.002793044E-2,2.419480085E-1
2.925180690E0,-3.936149180E-1,7.896266878E-2,2.472743243E-1
2.927668607E0,-3.893538713E-1,8.002793044E-2,2.526006401E-1
2.930156523E0,-3.840275407E-1,8.322372288E-2,2.568616867E-1
2.932644440E0,-3.765707016E-1,8.855003864E-2,2.600574791E-1
2.935132357E0,-3.659180701E-1,9.387636185E-2,2.632532716E-1
2.937620273E0,-3.542001545E-1,1.002679393E-1,2.632532716E-1
2.940108190E0,-3.392864764E-1,1.055942550E-1,2.632532716E-1
2.942596107E0,-3.222422600E-1,1.109205782E-1,2.621880174E-1
2.945084023E0,-3.041327596E-1,1.162468940E-1,2.579269707E-1
2.947571940E0,-2.849580348E-1,1.215732098E-1,2.536658943E-1
2.950059857E0,-2.647180259E-1,1.258342713E-1,2.472743243E-1
2.952547773E0,-2.423474789E-1,1.300953180E-1,2.398174703E-1
2.955035690E0,-2.199769467E-1,1.343563795E-1,2.312953621E-1
2.957523607E0,-1.965411454E-1,1.386174262E-1,2.217079997E-1
2.960011523E0,-1.720400751E-1,1.428784877E-1,2.121206224E-1
2.962499440E0,-1.475390196E-1,1.482048035E-1,2.014679909E-1
2.964987357E0,-1.230379492E-1,1.514005959E-1,1.908153445E-1
2.967475273E0,-9.960214794E-2,1.545963883E-1,1.801627129E-1
2.969963190E0,-7.616634667E-2,1.567269117E-1,1.695100814E-1
2.972451107E0,-5.273054913E-2,1.577921808E-1,1.588574350E-1
2.974939023E0,-3.142527863E-2,1.577921808E-1,1.482048035E-1
2.977426940E0,-1.225053146E-2,1.577921808E-1,1.396826953E-1
2.979914857E0,4.793686327E-3,1.577921808E-1,1.300953180E-1
2.982402773E0,1.864211448E-2,1.567269117E-1,1.226384789E-1
2.984890690E0,3.036001325E-2,1.545963883E-1,1.162468940E-1
2.987378607E0,3.994738683E-2,1.524658650E-1,1.109205782E-1
2.989866523E0,4.740423337E-2,1.503353268E-1,1.055942550E-1
2.992354440E0,5.166528746E-2,1.471395344E-1,1.002679393E-1
2.994842357E0,5.379581451E-2,1.460742801E-1,9.600688517E-2
2.997330273E0,5.273054913E-2,1.439437568E-1,9.174583107E-2
2.999818190E0,4.953476042E-2,1.418132186E-1,8.748477697E-2
3.002306107E0,4.420844093E-2,1.396826953E-1,8.322372288E-2
3.004794023E0,3.675159439E-2,1.375521719E-1,7.683213800E-2
3.007281940E0,2.609895915E-2,1.343563795E-1,7.257108390E-2
3.009769857E0,1.438105945E-2,1.311605871E-1,6.724476814E-2
3.012257773E0,-5.326318205E-4,1.279647946E-1,6.404897571E-2
3.014745690E0,-1.544632297E-2,1.237037405E-1,5.978792161E-2
3.017233607E0,-3.142527863E-2,1.183774248E-1,5.659212917E-2
3.019721523E0,-4.740423337E-2,1.130511016E-1,5.446160212E-2
3.022209440E0,-6.338318437E-2,1.077247858E-1,5.126581341E-2
3.024697357E0,-7.936213911E-2,1.034637317E-1,4.807002097E-2
3.027185273E0,-9.427583218E-2,9.920267761E-2,4.593949392E-2
3.029673190E0,-1.070589945E-1,9.600688517E-2,4.167843983E-2
3.032161107E0,-1.187768951E-1,9.281109273E-2,3.954791278E-2
3.034649023E0,-1.294295341E-1,9.174583107E-2,3.635212034E-2
3.037136940E0,-1.368863732E-1,9.174583107E-2,3.209106624E-2
3.039624857E0,-1.432779580E-1,9.174583107E-2,2.889527567E-2
3.042112773E0,-1.464737505E-1,9.281109273E-2,2.676474862E-2
3.044600690E0,-1.486042738E-1,9.494162351E-2,2.356895804E-2
3.047088607E0,-1.464737505E-1,9.600688517E-2,2.143843099E-2
3.049576523E0,-1.432779580E-1,9.813741595E-2,1.824264042E-2
3.052064440E0,-1.379516423E-1,1.002679393E-1,1.504684892E-2
3.054552357E0,-1.326253265E-1,1.013332009E-1,1.185105834E-2
3.057040273E0,-1.241032109E-1,1.023984700E-1,7.590003312E-3
3.059528190E0,-1.155811027E-1,1.034637317E-1,4.394212738E-3
3.062016107E0,-1.059937328E-1,1.045289934E-1,1.331579551E-4
3.064504023E0,-9.640636295E-2,1.055942550E-1,-3.062632866E-3
3.066991940E0,-8.788424730E-2,1.066595241E-1,-6.258423906E-3
3.069479857E0,-7.936213911E-2,1.087900475E-1,-8.388951421E-3
3.071967773E0,-7.084003091E-2,1.098553166E-1,-1.051947847E-2
3.074455690E0,-6.338318437E-2,1.109205782E-1,-1.158474199E-2
3.076943607E0,-5.699160323E-2,1.119858399E-1,-1.265000552E-2
3.079431523E0,-5.273054913E-2,1.141163707E-1,-1.371526904E-2
3.081919440E0,-4.953476042E-2,1.162468940E-1,-1.478053257E-2
3.084407357E0,-4.633896798E-2,1.183774248E-1,-1.478053257E-2
3.086895273E0,-4.633896798E-2,1.215732098E-1,-1.478053257E-2
3.089383190E0,-4.740423337E-2,1.237037405E-1,-1.371526904E-2
3.091871107E0,-4.846949503E-2,1.258342713E-1,-1.158474199E-2
3.094359023E0,-4.953476042E-2,1.279647946E-1,-1.051947847E-2
3.096846940E0,-5.273054913E-2,1.311605871E-1,-7.323687430E-3
3.099334857E0,-5.592634156E-2,1.343563795E-1,-5.193160381E-3
3.101822773E0,-6.018739566E-2,1.375521719E-1,-1.997369342E-3
3.104310690E0,-6.444845349E-2,1.407479644E-1,1.198421582E-3
3.106798607E0,-6.870950758E-2,1.439437568E-1,4.394212738E-3
3.109286523E0,-7.297056168E-2,1.460742801E-1,7.590003312E-3
3.111774440E0,-7.829687744E-2,1.482048035E-1,9.720530361E-3
3.114262357E0,-8.362319320E-2,1.492700726E-1,1.078579482E-2
3.116750273E0,-8.894951642E-2,1.503353268E-1,1.291632187E-2
3.119238190E0,-9.321057051E-2,1.492700726E-1,1.398158539E-2
3.121726107E0,-9.640636295E-2,1.482048035E-1,1.504684892E-2
3.124214023E0,-9.853688627E-2,1.460742801E-1,1.611211337E-2
3.126701940E0,-9.853688627E-2,1.439437568E-1,1.611211337E-2
3.129189857E0,-9.853688627E-2,1.418132186E-1,1.717737690E-2
3.131677773E0,-9.747162461E-2,1.396826953E-1,1.717737690E-2
3.134165690E0,-9.640636295E-2,1.375521719E-1,1.717737690E-2
3.136653607E0,-9.534109384E-2,1.354216337E-1,1.717737690E-2
3.139141523E0,-9.427583218E-2,1.332911104E-1,1.717737690E-2
3.141629440E0,-9.321057051E-2,1.311605871E-1,1.611211337E-2
3.144117357E0,-9.214530140E-2,1.279647946E-1,1.398158539E-2
3.146605273E0,-9.321057051E-2,1.247690022E-1,1.291632187E-2
3.149093190E0,-9.427583218E-2,1.215732098E-1,1.078579482E-2
3.151581107E0,-9.747162461E-2,1.183774248E-1,8.655266836E-3
3.154068971E0,-1.017326787E-1,1.151816323E-1,8.655266836E-3
3.156556836E0,-1.059937328E-1,1.130511016E-1,9.720530361E-3
3.159044700E0,-1.113200486E-1,1.098553166E-1,1.185105834E-2
3.161532565E0,-1.155811027E-1,1.077247858E-1,1.398158539E-2
3.164020430E0,-1.209074259E-1,1.066595241E-1,1.717737690E-2
3.166508294E0,-1.262337416E-1,1.055942550E-1,2.143843099E-2
3.168996159E0,-1.315600574E-1,1.055942550E-1,2.569948509E-2
3.171484023E0,-1.379516423E-1,1.055942550E-1,2.996053919E-2
3.173971888E0,-1.432779580E-1,1.066595241E-1,3.422159329E-2
3.176459752E0,-1.486042738E-1,1.066595241E-1,3.954791278E-2
3.178947617E0,-1.528653353E-1,1.077247858E-1,4.380896688E-2
3.181435482E0,-1.571263820E-1,1.087900475E-1,4.807002097E-2
3.183923346E0,-1.603221744E-1,1.109205782E-1,5.126581341E-2
3.186411211E0,-1.635179669E-1,1.130511016E-1,5.233107507E-2
3.188899075E0,-1.635179669E-1,1.141163707E-1,5.233107507E-2
3.191386940E0,-1.635179669E-1,1.173121557E-1,5.020054802E-2
3.193874805E0,-1.603221744E-1,1.194426864E-1,4.807002097E-2
3.196362669E0,-1.571263820E-1,1.205079481E-1,4.487423226E-2
3.198850534E0,-1.528653353E-1,1.226384789E-1,4.167843983E-2
3.201338398E0,-1.464737505E-1,1.247690022E-1,3.635212034E-2
3.203826263E0,-1.379516423E-1,1.258342713E-1,3.209106624E-2
3.206314127E0,-1.294295341E-1,1.247690022E-1,2.463422157E-2
3.208801992E0,-1.187768951E-1,1.237037405E-1,1.930790395E-2
3.211289857E0,-1.070589945E-1,1.205079481E-1,1.398158539E-2
3.213777721E0,-9.640636295E-2,1.173121557E-1,8.655266836E-3
3.216265586E0,-8.468846232E-2,1.130511016E-1,2.263685223E-3
3.218753450E0,-7.297056168E-2,1.077247858E-1,-3.062632866E-3
3.221241315E0,-6.231792271E-2,1.013332009E-1,-7.323687430E-3
3.223729180E0,-5.379581451E-2,9.387636185E-2,-1.158474199E-2
3.226217044E0,-4.633896798E-2,8.535424620E-2,-1.371526904E-2
3.228704961E0,-3.994738683E-2,7.683213800E-2,-1.584579609E-2
3.231192877E0,-3.568633273E-2,6.617950648E-2,-1.584579609E-2
3.233680794E0,-3.462106735E-2,5.659212917E-2,-1.584579609E-2
3.236168711E0,-3.462106735E-2,4.487423226E-2,-1.584579609E-2
3.238656627E0,-3.675159439E-2,3.422159329E-2,-1.584579609E-2
3.241144544E0,-4.207791388E-2,2.356895804E-2,-1.478053257E-2
3.243632461E0,-4.846949503E-2,1.398158539E-2,-1.478053257E-2
3.246120377E0,-5.699160323E-2,4.394212738E-3,-1.478053257E-2
3.248608294E0,-6.657897681E-2,-6.258423906E-3,-1.584579609E-2
3.251096211E0,-7.616634667E-2,-1.478053257E-2,-1.904158667E-2
3.253584127E0,-8.788424730E-2,-2.223737910E-2,-2.330264263E-2
3.256072044E0,-9.853688627E-2,-2.969422378E-2,-2.862896025E-2
3.258559961E0,-1.091895252E-1,-3.502054140E-2,-3.502054140E-2
3.261047877E0,-1.209074259E-1,-3.928159550E-2,-4.247738793E-2
3.263535794E0,-1.294295341E-1,-4.354264960E-2,-4.993423447E-2
3.266023711E0,-1.368863732E-1,-4.567318037E-2,-5.739107728E-2
3.268511627E0,-1.422126889E-1,-4.567318037E-2,-6.378266215E-2
3.270999544E0,-1.454084814E-1,-4.460791498E-2,-7.230477035E-2
3.273487461E0,-1.454084814E-1,-4.354264960E-2,-8.082687855E-2
3.275975377E0,-1.432779580E-1,-4.141212255E-2,-8.934898674E-2
3.278463294E0,-1.368863732E-1,-4.034686089E-2,-9.787109494E-2
3.280951211E0,-1.283642650E-1,-3.821633384E-2,-1.053279415E-1
3.283439127E0,-1.177116334E-1,-3.715106845E-2,-1.138500497E-1
3.285927044E0,-1.049284711E-1,-3.502054140E-2,-1.213068962E-1
3.288414961E0,-9.108003974E-2,-3.395527974E-2,-1.276984811E-1
3.290902877E0,-7.510108501E-2,-3.182475269E-2,-1.351553202E-1
3.293390794E0,-5.912213027E-2,-2.969422378E-2,-1.415469050E-1
3.295878711E0,-4.101264849E-2,-2.756369673E-2,-1.468732208E-1
3.298366627E0,-2.290316857E-2,-2.543316968E-2,-1.511342824E-1
3.300854544E0,-5.858949851E-3,-2.330264263E-2,-1.564605981E-1
3.303342461E0,1.118526794E-2,-2.117211558E-2,-1.607216448E-1
3.305830377E0,2.609895915E-2,-2.010685205E-2,-1.649827063E-1
3.308318294E0,3.994738683E-2,-2.010685205E-2,-1.692437679E-1
3.310806211E0,5.166528746E-2,-2.010685205E-2,-1.735048145E-1
3.313294127E0,6.125266105E-2,-2.010685205E-2,-1.756353378E-1
3.315782044E0,6.870950758E-2,-2.117211558E-2,-1.788311303E-1
3.318269961E0,7.510108501E-2,-2.223737910E-2,-1.809616536E-1
3.320757877E0,7.723161578E-2,-2.330264263E-2,-1.809616536E-1
3.323245794E0,7.723161578E-2,-2.543316968E-2,-1.809616536E-1
3.325733711E0,7.403582335E-2,-2.649843320E-2,-1.788311303E-1
3.328221627E0,6.977476925E-2,-2.756369673E-2,-1.756353378E-1
3.330709544E0,6.125266105E-2,-2.862896025E-2,-1.703090221E-1
3.333197461E0,5.273054913E-2,-2.862896025E-2,-1.649827063E-1
3.335685377E0,4.207791388E-2,-2.862896025E-2,-1.575258672E-1
3.338173294E0,3.036001325E-2,-2.862896025E-2,-1.500690132E-1
3.340661211E0,1.757685095E-2,-2.969422378E-2,-1.404816359E-1
3.343149127E0,4.793686327E-3,-3.182475269E-2,-1.287637353E-1
3.345637044E0,-7.989477366E-3,-3.289001435E-2,-1.170458421E-1
3.348124961E0,-2.077264152E-2,-3.395527974E-2,-1.053279415E-1
3.350612877E0,-3.249054030E-2,-3.502054140E-2,-9.254477918E-2
3.353100794E0,-4.314317927E-2,-3.821633384E-2,-8.082687855E-2
3.355588711E0,-5.273054913E-2,-3.928159550E-2,-6.910897791E-2
3.358076627E0,-6.125266105E-2,-4.141212255E-2,-5.739107728E-2
3.360564544E0,-6.764423847E-2,-4.460791498E-2,-4.673844203E-2
3.363052461E0,-7.297056168E-2,-4.673844203E-2,-3.715106845E-2
3.365540377E0,-7.616634667E-2,-4.886896908E-2,-2.756369673E-2
3.368028294E0,-7.616634667E-2,-4.993423447E-2,-2.010685205E-2
3.370516211E0,-7.510108501E-2,-4.886896908E-2,-1.371526904E-2
3.373004127E0,-7.190529257E-2,-4.673844203E-2,-7.323687430E-3
3.375492044E0,-6.657897681E-2,-4.354264960E-2,-3.062632866E-3
3.377979961E0,-5.805686861E-2,-3.821633384E-2,1.198421582E-3
3.380467877E0,-4.953476042E-2,-3.182475269E-2,3.328948980E-3
3.382955794E0,-3.781685978E-2,-2.543316968E-2,5.459476262E-3
3.385443711E0,-2.503369562E-2,-1.691105962E-2,6.524739787E-3
3.387931627E0,-1.331579592E-2,-8.388951421E-3,8.655266836E-3
3.390419544E0,5.326318205E-4,-9.321057005E-4,9.720530361E-3
3.392907461E0,1.331579592E-2,7.590003312E-3,1.185105834E-2
3.395395377E0,2.609895915E-2,1.504684892E-2,1.398158539E-2
3.397883294E0,3.568633273E-2,2.143843099E-2,1.611211337E-2
3.400371211E0,4.420844093E-2,2.676474862E-2,1.717737690E-2
3.402859127E0,5.060002208E-2,3.102580272E-2,1.824264042E-2
3.405347044E0,5.592634156E-2,3.528685868E-2,2.143843099E-2
3.407834961E0,5.805686861E-2,3.741738573E-2,2.250369452E-2
3.410322877E0,5.912213027E-2,3.954791278E-2,2.250369452E-2
3.412810794E0,5.699160323E-2,4.061317816E-2,2.250369452E-2
3.415298711E0,5.379581451E-2,4.061317816E-2,2.250369452E-2
3.417786627E0,4.953476042E-2,4.061317816E-2,2.250369452E-2
3.420274544E0,4.314317927E-2,4.274370521E-2,2.250369452E-2
3.422762461E0,3.675159439E-2,4.274370521E-2,2.143843099E-2
3.425250377E0,2.929474972E-2,4.487423226E-2,2.037316747E-2
3.427738294E0,2.183790505E-2,4.700475931E-2,1.930790395E-2
3.430226211E0,1.438105945E-2,4.913528636E-2,1.930790395E-2
3.432714127E0,6.924213842E-3,5.126581341E-2,1.824264042E-2
3.435202044E0,5.326318205E-4,5.446160212E-2,1.824264042E-2
3.437689961E0,-4.793686327E-3,5.765739456E-2,1.824264042E-2
3.440177877E0,-1.012000442E-2,6.191844866E-2,1.824264042E-2
3.442665794E0,-1.225053146E-2,6.511423737E-2,1.824264042E-2
3.445153711E0,-1.438105945E-2,6.937529147E-2,1.930790395E-2
3.447641627E0,-1.544632297E-2,7.257108390E-2,2.037316747E-2
3.450129544E0,-1.544632297E-2,7.470161468E-2,2.143843099E-2
3.452617461E0,-1.331579592E-2,7.789740711E-2,2.250369452E-2
3.455105377E0,-1.012000442E-2,8.002793044E-2,2.463422157E-2
3.457593294E0,-5.858949851E-3,8.322372288E-2,2.676474862E-2
3.460081211E0,-5.326318205E-4,8.641951531E-2,2.889527567E-2
3.462569127E0,5.858949851E-3,8.855003864E-2,3.209106624E-2
3.465057044E0,1.225053146E-2,9.068056941E-2,3.422159329E-2
3.467544909E0,1.970737800E-2,9.281109273E-2,3.528685868E-2
3.470032773E0,2.716422267E-2,9.494162351E-2,3.635212034E-2
3.472520638E0,3.462106735E-2,9.707214683E-2,3.635212034E-2
3.475008502E0,4.207791388E-2,9.920267761E-2,3.848264739E-2
3.477496367E0,4.846949503E-2,1.013332009E-1,3.848264739E-2
3.479984232E0,5.273054913E-2,1.023984700E-1,3.848264739E-2
3.482472096E0,5.592634156E-2,1.045289934E-1,3.741738573E-2
3.484959961E0,5.592634156E-2,1.077247858E-1,3.741738573E-2
3.487447825E0,5.486107618E-2,1.109205782E-1,3.741738573E-2
3.489935690E0,5.166528746E-2,1.141163707E-1,3.741738573E-2
3.492423555E0,4.740423337E-2,1.162468940E-1,3.741738573E-2
3.494911419E0,4.101264849E-2,1.183774248E-1,3.741738573E-2
3.497399284E0,3.249054030E-2,1.194426864E-1,3.848264739E-2
3.499887148E0,2.290316857E-2,1.194426864E-1,3.954791278E-2
3.502375013E0,1.225053146E-2,1.194426864E-1,3.954791278E-2
3.504862877E0,-5.326318205E-4,1.183774248E-1,4.061317816E-2
3.507350742E0,-1.331579592E-2,1.173121557E-1,4.167843983E-2
3.509838607E0,-2.822948620E-2,1.151816323E-1,4.380896688E-2
3.512326471E0,-4.207791388E-2,1.141163707E-1,4.700475931E-2
3.514814336E0,-5.592634156E-2,1.130511016E-1,4.807002097E-2
3.517302200E0,-6.977476925E-2,1.119858399E-1,5.126581341E-2
3.519790065E0,-8.362319320E-2,1.119858399E-1,5.552686751E-2
3.522277930E0,-9.640636295E-2,1.130511016E-1,5.872265995E-2
3.524765794E0,-1.081242561E-1,1.130511016E-1,6.191844866E-2
3.527253659E0,-1.198421568E-1,1.130511016E-1,6.617950648E-2
3.529741523E0,-1.304948032E-1,1.130511016E-1,7.044056058E-2
3.532229388E0,-1.390169114E-1,1.141163707E-1,7.470161468E-2
3.534717252E0,-1.454084814E-1,1.151816323E-1,8.002793044E-2
3.537205117E0,-1.518000662E-1,1.173121557E-1,8.428898454E-2
3.539692982E0,-1.571263820E-1,1.194426864E-1,8.855003864E-2
3.542180846E0,-1.603221744E-1,1.215732098E-1,9.281109273E-2
3.544668711E0,-1.624527127E-1,1.247690022E-1,9.707214683E-2
3.547156575E0,-1.645832360E-1,1.290300637E-1,1.002679393E-1
3.549644440E0,-1.645832360E-1,1.332911104E-1,1.023984700E-1
3.552132305E0,-1.645832360E-1,1.375521719E-1,1.045289934E-1
3.554620221E0,-1.624527127E-1,1.407479644E-1,1.045289934E-1
3.557108138E0,-1.592569202E-1,1.428784877E-1,1.045289934E-1
3.559596055E0,-1.560611278E-1,1.450090110E-1,1.023984700E-1
3.562083971E0,-1.507348120E-1,1.460742801E-1,1.002679393E-1
3.564571888E0,-1.443432271E-1,1.460742801E-1,9.707214683E-2
3.567059805E0,-1.379516423E-1,1.460742801E-1,9.174583107E-2
3.569547721E0,-1.315600574E-1,1.450090110E-1,8.748477697E-2
3.572035638E0,-1.251684725E-1,1.439437568E-1,8.215846121E-2
3.574523555E0,-1.187768951E-1,1.439437568E-1,7.683213800E-2
3.577011471E0,-1.113200486E-1,1.428784877E-1,7.044056058E-2
3.579499388E0,-1.049284711E-1,1.428784877E-1,6.404897571E-2
3.581987305E0,-9.853688627E-2,1.418132186E-1,5.872265995E-2
3.584475221E0,-9.321057051E-2,1.396826953E-1,5.339634046E-2
3.586963138E0,-8.788424730E-2,1.386174262E-1,4.807002097E-2
3.589451055E0,-8.255793154E-2,1.364869028E-1,4.380896688E-2
3.591938971E0,-7.829687744E-2,1.332911104E-1,3.848264739E-2
3.594426888E0,-7.403582335E-2,1.300953180E-1,3.422159329E-2
3.596914805E0,-7.084003091E-2,1.258342713E-1,3.102580272E-2
3.599402721E0,-6.657897681E-2,1.226384789E-1,2.783001214E-2
3.601890638E0,-6.231792271E-2,1.194426864E-1,2.569948509E-2
3.604378555E0,-5.805686861E-2,1.162468940E-1,2.356895804E-2
3.606866471E0,-5.273054913E-2,1.130511016E-1,2.250369452E-2
3.609354388E0,-4.740423337E-2,1.098553166E-1,2.143843099E-2
3.611842305E0,-4.207791388E-2,1.066595241E-1,2.143843099E-2
3.614330221E0,-3.675159439E-2,1.034637317E-1,2.037316747E-2
3.616818138E0,-3.142527863E-2,9.920267761E-2,1.930790395E-2
3.619306055E0,-2.716422267E-2,9.387636185E-2,1.930790395E-2
3.621793971E0,-2.290316857E-2,8.855003864E-2,1.824264042E-2
3.624281888E0,-1.970737800E-2,8.322372288E-2,1.717737690E-2
3.626769805E0,-1.864211448E-2,7.789740711E-2,1.717737690E-2
3.629257721E0,-1.970737800E-2,7.150582224E-2,1.717737690E-2
3.631745638E0,-2.077264152E-2,6.511423737E-2,1.717737690E-2
3.634233555E0,-2.290316857E-2,5.872265995E-2,1.824264042E-2
3.636721471E0,-2.609895915E-2,5.020054802E-2,2.037316747E-2
3.639209388E0,-2.929474972E-2,4.061317816E-2,2.250369452E-2
3.641697305E0,-3.355580568E-2,3.102580272E-2,2.463422157E-2
3.644185221E0,-3.568633273E-2,1.930790395E-2,2.676474862E-2
3.646673138E0,-3.994738683E-2,9.720530361E-3,2.996053919E-2
3.649161055E0,-4.314317927E-2,-9.321057005E-4,3.209106624E-2
3.651648971E0,-4.633896798E-2,-1.265000552E-2,3.528685868E-2
3.654136888E0,-4.846949503E-2,-2.223737910E-2,3.848264739E-2
3.656624805E0,-5.060002208E-2,-3.182475269E-2,4.167843983E-2
3.659112721E0,-5.166528746E-2,-4.034686089E-2,4.380896688E-2
3.661600638E0,-5.273054913E-2,-4.780370742E-2,4.593949392E-2
3.664088555E0,-5.379581451E-2,-5.526055023E-2,4.807002097E-2
3.666576471E0,-5.379581451E-2,-6.165213138E-2,5.020054802E-2
3.669064388E0,-5.379581451E-2,-6.910897791E-2,5.233107507E-2
3.671552305E0,-5.379581451E-2,-7.443529367E-2,5.339634046E-2
3.674040221E0,-5.379581451E-2,-8.082687855E-2,5.446160212E-2
3.676528138E0,-5.379581451E-2,-8.721846342E-2,5.552686751E-2
3.679016055E0,-5.379581451E-2,-9.254477918E-2,5.659212917E-2
3.681503971E0,-5.379581451E-2,-9.893636405E-2,5.765739456E-2
3.683991888E0,-5.273054913E-2,-1.042626798E-1,5.978792161E-2
3.686479805E0,-5.166528746E-2,-1.095889956E-1,6.298371404E-2
3.688967721E0,-5.060002208E-2,-1.149153188E-1,6.617950648E-2
3.691455638E0,-4.953476042E-2,-1.213068962E-1,6.937529147E-2
3.693943555E0,-4.740423337E-2,-1.276984811E-1,7.363634557E-2
3.696431471E0,-4.420844093E-2,-1.351553202E-1,7.683213800E-2
3.698919388E0,-4.207791388E-2,-1.426121742E-1,7.896266878E-2
3.701407305E0,-3.781685978E-2,-1.521995366E-1,8.215846121E-2
3.703895221E0,-3.462106735E-2,-1.607216448E-1,8.428898454E-2
3.706383138E0,-2.929474972E-2,-1.703090221E-1,8.535424620E-2
3.708871055E0,-2.290316857E-2,-1.788311303E-1,8.641951531E-2
3.711358971E0,-1.757685095E-2,-1.862879843E-1,8.748477697E-2
3.713846888E0,-1.012000442E-2,-1.937448233E-1,8.748477697E-2
3.716334805E0,-5.326318205E-4,-2.001364082E-1,8.641951531E-2
3.718822721E0,9.054740891E-3,-2.043974549E-1,8.428898454E-2
3.721310638E0,2.077264152E-2,-2.054627240E-1,8.322372288E-2
3.723798555E0,3.355580568E-2,-2.065279931E-1,8.002793044E-2
3.726286471E0,4.633896798E-2,-2.043974549E-1,7.683213800E-2
3.728774388E0,5.912213027E-2,-2.012016773E-1,7.150582224E-2
3.731262305E0,7.297056168E-2,-1.969406158E-1,6.617950648E-2
3.733750169E0,8.575372398E-2,-1.926795542E-1,5.978792161E-2
3.736238034E0,9.853688627E-2,-1.894837767E-1,5.339634046E-2
3.738725898E0,1.113200486E-1,-1.873532385E-1,4.593949392E-2
3.741213763E0,1.219726875E-1,-1.862879843E-1,3.741738573E-2
3.743701627E0,1.304948032E-1,-1.894837767E-1,2.996053919E-2
3.746189492E0,1.379516423E-1,-1.937448233E-1,2.143843099E-2
3.748677357E0,1.422126889E-1,-2.012016773E-1,1.291632187E-2
3.751165221E0,1.432779580E-1,-2.097237855E-1,5.459476262E-3
3.753653086E0,1.411474347E-1,-2.193111479E-1,-1.997369342E-3
3.756140950E0,1.358211190E-1,-2.299637944E-1,-7.323687430E-3
3.758628815E0,1.283642650E-1,-2.416816950E-1,-1.158474199E-2
3.761116680E0,1.166463718E-1,-2.533995807E-1,-1.691105962E-2
3.763604544E0,1.038632020E-1,-2.651174963E-1,-1.904158667E-2
3.766092409E0,9.001477808E-2,-2.757701278E-1,-2.117211558E-2
3.768580273E0,7.403582335E-2,-2.842922211E-1,-2.330264263E-2
3.771068138E0,5.912213027E-2,-2.928143442E-1,-2.330264263E-2
3.773556002E0,4.314317927E-2,-3.002711833E-1,-2.223737910E-2
3.776043867E0,2.822948620E-2,-3.055975139E-1,-2.117211558E-2
3.778531732E0,1.331579592E-2,-3.098585606E-1,-1.904158667E-2
3.781019596E0,5.326318205E-4,-3.130543530E-1,-1.691105962E-2
3.783507461E0,-1.118526794E-2,-3.162501454E-1,-1.371526904E-2
3.785995325E0,-2.077264152E-2,-3.194459379E-1,-1.158474199E-2
3.788483190E0,-2.716422267E-2,-3.215764761E-1,-1.051947847E-2
3.790971055E0,-3.355580568E-2,-3.226417303E-1,-1.051947847E-2
3.793458919E0,-3.888212144E-2,-3.237069845E-1,-1.158474199E-2
3.795946784E0,-4.314317927E-2,-3.237069845E-1,-1.265000552E-2
3.798434648E0,-4.633896798E-2,-3.215764761E-1,-1.371526904E-2
3.800922513E0,-4.846949503E-2,-3.194459379E-1,-1.691105962E-2
3.803410377E0,-5.060002208E-2,-3.141196072E-1,-2.010685205E-2
3.805898242E0,-5.166528746E-2,-3.098585606E-1,-2.223737910E-2
3.808386107E0,-5.166528746E-2,-3.045322299E-1,-2.543316968E-2
3.810873971E0,-4.953476042E-2,-2.970753908E-1,-2.862896025E-2
3.813361836E0,-4.527370632E-2,-2.906838059E-1,-3.289001435E-2
3.815849700E0,-4.101264849E-2,-2.832269669E-1,-3.821633384E-2
3.818337565E0,-3.568633273E-2,-2.757701278E-1,-4.247738793E-2
3.820825430E0,-3.036001325E-2,-2.683132887E-1,-4.886896908E-2
3.823313294E0,-2.396843210E-2,-2.597911656E-1,-5.526055023E-2
3.825801159E0,-1.864211448E-2,-2.512690723E-1,-6.378266215E-2
3.828289023E0,-1.438105945E-2,-2.427469492E-1,-7.230477035E-2
3.830776888E0,-1.225053146E-2,-2.342248410E-1,-7.869634777E-2
3.833264805E0,-1.118526794E-2,-2.278332561E-1,-8.721846342E-2
3.835752721E0,-1.331579592E-2,-2.225069404E-1,-9.467530251E-2
3.838240638E0,-1.651158556E-2,-2.182458937E-1,-1.021321490E-1
3.840728555E0,-2.183790505E-2,-2.150501013E-1,-1.085237339E-1
3.843216471E0,-2.716422267E-2,-2.118543088E-1,-1.127847880E-1
3.845704388E0,-3.142527863E-2,-2.086585164E-1,-1.149153188E-1
3.848192305E0,-3.462106735E-2,-2.022669315E-1,-1.138500497E-1
3.850680221E0,-3.675159439E-2,-1.937448233E-1,-1.106542572E-1
3.853168138E0,-3.355580568E-2,-1.820269227E-1,-1.031974182E-1
3.855656055E0,-2.716422267E-2,-1.671132296E-1,-9.467530251E-2
3.858143971E0,-1.544632297E-2,-1.500690132E-1,-8.189214021E-2
3.860631888E0,5.326318205E-4,-1.308942735E-1,-6.804371625E-2
3.863119805E0,1.970737800E-2,-1.117195264E-1,-5.099949613E-2
3.865607721E0,4.207791388E-2,-9.254477918E-2,-3.395527974E-2
3.868095638E0,6.764423847E-2,-7.443529367E-2,-1.584579609E-2
3.870583555E0,9.534109384E-2,-5.739107728E-2,2.263685223E-3
3.873071471E0,1.251684725E-1,-4.247738793E-2,1.824264042E-2
3.875559388E0,1.560611278E-1,-3.182475269E-2,3.422159329E-2
3.878047305E0,1.880190372E-1,-2.330264263E-2,4.913528636E-2
3.880535221E0,2.210422009E-1,-1.691105962E-2,6.191844866E-2
3.883023138E0,2.540653646E-1,-1.371526904E-2,7.150582224E-2
3.885511055E0,2.860232890E-1,-1.265000552E-2,8.002793044E-2
3.887998971E0,3.190464675E-1,-1.371526904E-2,8.428898454E-2
3.890486888E0,3.499391079E-1,-1.797632314E-2,8.535424620E-2
3.892974805E0,3.797664940E-1,-2.330264263E-2,8.535424620E-2
3.895462721E0,4.074633420E-1,-2.862896025E-2,8.322372288E-2
3.897950638E0,4.330296814E-1,-3.395527974E-2,8.002793044E-2
3.900438555E0,4.564654827E-1,-4.034686089E-2,7.363634557E-2
3.902926471E0,4.767054915E-1,-4.567318037E-2,6.724476814E-2
3.905414388E0,4.937497079E-1,-5.099949613E-2,5.872265995E-2
3.907902305E0,5.065328479E-1,-5.526055023E-2,5.020054802E-2
3.910390221E0,5.139896870E-1,-6.058686972E-2,4.061317816E-2
3.912878138E0,5.171855092E-1,-6.591318548E-2,2.996053919E-2
3.915366055E0,5.129244328E-1,-7.123950869E-2,1.930790395E-2
3.917853971E0,5.033370852E-1,-7.656582445E-2,7.590003312E-3
3.920341888E0,4.852275848E-1,-8.295740932E-2,-3.062632866E-3
3.922829805E0,4.585959911E-1,-9.041424841E-2,-1.265000552E-2
3.925317721E0,4.223770201E-1,-9.574057162E-2,-2.117211558E-2
3.927805638E0,3.787012100E-1,-1.021321490E-1,-2.649843320E-2
3.930293555E0,3.265033066E-1,-1.074584723E-1,-2.969422378E-2
3.932781471E0,2.657832801E-1,-1.117195264E-1,-3.075948730E-2
3.935269388E0,1.997369379E-1,-1.149153188E-1,-2.969422378E-2
3.937757305E0,1.294295341E-1,-1.181111038E-1,-2.649843320E-2
3.940245221E0,5.592634156E-2,-1.191763729E-1,-2.117211558E-2
3.942733138E0,-1.757685095E-2,-1.191763729E-1,-1.265000552E-2
3.945221055E0,-9.108003974E-2,-1.170458421E-1,-9.321057005E-4
3.947708971E0,-1.613874435E-1,-1.149153188E-1,1.398158539E-2
3.950196888E0,-2.274337858E-1,-1.117195264E-1,3.102580272E-2
3.952684805E0,-2.881538272E-1,-1.063932031E-1,5.020054802E-2
3.955172721E0,-3.424822688E-1,-1.000016257E-1,7.044056058E-2
3.957660638E0,-3.904191256E-1,-9.041424841E-2,9.174583107E-2
3.960148555E0,-4.308991432E-1,-8.082687855E-2,1.130511016E-1
3.962636471E0,-4.607265294E-1,-7.017423958E-2,1.343563795E-1
3.965124388E0,-4.830970466E-1,-5.845634267E-2,1.545963883E-1
3.967612305E0,-4.937497079E-1,-4.673844203E-2,1.727058738E-1
3.970100221E0,-4.969455004E-1,-3.502054140E-2,1.876195520E-1
3.972588138E0,-4.894886315E-1,-2.436790615E-2,1.982721984E-1
3.975076002E0,-4.745749533E-1,-1.265000552E-2,2.067943066E-1
3.977563867E0,-4.511391521E-1,-4.127896391E-3,2.099900991E-1
3.980051732E0,-4.213117659E-1,3.328948980E-3,2.089248300E-1
3.982539596E0,-3.840275407E-1,8.655266836E-3,2.025332451E-1
3.985027461E0,-3.435475230E-1,1.185105834E-2,1.929458827E-1
3.987515325E0,-2.988064587E-1,1.185105834E-2,1.790974438E-1
3.990003190E0,-2.508696020E-1,1.078579482E-2,1.609879732E-1
3.992491055E0,-2.018674612E-1,5.459476262E-3,1.407479644E-1
3.994978919E0,-1.518000662E-1,-3.062632866E-3,1.173121557E-1
3.997466784E0,-1.017326787E-1,-1.265000552E-2,9.281109273E-2
3.999954648E0,-5.060002208E-2,-2.649843320E-2,6.617950648E-2
4.002442513E0,-1.597895520E-3,-4.034686089E-2,3.954791278E-2
4.004930377E0,4.420844093E-2,-5.526055023E-2,1.398158539E-2
4.007418242E0,8.788424730E-2,-6.910897791E-2,-1.158474199E-2
4.009906107E0,1.294295341E-1,-8.189214021E-2,-3.715106845E-2
4.012393971E0,1.667137593E-1,-9.361004084E-2,-6.165213138E-2
4.014881836E0,2.008021921E-1,-1.031974182E-1,-8.295740932E-2
4.017369700E0,2.306295782E-1,-1.106542572E-1,-1.021321490E-1
4.019857565E0,2.583264410E-1,-1.138500497E-1,-1.191763729E-1
4.022345430E0,2.817622423E-1,-1.149153188E-1,-1.340900660E-1
4.024833294E0,3.030675054E-1,-1.117195264E-1,-1.458079666E-1
4.027321159E0,3.201117218E-1,-1.063932031E-1,-1.553953290E-1
4.029809023E0,3.350254297E-1,-9.893636405E-2,-1.617869139E-1
4.032296888E0,3.435475230E-1,-8.934898674E-2,-1.671132296E-1
4.034784752E0,3.467433155E-1,-7.869634777E-2,-1.681784987E-1
4.037272617E0,3.435475230E-1,-6.910897791E-2,-1.681784987E-1
4.039760482E0,3.318296373E-1,-6.165213138E-2,-1.649827063E-1
4.042248346E0,3.137201369E-1,-5.419528857E-2,-1.596563905E-1
4.044736211E0,2.881538272E-1,-4.886896908E-2,-1.521995366E-1
4.047224075E0,2.540653646E-1,-4.567318037E-2,-1.404816359E-1
4.049711940E0,2.125200927E-1,-4.567318037E-2,-1.276984811E-1
4.052199805E0,1.635179669E-1,-4.780370742E-2,-1.138500497E-1
4.054687669E0,1.081242561E-1,-5.206476152E-2,-9.787109494E-2
4.057175534E0,4.846949503E-2,-5.952160433E-2,-7.976161689E-2
4.059663398E0,-1.651158556E-2,-6.910897791E-2,-5.845634267E-2
4.062151263E0,-8.575372398E-2,-7.976161689E-2,-3.928159550E-2
4.064639127E0,-1.581916511E-1,-9.254477918E-2,-1.904158667E-2
4.067126992E0,-2.327601016E-1,-1.074584723E-1,1.331579551E-4
4.069614857E0,-3.094590902E-1,-1.255679578E-1,1.717737690E-2
4.072102721E0,-3.882885873E-1,-1.458079666E-1,3.102580272E-2
4.074590586E0,-4.660528302E-1,-1.692437679E-1,4.380896688E-2
4.077078450E0,-5.438171029E-1,-1.948100924E-1,5.339634046E-2
4.079566315E0,-6.194508076E-1,-2.214416862E-1,6.085318699E-2
4.082054180E0,-6.897581816E-1,-2.480732650E-1,6.511423737E-2
4.084542044E0,-7.547392845E-1,-2.757701278E-1,6.617950648E-2
4.087029909E0,-8.122635484E-1,-3.045322299E-1,6.298371404E-2
4.089517825E0,-8.612656593E-1,-3.332943618E-1,5.765739456E-2
4.092005742E0,-9.006804228E-1,-3.609912097E-1,4.913528636E-2
4.094493659E0,-9.294425249E-1,-3.865575492E-1,3.635212034E-2
4.096981575E0,-9.486172795E-1,-4.110586047E-1,2.356895804E-2
4.099469492E0,-9.560741186E-1,-4.312986135E-1,6.524739787E-3
4.101957409E0,-9.528783560E-1,-4.483428299E-1,-1.051947847E-2
4.104445898E0,-9.368993640E-1,-4.600607455E-1,-2.862896025E-2
4.106934284E0,-9.092025161E-1,-4.675175846E-1,-4.673844203E-2
4.109422200E0,-8.697877526E-1,-4.717786312E-1,-6.591318548E-2
4.111910065E0,-8.186551332E-1,-4.707133770E-1,-8.402267098E-2
4.114397930E0,-7.579351068E-1,-4.653870463E-1,-1.000016257E-1
4.116885794E0,-6.886929274E-1,-4.557996690E-1,-1.127847880E-1
4.119373659E0,-6.098634601E-1,-4.408859909E-1,-1.223721579E-1
4.121861523E0,-5.246423483E-1,-4.227765203E-1,-1.287637353E-1
4.124349388E0,-4.330296814E-1,-4.004059732E-1,-1.340900660E-1
4.126837252E0,-3.382211924E-1,-3.759049177E-1,-1.351553202E-1
4.129325117E0,-2.412822098E-1,-3.492733240E-1,-1.351553202E-1
4.131812982E0,-1.454084814E-1,-3.205111921E-1,-1.319595277E-1
4.134300846E0,-5.273054913E-2,-2.928143442E-1,-1.276984811E-1
4.136788711E0,3.675159439E-2,-2.629869580E-1,-1.223721579E-1
4.139276575E0,1.219726875E-1,-2.331595868E-1,-1.159805804E-1
4.141764440E0,1.997369379E-1,-2.022669315E-1,-1.074584723E-1
4.144252305E0,2.700443268E-1,-1.735048145E-1,-9.680583328E-2
4.146740169E0,3.307643533E-1,-1.468732208E-1,-8.615319431E-2
4.149228034E0,3.829622865E-1,-1.234374270E-1,-7.656582445E-2
4.151715898E0,4.223770201E-1,-1.031974182E-1,-6.697845459E-2
4.154203763E0,4.500738978E-1,-8.721846342E-2,-5.632581562E-2
4.156691627E0,4.639223218E-1,-7.443529367E-2,-4.673844203E-2
4.159179492E0,4.639223218E-1,-6.591318548E-2,-3.821633384E-2
4.161667357E0,4.511391521E-1,-6.271740049E-2,-2.969422378E-2
4.164155221E0,4.234423041E-1,-6.378266215E-2,-2.223737910E-2
4.166643086E0,3.829622865E-1,-6.804371625E-2,-1.584579609E-2
4.169130950E0,3.307643533E-1,-7.656582445E-2,-8.388951421E-3
4.171618815E0,2.657832801E-1,-8.934898674E-2,-1.997369342E-3
4.174106680E0,1.890842915E-1,-1.053279415E-1,3.328948980E-3
4.176594544E0,1.038632020E-1,-1.266332120E-1,8.655266836E-3
4.179082409E0,1.012000442E-2,-1.500690132E-1,1.291632187E-2
4.181570273E0,-9.001477808E-2,-1.767006069E-1,1.611211337E-2
4.184058138E0,-1.944106072E-1,-2.054627240E-1,1.930790395E-2
4.186546002E0,-3.020022511E-1,-2.363553643E-1,2.143843099E-2
4.189033867E0,-4.095938802E-1,-2.672480047E-1,2.356895804E-2
4.191521732E0,-5.171855092E-1,-2.981406748E-1,2.463422157E-2
4.194009596E0,-6.205160618E-1,-3.290333152E-1,2.569948509E-2
4.196497461E0,-7.185203433E-1,-3.599259555E-1,2.676474862E-2
4.198985325E0,-8.090677261E-1,-3.886880577E-1,2.783001214E-2
4.201473190E0,-8.878972530E-1,-4.142543972E-1,3.102580272E-2
4.203961055E0,-9.560741186E-1,-4.366249442E-1,3.422159329E-2
4.206448919E0,-1.011467814E0,-4.536691606E-1,3.954791278E-2
4.208936784E0,-1.051947832E0,-4.653870463E-1,4.700475931E-2
4.211424648E0,-1.077514172E0,-4.707133770E-1,5.552686751E-2
4.213912513E0,-1.089232087E0,-4.707133770E-1,6.617950648E-2
4.216400377E0,-1.084971070E0,-4.632565379E-1,7.896266878E-2
4.218888242E0,-1.066861510E0,-4.515386224E-1,9.174583107E-2
4.221376107E0,-1.035968900E0,-4.355596602E-1,1.055942550E-1
4.223863971E0,-9.933583736E-1,-4.153196514E-1,1.194426864E-1
4.226351836E0,-9.411604404E-1,-3.929491341E-1,1.311605871E-1
4.228839700E0,-8.804404140E-1,-3.684480488E-1,1.418132186E-1
4.231327565E0,-8.122635484E-1,-3.428817391E-1,1.492700726E-1
4.233815430E0,-7.387603521E-1,-3.151848912E-1,1.556616426E-1
4.236303346E0,-6.631265879E-1,-2.874880135E-1,1.567269117E-1
4.238791263E0,-5.842971206E-1,-2.608564198E-1,1.545963883E-1
4.241279180E0,-5.065328479E-1,-2.331595868E-1,1.492700726E-1
4.243767096E0,-4.298338890E-1,-2.075932473E-1,1.396826953E-1
4.246255013E0,-3.573959470E-1,-1.841574460E-1,1.279647946E-1
4.248742930E0,-2.913496196E-1,-1.607216448E-1,1.141163707E-1
4.251230846E0,-2.316948473E-1,-1.404816359E-1,9.920267761E-2
4.253718763E0,-1.805621833E-1,-1.213068962E-1,8.535424620E-2
4.256206680E0,-1.368863732E-1,-1.042626798E-1,7.257108390E-2
4.258694596E0,-1.006674170E-1,-8.934898674E-2,6.191844866E-2
4.261182513E0,-7.084003091E-2,-7.656582445E-2,5.446160212E-2
4.263670430E0,-4.740423337E-2,-6.484792382E-2,5.020054802E-2
4.266158346E0,-2.929474972E-2,-5.419528857E-2,4.807002097E-2
4.268646263E0,-1.864211448E-2,-4.673844203E-2,5.020054802E-2
4.271134180E0,-1.225053146E-2,-4.141212255E-2,5.552686751E-2
4.273622096E0,-1.225053146E-2,-3.928159550E-2,6.298371404E-2
4.276110013E0,-1.757685095E-2,-4.034686089E-2,7.257108390E-2
4.278597930E0,-2.929474972E-2,-4.567318037E-2,8.428898454E-2
4.281085846E0,-4.633896798E-2,-5.313002318E-2,9.920267761E-2
4.283573763E0,-6.764423847E-2,-6.378266215E-2,1.141163707E-1
4.286061680E0,-9.427583218E-2,-7.656582445E-2,1.300953180E-1
4.288549596E0,-1.251684725E-1,-9.254477918E-2,1.471395344E-1
4.291037513E0,-1.571263820E-1,-1.085237339E-1,1.620532274E-1
4.293525430E0,-1.912148297E-1,-1.255679578E-1,1.769669205E-1
4.296013346E0,-2.263685167E-1,-1.426121742E-1,1.897500902E-1
4.298501263E0,-2.615222335E-1,-1.596563905E-1,2.014679909E-1
4.300989180E0,-2.945453823E-1,-1.767006069E-1,2.110553533E-1
4.303477096E0,-3.254380524E-1,-1.916143000E-1,2.185122073E-1
4.305965013E0,-3.520696461E-1,-2.043974549E-1,2.227732539E-1
4.308452930E0,-3.723096550E-1,-2.150501013E-1,2.249037921E-1
4.310940846E0,-3.861580789E-1,-2.225069404E-1,2.259690464E-1
4.313428763E0,-3.946801722E-1,-2.267680019E-1,2.259690464E-1
4.315916680E0,-3.946801722E-1,-2.278332561E-1,2.238385230E-1
4.318404596E0,-3.893538713E-1,-2.257027328E-1,2.206427306E-1
4.320892513E0,-3.776359558E-1,-2.203764170E-1,2.174469382E-1
4.323380430E0,-3.616569936E-1,-2.118543088E-1,2.121206224E-1
4.325868346E0,-3.403517306E-1,-2.012016773E-1,2.067943066E-1
4.328356263E0,-3.169159293E-1,-1.884185076E-1,2.014679909E-1
4.330844180E0,-2.902843356E-1,-1.735048145E-1,1.950764060E-1
4.333332096E0,-2.625874877E-1,-1.585911214E-1,1.876195520E-1
4.335820013E0,-2.338253707E-1,-1.436774284E-1,1.801627129E-1
4.338307930E0,-2.029327303E-1,-1.287637353E-1,1.705753356E-1
4.340795846E0,-1.709748209E-1,-1.127847880E-1,1.609879732E-1
4.343283763E0,-1.390169114E-1,-9.680583328E-2,1.524658650E-1
4.345771680E0,-1.049284711E-1,-8.189214021E-2,1.439437568E-1
4.348259544E0,-7.084003091E-2,-6.804371625E-2,1.354216337E-1
4.350747409E0,-3.675159439E-2,-5.419528857E-2,1.279647946E-1
4.353235273E0,-3.728422802E-3,-4.247738793E-2,1.205079481E-1
4.355723138E0,2.822948620E-2,-2.969422378E-2,1.141163707E-1
4.358211002E0,5.699160323E-2,-1.797632314E-2,1.087900475E-1
4.360698867E0,8.362319320E-2,-9.454214945E-3,1.034637317E-1
4.363186732E0,1.081242561E-1,-9.321057005E-4,9.920267761E-2
4.365674596E0,1.294295341E-1,4.394212738E-3,9.494162351E-2
4.368162461E0,1.475390196E-1,9.720530361E-3,9.281109273E-2
4.370650325E0,1.624527127E-1,1.398158539E-2,9.068056941E-2
4.373138190E0,1.731053442E-1,1.504684892E-2,8.961530030E-2
4.375626055E0,1.794969290E-1,1.611211337E-2,9.068056941E-2
4.378113919E0,1.837579757E-1,1.398158539E-2,9.281109273E-2
4.380601784E0,1.837579757E-1,9.720530361E-3,9.813741595E-2
4.383089648E0,1.784316599E-1,4.394212738E-3,1.034637317E-1
4.385577513E0,1.699095517E-1,-3.062632866E-3,1.109205782E-1
4.388065377E0,1.581916511E-1,-1.051947847E-2,1.183774248E-1
4.390553242E0,1.432779580E-1,-1.904158667E-2,1.258342713E-1
4.393041107E0,1.262337416E-1,-2.756369673E-2,1.332911104E-1
4.395528971E0,1.049284711E-1,-3.608580679E-2,1.386174262E-1
4.398016836E0,8.575372398E-2,-4.460791498E-2,1.439437568E-1
4.400504700E0,6.444845349E-2,-5.313002318E-2,1.482048035E-1
4.402992565E0,4.527370632E-2,-6.058686972E-2,1.514005959E-1
4.405480430E0,2.716422267E-2,-6.697845459E-2,1.545963883E-1
4.407968294E0,1.118526794E-2,-7.230477035E-2,1.556616426E-1
4.410456159E0,5.326318205E-4,-7.550056279E-2,1.556616426E-1
4.412944023E0,-7.989477366E-3,-7.869634777E-2,1.545963883E-1
4.415431888E0,-1.225053146E-2,-7.976161689E-2,1.514005959E-1
4.417919752E0,-1.225053146E-2,-7.869634777E-2,1.471395344E-1
4.420407617E0,-1.012000442E-2,-7.550056279E-2,1.407479644E-1
4.422895482E0,-4.793686327E-3,-6.697845459E-2,1.343563795E-1
4.425383346E0,2.663159044E-3,-5.739107728E-2,1.279647946E-1
4.427871211E0,1.225053146E-2,-4.354264960E-2,1.215732098E-1
4.430359075E0,2.396843210E-2,-2.756369673E-2,1.151816323E-1
4.432846940E0,3.675159439E-2,-8.388951421E-3,1.098553166E-1
4.435334805E0,5.166528746E-2,1.398158539E-2,1.055942550E-1
4.437822669E0,6.764423847E-2,3.635212034E-2,1.013332009E-1
4.440310534E0,8.468846232E-2,5.978792161E-2,9.920267761E-2
4.442798398E0,1.027979404E-1,8.322372288E-2,9.813741595E-2
4.445286263E0,1.209074259E-1,1.045289934E-1,9.707214683E-2
4.447774127E0,1.379516423E-1,1.237037405E-1,9.707214683E-2
4.450261992E0,1.539305896E-1,1.407479644E-1,9.707214683E-2
4.452749857E0,1.699095517E-1,1.535311192E-1,9.920267761E-2
4.455237721E0,1.837579757E-1,1.641837656E-1,1.002679393E-1
4.457725586E0,1.986716688E-1,1.716406047E-1,1.013332009E-1
4.460213450E0,2.114548385E-1,1.769669205E-1,1.023984700E-1
4.462701315E0,2.231727391E-1,1.790974438E-1,1.034637317E-1
4.465189180E0,2.348906398E-1,1.801627129E-1,1.034637317E-1
4.467677044E0,2.444780022E-1,1.780321896E-1,1.045289934E-1
4.470164909E0,2.530001104E-1,1.748363972E-1,1.045289934E-1
4.472652773E0,2.615222335E-1,1.695100814E-1,1.055942550E-1
4.475140638E0,2.700443268E-1,1.641837656E-1,1.077247858E-1
4.477628502E0,2.775011659E-1,1.567269117E-1,1.087900475E-1
4.480116367E0,2.849580348E-1,1.471395344E-1,1.119858399E-1
4.482604232E0,2.934801280E-1,1.375521719E-1,1.151816323E-1
4.485092096E0,3.020022511E-1,1.258342713E-1,1.194426864E-1
4.487579961E0,3.105243444E-1,1.141163707E-1,1.226384789E-1
4.490067825E0,3.201117218E-1,1.023984700E-1,1.258342713E-1
4.492555690E0,3.286338449E-1,9.068056941E-2,1.290300637E-1
4.495043555E0,3.360906839E-1,8.002793044E-2,1.300953180E-1
4.497531471E0,3.424822688E-1,7.044056058E-2,1.332911104E-1
4.500019388E0,3.467433155E-1,6.085318699E-2,1.354216337E-1
4.502507305E0,3.478085697E-1,5.020054802E-2,1.375521719E-1
4.504995221E0,3.456780612E-1,3.954791278E-2,1.386174262E-1
4.507483138E0,3.414169848E-1,2.783001214E-2,1.386174262E-1
4.509971055E0,3.339601457E-1,1.717737690E-2,1.375521719E-1
4.512458971E0,3.233075142E-1,8.655266836E-3,1.364869028E-1
4.514946888E0,3.083938360E-1,-9.321057005E-4,1.343563795E-1
4.517434805E0,2.945453823E-1,-8.388951421E-3,1.322258562E-1
4.519922721E0,2.785664499E-1,-1.371526904E-2,1.311605871E-1
4.522410638E0,2.625874877E-1,-1.265000552E-2,1.300953180E-1
4.524898555E0,2.466085255E-1,-9.454214945E-3,1.290300637E-1
4.527386471E0,2.284990549E-1,-4.127896391E-3,1.290300637E-1
4.529874388E0,2.061285079E-1,4.394212738E-3,1.290300637E-1
4.532362305E0,1.773663908E-1,1.291632187E-2,1.322258562E-1
4.534850221E0,1.454084814E-1,2.037316747E-2,1.375521719E-1
4.537338138E0,1.091895252E-1,2.463422157E-2,1.439437568E-1
4.539826055E0,7.190529257E-2,2.676474862E-2,1.514005959E-1
4.542313971E0,3.355580568E-2,2.569948509E-2,1.609879732E-1
4.544801888E0,-2.663159044E-3,2.143843099E-2,1.705753356E-1
4.547289805E0,-3.675159439E-2,1.611211337E-2,1.812279820E-1
4.549777721E0,-6.870950758E-2,8.655266836E-3,1.929458827E-1
4.552265638E0,-9.853688627E-2,1.331579551E-4,2.035985142E-1
4.554753555E0,-1.230379492E-1,-9.454214945E-3,2.131858915E-1
4.557241471E0,-1.454084814E-1,-2.010685205E-2,2.217079997E-1
4.559729388E0,-1.635179669E-1,-3.182475269E-2,2.280995846E-1
4.562217305E0,-1.773663908E-1,-4.354264960E-2,2.323606312E-1
4.564705846E0,-1.869537681E-1,-5.845634267E-2,2.366216928E-1
4.567193502E0,-1.922800839E-1,-7.443529367E-2,2.366216928E-1
4.569681159E0,-1.912148297E-1,-9.361004084E-2,2.355564237E-1
4.572168815E0,-1.848232448E-1,-1.127847880E-1,2.291648388E-1
4.574656471E0,-1.720400751E-1,-1.330247968E-1,2.195774615E-1
4.577144127E0,-1.560611278E-1,-1.500690132E-1,2.057290375E-1
4.579631784E0,-1.336905807E-1,-1.639174372E-1,1.886848211E-1
4.582119492E0,-1.091895252E-1,-1.756353378E-1,1.695100814E-1
4.584607252E0,-8.042740822E-2,-1.841574460E-1,1.471395344E-1
4.587095065E0,-5.060002208E-2,-1.884185076E-1,1.247690022E-1
4.589582930E0,-1.757685095E-2,-1.894837767E-1,1.045289934E-1
4.592070846E0,1.651158556E-2,-1.873532385E-1,8.428898454E-2
4.594558815E0,5.273054913E-2,-1.798963994E-1,6.617950648E-2
4.597046836E0,8.894951642E-2,-1.692437679E-1,4.913528636E-2
4.599534857E0,1.272990108E-1,-1.553953290E-1,3.741738573E-2
4.602022877E0,1.645832360E-1,-1.383511126E-1,2.783001214E-2
4.604510898E0,2.018674612E-1,-1.213068962E-1,2.250369452E-2
4.606998919E0,2.370211631E-1,-1.031974182E-1,2.037316747E-2
4.609486940E0,2.700443268E-1,-8.615319431E-2,2.037316747E-2
4.611974961E0,2.988064587E-1,-7.123950869E-2,2.356895804E-2
4.614462982E0,3.233075142E-1,-5.845634267E-2,2.676474862E-2
4.616951002E0,3.414169848E-1,-4.886896908E-2,3.102580272E-2
4.619439023E0,3.531349003E-1,-4.141212255E-2,3.635212034E-2
4.621926940E0,3.584612012E-1,-3.608580679E-2,4.167843983E-2
4.624414805E0,3.584612012E-1,-3.395527974E-2,4.487423226E-2
4.626902669E0,3.520696461E-1,-3.395527974E-2,4.807002097E-2
4.629390534E0,3.403517306E-1,-3.821633384E-2,5.020054802E-2
4.631878398E0,3.233075142E-1,-4.673844203E-2,5.233107507E-2
4.634366263E0,3.009369671E-1,-6.165213138E-2,5.339634046E-2
4.636854127E0,2.753706574E-1,-7.976161689E-2,5.339634046E-2
4.639341992E0,2.455432713E-1,-1.021321490E-1,5.233107507E-2
4.641829857E0,2.146506310E-1,-1.266332120E-1,4.913528636E-2
4.644317721E0,1.794969290E-1,-1.532648057E-1,4.380896688E-2
4.646805586E0,1.443432271E-1,-1.788311303E-1,3.635212034E-2
4.649293450E0,1.091895252E-1,-2.043974549E-1,2.783001214E-2
4.651781315E0,7.403582335E-2,-2.278332561E-1,1.717737690E-2
4.654269180E0,3.994738683E-2,-2.502037883E-1,8.655266836E-3
4.656757044E0,9.054740891E-3,-2.704437971E-1,1.198421582E-3
4.659244909E0,-1.864211448E-2,-2.885532975E-1,-6.258423906E-3
4.661732773E0,-4.420844093E-2,-3.055975139E-1,-1.265000552E-2
4.664220638E0,-6.764423847E-2,-3.226417303E-1,-1.691105962E-2
4.666708502E0,-9.001477808E-2,-3.407512009E-1,-1.904158667E-2
4.669196367E0,-1.102547869E-1,-3.588607013E-1,-2.010685205E-2
4.671684232E0,-1.315600574E-1,-3.780354261E-1,-2.117211558E-2
4.674172096E0,-1.507348120E-1,-3.961449265E-1,-2.223737910E-2
4.676659961E0,-1.699095517E-1,-4.142543972E-1,-2.543316968E-2
4.679147825E0,-1.880190372E-1,-4.323638678E-1,-2.969422378E-2
4.681635690E0,-2.039979845E-1,-4.504733682E-1,-3.608580679E-2
4.684123555E0,-2.178464085E-1,-4.664523304E-1,-4.460791498E-2
4.686611419E0,-2.274337858E-1,-4.824312627E-1,-5.419528857E-2
4.689099284E0,-2.338253707E-1,-4.962796867E-1,-6.484792382E-2
4.691587148E0,-2.370211631E-1,-5.069323182E-1,-7.550056279E-2
4.694075013E0,-2.359558940E-1,-5.143891573E-1,-8.721846342E-2
4.696562877E0,-2.295643091E-1,-5.197154880E-1,-9.787109494E-2
4.699050742E0,-2.189116776E-1,-5.250418186E-1,-1.074584723E-1
4.701538607E0,-2.018674612E-1,-5.271723270E-1,-1.159805804E-1
4.704026471E0,-1.784316599E-1,-5.282375813E-1,-1.234374270E-1
4.706514336E0,-1.486042738E-1,-5.271723270E-1,-1.298290044E-1
4.709002200E0,-1.123853177E-1,-5.239765644E-1,-1.351553202E-1
4.711490065E0,-6.870950758E-2,-5.175849795E-1,-1.394163817E-1
4.713977930E0,-1.970737800E-2,-5.069323182E-1,-1.436774284E-1
4.716465794E0,3.142527863E-2,-4.941491783E-1,-1.479384899E-1
4.718953659E0,8.468846232E-2,-4.792354703E-1,-1.521995366E-1
4.721441523E0,1.379516423E-1,-4.653870463E-1,-1.553953290E-1
4.723929388E0,1.912148297E-1,-4.536691606E-1,-1.585911214E-1
4.726417252E0,2.434127480E-1,-4.440817833E-1,-1.639174372E-1
4.728905117E0,2.956106663E-1,-4.366249442E-1,-1.692437679E-1
4.731392982E0,3.467433155E-1,-4.302333593E-1,-1.745700836E-1
4.733880846E0,3.946801722E-1,-4.259723127E-1,-1.820269227E-1
4.736368711E0,4.394212663E-1,-4.217112362E-1,-1.894837767E-1
4.738856575E0,4.809665382E-1,-4.185154438E-1,-1.980058849E-1
4.741344440E0,5.171855092E-1,-4.142543972E-1,-2.075932473E-1
4.743832305E0,5.470128655E-1,-4.089280665E-1,-2.161153555E-1
4.746320169E0,5.693834424E-1,-4.057323039E-1,-2.246374637E-1
4.748808034E0,5.832318664E-1,-4.036017656E-1,-2.310290486E-1
4.751295898E0,5.874928832E-1,-4.025365114E-1,-2.352901101E-1
4.753783763E0,5.832318664E-1,-4.046670198E-1,-2.374206334E-1
4.756271627E0,5.672528744E-1,-4.078628123E-1,-2.384859025E-1
4.758759492E0,5.416865349E-1,-4.142543972E-1,-2.374206334E-1
4.761247357E0,5.044023395E-1,-4.238417745E-1,-2.342248410E-1
4.763735221E0,4.564654827E-1,-4.366249442E-1,-2.288985252E-1
4.766223086E0,4.010717571E-1,-4.494080842E-1,-2.203764170E-1
4.768710950E0,3.371559381E-1,-4.643217921E-1,-2.118543088E-1
4.771198815E0,2.668485343E-1,-4.792354703E-1,-2.012016773E-1
4.773686680E0,1.944106072E-1,-4.930838943E-1,-1.894837767E-1
4.776174544E0,1.198421568E-1,-5.048018098E-1,-1.756353378E-1
4.778662409E0,4.633896798E-2,-5.133239031E-1,-1.607216448E-1
4.781150273E0,-2.503369562E-2,-5.197154880E-1,-1.436774284E-1
4.783638138E0,-9.108003974E-2,-5.239765644E-1,-1.276984811E-1
4.786126002E0,-1.507348120E-1,-5.261070728E-1,-1.106542572E-1
4.788613867E0,-2.008021921E-1,-5.271723270E-1,-9.680583328E-2
4.791101732E0,-2.412822098E-1,-5.250418186E-1,-8.295740932E-2
4.793589596E0,-2.700443268E-1,-5.207807422E-1,-7.230477035E-2
4.796077461E0,-2.849580348E-1,-5.133239031E-1,-6.271740049E-2
4.798565325E0,-2.870885432E-1,-4.994754791E-1,-5.419528857E-2
4.801053190E0,-2.775011659E-1,-4.803007543E-1,-4.780370742E-2
4.803541055E0,-2.540653646E-1,-4.568649530E-1,-4.247738793E-2
4.806028919E0,-2.178464085E-1,-4.312986135E-1,-3.821633384E-2
4.808516836E0,-1.699095517E-1,-4.046670198E-1,-3.608580679E-2
4.811004752E0,-1.123853177E-1,-3.769701719E-1,-3.608580679E-2
4.813492669E0,-4.633896798E-2,-3.482080400E-1,-3.928159550E-2
4.815980586E0,2.716422267E-2,-3.183806837E-1,-4.354264960E-2
4.818468502E0,1.070589945E-1,-2.885532975E-1,-4.993423447E-2
4.820956419E0,1.901495606E-1,-2.544648647E-1,-5.739107728E-2
4.823444336E0,2.764359117E-1,-2.161153555E-1,-6.271740049E-2
4.825932252E0,3.627222776E-1,-1.756353378E-1,-6.910897791E-2
4.828420169E0,4.490086138E-1,-1.319595277E-1,-7.550056279E-2
4.830908086E0,5.320991874E-1,-8.615319431E-2,-8.189214021E-2
4.833396002E0,6.077328920E-1,-4.247738793E-2,-8.721846342E-2
4.835883919E0,6.737792492E-1,1.331579551E-4,-9.361004084E-2
4.838371836E0,7.281076908E-1,3.848264739E-2,-9.787109494E-2
4.840859752E0,7.664572001E-1,7.150582224E-2,-1.000016257E-1
4.843347669E0,7.898929715E-1,9.707214683E-2,-9.893636405E-2
4.845835586E0,7.973498106E-1,1.130511016E-1,-9.467530251E-2
4.848323502E0,7.920235395E-1,1.194426864E-1,-8.828372508E-2
4.850811419E0,7.739140391E-1,1.173121557E-1,-7.869634777E-2
4.853299336E0,7.451519370E-1,1.087900475E-1,-6.591318548E-2
4.855787252E0,7.046719193E-1,9.387636185E-2,-4.993423447E-2
4.858275169E0,6.546044946E-1,7.576687634E-2,-3.075948730E-2
4.860763086E0,5.960150361E-1,5.339634046E-2,-1.051947847E-2
4.863251002E0,5.299686790E-1,2.783001214E-2,1.078579482E-2
4.865738919E0,4.554001987E-1,1.331579551E-4,3.315633163E-2
4.868226836E0,3.765707016E-1,-3.075948730E-2,5.552686751E-2
4.870714752E0,2.956106663E-1,-6.484792382E-2,7.576687634E-2
4.873202669E0,2.157158852E-1,-9.893636405E-2,9.600688517E-2
4.875690586E0,1.390169114E-1,-1.330247968E-1,1.119858399E-1
4.878178502E0,6.870950758E-2,-1.649827063E-1,1.279647946E-1
4.880666419E0,6.924213842E-3,-1.926795542E-1,1.386174262E-1
4.883154336E0,-4.527370632E-2,-2.161153555E-1,1.460742801E-1
4.885642252E0,-8.788424730E-2,-2.320943177E-1,1.514005959E-1
4.888130169E0,-1.187768951E-1,-2.427469492E-1,1.535311192E-1
4.890618086E0,-1.390169114E-1,-2.459427416E-1,1.545963883E-1
4.893106002E0,-1.507348120E-1,-2.448774725E-1,1.524658650E-1
4.895593867E0,-1.496695429E-1,-2.395511568E-1,1.482048035E-1
4.898081732E0,-1.400821656E-1,-2.299637944E-1,1.428784877E-1
4.900569596E0,-1.187768951E-1,-2.171806246E-1,1.332911104E-1
4.903057461E0,-8.681898564E-2,-2.001364082E-1,1.205079481E-1
4.905545325E0,-4.420844093E-2,-1.788311303E-1,1.055942550E-1
4.908033190E0,5.858949851E-3,-1.543300748E-1,8.961530030E-2
4.910521055E0,6.444845349E-2,-1.245026886E-1,7.150582224E-2
4.913008919E0,1.294295341E-1,-8.934898674E-2,5.339634046E-2
4.915496784E0,1.976063997E-1,-4.886896908E-2,3.528685868E-2
4.917984648E0,2.700443268E-1,-3.062632866E-3,1.824264042E-2
4.920472513E0,3.435475230E-1,4.700475931E-2,4.394212738E-3
4.922960377E0,4.181159735E-1,1.002679393E-1,-8.388951421E-3
4.925448242E0,4.905539155E-1,1.524658650E-1,-1.904158667E-2
4.927936107E0,5.619265437E-1,2.035985142E-1,-2.756369673E-2
4.930423971E0,6.258423924E-1,2.494048476E-1,-3.289001435E-2
4.932911836E0,6.833665967E-1,2.920154035E-1,-3.821633384E-2
4.935399700E0,7.313035131E-1,3.271690905E-1,-4.034686089E-2
4.937887565E0,7.664572001E-1,3.548659384E-1,-3.821633384E-2
4.940375430E0,7.856319547E-1,3.740406930E-1,-3.289001435E-2
4.942863294E0,7.898929715E-1,3.857586086E-1,-2.436790615E-2
4.945351159E0,7.781751156E-1,3.900196552E-1,-1.265000552E-2
4.947839023E0,7.504782081E-1,3.878891170E-1,1.198421582E-3
4.950326888E0,7.068024278E-1,3.783017397E-1,1.717737690E-2
4.952814752E0,6.503434777E-1,3.612575233E-1,3.315633163E-2
4.955302617E0,5.821665525E-1,3.367564678E-1,4.913528636E-2
4.957790482E0,5.044023395E-1,3.047985733E-1,6.298371404E-2
4.960278346E0,4.202465117E-1,2.664490640E-1,7.470161468E-2
4.962766211E0,3.318296373E-1,2.227732539E-1,8.215846121E-2
