"Time (s)","Acceleration x (m/s^2)","Acceleration y (m/s^2)","Acceleration z (m/s^2)"
3.365496700E-2,-8.910021782E0,-2.258330822E0,1.607107878E0
3.614611300E-2,-8.871714592E0,-2.291849613E0,1.587954283E0
3.863757100E-2,-8.838195801E0,-2.306214809E0,1.583165884E0
4.112949800E-2,-8.823830605E0,-2.311003208E0,1.578377485E0
4.362199800E-2,-8.819042206E0,-2.296638012E0,1.607107878E0
4.611517500E-2,-8.823830605E0,-2.287061214E0,1.597531080E0
4.861121700E-2,-8.814253807E0,-2.258330822E0,1.640626669E0
5.110725900E-2,-8.809465408E0,-2.253542423E0,1.640626669E0
5.355725900E-2,-8.809465408E0,-2.234388828E0,1.678933978E0
5.600725900E-2,-8.823830605E0,-2.243965626E0,1.688510776E0
5.845725900E-2,-8.833407402E0,-2.243965626E0,1.678933978E0
6.091220600E-2,-8.833407402E0,-2.272696018E0,1.698087573E0
6.336715400E-2,-8.838195801E0,-2.277484417E0,1.698087573E0
6.583324800E-2,-8.842984200E0,-2.287061214E0,1.688510776E0
6.831126900E-2,-8.852560997E0,-2.291849613E0,1.659780383E0
7.080132100E-2,-8.857349396E0,-2.301426411E0,1.659780383E0
7.330283100E-2,-8.900444984E0,-2.315791607E0,1.693299174E0
7.581475900E-2,-8.957905769E0,-2.315791607E0,1.707664371E0
7.833574800E-2,-9.068038940E0,-2.282272816E0,1.750759959E0
8.086408100E-2,-9.187748909E0,-2.224812031E0,1.813009262E0
8.339783100E-2,-9.293093681E0,-2.133832216E0,1.899200439E0
8.593496700E-2,-9.412803650E0,-2.042852640E0,1.966238141E0
8.847335200E-2,-9.498994827E0,-1.927930951E0,2.004545450E0
9.099215400E-2,-9.580398560E0,-1.851316452E0,2.023699045E0
9.347991500E-2,-9.623494148E0,-1.793855667E0,2.023699045E0
9.596762300E-2,-9.637859344E0,-1.736394763E0,1.985391736E0
9.845533100E-2,-9.666589737E0,-1.693299174E0,1.951872945E0
1.009430400E-1,-9.676166534E0,-1.664568782E0,1.908777356E0
1.034307480E-1,-9.671378136E0,-1.640626669E0,1.846528053E0
1.059184560E-1,-9.676166534E0,-1.607107878E0,1.784278870E0
1.084061650E-1,-9.671378136E0,-1.587954283E0,1.722029567E0
1.108938730E-1,-9.657012939E0,-1.597531080E0,1.674145579E0
1.133815810E-1,-9.647436142E0,-1.587954283E0,1.626261473E0
1.158692900E-1,-9.637859344E0,-1.597531080E0,1.568800688E0
1.183569980E-1,-9.594763756E0,-1.607107878E0,1.492186189E0
1.208447060E-1,-9.556455612E0,-1.621473074E0,1.458667397E0
1.233324150E-1,-9.522936821E0,-1.626261473E0,1.425148606E0
1.258201230E-1,-9.513360023E0,-1.631049871E0,1.396418095E0
1.283078310E-1,-9.508571625E0,-1.635838270E0,1.386841297E0
1.307955400E-1,-9.518148422E0,-1.659780383E0,1.401206493E0
1.332832480E-1,-9.518148422E0,-1.669357181E0,1.415571809E0
1.357709560E-1,-9.556455612E0,-1.683722377E0,1.444302201E0
1.382586650E-1,-9.575610161E0,-1.683722377E0,1.482609391E0
1.407463730E-1,-9.585186958E0,-1.712452769E0,1.511339784E0
1.432340810E-1,-9.580398560E0,-1.726817966E0,1.568800688E0
1.457217900E-1,-9.546878815E0,-1.769913554E0,1.611896276E0
1.482094980E-1,-9.498994827E0,-1.803432465E0,1.635838270E0
1.506972060E-1,-9.451110840E0,-1.856104851E0,1.678933978E0
1.531849150E-1,-9.412803650E0,-1.927930951E0,1.693299174E0
1.556726230E-1,-9.384073257E0,-1.966238141E0,1.722029567E0
1.581603310E-1,-9.336189270E0,-2.052429438E0,1.741183162E0
1.606480400E-1,-9.278728485E0,-2.152985811E0,1.745971560E0
1.631357480E-1,-9.235632896E0,-2.205658197E0,1.769913554E0
1.656234560E-1,-9.173383713E0,-2.272696018E0,1.793855667E0
1.681111650E-1,-9.135076523E0,-2.306214809E0,1.817797661E0
1.705988730E-1,-9.096769333E0,-2.349310398E0,1.870470047E0
1.730865810E-1,-9.039308548E0,-2.387617588E0,1.903988957E0
1.755742900E-1,-8.962694168E0,-2.425924778E0,1.951872945E0
1.780619980E-1,-8.886079788E0,-2.469020605E0,1.980603337E0
1.805497060E-1,-8.842984200E0,-2.473809004E0,2.009333849E0
1.830374150E-1,-8.775946617E0,-2.478597403E0,2.047641039E0
1.855251230E-1,-8.732851028E0,-2.497750998E0,2.095525026E0
1.880128310E-1,-8.732851028E0,-2.478597403E0,2.129043818E0
1.905005400E-1,-8.752004623E0,-2.469020605E0,2.143409014E0
1.929882480E-1,-8.780735016E0,-2.449866772E0,2.162562609E0
1.954759560E-1,-8.799888611E0,-2.411559582E0,2.186504602E0
1.979636650E-1,-8.852560997E0,-2.387617588E0,2.220023632E0
2.004513730E-1,-8.895656586E0,-2.339733601E0,2.272696018E0
2.029390810E-1,-8.967482567E0,-2.272696018E0,2.344521999E0
2.054267900E-1,-9.029731750E0,-2.205658197E0,2.397194386E0
2.079144980E-1,-9.087192535E0,-2.148197412E0,2.445078373E0
2.104022060E-1,-9.125499725E0,-2.085948229E0,2.516904593E0
2.128899150E-1,-9.139864922E0,-2.062006235E0,2.555211782E0
2.153776230E-1,-9.168595314E0,-2.023699045E0,2.574365377E0
2.178653310E-1,-9.216479301E0,-2.004545450E0,2.574365377E0
2.203530400E-1,-9.235632896E0,-1.975814939E0,2.598307371E0
2.228407480E-1,-9.264363289E0,-1.937507749E0,2.588730574E0
2.253284560E-1,-9.283516884E0,-1.908777356E0,2.588730574E0
2.278161650E-1,-9.283516884E0,-1.860893250E0,2.564788580E0
2.303038730E-1,-9.331400871E0,-1.822586060E0,2.540846586E0
2.327915810E-1,-9.403226852E0,-1.813009262E0,2.516904593E0
2.352792900E-1,-9.470264435E0,-1.793855667E0,2.473809004E0
2.377669980E-1,-9.532513618E0,-1.769913554E0,2.435501575E0
2.402547060E-1,-9.585186958E0,-1.745971560E0,2.411559582E0
2.427424150E-1,-9.628282547E0,-1.712452769E0,2.382829189E0
2.452301230E-1,-9.657012939E0,-1.693299174E0,2.315791607E0
2.477178310E-1,-9.714473724E0,-1.688510776E0,2.253542423E0
2.502055400E-1,-9.757569313E0,-1.702875972E0,2.176927805E0
2.526932480E-1,-9.738415718E0,-1.702875972E0,2.095525026E0
2.551809560E-1,-9.724050522E0,-1.731606364E0,2.023699045E0
2.576686650E-1,-9.704896927E0,-1.745971560E0,1.951872945E0
2.601563730E-1,-9.657012939E0,-1.760336757E0,1.899200439E0
2.626440810E-1,-9.594763756E0,-1.779490471E0,1.832162857E0
2.651317900E-1,-9.537302017E0,-1.813009262E0,1.765125155E0
2.676194980E-1,-9.479841232E0,-1.832162857E0,1.726817966E0
2.701072060E-1,-9.441534042E0,-1.865681648E0,1.693299174E0
2.725949150E-1,-9.408015251E0,-1.903988957E0,1.669357181E0
2.750826230E-1,-9.393650055E0,-1.918354154E0,1.654991984E0
2.775703310E-1,-9.379284859E0,-1.927930951E0,1.664568782E0
2.800580400E-1,-9.384073257E0,-1.927930951E0,1.678933978E0
2.825457480E-1,-9.403226852E0,-1.927930951E0,1.707664371E0
2.850334560E-1,-9.417592049E0,-1.923142552E0,1.726817966E0
2.875211650E-1,-9.441534042E0,-1.889623642E0,1.745971560E0
2.900088730E-1,-9.484629631E0,-1.870470047E0,1.736394763E0
2.924965810E-1,-9.518148422E0,-1.851316452E0,1.741183162E0
2.949842900E-1,-9.546878815E0,-1.836951256E0,1.736394763E0
2.974719980E-1,-9.561244011E0,-1.836951256E0,1.731606364E0
2.999597060E-1,-9.599552155E0,-1.822586060E0,1.726817966E0
3.024474150E-1,-9.657012939E0,-1.813009262E0,1.741183162E0
3.049351230E-1,-9.700108528E0,-1.803432465E0,1.750759959E0
3.074228310E-1,-9.719262123E0,-1.769913554E0,1.760336757E0
3.099105400E-1,-9.752780914E0,-1.745971560E0,1.745971560E0
3.123982480E-1,-9.776722908E0,-1.736394763E0,1.741183162E0
3.148859560E-1,-9.819818497E0,-1.717241168E0,1.726817966E0
3.173736650E-1,-9.858125687E0,-1.712452769E0,1.702875972E0
3.198613730E-1,-9.862914085E0,-1.712452769E0,1.664568782E0
3.223490810E-1,-9.838972092E0,-1.745971560E0,1.645415068E0
3.248367900E-1,-9.791088104E0,-1.784278870E0,1.583165884E0
3.273244980E-1,-9.747992516E0,-1.813009262E0,1.578377485E0
3.298122060E-1,-9.680954933E0,-1.856104851E0,1.568800688E0
3.322999150E-1,-9.633070946E0,-1.903988957E0,1.583165884E0
3.347876230E-1,-9.575610161E0,-1.927930951E0,1.607107878E0
3.372753310E-1,-9.556455612E0,-1.942296147E0,1.626261473E0
3.397630400E-1,-9.532513618E0,-1.951872945E0,1.640626669E0
3.422507480E-1,-9.513360023E0,-1.937507749E0,1.664568782E0
3.447384560E-1,-9.508571625E0,-1.918354154E0,1.693299174E0
3.472261650E-1,-9.522936821E0,-1.913565755E0,1.722029567E0
3.497138730E-1,-9.518148422E0,-1.932719350E0,1.717241168E0
3.522015810E-1,-9.503783226E0,-1.951872945E0,1.745971560E0
3.546892900E-1,-9.484629631E0,-1.975814939E0,1.755548358E0
3.571769980E-1,-9.451110840E0,-2.009333849E0,1.774701953E0
3.596647060E-1,-9.427168846E0,-2.023699045E0,1.803432465E0
3.621524150E-1,-9.374496460E0,-2.042852640E0,1.860893250E0
3.646401230E-1,-9.331400871E0,-2.062006235E0,1.908777356E0
3.671278310E-1,-9.293093681E0,-2.081159830E0,1.980603337E0
3.696155400E-1,-9.254786491E0,-2.105101824E0,2.014122248E0
3.721032480E-1,-9.245209694E0,-2.114678621E0,2.023699045E0
3.745909560E-1,-9.245209694E0,-2.133832216E0,2.042852640E0
3.770786650E-1,-9.230844498E0,-2.129043818E0,2.057217836E0
3.795663730E-1,-9.245209694E0,-2.129043818E0,2.047641039E0
3.820540810E-1,-9.278728485E0,-2.138620615E0,1.999756932E0
3.845417900E-1,-9.297882080E0,-2.162562609E0,1.961449742E0
3.870294980E-1,-9.331400871E0,-2.172139406E0,1.937507749E0
3.895172060E-1,-9.355342865E0,-2.205658197E0,1.899200439E0
3.920049150E-1,-9.379284859E0,-2.239177227E0,1.870470047E0
3.944926230E-1,-9.379284859E0,-2.253542423E0,1.822586060E0
3.969803310E-1,-9.393650055E0,-2.234388828E0,1.798644066E0
3.994680400E-1,-9.431957245E0,-2.220023632E0,1.789067268E0
4.019557480E-1,-9.470264435E0,-2.205658197E0,1.765125155E0
4.044434560E-1,-9.518148422E0,-2.176927805E0,1.741183162E0
4.069311650E-1,-9.561244011E0,-2.138620615E0,1.731606364E0
4.094188730E-1,-9.618705750E0,-2.100313425E0,1.683722377E0
4.119065810E-1,-9.657012939E0,-2.066794634E0,1.650203466E0
4.143942900E-1,-9.680954933E0,-2.057217836E0,1.635838270E0
4.168819980E-1,-9.695320129E0,-2.047641039E0,1.650203466E0
4.193697060E-1,-9.709685326E0,-2.047641039E0,1.635838270E0
4.218574150E-1,-9.728838921E0,-2.018910646E0,1.645415068E0
4.243451230E-1,-9.776722908E0,-1.975814939E0,1.674145579E0
4.268328310E-1,-9.815030098E0,-1.947084546E0,1.731606364E0
4.293205400E-1,-9.886856079E0,-1.899200439E0,1.765125155E0
4.318082480E-1,-9.934740067E0,-1.856104851E0,1.817797661E0
4.342959560E-1,-9.992200851E0,-1.836951256E0,1.884835243E0
4.367836650E-1,-1.002571964E1,-1.798644066E0,1.942296147E0
4.392713730E-1,-1.004008484E1,-1.793855667E0,1.971026540E0
4.417590810E-1,-1.004008484E1,-1.784278870E0,2.047641039E0
4.442467900E-1,-1.000177765E1,-1.769913554E0,2.109890223E0
4.467344980E-1,-9.968258858E0,-1.755548358E0,2.167351007E0
4.492222060E-1,-9.915586472E0,-1.760336757E0,2.210446835E0
4.517099150E-1,-9.834183693E0,-1.779490471E0,2.258330822E0
4.541976230E-1,-9.771934509E0,-1.827374458E0,2.287061214E0
4.566853310E-1,-9.709685326E0,-1.865681648E0,2.287061214E0
4.591730400E-1,-9.661801338E0,-1.894412041E0,2.296638012E0
4.616607480E-1,-9.623494148E0,-1.937507749E0,2.287061214E0
4.641484560E-1,-9.589975357E0,-1.961449742E0,2.234388828E0
4.666361650E-1,-9.566033363E0,-1.956661344E0,2.191293001E0
4.691238730E-1,-9.542090416E0,-1.975814939E0,2.109890223E0
4.716115810E-1,-9.522936821E0,-1.985391736E0,2.028487444E0
4.740992900E-1,-9.489418030E0,-1.990180135E0,1.999756932E0
4.765869980E-1,-9.465476036E0,-2.009333849E0,1.956661344E0
4.790747060E-1,-9.455899239E0,-2.033275843E0,1.894412041E0
4.815624150E-1,-9.422380447E0,-2.047641039E0,1.870470047E0
4.840501230E-1,-9.379284859E0,-2.066794634E0,1.836951256E0
4.865378310E-1,-9.355342865E0,-2.119467020E0,1.808220863E0
4.890255400E-1,-9.317035675E0,-2.152985811E0,1.760336757E0
4.915132480E-1,-9.278728485E0,-2.172139406E0,1.717241168E0
4.940009560E-1,-9.226056099E0,-2.191293001E0,1.669357181E0
4.964886650E-1,-9.221267700E0,-2.220023632E0,1.602319479E0
4.989763730E-1,-9.202114105E0,-2.229600430E0,1.554435492E0
5.014640810E-1,-9.197325706E0,-2.248754025E0,1.501762986E0
5.039517900E-1,-9.187748909E0,-2.263119221E0,1.473032594E0
5.064394980E-1,-9.163806915E0,-2.272696018E0,1.444302201E0
5.089272060E-1,-9.163806915E0,-2.267907619E0,1.453878999E0
5.114149150E-1,-9.197325706E0,-2.287061214E0,1.434725404E0
5.139026230E-1,-9.221267700E0,-2.296638012E0,1.449090600E0
5.163903310E-1,-9.273940086E0,-2.301426411E0,1.429937005E0
5.188780400E-1,-9.331400871E0,-2.282272816E0,1.453878999E0
5.213657480E-1,-9.374496460E0,-2.272696018E0,1.449090600E0
5.238534560E-1,-9.422380447E0,-2.243965626E0,1.415571809E0
5.263411650E-1,-9.508571625E0,-2.196081400E0,1.382052898E0
5.288288730E-1,-9.589975357E0,-2.162562609E0,1.386841297E0
5.313165810E-1,-9.661801338E0,-2.143409014E0,1.372476101E0
5.338042900E-1,-9.714473724E0,-2.133832216E0,1.377264500E0
5.362919980E-1,-9.767146111E0,-2.076371431E0,1.382052898E0
5.387797060E-1,-9.800664902E0,-2.047641039E0,1.377264500E0
5.412674150E-1,-9.800664902E0,-2.014122248E0,1.353322506E0
5.437551230E-1,-9.791088104E0,-2.023699045E0,1.348534107E0
5.462428310E-1,-9.781511307E0,-2.033275843E0,1.353322506E0
5.487305400E-1,-9.786299706E0,-2.057217836E0,1.343745708E0
5.512182480E-1,-9.800664902E0,-2.076371431E0,1.305438519E0
5.537059560E-1,-9.815030098E0,-2.129043818E0,1.267131209E0
5.561936650E-1,-9.805453300E0,-2.176927805E0,1.228824019E0
5.586813730E-1,-9.805453300E0,-2.210446835E0,1.195305228E0
5.611690810E-1,-9.800664902E0,-2.243965626E0,1.142632723E0
5.636567900E-1,-9.786299706E0,-2.282272816E0,1.109113932E0
5.661444980E-1,-9.795876503E0,-2.320580006E0,1.075595140E0
5.686322060E-1,-9.824606895E0,-2.358887196E0,1.061229944E0
5.711199150E-1,-9.834183693E0,-2.401982784E0,1.037287831E0
5.736076230E-1,-9.834183693E0,-2.445078373E0,1.032499433E0
5.760953310E-1,-9.838972092E0,-2.492962599E0,1.070806742E0
5.785830400E-1,-9.834183693E0,-2.512116194E0,1.104325533E0
5.810707480E-1,-9.843760490E0,-2.545634985E0,1.147421122E0
5.835584560E-1,-9.872490883E0,-2.560000181E0,1.209670424E0
5.860461650E-1,-9.901221275E0,-2.569576979E0,1.262342811E0
5.885338730E-1,-9.953893661E0,-2.545634985E0,1.362899303E0
5.910215810E-1,-1.002571964E1,-2.492962599E0,1.458667397E0
5.935092900E-1,-1.009275723E1,-2.449866772E0,1.540070295E0
5.959969980E-1,-1.019331360E1,-2.392405987E0,1.626261473E0
5.984847060E-1,-1.027471638E1,-2.334945202E0,1.722029567E0
6.009724150E-1,-1.034654236E1,-2.287061214E0,1.827374458E0
6.034601230E-1,-1.042315674E1,-2.239177227E0,1.956661344E0
6.059478310E-1,-1.052371311E1,-2.176927805E0,2.076371431E0
6.084355400E-1,-1.062905884E1,-2.148197412E0,2.196081400E0
6.109232480E-1,-1.072003841E1,-2.129043818E0,2.234388828E0
6.134109560E-1,-1.079186440E1,-2.090736628E0,2.464232206E0
6.158986650E-1,-1.086369038E1,-2.062006235E0,2.684498549E0
6.183863730E-1,-1.088763237E1,-2.057217836E0,2.732382774E0
6.208740810E-1,-1.096424675E1,-2.023699045E0,2.808997154E0
6.233617900E-1,-1.104086113E1,-1.990180135E0,2.904765129E0
6.258494980E-1,-1.110789871E1,-1.999756932E0,2.952649355E0
6.283372060E-1,-1.114141750E1,-2.052429438E0,2.981379747E0
6.308249150E-1,-1.116057110E1,-2.133832216E0,3.019686937E0
6.333126230E-1,-1.117972469E1,-2.258330822E0,3.057994127E0
6.358003310E-1,-1.118930149E1,-2.382829189E0,3.081936121E0
6.382880400E-1,-1.117972469E1,-2.512116194E0,3.129820108E0
6.407757480E-1,-1.115099430E1,-2.612672567E0,3.177704096E0
6.432635090E-1,-1.113662910E1,-2.689286947E0,3.244741917E0
6.457512690E-1,-1.114620590E1,-2.746747971E0,3.268683910E0
6.482390290E-1,-1.115578270E1,-2.780266762E0,3.225588322E0
6.507267900E-1,-1.118930149E1,-2.804208755E0,3.187281132E0
6.532145500E-1,-1.123239708E1,-2.861669540E0,3.115454912E0
6.557023110E-1,-1.128506947E1,-2.899976730E0,3.024475336E0
6.581900710E-1,-1.135210705E1,-2.952649355E0,2.943072557E0
6.606778310E-1,-1.145266342E1,-2.976591349E0,2.847304344E0
6.631655920E-1,-1.154843235E1,-2.962226152E0,2.789843559E0
6.656533520E-1,-1.162983513E1,-2.923918724E0,2.698863983E0
6.681411130E-1,-1.172081470E1,-2.895188332E0,2.583942175E0
6.706288730E-1,-1.182137108E1,-2.852092743E0,2.497750998E0
6.731166340E-1,-1.192671585E1,-2.794631958E0,2.416347980E0
6.756043940E-1,-1.205600262E1,-2.718017578E0,2.315791607E0
6.780921540E-1,-1.216134739E1,-2.636614561E0,2.200869799E0
6.805799150E-1,-1.225711536E1,-2.560000181E0,2.047641039E0
6.830676750E-1,-1.232415295E1,-2.502539396E0,1.903988957E0
6.855554360E-1,-1.236724854E1,-2.425924778E0,1.774701953E0
6.880431960E-1,-1.240555573E1,-2.401982784E0,1.635838270E0
6.905309560E-1,-1.244386292E1,-2.373252392E0,1.544858694E0
6.930187170E-1,-1.247738171E1,-2.358887196E0,1.420360208E0
6.955064770E-1,-1.251090145E1,-2.325368404E0,1.305438519E0
6.979942380E-1,-1.253005505E1,-2.311003208E0,1.190516829E0
7.004819980E-1,-1.254920864E1,-2.263119221E0,1.094748735E0
7.029697590E-1,-1.259230423E1,-2.229600430E0,1.032499433E0
7.054575190E-1,-1.261624622E1,-2.215235233E0,9.798270464E-1
7.079452790E-1,-1.264018822E1,-2.224812031E0,8.984242082E-1
7.104329880E-1,-1.266891861E1,-2.253542423E0,8.649053574E-1
7.129206960E-1,-1.269286060E1,-2.282272816E0,8.218097091E-1
7.154084040E-1,-1.269764900E1,-2.334945202E0,8.170213103E-1
7.178961130E-1,-1.268328381E1,-2.387617588E0,7.835025191E-1
7.203838210E-1,-1.263061142E1,-2.445078373E0,8.026561141E-1
7.228715290E-1,-1.256357384E1,-2.502539396E0,8.170213103E-1
7.253592380E-1,-1.245343971E1,-2.569576979E0,8.457517624E-1
7.278469460E-1,-1.236246014E1,-2.636614561E0,8.696937561E-1
7.303346540E-1,-1.229063416E1,-2.665344954E0,9.127894044E-1
7.328223630E-1,-1.223317337E1,-2.703652382E0,9.367313981E-1
7.353100710E-1,-1.219007778E1,-2.746747971E0,9.846154451E-1
7.377977790E-1,-1.216134739E1,-2.775478363E0,1.051653147E0
7.402854880E-1,-1.216613579E1,-2.804208755E0,1.123479128E0
7.427731960E-1,-1.217571259E1,-2.837727547E0,1.238400817E0
7.452609040E-1,-1.219486618E1,-2.885611534E0,1.362899303E0
7.477486130E-1,-1.221401978E1,-2.933495522E0,1.468244195E0
7.502363210E-1,-1.219965458E1,-2.990956545E0,1.592742682E0
7.527240290E-1,-1.217571259E1,-3.034052134E0,1.750759959E0
7.552117380E-1,-1.218050098E1,-3.053205729E0,1.832162857E0
7.576994460E-1,-1.218050098E1,-3.038840532E0,1.918354154E0
7.601871540E-1,-1.222838497E1,-2.986168146E0,2.009333849E0
7.626748630E-1,-1.227626896E1,-2.923918724E0,2.105101824E0
7.651625710E-1,-1.232894135E1,-2.856881142E0,2.181716204E0
7.676502790E-1,-1.236724854E1,-2.785055161E0,2.234388828E0
7.701379880E-1,-1.240555573E1,-2.713229179E0,2.267907619E0
7.726256960E-1,-1.245343971E1,-2.665344954E0,2.234388828E0
7.751134040E-1,-1.249174690E1,-2.593518972E0,2.205658197E0
7.776011130E-1,-1.249174690E1,-2.516904593E0,2.152985811E0
7.800888210E-1,-1.250132370E1,-2.449866772E0,2.114678621E0
7.825765290E-1,-1.252047825E1,-2.382829189E0,2.052429438E0
7.850642380E-1,-1.253484344E1,-2.291849613E0,2.023699045E0
7.875519460E-1,-1.255399704E1,-2.196081400E0,1.956661344E0
7.900396540E-1,-1.254920864E1,-2.119467020E0,1.903988957E0
7.925273630E-1,-1.253005505E1,-2.018910646E0,1.822586060E0
7.950150710E-1,-1.250132370E1,-1.956661344E0,1.750759959E0
7.975027790E-1,-1.248217010E1,-1.932719350E0,1.659780383E0
7.999904880E-1,-1.245822811E1,-1.908777356E0,1.568800688E0
8.024781960E-1,-1.239119053E1,-1.932719350E0,1.501762986E0
8.049659040E-1,-1.231457615E1,-1.966238141E0,1.453878999E0
8.074536130E-1,-1.222359657E1,-1.994968534E0,1.453878999E0
8.099413210E-1,-1.213740540E1,-2.014122248E0,1.492186189E0
8.124290290E-1,-1.204163742E1,-2.047641039E0,1.530493379E0
8.149167380E-1,-1.196023464E1,-2.071583033E0,1.602319479E0
8.174044460E-1,-1.188840866E1,-2.100313425E0,1.678933978E0
8.198921540E-1,-1.183573627E1,-2.152985811E0,1.779490471E0
8.223798630E-1,-1.180700588E1,-2.215235233E0,1.889623642E0
8.248675710E-1,-1.175912189E1,-2.287061214E0,2.023699045E0
8.273552790E-1,-1.173996830E1,-2.358887196E0,2.152985811E0
8.298429880E-1,-1.170166111E1,-2.397194386E0,2.315791607E0
8.323306960E-1,-1.166335392E1,-2.449866772E0,2.502539396E0
8.348184040E-1,-1.164420033E1,-2.483385801E0,2.689286947E0
8.373061130E-1,-1.166814232E1,-2.478597403E0,2.876034737E0
8.397938210E-1,-1.170166111E1,-2.473809004E0,3.048417330E0
8.422815290E-1,-1.173996830E1,-2.430713177E0,3.225588322E0
8.447692380E-1,-1.183094788E1,-2.349310398E0,3.369240284E0
8.472569460E-1,-1.189319706E1,-2.277484417E0,3.455431700E0
8.497446540E-1,-1.192671585E1,-2.229600430E0,3.522469282E0
8.522323630E-1,-1.191713905E1,-2.210446835E0,3.575141668E0
8.547200710E-1,-1.187883186E1,-2.196081400E0,3.560776472E0
8.572077790E-1,-1.184052467E1,-2.215235233E0,3.522469282E0
8.596954880E-1,-1.181179428E1,-2.282272816E0,3.455431700E0
8.621831960E-1,-1.176869869E1,-2.339733601E0,3.350086689E0
8.646709040E-1,-1.171123791E1,-2.397194386E0,3.254318714E0
8.671586130E-1,-1.163462353E1,-2.445078373E0,3.148973703E0
8.696463210E-1,-1.152927876E1,-2.473809004E0,3.057994127E0
8.721340290E-1,-1.141435623E1,-2.512116194E0,2.943072557E0
8.746217380E-1,-1.129943466E1,-2.545634985E0,2.823362350E0
8.771094460E-1,-1.119887829E1,-2.593518972E0,2.765901566E0
8.795971540E-1,-1.110789871E1,-2.636614561E0,2.694075346E0
8.820848630E-1,-1.103128433E1,-2.703652382E0,2.622249365E0
8.845725710E-1,-1.094509315E1,-2.770689964E0,2.607884169E0
8.870602790E-1,-1.087326717E1,-2.837727547E0,2.598307371E0
8.895479880E-1,-1.077271080E1,-2.866457939E0,2.598307371E0
8.920356960E-1,-1.071525002E1,-2.871246338E0,2.636614561E0
8.945234040E-1,-1.063863564E1,-2.876034737E0,2.660556555E0
8.970111130E-1,-1.058117485E1,-2.876034737E0,2.698863983E0
8.994988210E-1,-1.053328991E1,-2.880823135E0,2.732382774E0
9.019865290E-1,-1.051892471E1,-2.871246338E0,2.804208755E0
9.044742380E-1,-1.052371311E1,-2.847304344E0,2.885611534E0
9.069619460E-1,-1.057159805E1,-2.828150749E0,2.952649355E0
9.094496540E-1,-1.062427044E1,-2.808997154E0,2.995744944E0
9.119373630E-1,-1.070567322E1,-2.789843559E0,3.067570925E0
9.144250710E-1,-1.077749920E1,-2.761113167E0,3.125031710E0
9.169127790E-1,-1.085411358E1,-2.765901566E0,3.182492495E0
9.194004880E-1,-1.091157436E1,-2.746747971E0,3.235165119E0
9.218881960E-1,-1.095466995E1,-2.727594376E0,3.330933094E0
9.243759040E-1,-1.094509315E1,-2.698863983E0,3.359663486E0
9.268636130E-1,-1.092593956E1,-2.674921751E0,3.359663486E0
9.293513210E-1,-1.088763237E1,-2.660556555E0,3.350086689E0
9.318390290E-1,-1.085411358E1,-2.655768156E0,3.297414303E0
9.343267380E-1,-1.081101799E1,-2.674921751E0,3.201646328E0
9.368144460E-1,-1.074876881E1,-2.708440781E0,3.086724520E0
9.393021540E-1,-1.068651962E1,-2.775478363E0,2.952649355E0
9.417898630E-1,-1.057159805E1,-2.866457939E0,2.804208755E0
9.442775710E-1,-1.046625233E1,-2.962226152E0,2.636614561E0
9.467652790E-1,-1.036569595E1,-3.034052134E0,2.483385801E0
9.492529880E-1,-1.026513958E1,-3.125031710E0,2.387617588E0
9.517406960E-1,-1.016937160E1,-3.182492495E0,2.291849613E0
9.542284040E-1,-1.007839203E1,-3.230376720E0,2.229600430E0
9.567161130E-1,-1.001135445E1,-3.249530315E0,2.157774210E0
9.592038210E-1,-9.958682060E0,-3.244741917E0,2.119467020E0
9.616915290E-1,-9.925163269E0,-3.225588322E0,2.105101824E0
9.641792380E-1,-9.929951668E0,-3.225588322E0,2.076371431E0
9.666669460E-1,-9.925163269E0,-3.216011524E0,2.071583033E0
9.691546540E-1,-9.925163269E0,-3.206434727E0,2.076371431E0
9.716423630E-1,-9.910798073E0,-3.177704096E0,2.105101824E0
9.741300710E-1,-9.920374870E0,-3.158550501E0,2.129043818E0
9.766177790E-1,-9.920374870E0,-3.134608507E0,2.172139406E0
9.791054880E-1,-9.929951668E0,-3.091512918E0,2.234388828E0
9.815931960E-1,-9.953893661E0,-3.043628931E0,2.320580006E0
9.840809040E-1,-9.996989250E0,-2.952649355E0,2.430713177E0
9.865686130E-1,-1.004966164E1,-2.837727547E0,2.560000181E0
9.890563210E-1,-1.010712242E1,-2.727594376E0,2.655768156E0
9.915440290E-1,-1.013585281E1,-2.612672567E0,2.746747971E0
9.940317380E-1,-1.015500641E1,-2.502539396E0,2.813785553E0
9.965194460E-1,-1.016458321E1,-2.401982784E0,2.852092743E0
9.990071540E-1,-1.019331360E1,-2.315791607E0,2.861669540E0
1.001494863E0,-1.019810200E1,-2.224812031E0,2.866457939E0
1.003982571E0,-1.019810200E1,-2.129043818E0,2.847304344E0
1.006470279E0,-1.018852520E1,-2.076371431E0,2.847304344E0
1.008957988E0,-1.017894840E1,-1.980603337E0,2.832939148E0
1.011445696E0,-1.020767879E1,-1.870470047E0,2.842515945E0
1.013933404E0,-1.022204399E1,-1.760336757E0,2.842515945E0
1.016421113E0,-1.025077438E1,-1.669357181E0,2.837727547E0
1.018908821E0,-1.026513958E1,-1.578377485E0,2.804208755E0
1.021396529E0,-1.026513958E1,-1.525704980E0,2.708440781E0
1.023884238E0,-1.023640919E1,-1.492186189E0,2.588730574E0
1.026371946E0,-1.020289040E1,-1.473032594E0,2.397194386E0
1.028859654E0,-1.013106441E1,-1.482609391E0,2.186504602E0
1.031347363E0,-1.004008484E1,-1.520916581E0,1.951872945E0
1.033835071E0,-9.953893661E0,-1.535281897E0,1.717241168E0
1.036322779E0,-9.882067680E0,-1.554435492E0,1.525704980E0
1.038810488E0,-9.819818497E0,-1.540070295E0,1.362899303E0
1.041298196E0,-9.781511307E0,-1.540070295E0,1.209670424E0
1.043785904E0,-9.728838921E0,-1.559223890E0,1.066018343E0
1.046273613E0,-9.637859344E0,-1.587954283E0,9.415197968E-1
1.048761321E0,-9.532513618E0,-1.635838270E0,8.265981078E-1
1.051249029E0,-9.412803650E0,-1.688510776E0,7.691373229E-1
1.053736738E0,-9.312247276E0,-1.755548358E0,7.404068708E-1
1.056224446E0,-9.230844498E0,-1.817797661E0,7.260416746E-1
1.058712154E0,-9.139864922E0,-1.860893250E0,7.356184721E-1
1.061199863E0,-9.063250542E0,-1.889623642E0,7.787141204E-1
1.063687571E0,-8.991424561E0,-1.894412041E0,8.361749649E-1
1.066175279E0,-8.948328972E0,-1.870470047E0,9.223662019E-1
1.068662988E0,-8.910021782E0,-1.827374458E0,1.008557439E0
1.071150696E0,-8.890868187E0,-1.808220863E0,1.051653147E0
1.073638404E0,-8.886079788E0,-1.784278870E0,1.128267527E0
1.076126113E0,-8.905233383E0,-1.774701953E0,1.209670424E0
1.078613821E0,-8.910021782E0,-1.784278870E0,1.300650120E0
1.081101529E0,-8.938752174E0,-1.779490471E0,1.362899303E0
1.083589238E0,-8.948328972E0,-1.755548358E0,1.396418095E0
1.086076946E0,-8.953117371E0,-1.726817966E0,1.439513803E0
1.088564654E0,-8.957905769E0,-1.669357181E0,1.487397790E0
1.091052363E0,-8.948328972E0,-1.607107878E0,1.554435492E0
1.093540071E0,-8.933963776E0,-1.525704980E0,1.607107878E0
1.096027779E0,-8.943540573E0,-1.487397790E0,1.654991984E0
1.098515488E0,-8.881291389E0,-1.439513803E0,1.688510776E0
1.101003196E0,-8.838195801E0,-1.410783410E0,1.741183162E0
1.103490904E0,-8.780735016E0,-1.401206493E0,1.784278870E0
1.105978613E0,-8.747216225E0,-1.391629696E0,1.793855667E0
1.108466321E0,-8.694543839E0,-1.386841297E0,1.836951256E0
1.110954029E0,-8.651448250E0,-1.372476101E0,1.856104851E0
1.113441738E0,-8.613141060E0,-1.343745708E0,1.832162857E0
1.115929446E0,-8.579621315E0,-1.295861721E0,1.793855667E0
1.118417154E0,-8.570044518E0,-1.257554412E0,1.712452769E0
1.120904863E0,-8.546102524E0,-1.243189216E0,1.640626669E0
1.123392571E0,-8.522160530E0,-1.252766013E0,1.568800688E0
1.125880279E0,-8.445546150E0,-1.305438519E0,1.516128182E0
1.128367988E0,-8.349778175E0,-1.372476101E0,1.506551385E0
1.130855696E0,-8.254010201E0,-1.444302201E0,1.535281897E0
1.133343404E0,-8.129511833E0,-1.530493379E0,1.583165884E0
1.135831113E0,-8.000225067E0,-1.611896276E0,1.635838270E0
1.138318821E0,-7.846996307E0,-1.688510776E0,1.712452769E0
1.140806529E0,-7.693767071E0,-1.803432465E0,1.784278870E0
1.143294238E0,-7.574057102E0,-1.870470047E0,1.836951256E0
1.145781946E0,-7.497442722E0,-1.908777356E0,1.903988957E0
1.148269654E0,-7.473500729E0,-1.947084546E0,1.990180135E0
1.150757363E0,-7.478289127E0,-1.961449742E0,2.042852640E0
1.153245071E0,-7.487865925E0,-1.990180135E0,2.119467020E0
1.155732779E0,-7.516596317E0,-2.004545450E0,2.196081400E0
1.158220488E0,-7.569268703E0,-2.023699045E0,2.234388828E0
1.160708196E0,-7.645883083E0,-2.038064241E0,2.296638012E0
1.163195904E0,-7.717709064E0,-2.018910646E0,2.339733601E0
1.165683613E0,-7.832630634E0,-1.961449742E0,2.354098797E0
1.168171321E0,-7.933187485E0,-1.856104851E0,2.330156803E0
1.170659029E0,-8.038532257E0,-1.760336757E0,2.287061214E0
1.173146738E0,-8.129511833E0,-1.640626669E0,2.205658197E0
1.175634446E0,-8.239645004E0,-1.540070295E0,2.124255419E0
1.178122154E0,-8.325836182E0,-1.415571809E0,2.004545450E0
1.180609863E0,-8.402450562E0,-1.367687702E0,1.846528053E0
1.183097571E0,-8.440757751E0,-1.372476101E0,1.659780383E0
1.185585279E0,-8.435969353E0,-1.396418095E0,1.477820992E0
1.188072988E0,-8.368931770E0,-1.453878999E0,1.310226917E0
1.190560696E0,-8.254010201E0,-1.492186189E0,1.128267527E0
1.193048404E0,-8.110358238E0,-1.520916581E0,9.510966539E-1
1.195536113E0,-7.961917877E0,-1.573589087E0,8.026561141E-1
1.198023821E0,-7.808688641E0,-1.616684675E0,6.685808301E-1
1.200511529E0,-7.684190273E0,-1.669357181E0,5.871779919E-1
1.202999238E0,-7.597999096E0,-1.750759959E0,5.297171474E-1
1.205486946E0,-7.521384716E0,-1.856104851E0,4.578910768E-1
1.207974654E0,-7.454347134E0,-1.961449742E0,4.291606545E-1
1.210462363E0,-7.425616741E0,-2.066794634E0,3.669114113E-1
1.212950071E0,-7.382521152E0,-2.152985811E0,3.525462151E-1
1.215437779E0,-7.377732754E0,-2.200869799E0,3.860650361E-1
1.217925488E0,-7.339425087E0,-2.234388828E0,4.483142793E-1
1.220413196E0,-7.301117897E0,-2.234388828E0,5.345055461E-1
1.222900904E0,-7.234080315E0,-2.234388828E0,6.302735806E-1
1.225388613E0,-7.147889137E0,-2.224812031E0,7.451952696E-1
1.227876321E0,-7.061697960E0,-2.224812031E0,8.696937561E-1
1.230364029E0,-6.965929985E0,-2.196081400E0,9.894038439E-1
1.232851738E0,-6.889315605E0,-2.167351007E0,1.128267527E0
1.235339446E0,-6.851007938E0,-2.129043818E0,1.252766013E0
1.237827154E0,-6.846219540E0,-2.109890223E0,1.348534107E0
1.240314863E0,-6.851007938E0,-2.052429438E0,1.391629696E0
1.242802571E0,-6.898892403E0,-1.994968534E0,1.420360208E0
1.245290279E0,-6.999448776E0,-1.923142552E0,1.453878999E0
1.247777988E0,-7.123947144E0,-1.836951256E0,1.516128182E0
1.250265696E0,-7.267599106E0,-1.731606364E0,1.564012289E0
1.252753404E0,-7.430405140E0,-1.607107878E0,1.602319479E0
1.255241113E0,-7.593210697E0,-1.482609391E0,1.597531080E0
1.257728821E0,-7.784746647E0,-1.353322506E0,1.578377485E0
1.260216529E0,-7.961917877E0,-1.224035621E0,1.482609391E0
1.262704238E0,-8.134300232E0,-1.128267527E0,1.401206493E0
1.265191946E0,-8.306682587E0,-1.008557439E0,1.338957310E0
1.267679654E0,-8.503006935E0,-9.032126069E-1,1.238400817E0
1.270167363E0,-8.699332237E0,-7.595604658E-1,1.123479128E0
1.272655071E0,-8.919598579E0,-5.871779919E-1,9.941922426E-1
1.275142779E0,-9.115922928E0,-4.291606545E-1,8.553285599E-1
1.277630488E0,-9.297882080E0,-2.567781210E-1,7.308300734E-1
1.280118196E0,-9.451110840E0,-1.083376259E-1,5.680243373E-1
1.282605904E0,-9.585186958E0,3.531447425E-2,3.573346138E-1
1.285093613E0,-9.642647743E0,1.454477459E-1,1.466448605E-1
1.287581321E0,-9.676166534E0,2.124854028E-1,-1.023521200E-1
1.290069029E0,-9.666589737E0,2.651578486E-1,-3.848679364E-1
1.292556738E0,-9.618705750E0,2.651578486E-1,-6.386532784E-1
1.295044446E0,-9.546878815E0,2.412158251E-1,-8.541314602E-1
1.297532154E0,-9.436745644E0,1.741781682E-1,-1.040879130E0
1.300019863E0,-9.283516884E0,7.362170517E-2,-1.141435623E0
1.302507571E0,-9.115922928E0,-5.566519126E-2,-1.160589218E0
1.304995279E0,-8.943540573E0,-1.993172914E-1,-1.083974838E0
1.307482988E0,-8.761581421E0,-3.716998100E-1,-9.546879530E-1
1.309970696E0,-8.541314125E0,-5.632359385E-1,-8.062474132E-1
1.312458404E0,-8.335412979E0,-7.691373229E-1,-6.482301354E-1
1.314946113E0,-8.124723434E0,-9.415197968E-1,-4.902127981E-1
1.317433821E0,-7.914033890E0,-1.118690729E0,-3.609259129E-1
1.319921529E0,-7.732074261E0,-1.291073322E0,-2.412158251E-1
1.322409238E0,-7.564480305E0,-1.453878999E0,-1.598129570E-1
1.324896946E0,-7.411251545E0,-1.611896276E0,-5.925649032E-2
1.327384654E0,-7.291541100E0,-1.750759959E0,7.960720360E-2
1.329872363E0,-7.219715118E0,-1.875258446E0,2.184709013E-1
1.332360071E0,-7.138312340E0,-1.961449742E0,3.238157928E-1
1.334847779E0,-7.095216751E0,-2.018910646E0,4.291606545E-1
1.337335540E0,-7.095216751E0,-2.052429438E0,5.105634928E-1
1.339823300E0,-7.123947144E0,-2.047641039E0,5.967547894E-1
1.342311061E0,-7.195773125E0,-2.066794634E0,6.829460263E-1
1.344798821E0,-7.305906296E0,-2.066794634E0,7.643488646E-1
1.347286581E0,-7.463923931E0,-2.052429438E0,8.170213103E-1
1.349774342E0,-7.617152691E0,-2.018910646E0,8.505401611E-1
1.352262102E0,-7.779958248E0,-1.918354154E0,8.457517624E-1
1.354749863E0,-7.952341080E0,-1.793855667E0,7.691373229E-1
1.357237623E0,-8.100781441E0,-1.631049871E0,6.925228238E-1
1.359725384E0,-8.277952194E0,-1.468244195E0,6.063315868E-1
1.362213144E0,-8.435969353E0,-1.310226917E0,5.249287486E-1
1.364700904E0,-8.593987465E0,-1.156997919E0,4.722562730E-1
1.367188665E0,-8.780735016E0,-9.989806414E-1,4.100070298E-1
1.369676425E0,-8.948328972E0,-8.696937561E-1,3.381809890E-1
1.372164186E0,-9.072827339E0,-7.260416746E-1,2.807201445E-1
1.374651946E0,-9.173383713E0,-5.871779919E-1,1.945288926E-1
1.377139706E0,-9.259574890E0,-4.387374520E-1,9.876082093E-2
1.379627467E0,-9.321824074E0,-3.094505668E-1,-1.616086066E-2
1.382115227E0,-9.360131264E0,-2.232593149E-1,-1.119289324E-1
1.384602988E0,-9.393650055E0,-1.514332592E-1,-1.741781682E-1
1.387090748E0,-9.427168846E0,-9.397241473E-2,-2.172738016E-1
1.389578509E0,-9.465476036E0,-7.003039867E-2,-1.981201917E-1
1.392066269E0,-9.489418030E0,-5.566519126E-2,-1.310825497E-1
1.394554029E0,-9.498994827E0,-7.481880486E-2,-2.573766746E-2
1.397041790E0,-9.455899239E0,-1.562216580E-1,5.566519126E-2
1.399529550E0,-9.393650055E0,-2.807201445E-1,9.876082093E-2
1.402017311E0,-9.221267700E0,-4.578910768E-1,1.274912357E-1
1.404505019E0,-8.986636162E0,-6.829460263E-1,1.370680481E-1
1.406992727E0,-8.680178642E0,-9.319429994E-1,1.657984704E-1
1.409480436E0,-8.311470985E0,-1.195305228E0,2.328361124E-1
1.411968144E0,-7.937975883E0,-1.473032594E0,2.855085433E-1
1.414455852E0,-7.569268703E0,-1.731606364E0,3.812766075E-1
1.416943561E0,-7.238868713E0,-1.951872945E0,4.531026781E-1
1.419431269E0,-6.956353188E0,-2.176927805E0,5.776011348E-1
1.421918977E0,-6.731297970E0,-2.373252392E0,6.733692288E-1
1.424406686E0,-6.578069210E0,-2.512116194E0,7.835025191E-1
1.426894394E0,-6.443994045E0,-2.627037764E0,9.319429994E-1
1.429382102E0,-6.410475254E0,-2.703652382E0,1.061229944E0
1.431869811E0,-6.472724438E0,-2.732382774E0,1.147421122E0
1.434357519E0,-6.592434406E0,-2.741959572E0,1.200093627E0
1.436845227E0,-6.783970356E0,-2.689286947E0,1.262342811E0
1.439332936E0,-7.028179169E0,-2.579153776E0,1.286284804E0
1.441820644E0,-7.310694695E0,-2.435501575E0,1.267131209E0
1.444308352E0,-7.631517887E0,-2.258330822E0,1.228824019E0
1.446796061E0,-7.947552681E0,-2.047641039E0,1.180940032E0
1.449283769E0,-8.244433403E0,-1.836951256E0,1.089960337E0
1.451771477E0,-8.531737328E0,-1.607107878E0,1.013345838E0
1.454259186E0,-8.771158218E0,-1.401206493E0,8.936358094E-1
1.456746894E0,-8.948328972E0,-1.166574836E0,7.595604658E-1
1.459234602E0,-9.020154953E0,-9.175778031E-1,6.159083843E-1
1.461722311E0,-9.091980934E0,-6.637924314E-1,4.578910768E-1
1.464210019E0,-9.178172112E0,-3.908534348E-1,2.902969420E-1
1.466697727E0,-9.278728485E0,-1.562216580E-1,1.131260321E-1
1.469185436E0,-9.403226852E0,4.967968538E-2,-5.446808785E-2
1.471673144E0,-9.551667213E0,2.172738016E-1,-1.741781682E-1
1.474160852E0,-9.680954933E0,3.896563351E-1,-1.933317930E-1
1.476648561E0,-9.824606895E0,5.285200477E-1,-1.550245583E-1
1.479136269E0,-9.973047256E0,6.769605279E-1,-4.489128292E-2
1.481623977E0,-1.012148762E1,8.206126094E-1,1.610100716E-1
1.484111686E0,-1.028908157E1,9.355342984E-1,4.195838571E-1
1.486599394E0,-1.044709873E1,9.929951429E-1,7.260416746E-1
1.489087102E0,-1.060032845E1,1.021725535E0,1.051653147E0
1.491574811E0,-1.070567322E1,1.002571940E0,1.382052898E0
1.494062519E0,-1.077271080E1,9.738415480E-1,1.693299174E0
1.496550227E0,-1.082059479E1,9.163807034E-1,1.966238141E0
1.499037936E0,-1.078707600E1,8.541314602E-1,2.176927805E0
1.501525644E0,-1.074876881E1,7.966706157E-1,2.354098797E0
1.504013352E0,-1.068651962E1,7.344213724E-1,2.512116194E0
1.506501061E0,-1.060990524E1,6.961141229E-1,2.646191359E0
1.508988769E0,-1.050934792E1,6.769605279E-1,2.785055161E0
1.511476477E0,-1.043273354E1,6.482301354E-1,2.919130325E0
1.513964186E0,-1.038484955E1,6.003460884E-1,3.024475336E0
1.516451894E0,-1.032738876E1,4.950011969E-1,3.053205729E0
1.518939602E0,-1.020289040E1,3.657143116E-1,3.072359324E0
1.521427311E0,-1.004008484E1,1.646013707E-1,3.019686937E0
1.523915019E0,-9.815030098E0,-7.003039867E-2,2.933495522E0
1.526402727E0,-9.518148422E0,-2.950853705E-1,2.804208755E0
1.528890436E0,-9.154230118E0,-5.057750940E-1,2.617460966E0
1.531378144E0,-8.747216225E0,-6.685808301E-1,2.373252392E0
1.533865852E0,-8.316259384E0,-8.074445128E-1,2.085948229E0
1.536353561E0,-7.914033890E0,-8.888474107E-1,1.798644066E0
1.538841269E0,-7.574057102E0,-9.510966539E-1,1.516128182E0
1.541328977E0,-7.339425087E0,-9.846154451E-1,1.238400817E0
1.543816686E0,-7.224503517E0,-1.018134236E0,9.798270464E-1
1.546304394E0,-7.152677536E0,-1.061229944E0,7.451952696E-1
1.548792102E0,-7.147889137E0,-1.046864748E0,5.105634928E-1
1.551279811E0,-7.229291916E0,-9.463081956E-1,2.376245260E-1
1.553767519E0,-7.363367558E0,-7.404068708E-1,-4.489128292E-2
1.556255227E0,-7.526173115E0,-4.722562730E-1,-2.843114436E-1
1.558742936E0,-7.732074261E0,-1.753752679E-1,-5.093663931E-1
1.561230644E0,-7.933187485E0,1.167173311E-1,-7.392097712E-1
1.563718352E0,-8.139088631E0,3.705027103E-1,-9.498994946E-1
1.566206061E0,-8.368931770E0,6.099228859E-1,-1.165377736E0
1.568693769E0,-8.589199066E0,8.206126094E-1,-1.371279001E0
1.571181477E0,-8.804677010E0,9.929951429E-1,-1.490989089E0
1.573669186E0,-9.015366554E0,1.174954534E0,-1.524507880E0
1.576156894E0,-9.197325706E0,1.356913805E0,-1.409586191E0
1.578644602E0,-9.369708061E0,1.534084797E0,-1.170166135E0
1.581132311E0,-9.465476036E0,1.692102075E0,-7.966706157E-1
1.583620019E0,-9.489418030E0,1.802235365E0,-3.609259129E-1
1.586107727E0,-9.484629631E0,1.835754156E0,6.045359373E-2
1.588595436E0,-9.408015251E0,1.811812162E0,5.009866953E-1
1.591083144E0,-9.297882080E0,1.696890473E0,9.271546006E-1
1.593570852E0,-9.139864922E0,1.486200690E0,1.329380512E0
1.596058561E0,-8.933963776E0,1.189319730E0,1.678933978E0
1.598546269E0,-8.637083054E0,8.637082577E-1,1.994968534E0
1.601033977E0,-8.268375397E0,4.997895956E-1,2.253542423E0
1.603521686E0,-7.846996307E0,1.550245583E-1,2.492962599E0
1.606009394E0,-7.339425087E0,-1.897404790E-1,2.641402960E0
1.608497102E0,-6.817489147E0,-4.914098978E-1,2.727594376E0
1.610984811E0,-6.262034416E0,-7.882909179E-1,2.718017578E0
1.613472519E0,-5.706579685E0,-1.056441545E0,2.689286947E0
1.615960227E0,-5.179855347E0,-1.295861721E0,2.622249365E0
1.618447936E0,-4.715380192E0,-1.525704980E0,2.521692991E0
1.620935644E0,-4.337096214E0,-1.755548358E0,2.440289974E0
1.623423352E0,-4.064157486E0,-1.999756932E0,2.397194386E0
1.625911061E0,-3.839102507E0,-2.205658197E0,2.416347980E0
1.628398769E0,-3.633201122E0,-2.358887196E0,2.454655409E0
1.630886477E0,-3.460818529E0,-2.421136379E0,2.512116194E0
1.633374186E0,-3.345896959E0,-2.421136379E0,2.555211782E0
1.635861894E0,-3.269282341E0,-2.344521999E0,2.550423384E0
1.638349602E0,-3.230975151E0,-2.253542423E0,2.497750998E0
1.640837311E0,-3.216609955E0,-2.181716204E0,2.392405987E0
1.643325019E0,-3.264493942E0,-2.100313425E0,2.272696018E0
1.645812727E0,-3.345896959E0,-2.028487444E0,2.109890223E0
1.648300436E0,-3.508702517E0,-1.966238141E0,1.899200439E0
1.650788144E0,-3.714603901E0,-1.899200439E0,1.664568782E0
1.653275852E0,-3.934870481E0,-1.822586060E0,1.401206493E0
1.655763561E0,-4.203021049E0,-1.678933978E0,1.094748735E0
1.658251269E0,-4.499902248E0,-1.516128182E0,7.835025191E-1
1.660738977E0,-4.801571369E0,-1.338957310E0,4.626794755E-1
1.663226686E0,-5.165490150E0,-1.142632723E0,1.418564469E-1
1.665714394E0,-5.553350925E0,-9.415197968E-1,-1.310825497E-1
1.668202102E0,-5.902904510E0,-7.020996213E-1,-3.992331326E-1
1.670689811E0,-6.262034416E0,-4.339490533E-1,-6.769605279E-1
1.673177519E0,-6.616376400E0,-1.705868691E-1,-9.594763517E-1
1.675665227E0,-6.956353188E0,5.446808785E-2,-1.237203717E0
1.678152936E0,-7.325059891E0,2.268506140E-1,-1.490989089E0
1.680640644E0,-7.698555470E0,3.369838893E-1,-1.735197663E0
1.683128352E0,-8.028955460E0,3.992331326E-1,-1.969829440E0
1.685616061E0,-8.359354973E0,3.896563351E-1,-2.142211914E0
1.688103769E0,-8.637083054E0,3.369838893E-1,-2.324171305E0
1.690591477E0,-8.890868187E0,2.603694201E-1,-2.472611904E0
1.693079186E0,-9.087192535E0,1.502361596E-1,-2.587533474E0
1.695566894E0,-9.259574890E0,2.573766746E-2,-2.644994259E0
1.698054602E0,-9.431957245E0,-1.035492271E-1,-2.635417461E0
1.700542311E0,-9.570821762E0,-2.376245260E-1,-2.577956676E0
1.703030019E0,-9.685743332E0,-3.716998100E-1,-2.458246708E0
1.705517727E0,-9.771934509E0,-4.914098978E-1,-2.271498919E0
1.708005436E0,-9.858125687E0,-5.967547894E-1,-2.065597534E0
1.710493144E0,-9.939528465E0,-6.685808301E-1,-1.850119352E0
1.712980852E0,-1.000177765E1,-7.164648771E-1,-1.615487576E0
1.715468561E0,-1.008318043E1,-7.356184721E-1,-1.342548609E0
1.717956269E0,-1.021725559E1,-7.356184721E-1,-1.074398041E0
1.720443977E0,-1.040879154E1,-7.116764784E-1,-8.254010081E-1
1.722931686E0,-1.060511684E1,-6.637924314E-1,-5.764040351E-1
1.725419394E0,-1.078707600E1,-5.871779919E-1,-3.800795078E-1
1.727907102E0,-1.097382355E1,-5.105634928E-1,-2.412158251E-1
1.730394811E0,-1.114141750E1,-3.860650361E-1,-1.358709484E-1
1.732882519E0,-1.129464626E1,-2.280477136E-1,-9.756372124E-2
1.735370227E0,-1.145745182E1,-7.960720360E-2,-1.119289324E-1
1.737857936E0,-1.163462353E1,5.446808785E-2,-1.502361596E-1
1.740345644E0,-1.180221748E1,1.741781682E-1,-1.741781682E-1
1.742833352E0,-1.202727222E1,2.603694201E-1,-1.789665818E-1
1.745321061E0,-1.220444298E1,2.986766696E-1,-1.741781682E-1
1.747808769E0,-1.236246014E1,3.034650683E-1,-1.646013707E-1
1.750296477E0,-1.247738171E1,2.699462473E-1,-1.310825497E-1
1.752784186E0,-1.249653530E1,2.076970041E-1,-9.277531505E-2
1.755271894E0,-1.243428612E1,9.277531505E-2,-1.137245819E-2
1.757759602E0,-1.228584576E1,-7.481880486E-2,1.131260321E-1
1.760247311E0,-1.207515621E1,-3.142389655E-1,2.424129248E-1
1.762735019E0,-1.182615948E1,-5.632359385E-1,3.669114113E-1
1.765222727E0,-1.151970100E1,-8.218097091E-1,4.722562730E-1
1.767710436E0,-1.120366669E1,-1.089960337E0,5.488707423E-1
1.770198144E0,-1.090199757E1,-1.362899303E0,6.015431881E-1
1.772685852E0,-1.064821243E1,-1.587954283E0,6.494272351E-1
1.775173561E0,-1.039442635E1,-1.798644066E0,6.925228238E-1
1.777661269E0,-1.016458321E1,-1.994968534E0,7.068880796E-1
1.780148977E0,-9.977835655E0,-2.172139406E0,7.356184721E-1
1.782636686E0,-9.815030098E0,-2.291849613E0,7.356184721E-1
1.785124394E0,-9.666589737E0,-2.344521999E0,6.973112226E-1
1.787612102E0,-9.522936821E0,-2.401982784E0,6.302735806E-1
1.790099811E0,-9.417592049E0,-2.430713177E0,5.440823436E-1
1.792587519E0,-9.326612473E0,-2.421136379E0,4.291606545E-1
1.795075227E0,-9.230844498E0,-2.378040791E0,2.472013235E-1
1.797562936E0,-9.130288124E0,-2.306214809E0,8.439560980E-2
1.800050644E0,-9.063250542E0,-2.200869799E0,-1.646013707E-1
1.802538352E0,-9.010578156E0,-2.071583033E0,-4.183867574E-1
1.805026061E0,-8.991424561E0,-1.903988957E0,-6.625953317E-1
1.807513769E0,-8.967482567E0,-1.755548358E0,-9.211691022E-1
1.810001477E0,-9.020154953E0,-1.592742682E0,-1.160589218E0
1.812489186E0,-9.125499725E0,-1.439513803E0,-1.347337008E0
1.814976894E0,-9.288305283E0,-1.286284804E0,-1.476623893E0
1.817464602E0,-9.513360023E0,-1.133055925E0,-1.572391987E0
1.819952311E0,-9.747992516E0,-9.654618502E-1,-1.644217968E0
1.822440019E0,-9.992200851E0,-7.643488646E-1,-1.763928056E0
1.824927727E0,-1.024119759E1,-5.153518915E-1,-1.907580256E0
1.827415436E0,-1.047104073E1,-2.807201445E-1,-2.075174332E0
1.829903144E0,-1.067215443E1,-4.129998013E-2,-2.228403330E0
1.832390852E0,-1.087805557E1,1.789665818E-1,-2.400785685E0
1.834878561E0,-1.104564953E1,3.609259129E-1,-2.558803082E0
1.837366269E0,-1.120845509E1,5.237316489E-1,-2.716820478E0
1.839853977E0,-1.138562584E1,6.721721292E-1,-2.898779631E0
1.842341686E0,-1.153885555E1,8.062474132E-1,-3.085527420E0
1.844829394E0,-1.167771912E1,9.403226972E-1,-3.248333216E0
1.847317102E0,-1.178785229E1,1.045667648E0,-3.377619982E0
1.849804811E0,-1.189319706E1,1.151012421E0,-3.482964993E0
1.852292519E0,-1.196981144E1,1.251568913E0,-3.550002575E0
1.854780227E0,-1.199854183E1,1.328183413E0,-3.631405354E0
1.857267936E0,-1.200333023E1,1.371279001E0,-3.674500942E0
1.859755644E0,-1.196981144E1,1.385644197E0,-3.664924145E0
1.862243352E0,-1.188362026E1,1.361702204E0,-3.612251759E0
1.864731061E0,-1.176391029E1,1.328183413E0,-3.540425777E0
1.867218769E0,-1.162983513E1,1.289876223E0,-3.425503969E0
1.869706477E0,-1.150533581E1,1.237203717E0,-3.267486811E0
1.872194186E0,-1.139520264E1,1.213261724E0,-3.066373825E0
1.874681894E0,-1.128506947E1,1.174954534E0,-2.812588453E0
1.877169602E0,-1.118451309E1,1.155800819E0,-2.525284290E0
1.879657311E0,-1.108395672E1,1.155800819E0,-2.257133722E0
1.882145019E0,-1.098818874E1,1.155800819E0,-1.998559833E0
1.884632727E0,-1.089720917E1,1.151012421E0,-1.716044068E0
1.887120436E0,-1.081580639E1,1.179742932E0,-1.452681899E0
1.889608144E0,-1.075355721E1,1.237203717E0,-1.174954534E0
1.892095852E0,-1.072482681E1,1.265934110E0,-9.068039060E-1
1.894583561E0,-1.072003841E1,1.280299306E0,-6.003460884E-1
1.897071269E0,-1.072482681E1,1.261145711E0,-3.274070919E-1
1.899558977E0,-1.071525002E1,1.275510907E0,-3.052607179E-2
1.902046686E0,-1.066257763E1,1.289876223E0,2.424129248E-1
1.904534394E0,-1.061469364E1,1.328183413E0,4.866214991E-1
1.907022102E0,-1.055723286E1,1.352125406E0,6.973112226E-1
1.909509811E0,-1.048540592E1,1.400009394E0,8.553285599E-1
1.911997519E0,-1.042315674E1,1.433528304E0,9.558850527E-1
1.914485227E0,-1.035611916E1,1.471835494E0,1.046864748E0
1.916972936E0,-1.033217716E1,1.495777488E0,1.147421122E0
1.919460644E0,-1.032260036E1,1.495777488E0,1.195305228E0
1.921948352E0,-1.029865837E1,1.490989089E0,1.214458823E0
1.924436061E0,-1.027471638E1,1.423951507E0,1.195305228E0
1.926923769E0,-1.021246719E1,1.313818216E0,1.118690729E0
1.929411477E0,-1.009275723E1,1.141435623E0,1.037287831E0
1.931899186E0,-9.920374870E0,9.211691022E-1,9.558850527E-1
1.934386894E0,-9.690531731E0,6.530185342E-1,8.649053574E-1
1.936874602E0,-9.446322441E0,3.657143116E-1,7.691373229E-1
1.939362311E0,-9.221267700E0,7.841010392E-2,6.829460263E-1
1.941850019E0,-9.001001358E0,-2.041056901E-1,6.350619793E-1
1.944337727E0,-8.780735016E0,-4.483142793E-1,6.206967831E-1
1.946825436E0,-8.579621315E0,-6.542156339E-1,6.590040326E-1
1.949313144E0,-8.388085365E0,-8.409633636E-1,7.116764784E-1
1.951800852E0,-8.249221802E0,-9.846154451E-1,8.313865662E-1
1.954288561E0,-8.163030624E0,-1.080383539E0,9.798270464E-1
1.956776269E0,-8.134300232E0,-1.137844324E0,1.109113932E0
1.959263977E0,-8.182184219E0,-1.156997919E0,1.219247222E0
1.961751686E0,-8.263586998E0,-1.118690729E0,1.329380512E0
1.964239394E0,-8.368931770E0,-1.022922635E0,1.420360208E0
1.966727102E0,-8.536525726E0,-9.175778031E-1,1.468244195E0
1.969214811E0,-8.689755440E0,-7.835025191E-1,1.473032594E0
1.971702519E0,-8.847772598E0,-6.350619793E-1,1.468244195E0
1.974190227E0,-8.957905769E0,-4.818331003E-1,1.391629696E0
1.976677936E0,-9.082404137E0,-3.046621680E-1,1.267131209E0
1.979165644E0,-9.206902504E0,-1.179144308E-1,1.128267527E0
1.981653352E0,-9.326612473E0,8.319851011E-2,9.750386477E-1
1.984141061E0,-9.470264435E0,2.460042238E-1,7.930793166E-1
1.986628769E0,-9.637859344E0,3.944447339E-1,6.398503780E-1
1.989116477E0,-9.805453300E0,5.285200477E-1,4.914098978E-1
1.991604186E0,-9.982624054E0,6.290764809E-1,3.333925903E-1
1.994091894E0,-1.016937160E1,7.439981699E-1,1.993172914E-1
1.996579602E0,-1.033217716E1,8.541314602E-1,5.566519126E-2
1.999067311E0,-1.049019432E1,9.498994946E-1,-5.446808785E-2
2.001555019E0,-1.060990524E1,1.036090732E0,-1.358709484E-1
2.004042727E0,-1.072961521E1,1.093551636E0,-2.076970041E-1
2.006530436E0,-1.084453678E1,1.141435623E0,-2.460042238E-1
2.009018144E0,-1.096903515E1,1.127070427E0,-2.795230448E-1
2.011505852E0,-1.107916832E1,1.079186440E0,-3.130418658E-1
2.013993561E0,-1.114620590E1,9.834183455E-1,-3.321954906E-1
2.016481269E0,-1.117014790E1,8.541314602E-1,-3.417722881E-1
2.018968977E0,-1.111747551E1,7.009025216E-1,-3.705027103E-1
2.021456686E0,-1.103128433E1,5.620388389E-1,-3.848679364E-1
2.023944394E0,-1.092115116E1,4.040215313E-1,-3.944447339E-1
2.026432102E0,-1.077271080E1,2.555810213E-1,-4.088099301E-1
2.028919811E0,-1.059554005E1,1.262941360E-1,-3.465606868E-1
2.031407519E0,-1.040400314E1,-3.172317147E-2,-3.130418658E-1
2.033895227E0,-1.023162079E1,-1.418564469E-1,-2.412158251E-1
2.036382936E0,-1.008796883E1,-2.424129248E-1,-1.598129570E-1
2.038870644E0,-9.944316864E0,-3.333925903E-1,-5.446808785E-2
2.041358352E0,-9.805453300E0,-4.004302323E-1,5.566519126E-2
2.043846061E0,-9.671378136E0,-4.195838571E-1,1.227028370E-1
2.046333769E0,-9.551667213E0,-4.291606545E-1,1.705868691E-1
2.048821477E0,-9.465476036E0,-4.243722558E-1,2.376245260E-1
2.051309186E0,-9.403226852E0,-4.243722558E-1,3.333925903E-1
2.053796894E0,-9.360131264E0,-4.339490533E-1,4.004302323E-1
2.056284602E0,-9.345766068E0,-4.291606545E-1,4.674678743E-1
2.058772311E0,-9.374496460E0,-4.243722558E-1,5.488707423E-1
2.061260019E0,-9.403226852E0,-4.052186310E-1,6.015431881E-1
2.063747727E0,-9.398438454E0,-3.716998100E-1,6.063315868E-1
2.066235436E0,-9.403226852E0,-3.238157928E-1,6.063315868E-1
2.068723144E0,-9.436745644E0,-2.519897223E-1,5.680243373E-1
2.071210852E0,-9.479841232E0,-1.897404790E-1,5.345055461E-1
2.073698561E0,-9.546878815E0,-9.397241473E-2,4.722562730E-1
2.076186269E0,-9.623494148E0,-2.693476900E-2,3.716998100E-1
2.078673977E0,-9.661801338E0,5.925649032E-2,2.902969420E-1
2.081161686E0,-9.714473724E0,1.406593472E-1,2.136825025E-1
2.083649394E0,-9.786299706E0,2.124854028E-1,1.274912357E-1
2.086137102E0,-9.862914085E0,2.890998423E-1,2.693476900E-2
2.088624811E0,-9.949105263E0,3.226186931E-1,-2.573766746E-2
2.091112519E0,-1.005445004E1,3.609259129E-1,-7.362170517E-2
2.093600227E0,-1.011669922E1,4.040215313E-1,-1.167173311E-1
2.096087936E0,-1.015500641E1,4.088099301E-1,-1.502361596E-1
2.098575644E0,-1.016458321E1,4.040215313E-1,-2.029085904E-1
2.101063352E0,-1.015979481E1,3.896563351E-1,-2.220622003E-1
2.103551061E0,-1.014064121E1,3.513490856E-1,-2.076970041E-1
2.106038769E0,-1.011669922E1,3.082534671E-1,-1.981201917E-1
2.108526477E0,-1.007360363E1,2.555810213E-1,-1.885433793E-1
2.111014186E0,-9.996989250E0,1.981201917E-1,-1.598129570E-1
2.113501894E0,-9.910798073E0,1.262941360E-1,-1.262941360E-1
2.115989602E0,-9.800664902E0,5.446808785E-2,-7.362170517E-2
2.118477311E0,-9.709685326E0,-1.256955881E-2,-6.584054790E-3
2.120965019E0,-9.652224541E0,-7.960720360E-2,2.693476900E-2
2.123452727E0,-9.637859344E0,-9.876082093E-2,9.397241473E-2
2.125940436E0,-9.666589737E0,-1.131260321E-1,1.610100716E-1
2.128428144E0,-9.700108528E0,-1.227028370E-1,2.088941038E-1
2.130915852E0,-9.757569313E0,-1.179144308E-1,2.376245260E-1
2.133403561E0,-9.834183693E0,-6.524199992E-2,2.376245260E-1
2.135891269E0,-9.891644478E0,-7.781155407E-3,2.232593149E-1
2.138379029E0,-9.963470459E0,5.925649032E-2,1.753752679E-1
2.140866790E0,-1.000177765E1,1.598129570E-1,9.876082093E-2
2.143354550E0,-1.004966164E1,2.699462473E-1,2.992752008E-3
2.145842311E0,-1.010712242E1,3.321954906E-1,-1.071405262E-1
2.148330071E0,-1.010712242E1,4.088099301E-1,-2.172738016E-1
2.150817831E0,-1.013585281E1,4.662707746E-1,-3.274070919E-1
2.153305592E0,-1.013585281E1,5.141547918E-1,-4.423287511E-1
2.155793352E0,-1.015979481E1,5.572504401E-1,-5.859808922E-1
2.158281113E0,-1.015500641E1,5.716156363E-1,-7.487865686E-1
2.160768873E0,-1.012148762E1,5.620388389E-1,-8.637082577E-1
2.163256634E0,-1.008796883E1,5.237316489E-1,-9.738415480E-1
2.165744394E0,-1.000656605E1,4.758476019E-1,-1.040879130E0
2.168232154E0,-9.910798073E0,4.231751561E-1,-1.064821243E0
2.170719915E0,-9.800664902E0,3.561375141E-1,-1.064821243E0
2.173207675E0,-9.685743332E0,2.507926226E-1,-1.031302333E0
2.175695436E0,-9.580398560E0,1.406593472E-1,-1.002571940E0
2.178183196E0,-9.484629631E0,-1.256955881E-2,-9.355342984E-1
2.180670956E0,-9.364919662E0,-1.897404790E-1,-8.349778652E-1
2.183158717E0,-9.273940086E0,-3.573346138E-1,-7.583633661E-1
2.185646477E0,-9.149441719E0,-5.153518915E-1,-6.386532784E-1
2.188134238E0,-9.048885345E0,-6.637924314E-1,-5.428852439E-1
2.190621998E0,-8.977059364E0,-7.739257216E-1,-4.471171796E-1
2.193109759E0,-8.914810181E0,-8.744821548E-1,-3.513490856E-1
2.195597519E0,-8.866926193E0,-9.654618502E-1,-2.747346461E-1
2.198085279E0,-8.833407402E0,-1.027711034E0,-2.364274114E-1
2.200573040E0,-8.804677010E0,-1.056441545E0,-1.550245583E-1
2.203060800E0,-8.795100212E0,-1.046864748E0,-1.215057373E-1
2.205548509E0,-8.809465408E0,-1.037287831E0,-1.119289324E-1
2.208036217E0,-8.828619003E0,-9.894038439E-1,-7.841010392E-2
2.210523925E0,-8.895656586E0,-9.558850527E-1,-4.967968538E-2
2.213011634E0,-8.948328972E0,-9.175778031E-1,-3.531447425E-2
2.215499342E0,-9.029731750E0,-8.840589523E-1,-4.010287672E-2
2.217987050E0,-9.115922928E0,-8.457517624E-1,-4.489128292E-2
2.220474759E0,-9.202114105E0,-7.930793166E-1,-5.925649032E-2
2.222962467E0,-9.302670479E0,-7.547720671E-1,-1.071405262E-1
2.225450175E0,-9.412803650E0,-7.116764784E-1,-1.598129570E-1
2.227937884E0,-9.537302017E0,-6.398503780E-1,-2.124854028E-1
2.230425592E0,-9.661801338E0,-5.680243373E-1,-2.603694201E-1
2.232913300E0,-9.776722908E0,-4.674678743E-1,-3.034650683E-1
2.235401009E0,-9.906009674E0,-3.669114113E-1,-2.986766696E-1
2.237888717E0,-1.001614285E1,-2.807201445E-1,-2.890998423E-1
2.240376425E0,-1.011191082E1,-2.136825025E-1,-2.460042238E-1
2.242864134E0,-1.019331360E1,-1.610100716E-1,-2.172738016E-1
2.245351842E0,-1.025556278E1,-1.274912357E-1,-1.885433793E-1
2.247839550E0,-1.027950478E1,-1.035492271E-1,-1.454477459E-1
2.250327259E0,-1.028429317E1,-8.918401599E-2,-1.262941360E-1
2.252814967E0,-1.025077438E1,-5.566519126E-2,-1.215057373E-1
2.255302675E0,-1.019810200E1,-7.481880486E-2,-1.406593472E-1
2.257790384E0,-1.014542961E1,-1.035492271E-1,-1.502361596E-1
2.260278092E0,-1.005445004E1,-1.227028370E-1,-1.741781682E-1
2.262765800E0,-9.977835655E0,-1.610100716E-1,-1.789665818E-1
2.265253509E0,-9.920374870E0,-2.041056901E-1,-1.981201917E-1
2.267741217E0,-9.858125687E0,-2.376245260E-1,-2.076970041E-1
2.270228925E0,-9.791088104E0,-2.663549483E-1,-2.124854028E-1
2.272716634E0,-9.752780914E0,-2.902969420E-1,-2.124854028E-1
2.275204342E0,-9.738415718E0,-3.142389655E-1,-2.268506140E-1
2.277692050E0,-9.728838921E0,-3.381809890E-1,-2.124854028E-1
2.280179759E0,-9.714473724E0,-3.525462151E-1,-1.981201917E-1
2.282667467E0,-9.700108528E0,-3.908534348E-1,-1.837549806E-1
2.285155175E0,-9.661801338E0,-4.195838571E-1,-1.789665818E-1
2.287642884E0,-9.628282547E0,-4.387374520E-1,-1.646013707E-1
2.290130592E0,-9.575610161E0,-4.483142793E-1,-1.454477459E-1
2.292618300E0,-9.537302017E0,-4.435258508E-1,-1.406593472E-1
2.295106009E0,-9.518148422E0,-4.339490533E-1,-1.167173311E-1
2.297593717E0,-9.532513618E0,-4.100070298E-1,-8.798690885E-2
2.300081425E0,-9.527725220E0,-3.908534348E-1,-6.883329898E-2
2.302569134E0,-9.556455612E0,-3.525462151E-1,-3.052607179E-2
2.305056842E0,-9.594763756E0,-3.046621680E-1,1.256955881E-2
2.307544550E0,-9.661801338E0,-2.519897223E-1,7.481880486E-2
2.310032259E0,-9.680954933E0,-2.280477136E-1,1.418564469E-1
2.312519967E0,-9.714473724E0,-1.849520802E-1,2.088941038E-1
2.315007675E0,-9.738415718E0,-1.657984704E-1,2.615665495E-1
2.317495384E0,-9.747992516E0,-1.705868691E-1,3.190273643E-1
2.319983092E0,-9.747992516E0,-1.562216580E-1,3.669114113E-1
2.322470800E0,-9.714473724E0,-1.466448605E-1,4.100070298E-1
2.324958509E0,-9.704896927E0,-1.418564469E-1,4.339490533E-1
2.327446217E0,-9.676166534E0,-1.131260321E-1,5.105634928E-1
2.329933925E0,-9.637859344E0,-1.179144308E-1,5.488707423E-1
2.332421634E0,-9.618705750E0,-1.179144308E-1,5.823895931E-1
2.334909342E0,-9.604340553E0,-1.562216580E-1,6.254851818E-1
2.337397050E0,-9.594763756E0,-2.041056901E-1,6.111199856E-1
2.339884759E0,-9.585186958E0,-2.472013235E-1,5.871779919E-1
2.342372467E0,-9.566033363E0,-2.855085433E-1,5.632359385E-1
2.344860175E0,-9.527725220E0,-3.142389655E-1,5.153518915E-1
2.347347884E0,-9.475052834E0,-3.525462151E-1,4.435258508E-1
2.349835592E0,-9.427168846E0,-3.764882088E-1,3.716998100E-1
2.352323300E0,-9.403226852E0,-3.908534348E-1,3.094505668E-1
2.354811009E0,-9.369708061E0,-4.004302323E-1,2.280477136E-1
2.357298717E0,-9.369708061E0,-3.860650361E-1,1.610100716E-1
2.359786425E0,-9.398438454E0,-3.573346138E-1,9.876082093E-2
2.362274134E0,-9.441534042E0,-3.190273643E-1,4.129998013E-2
2.364761842E0,-9.465476036E0,-2.807201445E-1,7.781155407E-3
2.367249550E0,-9.518148422E0,-2.519897223E-1,-2.573766746E-2
2.369737259E0,-9.556455612E0,-2.328361124E-1,-5.446808785E-2
2.372224967E0,-9.599552155E0,-1.993172914E-1,-8.319851011E-2
2.374712675E0,-9.623494148E0,-1.753752679E-1,-1.071405262E-1
2.377200384E0,-9.695320129E0,-1.418564469E-1,-1.167173311E-1
2.379688092E0,-9.767146111E0,-7.960720360E-2,-1.215057373E-1
2.382175800E0,-9.824606895E0,-2.214636654E-2,-1.167173311E-1
2.384663509E0,-9.872490883E0,4.967968538E-2,-1.119289324E-1
2.387151217E0,-9.896432877E0,1.119289324E-1,-1.119289324E-1
2.389638925E0,-9.901221275E0,1.502361596E-1,-1.023521200E-1
2.392126634E0,-9.896432877E0,1.885433793E-1,-1.023521200E-1
2.394614342E0,-9.896432877E0,2.220622003E-1,-1.358709484E-1
2.397102050E0,-9.915586472E0,2.364274114E-1,-1.598129570E-1
2.399589759E0,-9.910798073E0,2.460042238E-1,-1.502361596E-1
2.402077467E0,-9.925163269E0,2.651578486E-1,-1.550245583E-1
2.404565175E0,-9.949105263E0,2.843114436E-1,-1.550245583E-1
2.407052884E0,-9.949105263E0,2.843114436E-1,-1.454477459E-1
2.409540592E0,-9.973047256E0,3.034650683E-1,-1.502361596E-1
2.412028300E0,-9.973047256E0,3.130418658E-1,-1.358709484E-1
2.414516009E0,-9.968258858E0,3.369838893E-1,-1.358709484E-1
2.417003717E0,-9.968258858E0,3.274070919E-1,-1.262941360E-1
2.419491425E0,-9.977835655E0,3.226186931E-1,-1.167173311E-1
2.421979134E0,-1.000177765E1,3.034650683E-1,-1.406593472E-1
2.424466842E0,-1.000177765E1,2.651578486E-1,-1.837549806E-1
2.426954550E0,-9.992200851E0,2.268506140E-1,-2.316390127E-1
2.429442259E0,-9.982624054E0,1.789665818E-1,-2.986766696E-1
2.431929967E0,-9.977835655E0,1.550245583E-1,-3.657143116E-1
2.434417675E0,-9.929951668E0,1.119289324E-1,-4.519055784E-1
2.436905384E0,-9.877279282E0,6.404489279E-2,-5.237316489E-1
2.439393092E0,-9.838972092E0,2.573766746E-2,-5.955576897E-1
2.441880800E0,-9.800664902E0,-2.693476900E-2,-6.338648796E-1
2.444368509E0,-9.776722908E0,-5.566519126E-2,-6.625953317E-1
2.446856217E0,-9.738415718E0,-8.918401599E-2,-6.625953317E-1
2.449343925E0,-9.700108528E0,-1.131260321E-1,-6.194996834E-1
2.451831634E0,-9.671378136E0,-1.610100716E-1,-5.668272376E-1
2.454319342E0,-9.637859344E0,-1.849520802E-1,-5.189431906E-1
2.456807050E0,-9.618705750E0,-1.993172914E-1,-4.614823759E-1
2.459294759E0,-9.609128952E0,-1.897404790E-1,-4.040215313E-1
2.461782467E0,-9.633070946E0,-1.657984704E-1,-3.561375141E-1
2.464270175E0,-9.647436142E0,-1.562216580E-1,-3.226186931E-1
2.466757884E0,-9.661801338E0,-1.227028370E-1,-2.747346461E-1
2.469245592E0,-9.685743332E0,-5.566519126E-2,-2.555810213E-1
2.471733300E0,-9.728838921E0,-7.781155407E-3,-2.316390127E-1
2.474221009E0,-9.757569313E0,4.489128292E-2,-2.172738016E-1
2.476708717E0,-9.800664902E0,9.756372124E-2,-1.933317930E-1
2.479196425E0,-9.824606895E0,1.454477459E-1,-1.454477459E-1
2.481684134E0,-9.862914085E0,1.789665818E-1,-1.262941360E-1
2.484171842E0,-9.896432877E0,2.268506140E-1,-8.319851011E-2
2.486659550E0,-9.910798073E0,2.603694201E-1,-7.362170517E-2
2.489147259E0,-9.939528465E0,3.130418658E-1,-5.925649032E-2
2.491634967E0,-9.963470459E0,3.513490856E-1,-5.446808785E-2
2.494122675E0,-9.996989250E0,3.944447339E-1,-4.967968538E-2
2.496610384E0,-1.002571964E1,4.231751561E-1,-5.925649032E-2
2.499098092E0,-1.005445004E1,4.662707746E-1,-6.883329898E-2
2.501585800E0,-1.008318043E1,4.854243994E-1,-9.756372124E-2
2.504073509E0,-1.011669922E1,5.093663931E-1,-1.406593472E-1
2.506561217E0,-1.013106441E1,5.380968451E-1,-1.933317930E-1
2.509048925E0,-1.014064121E1,5.572504401E-1,-2.555810213E-1
2.511536634E0,-1.015500641E1,5.476736426E-1,-3.226186931E-1
2.514024342E0,-1.014542961E1,5.524620414E-1,-3.848679364E-1
2.516512050E0,-1.012148762E1,5.668272376E-1,-4.662707746E-1
2.518999759E0,-1.009275723E1,5.668272376E-1,-5.285200477E-1
2.521487467E0,-1.005445004E1,5.620388389E-1,-5.668272376E-1
2.523975175E0,-1.001135445E1,5.380968451E-1,-5.955576897E-1
2.526462884E0,-9.968258858E0,4.950011969E-1,-6.434416771E-1
2.528950592E0,-9.939528465E0,4.519055784E-1,-6.386532784E-1
2.531438300E0,-9.910798073E0,4.375403523E-1,-6.434416771E-1
2.533926009E0,-9.882067680E0,3.944447339E-1,-6.290764809E-1
2.536413717E0,-9.853337288E0,3.513490856E-1,-6.099228859E-1
2.538901425E0,-9.819818497E0,3.226186931E-1,-5.668272376E-1
2.541389134E0,-9.805453300E0,3.082534671E-1,-5.380968451E-1
2.543876842E0,-9.771934509E0,2.747346461E-1,-5.045779943E-1
2.546364550E0,-9.767146111E0,2.220622003E-1,-4.758476019E-1
2.548852259E0,-9.757569313E0,1.933317930E-1,-4.423287511E-1
2.551339967E0,-9.781511307E0,1.741781682E-1,-4.231751561E-1
2.553827675E0,-9.795876503E0,1.502361596E-1,-4.183867574E-1
2.556315384E0,-9.824606895E0,1.502361596E-1,-4.088099301E-1
2.558803092E0,-9.829395294E0,1.358709484E-1,-3.800795078E-1
2.561290800E0,-9.862914085E0,1.598129570E-1,-3.800795078E-1
2.563778509E0,-9.896432877E0,1.837549806E-1,-3.800795078E-1
2.566266217E0,-9.949105263E0,2.124854028E-1,-3.800795078E-1
2.568753925E0,-9.987412453E0,2.460042238E-1,-3.896563351E-1
2.571241634E0,-1.000656605E1,2.747346461E-1,-4.183867574E-1
2.573729342E0,-1.002571964E1,3.130418658E-1,-4.519055784E-1
2.576217050E0,-1.006881523E1,3.609259129E-1,-4.854243994E-1
2.578704759E0,-1.011669922E1,4.327519536E-1,-5.333084464E-1
2.581192467E0,-1.019810200E1,4.902127981E-1,-5.524620414E-1
2.583680175E0,-1.026513958E1,5.620388389E-1,-6.003460884E-1
2.586167884E0,-1.031302357E1,6.147112846E-1,-6.147112846E-1
2.588655592E0,-1.035611916E1,6.673837304E-1,-6.482301354E-1
2.591143300E0,-1.037527275E1,7.152677774E-1,-6.578069329E-1
2.593631009E0,-1.042794514E1,7.439981699E-1,-7.056909800E-1
2.596118717E0,-1.047104073E1,7.727286220E-1,-7.104793787E-1
2.598606425E0,-1.047582912E1,7.535749674E-1,-7.056909800E-1
2.601094134E0,-1.043752193E1,7.200561762E-1,-6.769605279E-1
2.603581842E0,-1.037527275E1,6.721721292E-1,-6.434416771E-1
2.606069550E0,-1.027471638E1,5.764040351E-1,-5.764040351E-1
2.608557259E0,-1.018852520E1,4.902127981E-1,-5.093663931E-1
2.611044967E0,-1.007839203E1,4.040215313E-1,-4.662707746E-1
2.613532675E0,-9.977835655E0,2.986766696E-1,-3.944447339E-1
2.616020384E0,-9.882067680E0,1.885433793E-1,-3.082534671E-1
2.618508092E0,-9.786299706E0,5.925649032E-2,-2.507926226E-1
2.620995800E0,-9.695320129E0,-4.129998013E-2,-1.598129570E-1
2.623483509E0,-9.628282547E0,-1.418564469E-1,-9.756372124E-2
2.625971217E0,-9.551667213E0,-2.519897223E-1,-1.795651275E-3
2.628458925E0,-9.475052834E0,-3.190273643E-1,7.003039867E-2
2.630946634E0,-9.427168846E0,-3.860650361E-1,1.227028370E-1
2.633434342E0,-9.364919662E0,-4.387374520E-1,1.945288926E-1
2.635922050E0,-9.326612473E0,-4.770447016E-1,2.807201445E-1
2.638409759E0,-9.312247276E0,-5.201402903E-1,3.764882088E-1
2.640897467E0,-9.283516884E0,-5.488707423E-1,4.291606545E-1
2.643385175E0,-9.273940086E0,-5.823895931E-1,4.914098978E-1
2.645872884E0,-9.269151688E0,-5.823895931E-1,5.297171474E-1
2.648360592E0,-9.269151688E0,-6.015431881E-1,5.440823436E-1
2.650848300E0,-9.273940086E0,-6.254851818E-1,5.536591411E-1
2.653336009E0,-9.307458878E0,-6.063315868E-1,5.488707423E-1
2.655823717E0,-9.369708061E0,-6.015431881E-1,5.345055461E-1
2.658311425E0,-9.408015251E0,-5.919663906E-1,5.105634928E-1
2.660799134E0,-9.470264435E0,-5.632359385E-1,4.626794755E-1
2.663286842E0,-9.542090416E0,-5.392939448E-1,4.100070298E-1
2.665774550E0,-9.604340553E0,-4.866214991E-1,3.573346138E-1
2.668262259E0,-9.676166534E0,-4.435258508E-1,2.902969420E-1
2.670749967E0,-9.738415718E0,-3.764882088E-1,2.184709013E-1
2.673237675E0,-9.786299706E0,-3.190273643E-1,1.418564469E-1
2.675725384E0,-9.872490883E0,-2.663549483E-1,7.003039867E-2
2.678213092E0,-9.968258858E0,-2.232593149E-1,-3.531447425E-2
2.680700800E0,-1.003529644E1,-1.897404790E-1,-1.119289324E-1
2.683188509E0,-1.010712242E1,-1.466448605E-1,-1.310825497E-1
2.685676217E0,-1.018852520E1,-1.035492271E-1,-1.885433793E-1
2.688163925E0,-1.026992798E1,-8.918401599E-2,-2.364274114E-1
2.690651634E0,-1.035133076E1,-6.045359373E-2,-2.699462473E-1
2.693139342E0,-1.041836834E1,-2.693476900E-2,-2.890998423E-1
2.695627050E0,-1.045667553E1,6.584054790E-3,-2.843114436E-1
2.698114759E0,-1.048540592E1,1.616086066E-2,-2.843114436E-1
2.700602467E0,-1.050934792E1,2.094926499E-2,-2.795230448E-1
2.703090175E0,-1.049977112E1,6.584054790E-3,-2.555810213E-1
2.705577884E0,-1.048540592E1,-1.735796221E-2,-2.603694201E-1
2.708065592E0,-1.046146393E1,-5.566519126E-2,-2.603694201E-1
2.710553300E0,-1.041357994E1,-7.003039867E-2,-2.460042238E-1
2.713041009E0,-1.037527275E1,-8.918401599E-2,-2.507926226E-1
2.715528717E0,-1.031781197E1,-1.227028370E-1,-2.460042238E-1
2.718016425E0,-1.027950478E1,-1.849520802E-1,-2.268506140E-1
2.720504134E0,-1.022204399E1,-2.184709013E-1,-2.124854028E-1
2.722991842E0,-1.015500641E1,-2.615665495E-1,-1.885433793E-1
2.725479550E0,-1.007360363E1,-3.142389655E-1,-1.454477459E-1
2.727967259E0,-9.973047256E0,-3.477577865E-1,-1.215057373E-1
2.730454967E0,-9.915586472E0,-3.764882088E-1,-7.841010392E-2
2.732942675E0,-9.858125687E0,-4.100070298E-1,-4.967968538E-2
2.735430384E0,-9.810241699E0,-4.243722558E-1,-1.795651275E-3
2.737918092E0,-9.791088104E0,-4.531026781E-1,3.651157767E-2
2.740405800E0,-9.786299706E0,-4.770447016E-1,9.397241473E-2
2.742893509E0,-9.791088104E0,-4.722562730E-1,1.466448605E-1
2.745381217E0,-9.800664902E0,-4.674678743E-1,2.041056901E-1
2.747868925E0,-9.800664902E0,-4.435258508E-1,2.519897223E-1
2.750356634E0,-9.810241699E0,-4.052186310E-1,2.519897223E-1
2.752844342E0,-9.815030098E0,-3.908534348E-1,2.855085433E-1
2.755332050E0,-9.838972092E0,-3.716998100E-1,2.950853705E-1
2.757819759E0,-9.877279282E0,-3.238157928E-1,2.998737693E-1
2.760307467E0,-9.920374870E0,-2.950853705E-1,3.094505668E-1
2.762795175E0,-9.953893661E0,-2.759317458E-1,2.902969420E-1
2.765282884E0,-9.987412453E0,-2.424129248E-1,2.615665495E-1
2.767770592E0,-9.992200851E0,-2.184709013E-1,2.328361124E-1
2.770258300E0,-1.002093124E1,-1.849520802E-1,2.328361124E-1
2.772746009E0,-1.004966164E1,-1.562216580E-1,2.136825025E-1
2.775233717E0,-1.004487324E1,-1.179144308E-1,2.088941038E-1
2.777721425E0,-1.004487324E1,-9.397241473E-2,1.897404790E-1
2.780209134E0,-1.003050804E1,-7.003039867E-2,1.801636815E-1
2.782696842E0,-1.001135445E1,-4.129998013E-2,1.466448605E-1
2.785184550E0,-9.987412453E0,-1.735796221E-2,9.876082093E-2
2.787672259E0,-9.944316864E0,-1.256955881E-2,5.566519126E-2
2.790159967E0,-9.906009674E0,6.584054790E-3,5.566519126E-2
2.792647675E0,-9.906009674E0,2.094926499E-2,4.129998013E-2
2.795135384E0,-9.882067680E0,3.531447425E-2,2.693476900E-2
2.797623092E0,-9.858125687E0,4.967968538E-2,4.608838260E-2
2.800110800E0,-9.838972092E0,4.010287672E-2,5.087678507E-2
2.802598509E0,-9.815030098E0,1.616086066E-2,4.608838260E-2
2.805086217E0,-9.776722908E0,-7.781155407E-3,6.045359373E-2
2.807573925E0,-9.728838921E0,-4.129998013E-2,4.129998013E-2
2.810061634E0,-9.695320129E0,-6.524199992E-2,2.214636654E-2
2.812549342E0,-9.647436142E0,-1.035492271E-1,2.693476900E-2
2.815037050E0,-9.599552155E0,-1.418564469E-1,1.256955881E-2
2.817524759E0,-9.570821762E0,-1.705868691E-1,-1.795651275E-3
2.820012467E0,-9.522936821E0,-2.184709013E-1,-1.616086066E-2
2.822500175E0,-9.484629631E0,-2.519897223E-1,-7.362170517E-2
2.824987884E0,-9.422380447E0,-2.663549483E-1,-9.277531505E-2
2.827475592E0,-9.384073257E0,-2.998737693E-1,-1.215057373E-1
2.829963300E0,-9.355342865E0,-3.333925903E-1,-1.789665818E-1
2.832451009E0,-9.331400871E0,-3.716998100E-1,-2.172738016E-1
2.834938717E0,-9.317035675E0,-4.004302323E-1,-2.412158251E-1
2.837426425E0,-9.317035675E0,-4.100070298E-1,-2.843114436E-1
2.839914134E0,-9.340977669E0,-4.147954583E-1,-3.178302646E-1
2.842401842E0,-9.350554466E0,-4.195838571E-1,-3.561375141E-1
2.844889550E0,-9.398438454E0,-3.956418335E-1,-4.183867574E-1
2.847377259E0,-9.460687637E0,-3.573346138E-1,-4.566939771E-1
2.849864967E0,-9.522936821E0,-3.190273643E-1,-5.141547918E-1
2.852352675E0,-9.561244011E0,-2.663549483E-1,-5.620388389E-1
2.854840384E0,-9.628282547E0,-1.849520802E-1,-6.386532784E-1
2.857328092E0,-9.676166534E0,-1.179144308E-1,-6.865373254E-1
2.859815800E0,-9.757569313E0,-4.129998013E-2,-6.961141229E-1
2.862303509E0,-9.834183693E0,2.094926499E-2,-7.009025216E-1
2.864791217E0,-9.906009674E0,5.925649032E-2,-7.056909800E-1
2.867278925E0,-9.953893661E0,9.277531505E-2,-6.769605279E-1
2.869766634E0,-1.004487324E1,1.454477459E-1,-6.386532784E-1
2.872254342E0,-1.011191082E1,2.029085904E-1,-6.051344872E-1
2.874742050E0,-1.017416000E1,2.843114436E-1,-5.572504401E-1
2.877229759E0,-1.024119759E1,3.513490856E-1,-5.093663931E-1
2.879717467E0,-1.028908157E1,3.992331326E-1,-4.758476019E-1
2.882205175E0,-1.034175396E1,4.758476019E-1,-4.471171796E-1
2.884692884E0,-1.038006115E1,5.189431906E-1,-3.896563351E-1
2.887180592E0,-1.042794514E1,5.476736426E-1,-3.465606868E-1
2.889668300E0,-1.041836834E1,5.764040351E-1,-2.938882709E-1
2.892156009E0,-1.038963795E1,5.811924338E-1,-2.364274114E-1
2.894643717E0,-1.033217716E1,5.859808922E-1,-2.029085904E-1
2.897131425E0,-1.026992798E1,5.859808922E-1,-1.598129570E-1
2.899619134E0,-1.016937160E1,5.524620414E-1,-1.262941360E-1
2.902106842E0,-1.006402683E1,5.141547918E-1,-8.798690885E-2
2.904594550E0,-9.925163269E0,4.471171796E-1,-4.489128292E-2
2.907082259E0,-9.815030098E0,3.944447339E-1,-3.052607179E-2
2.909569967E0,-9.661801338E0,3.178302646E-1,3.651157767E-2
2.912057675E0,-9.532513618E0,2.651578486E-1,1.083376259E-1
2.914545384E0,-9.412803650E0,2.029085904E-1,1.657984704E-1
2.917033092E0,-9.317035675E0,1.454477459E-1,2.280477136E-1
2.919520800E0,-9.240421295E0,9.277531505E-2,2.807201445E-1
2.922008509E0,-9.144653320E0,3.531447425E-2,3.333925903E-1
2.924496217E0,-9.068038940E0,-4.129998013E-2,3.908534348E-1
2.926983925E0,-8.962694168E0,-9.397241473E-2,4.100070298E-1
2.929471634E0,-8.847772598E0,-1.610100716E-1,4.435258508E-1
2.931959342E0,-8.761581421E0,-2.136825025E-1,4.626794755E-1
2.934447050E0,-8.661025047E0,-2.567781210E-1,4.818331003E-1
2.936934759E0,-8.589199066E0,-2.998737693E-1,4.866214991E-1
2.939422467E0,-8.536525726E0,-3.238157928E-1,4.961982965E-1
2.941910175E0,-8.493430138E0,-3.669114113E-1,4.914098978E-1
2.944397884E0,-8.483853340E0,-3.860650361E-1,4.578910768E-1
2.946885592E0,-8.474276543E0,-4.147954583E-1,4.052186310E-1
2.949373300E0,-8.483853340E0,-4.004302323E-1,3.142389655E-1
2.951861009E0,-8.479064941E0,-3.860650361E-1,1.897404790E-1
2.954348717E0,-8.455122948E0,-3.860650361E-1,9.876082093E-2
2.956836425E0,-8.421604156E0,-4.004302323E-1,-3.531447425E-2
2.959324134E0,-8.368931770E0,-4.147954583E-1,-2.029085904E-1
2.961811842E0,-8.321047783E0,-4.004302323E-1,-3.609259129E-1
2.964299550E0,-8.268375397E0,-4.004302323E-1,-4.854243994E-1
2.966787259E0,-8.201337814E0,-4.052186310E-1,-6.147112846E-1
2.969274967E0,-8.148665428E0,-3.956418335E-1,-7.344213724E-1
2.971762675E0,-8.153453827E0,-3.860650361E-1,-8.254010081E-1
2.974250384E0,-8.148665428E0,-3.525462151E-1,-9.020155072E-1
2.976738092E0,-8.172607422E0,-3.046621680E-1,-9.403226972E-1
2.979225800E0,-8.215703011E0,-2.567781210E-1,-9.786299467E-1
2.981713509E0,-8.215703011E0,-2.184709013E-1,-9.786299467E-1
2.984201217E0,-8.182184219E0,-1.705868691E-1,-9.929951429E-1
2.986688925E0,-8.158242226E0,-1.274912357E-1,-1.016937137E0
2.989176634E0,-8.115146637E0,-1.131260321E-1,-1.036090732E0
2.991664342E0,-8.086416245E0,-9.876082093E-2,-1.045667648E0
2.994152050E0,-8.024167061E0,-8.439560980E-2,-1.060032845E0
2.996639759E0,-7.947552681E0,-7.481880486E-2,-1.050456047E0
2.999127467E0,-7.880515099E0,-7.960720360E-2,-1.031302333E0
3.001615175E0,-7.846996307E0,-7.960720360E-2,-1.007360339E0
3.004102884E0,-7.799111843E0,-7.481880486E-2,-9.546879530E-1
3.006590592E0,-7.736862659E0,-8.918401599E-2,-9.115923047E-1
3.009078300E0,-7.674613476E0,-1.035492271E-1,-8.780734539E-1
3.011566009E0,-7.593210697E0,-1.274912357E-1,-8.349778652E-1
3.014053717E0,-7.526173115E0,-1.418564469E-1,-8.014590144E-1
3.016541425E0,-7.483077526E0,-1.705868691E-1,-7.679402232E-1
3.019029134E0,-7.411251545E0,-1.993172914E-1,-7.056909800E-1
3.021516842E0,-7.372944355E0,-2.328361124E-1,-6.769605279E-1
3.024004550E0,-7.315483093E0,-2.615665495E-1,-6.147112846E-1
3.026492259E0,-7.277175903E0,-2.855085433E-1,-5.380968451E-1
3.028979967E0,-7.238868713E0,-3.190273643E-1,-4.471171796E-1
3.031467675E0,-7.224503517E0,-3.477577865E-1,-3.657143116E-1
3.033955384E0,-7.229291916E0,-3.716998100E-1,-2.747346461E-1
3.036443092E0,-7.238868713E0,-3.812766075E-1,-1.741781682E-1
3.038930800E0,-7.248445511E0,-3.956418335E-1,-9.277531505E-2
3.041418509E0,-7.253233910E0,-4.004302323E-1,-4.489128292E-2
3.043906217E0,-7.253233910E0,-3.812766075E-1,2.992752008E-3
3.046393925E0,-7.291541100E0,-3.525462151E-1,2.693476900E-2
3.048881634E0,-7.301117897E0,-3.286041915E-1,4.608838260E-2
3.051369342E0,-7.339425087E0,-2.807201445E-1,4.608838260E-2
3.053857050E0,-7.377732754E0,-2.567781210E-1,2.693476900E-2
3.056344759E0,-7.411251545E0,-2.280477136E-1,2.992752008E-3
3.058832467E0,-7.468712330E0,-2.041056901E-1,-1.137245819E-2
3.061320175E0,-7.530961514E0,-1.945288926E-1,-3.531447425E-2
3.063807884E0,-7.574057102E0,-1.753752679E-1,-4.967968538E-2
3.066295592E0,-7.626729488E0,-1.657984704E-1,-6.404489279E-2
3.068783300E0,-7.703343868E0,-1.610100716E-1,-6.883329898E-2
3.071271009E0,-7.746439457E0,-1.705868691E-1,-7.362170517E-2
3.073758769E0,-7.832630634E0,-1.514332592E-1,-6.404489279E-2
3.076246529E0,-7.909245491E0,-1.370680481E-1,-4.967968538E-2
3.078734290E0,-8.009801865E0,-1.274912357E-1,-2.573766746E-2
3.081222050E0,-8.100781441E0,-1.179144308E-1,-6.584054790E-3
3.083709811E0,-8.177395821E0,-1.179144308E-1,-1.795651275E-3
3.086197571E0,-8.249221802E0,-9.876082093E-2,-3.052607179E-2
3.088685331E0,-8.306682587E0,-6.524199992E-2,-6.883329898E-2
3.091173092E0,-8.321047783E0,-3.172317147E-2,-9.756372124E-2
3.093660852E0,-8.311470985E0,-1.735796221E-2,-1.262941360E-1
3.096148613E0,-8.325836182E0,1.616086066E-2,-1.454477459E-1
3.098636373E0,-8.321047783E0,5.446808785E-2,-1.406593472E-1
3.101124134E0,-8.306682587E0,1.023521200E-1,-6.883329898E-2
3.103611894E0,-8.306682587E0,1.502361596E-1,5.566519126E-2
3.106099654E0,-8.316259384E0,1.981201917E-1,2.088941038E-1
3.108587415E0,-8.311470985E0,2.316390127E-1,3.812766075E-1
3.111075175E0,-8.311470985E0,2.507926226E-1,5.536591411E-1
3.113562936E0,-8.316259384E0,2.795230448E-1,7.116764784E-1
3.116050696E0,-8.316259384E0,2.938882709E-1,8.792705536E-1
3.118538456E0,-8.301894188E0,2.938882709E-1,1.061229944E0
3.121026217E0,-8.263586998E0,3.321954906E-1,1.247977614E0
3.123513977E0,-8.215703011E0,3.609259129E-1,1.401206493E0
3.126001738E0,-8.110358238E0,3.417722881E-1,1.554435492E0
3.128489498E0,-7.976283073E0,3.034650683E-1,1.674145579E0
3.130977259E0,-7.837419033E0,2.507926226E-1,1.808220863E0
3.133465019E0,-7.665036678E0,2.029085904E-1,1.918354154E0
3.135952779E0,-7.497442722E0,1.262941360E-1,2.009333849E0
3.138440488E0,-7.334636688E0,3.052607179E-2,2.105101824E0
3.140928196E0,-7.200561523E0,-6.045359373E-2,2.191293001E0
3.143415904E0,-7.071274757E0,-1.610100716E-1,2.267907619E0
3.145903613E0,-6.970718384E0,-2.519897223E-1,2.344521999E0
3.148391321E0,-6.908469200E0,-3.525462151E-1,2.392405987E0
3.150879029E0,-6.841431141E0,-4.291606545E-1,2.459443808E0
3.153366738E0,-6.803123951E0,-5.249287486E-1,2.516904593E0
3.155854446E0,-6.760028362E0,-6.398503780E-1,2.574365377E0
3.158342154E0,-6.779181957E0,-7.356184721E-1,2.607884169E0
3.160829863E0,-6.798335552E0,-8.218097091E-1,2.631826162E0
3.163317571E0,-6.851007938E0,-9.415197968E-1,2.646191359E0
3.165805279E0,-6.913257599E0,-1.037287831E0,2.660556555E0
3.168292988E0,-6.975506783E0,-1.113902330E0,2.684498549E0
3.170780696E0,-7.071274757E0,-1.142632723E0,2.674921751E0
3.173268404E0,-7.195773125E0,-1.156997919E0,2.588730574E0
3.175756113E0,-7.325059891E0,-1.142632723E0,2.473809004E0
3.178243821E0,-7.468712330E0,-1.109113932E0,2.296638012E0
3.180731529E0,-7.593210697E0,-1.061229944E0,2.085948229E0
3.183219238E0,-7.693767071E0,-1.022922635E0,1.880046844E0
3.185706946E0,-7.775169849E0,-9.941922426E-1,1.659780383E0
3.188194654E0,-7.866149902E0,-9.510966539E-1,1.458667397E0
3.190682363E0,-7.961917877E0,-9.175778031E-1,1.243189216E0
3.193170071E0,-8.048109055E0,-8.744821548E-1,1.089960337E0
3.195657779E0,-8.124723434E0,-8.218097091E-1,9.223662019E-1
3.198145488E0,-8.177395821E0,-7.643488646E-1,7.547720671E-1
3.200633196E0,-8.234856606E0,-7.164648771E-1,6.206967831E-1
3.203120904E0,-8.287528992E0,-6.494272351E-1,5.153518915E-1
3.205608613E0,-8.354566574E0,-6.015431881E-1,3.956418335E-1
3.208096321E0,-8.407238960E0,-5.823895931E-1,2.998737693E-1
3.210584029E0,-8.464699745E0,-5.536591411E-1,2.184709013E-1
3.213071738E0,-8.488641739E0,-5.249287486E-1,1.610100716E-1
3.215559446E0,-8.536525726E0,-4.961982965E-1,1.322796494E-1
3.218047154E0,-8.550890923E0,-4.961982965E-1,1.274912357E-1
3.220534863E0,-8.565256119E0,-4.770447016E-1,1.227028370E-1
3.223022571E0,-8.579621315E0,-4.674678743E-1,1.466448605E-1
3.225510279E0,-8.574832916E0,-4.674678743E-1,1.801636815E-1
3.227997988E0,-8.584410667E0,-4.961982965E-1,2.088941038E-1
3.230485696E0,-8.589199066E0,-5.201402903E-1,2.472013235E-1
3.232973404E0,-8.603564262E0,-5.440823436E-1,2.855085433E-1
3.235461113E0,-8.627506256E0,-5.871779919E-1,3.525462151E-1
3.237948821E0,-8.675390244E0,-6.542156339E-1,4.147954583E-1
3.240436529E0,-8.713697433E0,-7.020996213E-1,4.866214991E-1
3.242924238E0,-8.766369820E0,-7.451952696E-1,5.297171474E-1
3.245411946E0,-8.804677010E0,-7.787141204E-1,5.728127360E-1
3.247899654E0,-8.866926193E0,-8.313865662E-1,6.254851818E-1
3.250387363E0,-8.929175377E0,-8.649053574E-1,6.302735806E-1
3.252875071E0,-8.986636162E0,-8.888474107E-1,6.590040326E-1
3.255362779E0,-9.044096947E0,-9.080010056E-1,6.685808301E-1
3.257850488E0,-9.115922928E0,-9.080010056E-1,6.829460263E-1
3.260338196E0,-9.206902504E0,-8.888474107E-1,6.829460263E-1
3.262825904E0,-9.273940086E0,-8.840589523E-1,6.877344251E-1
3.265313613E0,-9.350554466E0,-8.792705536E-1,6.685808301E-1
3.267801321E0,-9.441534042E0,-9.127894044E-1,6.350619793E-1
3.270289029E0,-9.551667213E0,-9.271546006E-1,6.206967831E-1
3.272776738E0,-9.671378136E0,-9.654618502E-1,5.871779919E-1
3.275264446E0,-9.776722908E0,-9.654618502E-1,5.536591411E-1
3.277752154E0,-9.882067680E0,-9.606734514E-1,5.009866953E-1
3.280239863E0,-9.958682060E0,-9.415197968E-1,4.435258508E-1
3.282727571E0,-1.003529644E1,-9.319429994E-1,3.860650361E-1
3.285215279E0,-1.011191082E1,-9.127894044E-1,3.286041915E-1
3.287702988E0,-1.018852520E1,-8.888474107E-1,3.190273643E-1
3.290190696E0,-1.024598598E1,-8.601169586E-1,3.094505668E-1
3.292678404E0,-1.029865837E1,-8.409633636E-1,3.046621680E-1
3.295166113E0,-1.037527275E1,-7.882909179E-1,3.094505668E-1
3.297653821E0,-1.044231033E1,-7.212532759E-1,3.094505668E-1
3.300141529E0,-1.049498272E1,-6.637924314E-1,3.381809890E-1
3.302629238E0,-1.056680965E1,-6.206967831E-1,4.052186310E-1
3.305116946E0,-1.060511684E1,-6.111199856E-1,4.866214991E-1
3.307604654E0,-1.063384724E1,-6.254851818E-1,5.536591411E-1
3.310092363E0,-1.064342403E1,-6.015431881E-1,6.302735806E-1
3.312580071E0,-1.060990524E1,-5.919663906E-1,6.925228238E-1
3.315067779E0,-1.052371311E1,-5.728127360E-1,7.547720671E-1
3.317555488E0,-1.045188713E1,-5.536591411E-1,8.170213103E-1
3.320043196E0,-1.038963795E1,-5.488707423E-1,8.265981078E-1
3.322530904E0,-1.032260036E1,-5.488707423E-1,8.457517624E-1
3.325018613E0,-1.026513958E1,-5.728127360E-1,8.649053574E-1
3.327506321E0,-1.020767879E1,-5.967547894E-1,8.936358094E-1
3.329994029E0,-1.013585281E1,-6.542156339E-1,9.080010056E-1
3.332481738E0,-1.007839203E1,-6.829460263E-1,8.936358094E-1
3.334969446E0,-1.004487324E1,-7.212532759E-1,8.696937561E-1
3.337457154E0,-1.001135445E1,-7.643488646E-1,8.649053574E-1
3.339944863E0,-9.996989250E0,-8.026561141E-1,8.984242082E-1
3.342432571E0,-9.996989250E0,-8.361749649E-1,9.319429994E-1
3.344920279E0,-9.987412453E0,-8.601169586E-1,9.223662019E-1
3.347407988E0,-9.987412453E0,-8.888474107E-1,9.271546006E-1
3.349895696E0,-9.968258858E0,-8.984242082E-1,8.888474107E-1
3.352383404E0,-9.958682060E0,-9.032126069E-1,8.505401611E-1
3.354871113E0,-9.953893661E0,-9.319429994E-1,7.882909179E-1
3.357358821E0,-9.963470459E0,-9.654618502E-1,6.973112226E-1
3.359846529E0,-9.982624054E0,-1.003769040E0,6.063315868E-1
3.362334238E0,-9.992200851E0,-1.051653147E0,5.345055461E-1
3.364821946E0,-1.003050804E1,-1.080383539E0,4.435258508E-1
3.367309654E0,-1.004487324E1,-1.128267527E0,3.812766075E-1
3.369797363E0,-1.004966164E1,-1.166574836E0,3.525462151E-1
3.372285071E0,-1.007360363E1,-1.180940032E0,3.094505668E-1
3.374772779E0,-1.007839203E1,-1.195305228E0,2.759317458E-1
3.377260488E0,-1.009275723E1,-1.224035621E0,2.519897223E-1
3.379748196E0,-1.009754562E1,-1.243189216E0,2.184709013E-1
3.382235904E0,-1.008796883E1,-1.257554412E0,1.993172914E-1
3.384723613E0,-1.009275723E1,-1.286284804E0,1.993172914E-1
3.387211321E0,-1.007839203E1,-1.305438519E0,1.897404790E-1
3.389699029E0,-1.006402683E1,-1.324592113E0,2.184709013E-1
3.392186738E0,-1.004008484E1,-1.353322506E0,2.328361124E-1
3.394674446E0,-9.996989250E0,-1.372476101E0,2.328361124E-1
3.397162154E0,-9.958682060E0,-1.382052898E0,2.376245260E-1
3.399649863E0,-9.934740067E0,-1.382052898E0,2.519897223E-1
3.402137571E0,-9.867702484E0,-1.367687702E0,2.807201445E-1
3.404625279E0,-9.805453300E0,-1.329380512E0,3.238157928E-1
3.407112988E0,-9.738415718E0,-1.271919608E0,4.147954583E-1
3.409600696E0,-9.657012939E0,-1.219247222E0,5.057750940E-1
3.412088404E0,-9.609128952E0,-1.185728431E0,6.063315868E-1
3.414576113E0,-9.551667213E0,-1.176151633E0,7.164648771E-1
3.417063821E0,-9.522936821E0,-1.176151633E0,8.265981078E-1
3.419551529E0,-9.498994827E0,-1.176151633E0,9.080010056E-1
3.422039238E0,-9.479841232E0,-1.190516829E0,1.008557439E0
3.424526946E0,-9.470264435E0,-1.195305228E0,1.066018343E0
3.427014654E0,-9.451110840E0,-1.200093627E0,1.085171938E0
3.429502363E0,-9.427168846E0,-1.190516829E0,1.089960337E0
3.431990071E0,-9.393650055E0,-1.190516829E0,1.089960337E0
3.434477779E0,-9.360131264E0,-1.204882026E0,1.066018343E0
3.436965488E0,-9.312247276E0,-1.200093627E0,1.022922635E0
3.439453196E0,-9.259574890E0,-1.214458823E0,9.846154451E-1
3.441940904E0,-9.206902504E0,-1.209670424E0,9.367313981E-1
3.444428613E0,-9.149441719E0,-1.228824019E0,8.936358094E-1
3.446916321E0,-9.111134529E0,-1.257554412E0,8.744821548E-1
3.449404029E0,-9.072827339E0,-1.291073322E0,8.888474107E-1
3.451891738E0,-9.048885345E0,-1.329380512E0,9.223662019E-1
3.454379446E0,-9.034520149E0,-1.372476101E0,9.798270464E-1
3.456867154E0,-9.039308548E0,-1.420360208E0,1.032499433E0
3.459354863E0,-9.044096947E0,-1.487397790E0,1.109113932E0
3.461842571E0,-9.048885345E0,-1.549647093E0,1.166574836E0
3.464330279E0,-9.048885345E0,-1.611896276E0,1.224035621E0
3.466817988E0,-9.058462143E0,-1.664568782E0,1.257554412E0
3.469305696E0,-9.077615738E0,-1.717241168E0,1.291073322E0
3.471793404E0,-9.106346130E0,-1.745971560E0,1.300650120E0
3.474281113E0,-9.135076523E0,-1.774701953E0,1.310226917E0
3.476768821E0,-9.178172112E0,-1.803432465E0,1.372476101E0
3.479256529E0,-9.254786491E0,-1.817797661E0,1.420360208E0
3.481744238E0,-9.336189270E0,-1.827374458E0,1.482609391E0
3.484231946E0,-9.403226852E0,-1.822586060E0,1.516128182E0
3.486719654E0,-9.479841232E0,-1.836951256E0,1.554435492E0
3.489207363E0,-9.546878815E0,-1.808220863E0,1.578377485E0
3.491695071E0,-9.604340553E0,-1.784278870E0,1.587954283E0
3.494182779E0,-9.666589737E0,-1.731606364E0,1.592742682E0
3.496670488E0,-9.709685326E0,-1.654991984E0,1.611896276E0
3.499158196E0,-9.743204117E0,-1.540070295E0,1.650203466E0
3.501645904E0,-9.776722908E0,-1.415571809E0,1.698087573E0
3.504133613E0,-9.776722908E0,-1.281496406E0,1.731606364E0
3.506621321E0,-9.767146111E0,-1.161786318E0,1.741183162E0
3.509109029E0,-9.752780914E0,-1.056441545E0,1.765125155E0
3.511596738E0,-9.733627319E0,-1.003769040E0,1.779490471E0
3.514084446E0,-9.690531731E0,-9.941922426E-1,1.789067268E0
3.516572154E0,-9.652224541E0,-1.018134236E0,1.793855667E0
3.519059863E0,-9.623494148E0,-1.061229944E0,1.817797661E0
3.521547571E0,-9.585186958E0,-1.099537134E0,1.846528053E0
3.524035279E0,-9.527725220E0,-1.142632723E0,1.856104851E0
3.526522988E0,-9.446322441E0,-1.180940032E0,1.860893250E0
3.529010696E0,-9.364919662E0,-1.219247222E0,1.880046844E0
3.531498404E0,-9.273940086E0,-1.252766013E0,1.880046844E0
3.533986113E0,-9.178172112E0,-1.281496406E0,1.860893250E0
3.536473821E0,-9.120711327E0,-1.305438519E0,1.860893250E0
3.538961529E0,-9.087192535E0,-1.367687702E0,1.870470047E0
3.541449238E0,-9.068038940E0,-1.453878999E0,1.932719350E0
3.543936946E0,-9.063250542E0,-1.520916581E0,1.994968534E0
3.546424654E0,-9.044096947E0,-1.592742682E0,2.028487444E0
3.548912363E0,-9.077615738E0,-1.659780383E0,2.076371431E0
3.551400071E0,-9.106346130E0,-1.712452769E0,2.109890223E0
3.553887779E0,-9.139864922E0,-1.769913554E0,2.143409014E0
3.556375488E0,-9.178172112E0,-1.822586060E0,2.148197412E0
3.558863196E0,-9.230844498E0,-1.851316452E0,2.152985811E0
3.561350904E0,-9.293093681E0,-1.884835243E0,2.124255419E0
3.563838613E0,-9.336189270E0,-1.899200439E0,2.081159830E0
3.566326321E0,-9.388861656E0,-1.932719350E0,1.994968534E0
3.568814029E0,-9.451110840E0,-1.951872945E0,1.932719350E0
3.571301738E0,-9.503783226E0,-1.961449742E0,1.870470047E0
3.573789446E0,-9.551667213E0,-1.956661344E0,1.793855667E0
3.576277154E0,-9.594763756E0,-1.951872945E0,1.702875972E0
3.578764863E0,-9.609128952E0,-1.956661344E0,1.659780383E0
3.581252571E0,-9.628282547E0,-1.994968534E0,1.602319479E0
3.583740279E0,-9.609128952E0,-2.018910646E0,1.530493379E0
3.586227988E0,-9.585186958E0,-2.052429438E0,1.482609391E0
3.588715696E0,-9.532513618E0,-2.071583033E0,1.425148606E0
3.591203404E0,-9.465476036E0,-2.114678621E0,1.382052898E0
3.593691113E0,-9.403226852E0,-2.119467020E0,1.343745708E0
3.596178821E0,-9.345766068E0,-2.114678621E0,1.319803715E0
3.598666529E0,-9.288305283E0,-2.090736628E0,1.262342811E0
3.601154238E0,-9.245209694E0,-2.057217836E0,1.219247222E0
3.603641946E0,-9.206902504E0,-2.028487444E0,1.195305228E0
3.606129654E0,-9.149441719E0,-1.985391736E0,1.171363235E0
3.608617363E0,-9.120711327E0,-1.951872945E0,1.137844324E0
3.611105071E0,-9.115922928E0,-1.923142552E0,1.128267527E0
3.613592779E0,-9.154230118E0,-1.894412041E0,1.152209520E0
3.616080488E0,-9.197325706E0,-1.880046844E0,1.180940032E0
3.618568196E0,-9.235632896E0,-1.846528053E0,1.195305228E0
3.621055904E0,-9.264363289E0,-1.856104851E0,1.195305228E0
3.623543613E0,-9.269151688E0,-1.875258446E0,1.252766013E0
3.626031321E0,-9.273940086E0,-1.908777356E0,1.291073322E0
3.628519029E0,-9.273940086E0,-1.927930951E0,1.362899303E0
3.631006738E0,-9.293093681E0,-1.937507749E0,1.482609391E0
3.633494446E0,-9.307458878E0,-1.951872945E0,1.616684675E0
3.635982154E0,-9.331400871E0,-1.947084546E0,1.769913554E0
3.638469863E0,-9.379284859E0,-1.951872945E0,1.894412041E0
3.640957571E0,-9.431957245E0,-1.990180135E0,2.023699045E0
3.643445279E0,-9.489418030E0,-2.009333849E0,2.100313425E0
3.645932988E0,-9.575610161E0,-2.047641039E0,2.114678621E0
3.648420696E0,-9.657012939E0,-2.105101824E0,2.105101824E0
3.650908404E0,-9.752780914E0,-2.172139406E0,2.085948229E0
3.653396113E0,-9.834183693E0,-2.215235233E0,2.052429438E0
3.655883821E0,-9.910798073E0,-2.248754025E0,1.990180135E0
3.658371529E0,-9.977835655E0,-2.263119221E0,1.923142552E0
3.660859238E0,-1.005445004E1,-2.267907619E0,1.813009262E0
3.663346946E0,-1.013106441E1,-2.282272816E0,1.688510776E0
3.665834654E0,-1.017894840E1,-2.277484417E0,1.535281897E0
3.668322363E0,-1.022683239E1,-2.277484417E0,1.401206493E0
3.670810071E0,-1.026513958E1,-2.253542423E0,1.238400817E0
3.673297779E0,-1.027471638E1,-2.239177227E0,1.118690729E0
3.675785488E0,-1.029386997E1,-2.234388828E0,1.008557439E0
3.678273196E0,-1.032738876E1,-2.205658197E0,9.223662019E-1
3.680760904E0,-1.036569595E1,-2.167351007E0,8.457517624E-1
3.683248613E0,-1.038484955E1,-2.119467020E0,8.074445128E-1
3.685736321E0,-1.039921474E1,-2.076371431E0,7.882909179E-1
3.688224029E0,-1.039442635E1,-2.023699045E0,7.356184721E-1
3.690711738E0,-1.036569595E1,-1.956661344E0,6.925228238E-1
3.693199446E0,-1.032738876E1,-1.894412041E0,6.494272351E-1
3.695687154E0,-1.026992798E1,-1.798644066E0,5.967547894E-1
3.698174863E0,-1.022204399E1,-1.726817966E0,5.153518915E-1
3.700662571E0,-1.015021801E1,-1.659780383E0,4.435258508E-1
3.703150279E0,-1.009275723E1,-1.621473074E0,3.908534348E-1
3.705637988E0,-1.004008484E1,-1.616684675E0,3.429693878E-1
3.708125696E0,-9.996989250E0,-1.631049871E0,3.286041915E-1
3.710613404E0,-9.996989250E0,-1.621473074E0,3.238157928E-1
3.713101113E0,-9.977835655E0,-1.650203466E0,3.190273643E-1
3.715588821E0,-9.982624054E0,-1.678933978E0,3.238157928E-1
3.718076529E0,-1.002571964E1,-1.731606364E0,3.333925903E-1
3.720564238E0,-1.007839203E1,-1.817797661E0,3.669114113E-1
3.723051946E0,-1.013106441E1,-1.951872945E0,4.531026781E-1
3.725539654E0,-1.023640919E1,-2.085948229E0,5.536591411E-1
3.728027363E0,-1.033696556E1,-2.229600430E0,6.685808301E-1
3.730515071E0,-1.045188713E1,-2.344521999E0,8.218097091E-1
3.733002779E0,-1.051413631E1,-2.449866772E0,1.008557439E0
3.735490488E0,-1.053807831E1,-2.502539396E0,1.204882026E0
3.737978196E0,-1.057638645E1,-2.526481390E0,1.405994892E0
3.740465904E0,-1.058596325E1,-2.536058187E0,1.602319479E0
3.742953613E0,-1.060511684E1,-2.536058187E0,1.793855667E0
3.745441321E0,-1.062427044E1,-2.555211782E0,1.980603337E0
3.747929029E0,-1.064821243E1,-2.545634985E0,2.119467020E0
3.750416738E0,-1.066736603E1,-2.555211782E0,2.258330822E0
3.752904446E0,-1.070088482E1,-2.536058187E0,2.339733601E0
3.755392154E0,-1.072482681E1,-2.526481390E0,2.382829189E0
3.757879863E0,-1.074876881E1,-2.488174200E0,2.397194386E0
3.760367571E0,-1.081580639E1,-2.435501575E0,2.325368404E0
3.762855279E0,-1.088284397E1,-2.382829189E0,2.215235233E0
3.765342988E0,-1.094988155E1,-2.325368404E0,2.071583033E0
3.767830696E0,-1.102170753E1,-2.258330822E0,1.908777356E0
3.770318456E0,-1.109353352E1,-2.205658197E0,1.736394763E0
3.772806217E0,-1.117972469E1,-2.172139406E0,1.540070295E0
3.775293977E0,-1.127070427E1,-2.138620615E0,1.386841297E0
3.777781738E0,-1.134253025E1,-2.124255419E0,1.276708007E0
3.780269498E0,-1.140956783E1,-2.129043818E0,1.176151633E0
3.782757259E0,-1.145745182E1,-2.162562609E0,1.104325533E0
3.785245019E0,-1.151491261E1,-2.191293001E0,1.075595140E0
3.787732779E0,-1.153885555E1,-2.243965626E0,1.056441545E0
3.790220540E0,-1.153406715E1,-2.306214809E0,1.056441545E0
3.792708300E0,-1.152927876E1,-2.330156803E0,1.056441545E0
3.795196061E0,-1.148139381E1,-2.368463993E0,1.070806742E0
3.797683821E0,-1.145745182E1,-2.373252392E0,1.070806742E0
3.800171581E0,-1.139041424E1,-2.368463993E0,1.094748735E0
3.802659342E0,-1.128506947E1,-2.378040791E0,1.089960337E0
3.805147102E0,-1.117014790E1,-2.387617588E0,1.094748735E0
3.807634863E0,-1.106001472E1,-2.406771183E0,1.094748735E0
3.810122623E0,-1.095945835E1,-2.440289974E0,1.094748735E0
3.812610384E0,-1.085890198E1,-2.507327795E0,1.066018343E0
3.815098144E0,-1.077749920E1,-2.583942175E0,1.037287831E0
3.817585904E0,-1.068651962E1,-2.679710150E0,1.022922635E0
3.820073665E0,-1.061469364E1,-2.775478363E0,1.022922635E0
3.822561425E0,-1.054765606E1,-2.847304344E0,1.037287831E0
3.825049186E0,-1.055244446E1,-2.899976730E0,1.080383539E0
3.827536946E0,-1.055723286E1,-2.957437754E0,1.156997919E0
3.830024706E0,-1.058596325E1,-2.986168146E0,1.286284804E0
3.832512467E0,-1.060990524E1,-2.971802950E0,1.420360208E0
3.835000227E0,-1.063384724E1,-2.957437754E0,1.568800688E0
3.837487988E0,-1.064342403E1,-2.943072557E0,1.731606364E0
3.839975696E0,-1.067694283E1,-2.923918724E0,1.865681648E0
3.842463404E0,-1.071046162E1,-2.923918724E0,1.975814939E0
3.844951113E0,-1.073440361E1,-2.909553528E0,2.085948229E0
3.847438821E0,-1.075834560E1,-2.904765129E0,2.196081400E0
3.849926529E0,-1.080622959E1,-2.904765129E0,2.272696018E0
3.852414238E0,-1.083495998E1,-2.909553528E0,2.358887196E0
3.854901946E0,-1.085890198E1,-2.943072557E0,2.454655409E0
3.857389654E0,-1.085411358E1,-2.995744944E0,2.588730574E0
3.859877363E0,-1.082538319E1,-3.005321741E0,2.646191359E0
3.862365071E0,-1.085411358E1,-2.976591349E0,2.684498549E0
3.864852779E0,-1.088284397E1,-2.933495522E0,2.694075346E0
3.867340488E0,-1.092593956E1,-2.904765129E0,2.751536369E0
3.869828196E0,-1.092115116E1,-2.890399933E0,2.751536369E0
3.872315904E0,-1.091157436E1,-2.895188332E0,2.732382774E0
3.874803613E0,-1.092115116E1,-2.899976730E0,2.698863983E0
3.877291321E0,-1.093072796E1,-2.895188332E0,2.641402960E0
3.879779029E0,-1.094509315E1,-2.885611534E0,2.574365377E0
3.882266738E0,-1.093551636E1,-2.928707123E0,2.507327795E0
3.884754446E0,-1.092593956E1,-2.957437754E0,2.449866772E0
3.887242154E0,-1.091636276E1,-2.967014551E0,2.392405987E0
3.889729863E0,-1.088763237E1,-3.000533342E0,2.315791607E0
3.892217571E0,-1.084932518E1,-3.005321741E0,2.253542423E0
3.894705279E0,-1.079186440E1,-3.014898539E0,2.176927805E0
3.897192988E0,-1.070567322E1,-3.034052134E0,2.109890223E0
3.899680696E0,-1.062905884E1,-3.057994127E0,2.028487444E0
3.902168404E0,-1.052850151E1,-3.081936121E0,1.942296147E0
3.904656113E0,-1.044709873E1,-3.110666513E0,1.846528053E0
3.907143821E0,-1.036569595E1,-3.182492495E0,1.750759959E0
3.909631529E0,-1.032260036E1,-3.235165119E0,1.678933978E0
3.912119238E0,-1.028429317E1,-3.306991100E0,1.626261473E0
3.914606946E0,-1.027471638E1,-3.359663486E0,1.602319479E0
3.917094654E0,-1.028429317E1,-3.383605480E0,1.602319479E0
3.919582363E0,-1.028429317E1,-3.407547474E0,1.611896276E0
3.922070071E0,-1.028429317E1,-3.407547474E0,1.654991984E0
3.924557779E0,-1.025556278E1,-3.397970676E0,1.707664371E0
3.927045488E0,-1.024119759E1,-3.374028683E0,1.750759959E0
3.929533196E0,-1.018373680E1,-3.330933094E0,1.784278870E0
3.932020904E0,-1.013106441E1,-3.292625904E0,1.808220863E0
3.934508613E0,-1.004487324E1,-3.230376720E0,1.846528053E0
3.936996321E0,-9.982624054E0,-3.148973703E0,1.908777356E0
3.939484029E0,-9.915586472E0,-3.081936121E0,1.971026540E0
3.941971738E0,-9.843760490E0,-3.010110140E0,2.042852640E0
3.944459446E0,-9.771934509E0,-2.962226152E0,2.114678621E0
3.946947154E0,-9.738415718E0,-2.923918724E0,2.176927805E0
3.949434863E0,-9.704896927E0,-2.899976730E0,2.272696018E0
3.951922571E0,-9.666589737E0,-2.871246338E0,2.349310398E0
3.954410279E0,-9.637859344E0,-2.852092743E0,2.401982784E0
3.956897988E0,-9.594763756E0,-2.842515945E0,2.469020605E0
3.959385696E0,-9.566033363E0,-2.832939148E0,2.521692991E0
3.961873404E0,-9.532513618E0,-2.808997154E0,2.555211782E0
3.964361113E0,-9.465476036E0,-2.770689964E0,2.555211782E0
3.966848821E0,-9.417592049E0,-2.722805977E0,2.555211782E0
3.969336529E0,-9.355342865E0,-2.708440781E0,2.555211782E0
3.971824238E0,-9.336189270E0,-2.689286947E0,2.512116194E0
3.974311946E0,-9.336189270E0,-2.689286947E0,2.497750998E0
3.976799654E0,-9.369708061E0,-2.679710150E0,2.449866772E0
3.979287363E0,-9.412803650E0,-2.698863983E0,2.435501575E0
3.981775071E0,-9.484629631E0,-2.694075346E0,2.406771183E0
3.984262779E0,-9.589975357E0,-2.689286947E0,2.397194386E0
3.986750488E0,-9.671378136E0,-2.665344954E0,2.363675594E0
3.989238196E0,-9.762357712E0,-2.631826162E0,2.339733601E0
3.991725904E0,-9.843760490E0,-2.560000181E0,2.315791607E0
3.994213613E0,-9.915586472E0,-2.469020605E0,2.320580006E0
3.996701321E0,-9.982624054E0,-2.358887196E0,2.315791607E0
3.999189029E0,-1.004487324E1,-2.277484417E0,2.325368404E0
4.001676738E0,-1.007839203E1,-2.186504602E0,2.320580006E0
4.004164446E0,-1.010712242E1,-2.143409014E0,2.291849613E0
4.006652154E0,-1.012148762E1,-2.114678621E0,2.248754025E0
4.009139863E0,-1.012627602E1,-2.138620615E0,2.186504602E0
4.011627571E0,-1.010233402E1,-2.176927805E0,2.133832216E0
4.014115279E0,-1.007839203E1,-2.291849613E0,2.090736628E0
4.016602988E0,-1.002093124E1,-2.488174200E0,2.114678621E0
4.019090696E0,-9.815030098E0,-2.679710150E0,2.066794634E0
4.021578404E0,-9.594763756E0,-2.674921751E0,1.856104851E0
4.024066113E0,-9.475052834E0,-2.483385801E0,1.597531080E0
4.026553821E0,-9.417592049E0,-2.272696018E0,1.396418095E0
4.029041529E0,-9.379284859E0,-2.157774210E0,1.291073322E0
4.031529238E0,-9.331400871E0,-2.129043818E0,1.214458823E0
4.034016946E0,-9.326612473E0,-2.162562609E0,1.224035621E0
4.036504654E0,-9.307458878E0,-2.248754025E0,1.271919608E0
4.038992363E0,-9.297882080E0,-2.349310398E0,1.348534107E0
4.041480071E0,-9.317035675E0,-2.483385801E0,1.434725404E0
4.043967779E0,-9.312247276E0,-2.607884169E0,1.501762986E0
4.046455488E0,-9.264363289E0,-2.684498549E0,1.564012289E0
4.048943196E0,-9.211690903E0,-2.746747971E0,1.645415068E0
4.051430904E0,-9.135076523E0,-2.804208755E0,1.741183162E0
4.053918613E0,-9.039308548E0,-2.842515945E0,1.808220863E0
4.056406321E0,-8.957905769E0,-2.832939148E0,1.880046844E0
4.058894029E0,-8.900444984E0,-2.823362350E0,1.923142552E0
4.061381738E0,-8.871714592E0,-2.818573952E0,1.923142552E0
4.063869446E0,-8.847772598E0,-2.813785553E0,1.918354154E0
4.066357154E0,-8.823830605E0,-2.804208755E0,1.927930951E0
4.068844863E0,-8.838195801E0,-2.804208755E0,1.927930951E0
4.071332571E0,-8.895656586E0,-2.823362350E0,1.918354154E0
4.073820279E0,-8.914810181E0,-2.818573952E0,1.927930951E0
4.076307988E0,-8.972270966E0,-2.828150749E0,1.918354154E0
4.078795696E0,-9.044096947E0,-2.828150749E0,1.908777356E0
4.081283404E0,-9.101557732E0,-2.823362350E0,1.913565755E0
4.083771113E0,-9.187748909E0,-2.804208755E0,1.903988957E0
4.086258821E0,-9.254786491E0,-2.770689964E0,1.889623642E0
4.088746529E0,-9.317035675E0,-2.761113167E0,1.870470047E0
4.091234238E0,-9.403226852E0,-2.756324768E0,1.865681648E0
4.093721946E0,-9.479841232E0,-2.741959572E0,1.846528053E0
4.096209654E0,-9.542090416E0,-2.722805977E0,1.827374458E0
4.098697363E0,-9.609128952E0,-2.718017578E0,1.817797661E0
4.101185071E0,-9.647436142E0,-2.708440781E0,1.808220863E0
4.103672779E0,-9.695320129E0,-2.703652382E0,1.803432465E0
4.106160488E0,-9.752780914E0,-2.689286947E0,1.803432465E0
4.108648196E0,-9.791088104E0,-2.674921751E0,1.798644066E0
4.111135904E0,-9.810241699E0,-2.665344954E0,1.798644066E0
4.113623613E0,-9.829395294E0,-2.646191359E0,1.789067268E0
4.116111321E0,-9.815030098E0,-2.622249365E0,1.769913554E0
4.118599029E0,-9.786299706E0,-2.622249365E0,1.769913554E0
4.121086738E0,-9.771934509E0,-2.612672567E0,1.741183162E0
4.123574446E0,-9.724050522E0,-2.622249365E0,1.745971560E0
4.126062154E0,-9.685743332E0,-2.598307371E0,1.755548358E0
4.128549863E0,-9.657012939E0,-2.583942175E0,1.760336757E0
4.131037571E0,-9.647436142E0,-2.569576979E0,1.774701953E0
4.133525279E0,-9.637859344E0,-2.555211782E0,1.789067268E0
4.136012988E0,-9.628282547E0,-2.545634985E0,1.793855667E0
4.138500696E0,-9.647436142E0,-2.521692991E0,1.793855667E0
4.140988404E0,-9.666589737E0,-2.497750998E0,1.822586060E0
4.143476113E0,-9.676166534E0,-2.454655409E0,1.827374458E0
4.145963821E0,-9.685743332E0,-2.421136379E0,1.865681648E0
4.148451529E0,-9.709685326E0,-2.397194386E0,1.903988957E0
4.150939238E0,-9.743204117E0,-2.387617588E0,1.918354154E0
4.153426946E0,-9.747992516E0,-2.354098797E0,1.923142552E0
4.155914654E0,-9.767146111E0,-2.306214809E0,1.932719350E0
4.158402363E0,-9.795876503E0,-2.282272816E0,1.937507749E0
4.160890071E0,-9.815030098E0,-2.272696018E0,1.956661344E0
4.163377779E0,-9.824606895E0,-2.282272816E0,1.985391736E0
4.165865488E0,-9.853337288E0,-2.296638012E0,1.971026540E0
4.168353196E0,-9.886856079E0,-2.339733601E0,1.980603337E0
4.170840904E0,-9.896432877E0,-2.392405987E0,1.975814939E0
4.173328613E0,-9.910798073E0,-2.435501575E0,1.980603337E0
4.175816321E0,-9.896432877E0,-2.488174200E0,1.971026540E0
4.178304029E0,-9.886856079E0,-2.555211782E0,1.971026540E0
4.180791738E0,-9.910798073E0,-2.583942175E0,1.956661344E0
4.183279446E0,-9.891644478E0,-2.607884169E0,1.966238141E0
4.185767154E0,-9.858125687E0,-2.607884169E0,1.971026540E0
4.188254863E0,-9.824606895E0,-2.593518972E0,1.994968534E0
4.190742571E0,-9.791088104E0,-2.598307371E0,2.009333849E0
4.193230279E0,-9.747992516E0,-2.579153776E0,2.028487444E0
4.195717988E0,-9.724050522E0,-2.579153776E0,2.047641039E0
4.198205696E0,-9.690531731E0,-2.588730574E0,2.057217836E0
4.200693404E0,-9.657012939E0,-2.588730574E0,2.081159830E0
4.203181113E0,-9.642647743E0,-2.627037764E0,2.100313425E0
4.205668821E0,-9.633070946E0,-2.660556555E0,2.114678621E0
4.208156529E0,-9.623494148E0,-2.698863983E0,2.114678621E0
4.210644238E0,-9.604340553E0,-2.718017578E0,2.143409014E0
4.213131946E0,-9.599552155E0,-2.751536369E0,2.181716204E0
4.215619654E0,-9.613917351E0,-2.775478363E0,2.234388828E0
4.218107363E0,-9.642647743E0,-2.813785553E0,2.258330822E0
4.220595071E0,-9.647436142E0,-2.828150749E0,2.287061214E0
4.223082779E0,-9.633070946E0,-2.890399933E0,2.306214809E0
4.225570488E0,-9.628282547E0,-2.933495522E0,2.334945202E0
4.228058196E0,-9.613917351E0,-2.976591349E0,2.349310398E0
4.230545904E0,-9.585186958E0,-3.014898539E0,2.344521999E0
4.233033613E0,-9.570821762E0,-3.038840532E0,2.368463993E0
4.235521321E0,-9.546878815E0,-3.053205729E0,2.368463993E0
4.238009029E0,-9.532513618E0,-3.067570925E0,2.363675594E0
4.240496738E0,-9.537302017E0,-3.072359324E0,2.354098797E0
4.242984446E0,-9.542090416E0,-3.086724520E0,2.315791607E0
4.245472154E0,-9.546878815E0,-3.067570925E0,2.301426411E0
4.247959863E0,-9.542090416E0,-3.048417330E0,2.272696018E0
4.250447571E0,-9.556455612E0,-3.010110140E0,2.243965626E0
4.252935279E0,-9.561244011E0,-2.962226152E0,2.229600430E0
4.255422988E0,-9.589975357E0,-2.914341927E0,2.220023632E0
4.257910696E0,-9.589975357E0,-2.847304344E0,2.186504602E0
4.260398404E0,-9.604340553E0,-2.799420357E0,2.172139406E0
4.262886113E0,-9.599552155E0,-2.761113167E0,2.133832216E0
4.265373821E0,-9.618705750E0,-2.722805977E0,2.090736628E0
4.267861529E0,-9.599552155E0,-2.698863983E0,2.028487444E0
4.270349238E0,-9.604340553E0,-2.670133352E0,1.990180135E0
4.272836946E0,-9.613917351E0,-2.646191359E0,1.908777356E0
4.275324654E0,-9.647436142E0,-2.622249365E0,1.841739655E0
4.277812363E0,-9.661801338E0,-2.603095770E0,1.789067268E0
4.280300071E0,-9.690531731E0,-2.583942175E0,1.736394763E0
4.282787779E0,-9.714473724E0,-2.564788580E0,1.693299174E0
4.285275540E0,-9.743204117E0,-2.536058187E0,1.640626669E0
4.287763300E0,-9.786299706E0,-2.521692991E0,1.626261473E0
4.290251061E0,-9.819818497E0,-2.488174200E0,1.611896276E0
4.292738821E0,-9.867702484E0,-2.445078373E0,1.616684675E0
4.295226581E0,-9.915586472E0,-2.401982784E0,1.607107878E0
4.297714342E0,-9.977835655E0,-2.373252392E0,1.597531080E0
4.300202102E0,-1.004487324E1,-2.339733601E0,1.592742682E0
4.302689863E0,-1.011191082E1,-2.330156803E0,1.611896276E0
4.305177623E0,-1.015500641E1,-2.339733601E0,1.607107878E0
4.307665384E0,-1.018373680E1,-2.363675594E0,1.597531080E0
4.310153144E0,-1.020289040E1,-2.392405987E0,1.583165884E0
4.312640904E0,-1.015979481E1,-2.440289974E0,1.568800688E0
4.315128665E0,-1.012148762E1,-2.512116194E0,1.535281897E0
4.317616425E0,-1.006881523E1,-2.583942175E0,1.525704980E0
4.320104186E0,-1.002093124E1,-2.631826162E0,1.530493379E0
4.322591946E0,-9.944316864E0,-2.718017578E0,1.530493379E0
4.325079706E0,-9.867702484E0,-2.794631958E0,1.530493379E0
4.327567467E0,-9.791088104E0,-2.856881142E0,1.544858694E0
4.330055227E0,-9.704896927E0,-2.938283920E0,1.583165884E0
4.332542988E0,-9.613917351E0,-3.000533342E0,1.616684675E0
4.335030748E0,-9.532513618E0,-3.048417330E0,1.650203466E0
4.337518509E0,-9.460687637E0,-3.105878115E0,1.712452769E0
4.340006269E0,-9.374496460E0,-3.148973703E0,1.760336757E0
4.342494029E0,-9.302670479E0,-3.201646328E0,1.808220863E0
4.344981790E0,-9.202114105E0,-3.249530315E0,1.865681648E0
4.347469550E0,-9.096769333E0,-3.292625904E0,1.903988957E0
4.349957311E0,-9.024943352E0,-3.330933094E0,1.947084546E0
4.352445071E0,-8.967482567E0,-3.350086689E0,2.009333849E0
4.354932831E0,-8.910021782E0,-3.326144695E0,2.042852640E0
4.357420540E0,-8.895656586E0,-3.302202702E0,2.100313425E0
4.359908248E0,-8.905233383E0,-3.263895512E0,2.172139406E0
4.362395956E0,-8.933963776E0,-3.196857929E0,2.205658197E0
4.364883665E0,-8.986636162E0,-3.148973703E0,2.239177227E0
4.367371373E0,-9.020154953E0,-3.096301317E0,2.287061214E0
4.369859081E0,-9.063250542E0,-3.029263735E0,2.315791607E0
4.372346790E0,-9.111134529E0,-2.943072557E0,2.339733601E0
4.374834498E0,-9.144653320E0,-2.866457939E0,2.325368404E0
4.377322206E0,-9.192537308E0,-2.794631958E0,2.334945202E0
4.379809915E0,-9.235632896E0,-2.746747971E0,2.311003208E0
4.382297623E0,-9.249998093E0,-2.684498549E0,2.263119221E0
4.384785331E0,-9.273940086E0,-2.631826162E0,2.234388828E0
4.387273040E0,-9.288305283E0,-2.579153776E0,2.229600430E0
4.389760748E0,-9.302670479E0,-2.512116194E0,2.186504602E0
4.392248456E0,-9.288305283E0,-2.473809004E0,2.167351007E0
4.394736165E0,-9.293093681E0,-2.416347980E0,2.143409014E0
4.397223873E0,-9.278728485E0,-2.382829189E0,2.119467020E0
4.399711581E0,-9.254786491E0,-2.349310398E0,2.109890223E0
4.402199290E0,-9.249998093E0,-2.320580006E0,2.081159830E0
4.404686998E0,-9.226056099E0,-2.301426411E0,2.042852640E0
4.407174706E0,-9.202114105E0,-2.263119221E0,1.990180135E0
4.409662415E0,-9.197325706E0,-2.253542423E0,1.923142552E0
4.412150123E0,-9.202114105E0,-2.253542423E0,1.880046844E0
4.414637831E0,-9.206902504E0,-2.243965626E0,1.836951256E0
4.417125540E0,-9.226056099E0,-2.248754025E0,1.808220863E0
4.419613248E0,-9.230844498E0,-2.263119221E0,1.760336757E0
4.422100956E0,-9.221267700E0,-2.277484417E0,1.722029567E0
4.424588665E0,-9.216479301E0,-2.291849613E0,1.693299174E0
4.427076373E0,-9.202114105E0,-2.315791607E0,1.654991984E0
4.429564081E0,-9.154230118E0,-2.339733601E0,1.631049871E0
4.432051790E0,-9.101557732E0,-2.349310398E0,1.602319479E0
4.434539498E0,-9.058462143E0,-2.382829189E0,1.568800688E0
4.437027206E0,-9.001001358E0,-2.421136379E0,1.544858694E0
4.439514915E0,-8.967482567E0,-2.459443808E0,1.516128182E0
4.442002623E0,-8.943540573E0,-2.492962599E0,1.496974587E0
4.444490331E0,-8.919598579E0,-2.550423384E0,1.482609391E0
4.446978040E0,-8.905233383E0,-2.607884169E0,1.477820992E0
4.449465748E0,-8.881291389E0,-2.650979757E0,1.473032594E0
4.451953456E0,-8.881291389E0,-2.689286947E0,1.473032594E0
4.454441165E0,-8.871714592E0,-2.737171173E0,1.487397790E0
4.456928873E0,-8.886079788E0,-2.770689964E0,1.482609391E0
4.459416581E0,-8.890868187E0,-2.804208755E0,1.501762986E0
4.461904290E0,-8.910021782E0,-2.847304344E0,1.530493379E0
4.464391998E0,-8.957905769E0,-2.895188332E0,1.544858694E0
4.466879706E0,-8.981847763E0,-2.919130325E0,1.568800688E0
4.469367415E0,-8.996212959E0,-2.947860956E0,1.607107878E0
4.471855123E0,-9.044096947E0,-2.952649355E0,1.659780383E0
4.474342831E0,-9.063250542E0,-2.971802950E0,1.698087573E0
4.476830540E0,-9.106346130E0,-2.995744944E0,1.741183162E0
4.479318248E0,-9.125499725E0,-3.005321741E0,1.813009262E0
4.481805956E0,-9.178172112E0,-2.967014551E0,1.865681648E0
4.484293665E0,-9.211690903E0,-2.947860956E0,1.927930951E0
4.486781373E0,-9.245209694E0,-2.928707123E0,1.994968534E0
4.489269081E0,-9.273940086E0,-2.909553528E0,2.047641039E0
4.491756790E0,-9.254786491E0,-2.871246338E0,2.090736628E0
4.494244498E0,-9.269151688E0,-2.847304344E0,2.152985811E0
4.496732206E0,-9.259574890E0,-2.808997154E0,2.229600430E0
4.499219915E0,-9.264363289E0,-2.756324768E0,2.296638012E0
4.501707623E0,-9.293093681E0,-2.698863983E0,2.368463993E0
4.504195331E0,-9.369708061E0,-2.670133352E0,2.435501575E0
4.506683040E0,-9.455899239E0,-2.650979757E0,2.502539396E0
4.509170748E0,-9.556455612E0,-2.617460966E0,2.569576979E0
4.511658456E0,-9.666589737E0,-2.588730574E0,2.631826162E0
4.514146165E0,-9.771934509E0,-2.598307371E0,2.694075346E0
4.516633873E0,-9.891644478E0,-2.574365377E0,2.741959572E0
4.519121581E0,-1.000177765E1,-2.560000181E0,2.808997154E0
4.521609290E0,-1.010233402E1,-2.545634985E0,2.880823135E0
4.524096998E0,-1.018852520E1,-2.550423384E0,2.919130325E0
4.526584706E0,-1.025077438E1,-2.531269789E0,2.952649355E0
4.529072415E0,-1.028429317E1,-2.536058187E0,2.952649355E0
4.531560123E0,-1.031302357E1,-2.536058187E0,2.976591349E0
4.534047831E0,-1.031781197E1,-2.545634985E0,3.000533342E0
4.536535540E0,-1.031781197E1,-2.550423384E0,3.010110140E0
4.539023248E0,-1.032738876E1,-2.560000181E0,3.005321741E0
4.541510956E0,-1.033217716E1,-2.593518972E0,2.967014551E0
4.543998665E0,-1.028908157E1,-2.631826162E0,2.923918724E0
4.546486373E0,-1.022683239E1,-2.708440781E0,2.861669540E0
4.548974081E0,-1.013585281E1,-2.785055161E0,2.813785553E0
4.551461790E0,-1.005445004E1,-2.856881142E0,2.732382774E0
4.553949498E0,-9.968258858E0,-2.899976730E0,2.660556555E0
4.556437206E0,-9.877279282E0,-2.967014551E0,2.583942175E0
4.558924915E0,-9.791088104E0,-3.034052134E0,2.526481390E0
4.561412623E0,-9.747992516E0,-3.115454912E0,2.459443808E0
4.563900331E0,-9.738415718E0,-3.163338900E0,2.435501575E0
4.566388040E0,-9.791088104E0,-3.211223125E0,2.421136379E0
4.568875748E0,-9.848548889E0,-3.254318714E0,2.401982784E0
4.571363456E0,-9.949105263E0,-3.273472309E0,2.401982784E0
4.573851165E0,-1.003529644E1,-3.302202702E0,2.397194386E0
4.576338873E0,-1.012148762E1,-3.297414303E0,2.397194386E0
4.578826581E0,-1.022683239E1,-3.297414303E0,2.401982784E0
4.581314290E0,-1.033696556E1,-3.302202702E0,2.387617588E0
4.583801998E0,-1.047582912E1,-3.306991100E0,2.378040791E0
4.586289706E0,-1.062427044E1,-3.297414303E0,2.387617588E0
4.588777415E0,-1.079186440E1,-3.297414303E0,2.416347980E0
4.591265123E0,-1.095945835E1,-3.287837505E0,2.425924778E0
4.593752831E0,-1.114141750E1,-3.268683910E0,2.425924778E0
4.596240540E0,-1.134731865E1,-3.211223125E0,2.449866772E0
4.598728248E0,-1.154843235E1,-3.144185305E0,2.454655409E0
4.601215956E0,-1.173996830E1,-3.057994127E0,2.445078373E0
4.603703665E0,-1.194586945E1,-2.986168146E0,2.416347980E0
4.606191373E0,-1.211346340E1,-2.923918724E0,2.382829189E0
4.608679081E0,-1.229063416E1,-2.876034737E0,2.368463993E0
4.611166790E0,-1.242949772E1,-2.823362350E0,2.368463993E0
4.613654498E0,-1.252047825E1,-2.785055161E0,2.387617588E0
4.616142206E0,-1.261624622E1,-2.751536369E0,2.397194386E0
4.618629915E0,-1.264976501E1,-2.708440781E0,2.387617588E0
4.621117623E0,-1.267370701E1,-2.703652382E0,2.387617588E0
4.623605331E0,-1.268807220E1,-2.684498549E0,2.378040791E0
4.626093040E0,-1.270243740E1,-2.713229179E0,2.330156803E0
4.628580748E0,-1.271201420E1,-2.751536369E0,2.272696018E0
4.631068456E0,-1.271201420E1,-2.799420357E0,2.224812031E0
4.633556165E0,-1.271680260E1,-2.866457939E0,2.191293001E0
4.636043873E0,-1.269764900E1,-2.928707123E0,2.152985811E0
4.638531581E0,-1.267849541E1,-2.990956545E0,2.148197412E0
4.641019290E0,-1.266891861E1,-3.072359324E0,2.143409014E0
4.643506998E0,-1.267849541E1,-3.148973703E0,2.157774210E0
4.645994706E0,-1.266891861E1,-3.206434727E0,2.148197412E0
4.648482415E0,-1.269286060E1,-3.273472309E0,2.172139406E0
4.650970123E0,-1.271680260E1,-3.335721493E0,2.215235233E0
4.653457831E0,-1.275989819E1,-3.383605480E0,2.267907619E0
4.655945540E0,-1.280778217E1,-3.402759075E0,2.330156803E0
4.658433248E0,-1.282214737E1,-3.417124271E0,2.397194386E0
4.660920956E0,-1.285566616E1,-3.431489468E0,2.464232206E0
4.663408665E0,-1.290355015E1,-3.421912670E0,2.526481390E0
4.665896373E0,-1.293228054E1,-3.445854902E0,2.569576979E0
4.668384081E0,-1.296579933E1,-3.441066504E0,2.627037764E0
4.670871790E0,-1.299452972E1,-3.445854902E0,2.684498549E0
4.673359498E0,-1.300410652E1,-3.445854902E0,2.722805977E0
4.675847206E0,-1.301368332E1,-3.445854902E0,2.756324768E0
4.678334915E0,-1.301847172E1,-3.445854902E0,2.741959572E0
4.680822623E0,-1.303283691E1,-3.426701069E0,2.751536369E0
4.683310331E0,-1.303762531E1,-3.397970676E0,2.761113167E0
4.685798040E0,-1.305199051E1,-3.374028683E0,2.732382774E0
4.688285748E0,-1.306156731E1,-3.364451885E0,2.674921751E0
4.690773456E0,-1.309029770E1,-3.354875088E0,2.593518972E0
4.693261165E0,-1.312381649E1,-3.330933094E0,2.545634985E0
4.695748873E0,-1.313339329E1,-3.311779499E0,2.449866772E0
4.698236581E0,-1.316212368E1,-3.292625904E0,2.354098797E0
4.700724290E0,-1.320521927E1,-3.273472309E0,2.287061214E0
4.703212050E0,-1.325789165E1,-3.254318714E0,2.243965626E0
4.705699811E0,-1.330098724E1,-3.225588322E0,2.224812031E0
4.708187571E0,-1.333450603E1,-3.201646328E0,2.220023632E0
4.710675331E0,-1.335365963E1,-3.182492495E0,2.220023632E0
4.713163092E0,-1.336323643E1,-3.177704096E0,2.248754025E0
4.715650852E0,-1.336323643E1,-3.177704096E0,2.263119221E0
4.718138613E0,-1.333929443E1,-3.187281132E0,2.282272816E0
4.720626373E0,-1.332971764E1,-3.216011524E0,2.325368404E0
4.723114134E0,-1.327704525E1,-3.259107113E0,2.354098797E0
4.725601894E0,-1.323394966E1,-3.302202702E0,2.378040791E0
4.728089654E0,-1.316212368E1,-3.292625904E0,2.397194386E0
4.730577415E0,-1.307114410E1,-3.302202702E0,2.449866772E0
4.733065175E0,-1.300410652E1,-3.316567898E0,2.497750998E0
4.735552936E0,-1.292749214E1,-3.311779499E0,2.545634985E0
4.738040696E0,-1.284608936E1,-3.335721493E0,2.593518972E0
4.740528456E0,-1.278384018E1,-3.345298290E0,2.641402960E0
4.743016217E0,-1.272637939E1,-3.364451885E0,2.689286947E0
4.745503977E0,-1.264497662E1,-3.402759075E0,2.756324768E0
4.747991738E0,-1.256836224E1,-3.417124271E0,2.818573952E0
4.750479498E0,-1.248695850E1,-3.426701069E0,2.861669540E0
4.752967259E0,-1.242470932E1,-3.431489468E0,2.914341927E0
4.755455019E0,-1.238640213E1,-3.426701069E0,2.943072557E0
4.757942779E0,-1.237682533E1,-3.421912670E0,2.976591349E0
4.760430540E0,-1.237203693E1,-3.397970676E0,3.000533342E0
4.762918300E0,-1.233851814E1,-3.374028683E0,3.034052134E0
4.765406061E0,-1.230978775E1,-3.364451885E0,3.024475336E0
4.767893821E0,-1.228584576E1,-3.369240284E0,3.000533342E0
4.770381581E0,-1.227626896E1,-3.407547474E0,2.957437754E0
4.772869342E0,-1.222838497E1,-3.431489468E0,2.943072557E0
4.775357102E0,-1.218528938E1,-3.465008497E0,2.909553528E0
4.777844811E0,-1.211825180E1,-3.469796896E0,2.909553528E0
4.780332519E0,-1.203206062E1,-3.465008497E0,2.890399933E0
4.782820227E0,-1.192671585E1,-3.465008497E0,2.861669540E0
4.785307936E0,-1.183573627E1,-3.469796896E0,2.799420357E0
4.787795644E0,-1.176869869E1,-3.493738890E0,2.746747971E0
4.790283352E0,-1.169687271E1,-3.512892485E0,2.684498549E0
4.792771061E0,-1.161068153E1,-3.575141668E0,2.598307371E0
4.795258769E0,-1.151012421E1,-3.632602453E0,2.507327795E0
4.797746477E0,-1.142872143E1,-3.685275078E0,2.430713177E0
4.800234186E0,-1.134253025E1,-3.752312660E0,2.368463993E0
4.802721894E0,-1.124676228E1,-3.790619850E0,2.311003208E0
4.805209602E0,-1.115099430E1,-3.809773445E0,2.277484417E0
4.807697311E0,-1.106480312E1,-3.809773445E0,2.248754025E0
4.810185019E0,-1.096424675E1,-3.781043053E0,2.258330822E0
4.812672727E0,-1.087805557E1,-3.747524261E0,2.291849613E0
4.815160436E0,-1.082059479E1,-3.737947464E0,2.301426411E0
4.817648144E0,-1.079186440E1,-3.704428673E0,2.344521999E0
4.820135852E0,-1.080622959E1,-3.675698042E0,2.411559582E0
4.822623561E0,-1.082059479E1,-3.623025656E0,2.502539396E0
4.825111269E0,-1.086847878E1,-3.546411276E0,2.617460966E0
4.827598977E0,-1.091157436E1,-3.484162092E0,2.679710150E0
4.830086686E0,-1.093551636E1,-3.421912670E0,2.718017578E0
4.832574394E0,-1.097382355E1,-3.335721493E0,2.756324768E0
4.835062102E0,-1.101691914E1,-3.268683910E0,2.794631958E0
4.837549811E0,-1.107437992E1,-3.196857929E0,2.799420357E0
4.840037519E0,-1.112705231E1,-3.139396906E0,2.785055161E0
4.842525227E0,-1.118451309E1,-3.091512918E0,2.765901566E0
4.845012936E0,-1.121324348E1,-3.038840532E0,2.761113167E0
4.847500644E0,-1.125633907E1,-3.014898539E0,2.694075346E0
4.849988352E0,-1.125155067E1,-3.005321741E0,2.655768156E0
4.852476061E0,-1.121803188E1,-3.000533342E0,2.603095770E0
4.854963769E0,-1.116535950E1,-2.995744944E0,2.507327795E0
4.857451477E0,-1.111268711E1,-3.010110140E0,2.401982784E0
4.859939186E0,-1.104086113E1,-3.024475336E0,2.311003208E0
4.862426894E0,-1.094509315E1,-3.053205729E0,2.248754025E0
4.864914602E0,-1.086369038E1,-3.067570925E0,2.196081400E0
4.867402311E0,-1.081580639E1,-3.101089716E0,2.143409014E0
4.869890019E0,-1.076792240E1,-3.139396906E0,2.076371431E0
4.872377727E0,-1.074398041E1,-3.172915697E0,2.028487444E0
4.874865436E0,-1.070088482E1,-3.220799923E0,1.994968534E0
4.877353144E0,-1.063863564E1,-3.268683910E0,1.994968534E0
4.879840852E0,-1.053328991E1,-3.311779499E0,1.980603337E0
4.882328561E0,-1.040400314E1,-3.369240284E0,2.014122248E0
4.884816269E0,-1.028908157E1,-3.436278105E0,2.018910646E0
4.887303977E0,-1.014064121E1,-3.517680883E0,2.004545450E0
4.889791686E0,-1.000177765E1,-3.599083662E0,2.018910646E0
4.892279394E0,-9.858125687E0,-3.642179251E0,2.052429438E0
4.894767102E0,-9.757569313E0,-3.680486679E0,2.105101824E0
4.897254811E0,-9.680954933E0,-3.709217072E0,2.148197412E0
4.899742519E0,-9.628282547E0,-3.709217072E0,2.196081400E0
4.902230227E0,-9.575610161E0,-3.699640274E0,2.253542423E0
4.904717936E0,-9.537302017E0,-3.690063477E0,2.330156803E0
4.907205644E0,-9.532513618E0,-3.651756048E0,2.378040791E0
4.909693352E0,-9.556455612E0,-3.599083662E0,2.421136379E0
4.912181061E0,-9.580398560E0,-3.575141668E0,2.454655409E0
4.914668769E0,-9.613917351E0,-3.517680883E0,2.512116194E0
4.917156477E0,-9.647436142E0,-3.469796896E0,2.550423384E0
4.919644186E0,-9.661801338E0,-3.426701069E0,2.564788580E0
4.922131894E0,-9.685743332E0,-3.359663486E0,2.574365377E0
4.924619602E0,-9.714473724E0,-3.278260708E0,2.569576979E0
4.927107311E0,-9.728838921E0,-3.192069530E0,2.560000181E0
4.929595019E0,-9.767146111E0,-3.077147722E0,2.526481390E0
4.932082727E0,-9.791088104E0,-2.995744944E0,2.483385801E0
4.934570436E0,-9.786299706E0,-2.933495522E0,2.392405987E0
4.937058144E0,-9.786299706E0,-2.866457939E0,2.339733601E0
4.939545852E0,-9.781511307E0,-2.799420357E0,2.258330822E0
4.942033561E0,-9.771934509E0,-2.756324768E0,2.205658197E0
4.944521269E0,-9.757569313E0,-2.722805977E0,2.162562609E0
4.947008977E0,-9.728838921E0,-2.689286947E0,2.109890223E0
4.949496686E0,-9.685743332E0,-2.646191359E0,2.076371431E0
4.951984394E0,-9.661801338E0,-2.579153776E0,2.057217836E0
4.954472102E0,-9.618705750E0,-2.536058187E0,2.042852640E0
4.956959811E0,-9.546878815E0,-2.488174200E0,2.038064241E0
4.959447519E0,-9.479841232E0,-2.449866772E0,2.047641039E0
4.961935227E0,-9.412803650E0,-2.449866772E0,2.057217836E0
4.964422936E0,-9.350554466E0,-2.449866772E0,2.105101824E0
4.966909426E0,-9.293093681E0,-2.445078373E0,2.186504602E0
4.969397134E0,-9.230844498E0,-2.449866772E0,2.239177227E0
4.971884843E0,-9.178172112E0,-2.492962599E0,2.311003208E0
4.974372551E0,-9.111134529E0,-2.545634985E0,2.354098797E0
4.976860259E0,-9.010578156E0,-2.607884169E0,2.421136379E0
4.979347968E0,-8.862137794E0,-2.670133352E0,2.464232206E0
4.981835676E0,-8.728062630E0,-2.722805977E0,2.507327795E0
4.984323384E0,-8.560467720E0,-2.756324768E0,2.574365377E0
4.986811093E0,-8.416815758E0,-2.789843559E0,2.627037764E0
4.989298801E0,-8.249221802E0,-2.861669540E0,2.698863983E0
4.991786509E0,-8.129511833E0,-2.909553528E0,2.746747971E0
4.994274218E0,-8.028955460E0,-2.943072557E0,2.765901566E0
4.996761926E0,-7.952341080E0,-2.947860956E0,2.770689964E0
4.999249634E0,-7.904457092E0,-2.947860956E0,2.789843559E0
5.001737343E0,-7.870938301E0,-2.928707123E0,2.756324768E0
5.004225051E0,-7.832630634E0,-2.871246338E0,2.713229179E0
5.006712759E0,-7.818265438E0,-2.818573952E0,2.641402960E0
5.009200468E0,-7.832630634E0,-2.741959572E0,2.521692991E0
5.011688176E0,-7.890091896E0,-2.636614561E0,2.425924778E0
5.014175884E0,-7.937975883E0,-2.555211782E0,2.306214809E0
5.016663593E0,-8.014590263E0,-2.464232206E0,2.186504602E0
5.019151301E0,-8.072051048E0,-2.363675594E0,2.081159830E0
5.021639009E0,-8.110358238E0,-2.258330822E0,1.956661344E0
5.024126718E0,-8.153453827E0,-2.148197412E0,1.836951256E0
5.026614426E0,-8.201337814E0,-2.047641039E0,1.707664371E0
5.029102134E0,-8.230068207E0,-1.951872945E0,1.554435492E0
5.031589843E0,-8.225279808E0,-1.865681648E0,1.401206493E0
5.034077551E0,-8.220491409E0,-1.779490471E0,1.247977614E0
5.036565259E0,-8.191761017E0,-1.707664371E0,1.137844324E0
5.039052968E0,-8.134300232E0,-1.659780383E0,1.037287831E0
5.041540676E0,-8.072051048E0,-1.602319479E0,9.558850527E-1
5.044028384E0,-8.019378662E0,-1.578377485E0,8.792705536E-1
5.046516093E0,-7.966706276E0,-1.544858694E0,8.505401611E-1
5.049003801E0,-7.937975883E0,-1.540070295E0,8.361749649E-1
5.051491509E0,-7.904457092E0,-1.530493379E0,8.170213103E-1
5.053979218E0,-7.890091896E0,-1.525704980E0,8.409633636E-1
5.056466926E0,-7.875726700E0,-1.540070295E0,8.505401611E-1
5.058954634E0,-7.861361504E0,-1.525704980E0,8.936358094E-1
5.061442343E0,-7.861361504E0,-1.516128182E0,9.271546006E-1
5.063930051E0,-7.870938301E0,-1.506551385E0,1.013345838E0
5.066417759E0,-7.894880295E0,-1.473032594E0,1.089960337E0
5.068905468E0,-7.904457092E0,-1.444302201E0,1.156997919E0
5.071393176E0,-7.947552681E0,-1.429937005E0,1.228824019E0
5.073880884E0,-7.995436668E0,-1.401206493E0,1.310226917E0
5.076368593E0,-8.043320656E0,-1.396418095E0,1.358110905E0
5.078856301E0,-8.081627846E0,-1.391629696E0,1.415571809E0
5.081344009E0,-8.105569839E0,-1.382052898E0,1.482609391E0
5.083831718E0,-8.134300232E0,-1.372476101E0,1.530493379E0
5.086319426E0,-8.139088631E0,-1.353322506E0,1.540070295E0
5.088807134E0,-8.148665428E0,-1.315015316E0,1.564012289E0
