"Time (s)","Gyroscope x (rad/s)","Gyroscope y (rad/s)","Gyroscope z (rad/s)"
8.339783100E-2,2.396843210E-2,1.013332009E-1,-7.337003201E-2
8.593496700E-2,3.249054030E-2,1.034637317E-1,-7.123950869E-2
8.847335200E-2,4.207791388E-2,1.077247858E-1,-6.697845459E-2
9.099215400E-2,5.486107618E-2,1.098553166E-1,-6.271740049E-2
9.347991500E-2,6.870950758E-2,1.130511016E-1,-5.632581562E-2
9.596762300E-2,8.255793154E-2,1.162468940E-1,-4.886896908E-2
9.845533100E-2,9.534109384E-2,1.173121557E-1,-4.141212255E-2
1.009430400E-1,1.070589945E-1,1.173121557E-1,-3.289001435E-2
1.034307480E-1,1.177116334E-1,1.173121557E-1,-2.436790615E-2
1.059184560E-1,1.251684725E-1,1.183774248E-1,-1.584579609E-2
1.084061650E-1,1.304948032E-1,1.173121557E-1,-6.258423906E-3
1.108938730E-1,1.326253265E-1,1.162468940E-1,3.328948980E-3
1.133815810E-1,1.336905807E-1,1.162468940E-1,1.398158539E-2
1.158692900E-1,1.315600574E-1,1.162468940E-1,2.356895804E-2
1.183569980E-1,1.272990108E-1,1.151816323E-1,3.209106624E-2
1.208447060E-1,1.198421568E-1,1.141163707E-1,4.167843983E-2
1.233324150E-1,1.102547869E-1,1.141163707E-1,5.020054802E-2
1.258201230E-1,9.960214794E-2,1.141163707E-1,5.765739456E-2
1.283078310E-1,8.575372398E-2,1.141163707E-1,6.511423737E-2
1.307955400E-1,7.190529257E-2,1.141163707E-1,7.044056058E-2
1.332832480E-1,5.805686861E-2,1.162468940E-1,7.789740711E-2
1.357709560E-1,4.420844093E-2,1.183774248E-1,8.428898454E-2
1.382586650E-1,2.929474972E-2,1.215732098E-1,9.068056941E-2
1.407463730E-1,1.544632297E-2,1.258342713E-1,9.813741595E-2
1.432340810E-1,2.663159044E-3,1.300953180E-1,1.055942550E-1
1.457217900E-1,-9.054740891E-3,1.354216337E-1,1.130511016E-1
1.482094980E-1,-2.077264152E-2,1.407479644E-1,1.205079481E-1
1.506972060E-1,-3.036001325E-2,1.450090110E-1,1.258342713E-1
1.531849150E-1,-3.994738683E-2,1.471395344E-1,1.322258562E-1
1.556726230E-1,-5.060002208E-2,1.503353268E-1,1.375521719E-1
1.581603310E-1,-6.018739566E-2,1.524658650E-1,1.418132186E-1
1.606480400E-1,-7.084003091E-2,1.535311192E-1,1.450090110E-1
1.631357480E-1,-8.149266988E-2,1.535311192E-1,1.482048035E-1
1.656234560E-1,-9.214530140E-2,1.524658650E-1,1.492700726E-1
1.681111650E-1,-1.027979404E-1,1.514005959E-1,1.492700726E-1
1.705988730E-1,-1.145158410E-1,1.492700726E-1,1.482048035E-1
1.730865810E-1,-1.251684725E-1,1.471395344E-1,1.460742801E-1
1.755742900E-1,-1.358211190E-1,1.439437568E-1,1.418132186E-1
1.780619980E-1,-1.454084814E-1,1.396826953E-1,1.375521719E-1
1.805497060E-1,-1.539305896E-1,1.354216337E-1,1.311605871E-1
1.830374150E-1,-1.624527127E-1,1.300953180E-1,1.226384789E-1
1.855251230E-1,-1.709748209E-1,1.247690022E-1,1.130511016E-1
1.880128310E-1,-1.773663908E-1,1.194426864E-1,1.034637317E-1
1.905005400E-1,-1.837579757E-1,1.151816323E-1,9.068056941E-2
1.929882480E-1,-1.880190372E-1,1.098553166E-1,8.002793044E-2
1.954759560E-1,-1.912148297E-1,1.055942550E-1,6.831002980E-2
1.979636650E-1,-1.933453530E-1,1.023984700E-1,5.659212917E-2
2.004513730E-1,-1.954758763E-1,9.813741595E-2,4.700475931E-2
2.029390810E-1,-1.954758763E-1,9.494162351E-2,3.741738573E-2
2.054267900E-1,-1.944106072E-1,9.174583107E-2,2.889527567E-2
2.079144980E-1,-1.901495606E-1,8.855003864E-2,2.250369452E-2
2.104022060E-1,-1.837579757E-1,8.535424620E-2,1.717737690E-2
2.128899150E-1,-1.752358675E-1,8.215846121E-2,1.398158539E-2
2.153776230E-1,-1.635179669E-1,8.002793044E-2,1.185105834E-2
2.178653310E-1,-1.518000662E-1,7.789740711E-2,1.078579482E-2
2.203530400E-1,-1.368863732E-1,7.470161468E-2,8.655266836E-3
2.228407480E-1,-1.219726875E-1,7.257108390E-2,8.655266836E-3
2.253284560E-1,-1.059937328E-1,7.044056058E-2,8.655266836E-3
2.278161650E-1,-8.894951642E-2,6.937529147E-2,7.590003312E-3
2.303038730E-1,-7.190529257E-2,6.831002980E-2,6.524739787E-3
2.327915810E-1,-5.379581451E-2,6.724476814E-2,5.459476262E-3
2.352792900E-1,-3.675159439E-2,6.511423737E-2,5.459476262E-3
2.377669980E-1,-2.183790505E-2,6.511423737E-2,5.459476262E-3
2.402547060E-1,-5.858949851E-3,6.404897571E-2,5.459476262E-3
2.427424150E-1,9.054740891E-3,6.298371404E-2,8.655266836E-3
2.452301230E-1,2.290316857E-2,6.191844866E-2,1.185105834E-2
2.477178310E-1,3.462106735E-2,5.978792161E-2,1.611211337E-2
2.502055400E-1,4.420844093E-2,5.765739456E-2,2.250369452E-2
2.526932480E-1,5.379581451E-2,5.659212917E-2,2.889527567E-2
2.551809560E-1,6.018739566E-2,5.552686751E-2,3.635212034E-2
2.576686650E-1,6.444845349E-2,5.339634046E-2,4.274370521E-2
2.601563730E-1,6.551371515E-2,5.233107507E-2,5.126581341E-2
2.626440810E-1,6.551371515E-2,5.126581341E-2,5.872265995E-2
2.651317900E-1,6.338318437E-2,4.913528636E-2,6.511423737E-2
2.676194980E-1,5.912213027E-2,4.807002097E-2,7.150582224E-2
2.701072060E-1,5.379581451E-2,4.700475931E-2,7.683213800E-2
2.725949150E-1,4.740423337E-2,4.593949392E-2,8.109319210E-2
2.750826230E-1,3.994738683E-2,4.593949392E-2,8.535424620E-2
2.775703310E-1,3.355580568E-2,4.700475931E-2,8.748477697E-2
2.800580400E-1,2.716422267E-2,4.807002097E-2,8.855003864E-2
2.825457480E-1,2.077264152E-2,5.126581341E-2,8.855003864E-2
2.850334560E-1,1.438105945E-2,5.339634046E-2,8.855003864E-2
2.875211650E-1,1.012000442E-2,5.659212917E-2,8.855003864E-2
2.900088730E-1,6.924213842E-3,6.085318699E-2,8.855003864E-2
2.924965810E-1,3.728422802E-3,6.511423737E-2,8.961530030E-2
2.949842900E-1,1.597895520E-3,6.937529147E-2,9.068056941E-2
2.974719980E-1,-1.597895520E-3,7.150582224E-2,9.281109273E-2
2.999597060E-1,-4.793686327E-3,7.576687634E-2,9.494162351E-2
3.024474150E-1,-7.989477366E-3,7.896266878E-2,9.707214683E-2
3.049351230E-1,-1.225053146E-2,8.322372288E-2,1.002679393E-1
3.074228310E-1,-1.757685095E-2,8.641951531E-2,1.045289934E-1
3.099105400E-1,-2.290316857E-2,8.855003864E-2,1.087900475E-1
3.123982480E-1,-2.822948620E-2,8.961530030E-2,1.141163707E-1
3.148859560E-1,-3.462106735E-2,8.961530030E-2,1.205079481E-1
3.173736650E-1,-4.207791388E-2,8.855003864E-2,1.268995255E-1
3.198613730E-1,-5.166528746E-2,8.641951531E-2,1.343563795E-1
3.223490810E-1,-6.125266105E-2,8.535424620E-2,1.428784877E-1
3.248367900E-1,-7.190529257E-2,8.215846121E-2,1.514005959E-1
3.273244980E-1,-8.468846232E-2,7.789740711E-2,1.599227041E-1
3.298122060E-1,-9.747162461E-2,7.470161468E-2,1.695100814E-1
3.322999150E-1,-1.123853177E-1,6.937529147E-2,1.769669205E-1
3.347876230E-1,-1.272990108E-1,6.298371404E-2,1.822932363E-1
3.372753310E-1,-1.422126889E-1,5.659212917E-2,1.876195520E-1
3.397630400E-1,-1.560611278E-1,5.020054802E-2,1.908153445E-1
3.422507480E-1,-1.699095517E-1,4.274370521E-2,1.918806136E-1
3.447384560E-1,-1.826927215E-1,3.741738573E-2,1.940111369E-1
3.472261650E-1,-1.933453530E-1,3.315633163E-2,1.940111369E-1
3.497138730E-1,-2.029327303E-1,2.889527567E-2,1.950764060E-1
3.522015810E-1,-2.093243003E-1,2.676474862E-2,1.961416751E-1
3.546892900E-1,-2.146506310E-1,2.463422157E-2,1.972069293E-1
3.571769980E-1,-2.178464085E-1,2.356895804E-2,1.982721984E-1
3.596647060E-1,-2.189116776E-1,2.356895804E-2,2.004027218E-1
3.621524150E-1,-2.178464085E-1,2.250369452E-2,2.004027218E-1
3.646401230E-1,-2.135853618E-1,2.250369452E-2,2.014679909E-1
3.671278310E-1,-2.071937770E-1,2.143843099E-2,2.004027218E-1
3.696155400E-1,-1.965411454E-1,2.143843099E-2,1.972069293E-1
3.721032480E-1,-1.837579757E-1,2.250369452E-2,1.940111369E-1
3.745909560E-1,-1.688442826E-1,2.356895804E-2,1.876195520E-1
3.770786650E-1,-1.507348120E-1,2.569948509E-2,1.812279820E-1
3.795663730E-1,-1.304948032E-1,2.889527567E-2,1.737711281E-1
3.820540810E-1,-1.091895252E-1,3.315633163E-2,1.663142890E-1
3.845417900E-1,-8.788424730E-2,3.848264739E-2,1.577921808E-1
3.870294980E-1,-6.444845349E-2,4.487423226E-2,1.492700726E-1
3.895172060E-1,-4.207791388E-2,5.233107507E-2,1.418132186E-1
3.920049150E-1,-2.077264152E-2,5.978792161E-2,1.343563795E-1
3.944926230E-1,-5.326318205E-4,6.617950648E-2,1.258342713E-1
3.969803310E-1,1.757685095E-2,7.363634557E-2,1.194426864E-1
3.994680400E-1,3.249054030E-2,7.896266878E-2,1.119858399E-1
4.019557480E-1,4.527370632E-2,8.322372288E-2,1.034637317E-1
4.044434560E-1,5.592634156E-2,8.535424620E-2,9.707214683E-2
4.069311650E-1,6.338318437E-2,8.641951531E-2,9.068056941E-2
4.094188730E-1,6.870950758E-2,8.641951531E-2,8.535424620E-2
4.119065810E-1,7.084003091E-2,8.641951531E-2,8.109319210E-2
4.143942900E-1,6.977476925E-2,8.535424620E-2,7.789740711E-2
4.168819980E-1,6.657897681E-2,8.428898454E-2,7.576687634E-2
4.193697060E-1,6.018739566E-2,8.322372288E-2,7.363634557E-2
4.218574150E-1,5.273054913E-2,8.002793044E-2,7.150582224E-2
4.243451230E-1,4.314317927E-2,7.789740711E-2,7.044056058E-2
4.268328310E-1,3.142527863E-2,7.363634557E-2,6.937529147E-2
4.293205400E-1,1.970737800E-2,6.831002980E-2,6.937529147E-2
4.318082480E-1,6.924213842E-3,6.191844866E-2,6.937529147E-2
4.342959560E-1,-5.858949851E-3,5.552686751E-2,7.150582224E-2
4.367836650E-1,-1.757685095E-2,4.913528636E-2,7.470161468E-2
4.392713730E-1,-2.929474972E-2,4.167843983E-2,7.789740711E-2
4.417590810E-1,-4.101264849E-2,3.315633163E-2,8.215846121E-2
4.442467900E-1,-5.166528746E-2,2.356895804E-2,8.855003864E-2
4.467344980E-1,-6.125266105E-2,1.291632187E-2,9.600688517E-2
4.492222060E-1,-6.870950758E-2,1.198421582E-3,1.034637317E-1
4.517099150E-1,-7.403582335E-2,-1.158474199E-2,1.119858399E-1
4.541976230E-1,-7.723161578E-2,-2.543316968E-2,1.194426864E-1
4.566853310E-1,-7.723161578E-2,-3.821633384E-2,1.258342713E-1
4.591730400E-1,-7.403582335E-2,-4.886896908E-2,1.300953180E-1
4.616607480E-1,-6.657897681E-2,-5.845634267E-2,1.343563795E-1
4.641484560E-1,-5.699160323E-2,-6.591318548E-2,1.364869028E-1
4.666361650E-1,-4.314317927E-2,-7.123950869E-2,1.375521719E-1
4.691238730E-1,-2.716422267E-2,-7.230477035E-2,1.375521719E-1
4.716115810E-1,-9.054740891E-3,-7.123950869E-2,1.375521719E-1
4.740992900E-1,1.225053146E-2,-6.804371625E-2,1.375521719E-1
4.765869980E-1,3.355580568E-2,-6.165213138E-2,1.375521719E-1
4.790747060E-1,5.486107618E-2,-5.419528857E-2,1.364869028E-1
4.815624150E-1,7.829687744E-2,-4.460791498E-2,1.354216337E-1
4.840501230E-1,1.006674170E-1,-3.502054140E-2,1.343563795E-1
4.865378310E-1,1.219726875E-1,-2.543316968E-2,1.322258562E-1
4.890255400E-1,1.411474347E-1,-1.691105962E-2,1.290300637E-1
4.915132480E-1,1.592569202E-1,-9.454214945E-3,1.247690022E-1
4.940009560E-1,1.752358675E-1,-1.997369342E-3,1.194426864E-1
4.964886650E-1,1.880190372E-1,2.263685223E-3,1.141163707E-1
4.989763730E-1,1.976063997E-1,6.524739787E-3,1.077247858E-1
5.014640810E-1,2.050632536E-1,8.655266836E-3,1.013332009E-1
5.039517900E-1,2.103895694E-1,1.078579482E-2,9.494162351E-2
5.064394980E-1,2.125200927E-1,1.291632187E-2,8.748477697E-2
5.089272060E-1,2.114548385E-1,1.398158539E-2,8.109319210E-2
5.114149150E-1,2.093243003E-1,1.398158539E-2,7.470161468E-2
5.139026230E-1,2.061285079E-1,1.291632187E-2,6.831002980E-2
5.163903310E-1,2.008021921E-1,1.078579482E-2,6.085318699E-2
5.188780400E-1,1.954758763E-1,8.655266836E-3,5.446160212E-2
5.213657480E-1,1.880190372E-1,5.459476262E-3,4.807002097E-2
5.238534560E-1,1.816274524E-1,2.263685223E-3,4.167843983E-2
5.263411650E-1,1.731053442E-1,-1.997369342E-3,3.741738573E-2
5.288288730E-1,1.645832360E-1,-6.258423906E-3,3.315633163E-2
5.313165810E-1,1.549958587E-1,-1.051947847E-2,3.102580272E-2
5.338042900E-1,1.454084814E-1,-1.478053257E-2,2.889527567E-2
5.362919980E-1,1.358211190E-1,-2.010685205E-2,2.889527567E-2
5.387797060E-1,1.262337416E-1,-2.436790615E-2,3.102580272E-2
5.412674150E-1,1.177116334E-1,-2.862896025E-2,3.422159329E-2
5.437551230E-1,1.102547869E-1,-3.289001435E-2,3.741738573E-2
5.462428310E-1,1.027979404E-1,-3.715106845E-2,4.061317816E-2
5.487305400E-1,9.640636295E-2,-4.034686089E-2,4.487423226E-2
5.512182480E-1,9.001477808E-2,-4.141212255E-2,4.593949392E-2
5.537059560E-1,8.362319320E-2,-4.247738793E-2,4.807002097E-2
5.561936650E-1,7.616634667E-2,-4.247738793E-2,4.913528636E-2
5.586813730E-1,6.977476925E-2,-4.141212255E-2,4.913528636E-2
5.611690810E-1,6.125266105E-2,-4.034686089E-2,4.913528636E-2
5.636567900E-1,5.273054913E-2,-3.821633384E-2,4.700475931E-2
5.661444980E-1,4.314317927E-2,-3.502054140E-2,4.380896688E-2
5.686322060E-1,3.249054030E-2,-3.289001435E-2,3.954791278E-2
5.711199150E-1,1.970737800E-2,-2.969422378E-2,3.528685868E-2
5.736076230E-1,5.858949851E-3,-2.543316968E-2,3.102580272E-2
5.760953310E-1,-7.989477366E-3,-2.117211558E-2,2.569948509E-2
5.785830400E-1,-2.396843210E-2,-1.691105962E-2,2.037316747E-2
5.810707480E-1,-3.994738683E-2,-1.371526904E-2,1.398158539E-2
5.835584560E-1,-5.699160323E-2,-1.158474199E-2,6.524739787E-3
5.860461650E-1,-7.510108501E-2,-9.454214945E-3,-3.062632866E-3
5.885338730E-1,-9.321057051E-2,-1.051947847E-2,-1.265000552E-2
5.910215810E-1,-1.113200486E-1,-1.265000552E-2,-2.223737910E-2
5.935092900E-1,-1.294295341E-1,-1.584579609E-2,-3.182475269E-2
5.959969980E-1,-1.464737505E-1,-2.010685205E-2,-4.141212255E-2
5.984847060E-1,-1.624527127E-1,-2.436790615E-2,-4.993423447E-2
6.009724150E-1,-1.773663908E-1,-2.969422378E-2,-5.739107728E-2
6.034601230E-1,-1.922800839E-1,-3.608580679E-2,-6.484792382E-2
6.059478310E-1,-2.050632536E-1,-4.247738793E-2,-7.123950869E-2
6.084355400E-1,-2.146506310E-1,-4.886896908E-2,-7.443529367E-2
6.109232480E-1,-2.231727391E-1,-5.526055023E-2,-7.869634777E-2
6.134109560E-1,-2.295643091E-1,-6.271740049E-2,-7.976161689E-2
6.158986650E-1,-2.316948473E-1,-7.230477035E-2,-8.082687855E-2
6.183863730E-1,-2.316948473E-1,-8.189214021E-2,-8.082687855E-2
6.208740810E-1,-2.295643091E-1,-9.254477918E-2,-7.976161689E-2
6.233617900E-1,-2.231727391E-1,-1.031974182E-1,-7.763108611E-2
6.258494980E-1,-2.146506310E-1,-1.138500497E-1,-7.337003201E-2
6.283372060E-1,-2.029327303E-1,-1.234374270E-1,-6.804371625E-2
6.308249150E-1,-1.880190372E-1,-1.308942735E-1,-6.165213138E-2
6.333126230E-1,-1.699095517E-1,-1.383511126E-1,-5.526055023E-2
6.358003310E-1,-1.507348120E-1,-1.436774284E-1,-4.993423447E-2
6.382880400E-1,-1.272990108E-1,-1.490037590E-1,-4.673844203E-2
6.407757480E-1,-1.017326787E-1,-1.532648057E-1,-4.460791498E-2
6.432635090E-1,-7.297056168E-2,-1.564605981E-1,-4.460791498E-2
6.457512690E-1,-4.314317927E-2,-1.617869139E-1,-4.673844203E-2
6.482390290E-1,-1.118526794E-2,-1.660479754E-1,-5.099949613E-2
6.507267900E-1,2.396843210E-2,-1.713742912E-1,-5.632581562E-2
6.532145500E-1,5.912213027E-2,-1.756353378E-1,-6.378266215E-2
6.557023110E-1,9.321057051E-2,-1.809616536E-1,-7.123950869E-2
6.581900710E-1,1.283642650E-1,-1.852227151E-1,-8.189214021E-2
6.606778310E-1,1.624527127E-1,-1.894837767E-1,-9.254477918E-2
6.631655920E-1,1.965411454E-1,-1.916143000E-1,-1.031974182E-1
6.656533520E-1,2.284990549E-1,-1.948100924E-1,-1.149153188E-1
6.681411130E-1,2.604569495E-1,-1.969406158E-1,-1.266332120E-1
6.706288730E-1,2.902843356E-1,-1.990711391E-1,-1.372858584E-1
6.731166340E-1,3.190464675E-1,-2.012016773E-1,-1.468732208E-1
6.756043940E-1,3.478085697E-1,-2.033322006E-1,-1.553953290E-1
6.780921540E-1,3.744401634E-1,-2.043974549E-1,-1.617869139E-1
6.805799150E-1,3.989412189E-1,-2.043974549E-1,-1.681784987E-1
6.830676750E-1,4.213117659E-1,-2.022669315E-1,-1.724395454E-1
6.855554360E-1,4.426170290E-1,-1.980058849E-1,-1.756353378E-1
6.880431960E-1,4.607265294E-1,-1.916143000E-1,-1.777658761E-1
6.905309560E-1,4.756402075E-1,-1.841574460E-1,-1.788311303E-1
6.930187170E-1,4.873581231E-1,-1.756353378E-1,-1.777658761E-1
6.955064770E-1,4.969455004E-1,-1.649827063E-1,-1.767006069E-1
6.979942380E-1,5.022718310E-1,-1.543300748E-1,-1.735048145E-1
7.004819980E-1,5.033370852E-1,-1.436774284E-1,-1.703090221E-1
7.029697590E-1,5.001412630E-1,-1.308942735E-1,-1.649827063E-1
7.054575190E-1,4.948149621E-1,-1.191763729E-1,-1.596563905E-1
7.079452790E-1,4.841623306E-1,-1.053279415E-1,-1.521995366E-1
7.104329880E-1,4.703139067E-1,-9.361004084E-2,-1.436774284E-1
7.129206960E-1,4.522044063E-1,-8.189214021E-2,-1.351553202E-1
7.154084040E-1,4.308991432E-1,-7.123950869E-2,-1.245026886E-1
7.178961130E-1,4.063980877E-1,-6.165213138E-2,-1.138500497E-1
7.203838210E-1,3.808317482E-1,-5.313002318E-2,-1.010668874E-1
7.228715290E-1,3.520696461E-1,-4.567318037E-2,-8.934898674E-2
7.253592380E-1,3.222422600E-1,-3.821633384E-2,-7.869634777E-2
7.278469460E-1,2.902843356E-1,-3.182475269E-2,-7.017423958E-2
7.303346540E-1,2.583264410E-1,-2.649843320E-2,-6.271740049E-2
7.328223630E-1,2.263685167E-1,-2.010685205E-2,-5.845634267E-2
7.353100710E-1,1.933453530E-1,-1.478053257E-2,-5.526055023E-2
7.377977790E-1,1.613874435E-1,-8.388951421E-3,-5.419528857E-2
7.402854880E-1,1.304948032E-1,-1.997369342E-3,-5.419528857E-2
7.427731960E-1,1.017326787E-1,6.524739787E-3,-5.632581562E-2
7.452609040E-1,7.403582335E-2,1.504684892E-2,-5.845634267E-2
7.477486130E-1,4.846949503E-2,2.356895804E-2,-6.165213138E-2
7.502363210E-1,2.609895915E-2,3.315633163E-2,-6.697845459E-2
7.527240290E-1,7.989477366E-3,4.167843983E-2,-7.230477035E-2
7.552117380E-1,-7.989477366E-3,5.020054802E-2,-7.869634777E-2
7.576994460E-1,-2.183790505E-2,5.872265995E-2,-8.615319431E-2
7.601871540E-1,-3.355580568E-2,6.511423737E-2,-9.467530251E-2
7.626748630E-1,-4.207791388E-2,7.150582224E-2,-1.031974182E-1
7.651625710E-1,-4.846949503E-2,7.576687634E-2,-1.106542572E-1
7.676502790E-1,-5.379581451E-2,7.789740711E-2,-1.170458421E-1
7.701379880E-1,-5.805686861E-2,7.896266878E-2,-1.223721579E-1
7.726256960E-1,-6.018739566E-2,7.789740711E-2,-1.255679578E-1
7.751134040E-1,-6.338318437E-2,7.683213800E-2,-1.287637353E-1
7.776011130E-1,-6.657897681E-2,7.363634557E-2,-1.308942735E-1
7.800888210E-1,-7.190529257E-2,6.937529147E-2,-1.298290044E-1
7.825765290E-1,-7.723161578E-2,6.298371404E-2,-1.287637353E-1
7.850642380E-1,-8.468846232E-2,5.552686751E-2,-1.255679578E-1
7.875519460E-1,-9.321057051E-2,4.593949392E-2,-1.202416345E-1
7.900396540E-1,-1.027979404E-1,3.635212034E-2,-1.149153188E-1
7.925273630E-1,-1.145158410E-1,2.783001214E-2,-1.074584723E-1
7.950150710E-1,-1.283642650E-1,1.930790395E-2,-1.000016257E-1
7.975027790E-1,-1.432779580E-1,1.185105834E-2,-9.147951752E-2
7.999904880E-1,-1.603221744E-1,5.459476262E-3,-8.189214021E-2
8.024781960E-1,-1.784316599E-1,1.198421582E-3,-7.230477035E-2
8.049659040E-1,-1.986716688E-1,-1.997369342E-3,-6.058686972E-2
8.074536130E-1,-2.199769467E-1,-3.062632866E-3,-5.099949613E-2
8.099413210E-1,-2.444780022E-1,-1.997369342E-3,-4.141212255E-2
8.124290290E-1,-2.679138184E-1,1.331579551E-4,-3.289001435E-2
8.149167380E-1,-2.902843356E-1,3.328948980E-3,-2.436790615E-2
8.174044460E-1,-3.126548827E-1,9.720530361E-3,-1.691105962E-2
8.198921540E-1,-3.328948915E-1,1.717737690E-2,-1.158474199E-2
8.223798630E-1,-3.499391079E-1,2.783001214E-2,-6.258423906E-3
8.248675710E-1,-3.637875319E-1,4.061317816E-2,-1.997369342E-3
8.273552790E-1,-3.744401634E-1,5.552686751E-2,1.198421582E-3
8.298429880E-1,-3.808317482E-1,7.363634557E-2,2.263685223E-3
8.323306960E-1,-3.840275407E-1,9.281109273E-2,2.263685223E-3
8.348184040E-1,-3.818970025E-1,1.141163707E-1,1.198421582E-3
8.373061130E-1,-3.765707016E-1,1.343563795E-1,-1.997369342E-3
8.397938210E-1,-3.659180701E-1,1.545963883E-1,-5.193160381E-3
8.422815290E-1,-3.510043621E-1,1.727058738E-1,-9.454214945E-3
8.447692380E-1,-3.328948915E-1,1.897500902E-1,-1.265000552E-2
8.472569460E-1,-3.105243444E-1,2.046637833E-1,-1.478053257E-2
8.497446540E-1,-2.849580348E-1,2.174469382E-1,-1.691105962E-2
8.522323630E-1,-2.583264410E-1,2.302301079E-1,-1.584579609E-2
8.547200710E-1,-2.295643091E-1,2.408827394E-1,-1.265000552E-2
8.572077790E-1,-2.018674612E-1,2.504701018E-1,-9.454214945E-3
8.596954880E-1,-1.752358675E-1,2.568616867E-1,-5.193160381E-3
8.621831960E-1,-1.518000662E-1,2.621880174E-1,-9.321057005E-4
8.646709040E-1,-1.304948032E-1,2.653838098E-1,2.263685223E-3
8.671586130E-1,-1.155811027E-1,2.653838098E-1,6.524739787E-3
8.696463210E-1,-1.038632020E-1,2.632532716E-1,9.720530361E-3
8.721340290E-1,-9.640636295E-2,2.589922249E-1,1.291632187E-2
8.746217380E-1,-9.534109384E-2,2.526006401E-1,1.504684892E-2
8.771094460E-1,-9.747162461E-2,2.462090552E-1,1.717737690E-2
8.795971540E-1,-1.049284711E-1,2.376869470E-1,2.037316747E-2
8.820848630E-1,-1.166463718E-1,2.280995846E-1,2.143843099E-2
8.845725710E-1,-1.315600574E-1,2.185122073E-1,2.143843099E-2
8.870602790E-1,-1.475390196E-1,2.078595608E-1,2.143843099E-2
8.895479880E-1,-1.667137593E-1,1.972069293E-1,2.143843099E-2
8.920356960E-1,-1.858884990E-1,1.844237745E-1,1.930790395E-2
8.945234040E-1,-2.050632536E-1,1.727058738E-1,1.611211337E-2
8.970111130E-1,-2.231727391E-1,1.620532274E-1,1.398158539E-2
8.994988210E-1,-2.402169555E-1,1.545963883E-1,1.078579482E-2
9.019865290E-1,-2.551306486E-1,1.482048035E-1,5.459476262E-3
9.044742380E-1,-2.668485343E-1,1.460742801E-1,1.331579551E-4
9.069619460E-1,-2.764359117E-1,1.460742801E-1,-6.258423906E-3
9.094496540E-1,-2.828274965E-1,1.492700726E-1,-1.158474199E-2
9.119373630E-1,-2.849580348E-1,1.535311192E-1,-1.691105962E-2
9.144250710E-1,-2.849580348E-1,1.599227041E-1,-2.223737910E-2
9.169127790E-1,-2.828274965E-1,1.663142890E-1,-2.543316968E-2
9.194004880E-1,-2.775011659E-1,1.716406047E-1,-2.649843320E-2
9.218881960E-1,-2.711096108E-1,1.759016514E-1,-2.543316968E-2
9.243759040E-1,-2.615222335E-1,1.790974438E-1,-2.330264263E-2
9.268636130E-1,-2.530001104E-1,1.812279820E-1,-1.904158667E-2
9.293513210E-1,-2.434127480E-1,1.822932363E-1,-1.478053257E-2
9.318390290E-1,-2.327601016E-1,1.812279820E-1,-9.454214945E-3
9.343267380E-1,-2.242379934E-1,1.790974438E-1,-4.127896391E-3
9.368144460E-1,-2.167811543E-1,1.759016514E-1,2.263685223E-3
9.393021540E-1,-2.103895694E-1,1.716406047E-1,8.655266836E-3
9.417898630E-1,-2.061285079E-1,1.652490199E-1,1.504684892E-2
9.442775710E-1,-2.050632536E-1,1.588574350E-1,1.930790395E-2
9.467652790E-1,-2.082590461E-1,1.514005959E-1,2.356895804E-2
9.492529880E-1,-2.135853618E-1,1.439437568E-1,2.463422157E-2
9.517406960E-1,-2.221074700E-1,1.375521719E-1,2.356895804E-2
9.542284040E-1,-2.327601016E-1,1.322258562E-1,2.037316747E-2
9.567161130E-1,-2.444780022E-1,1.258342713E-1,1.504684892E-2
9.592038210E-1,-2.583264410E-1,1.215732098E-1,8.655266836E-3
9.616915290E-1,-2.721748650E-1,1.183774248E-1,2.263685223E-3
9.641792380E-1,-2.849580348E-1,1.173121557E-1,-7.323687430E-3
9.666669460E-1,-2.977411747E-1,1.162468940E-1,-1.691105962E-2
9.691546540E-1,-3.105243444E-1,1.173121557E-1,-2.649843320E-2
9.716423630E-1,-3.222422600E-1,1.194426864E-1,-3.502054140E-2
9.741300710E-1,-3.339601457E-1,1.215732098E-1,-4.460791498E-2
9.766177790E-1,-3.446127772E-1,1.247690022E-1,-5.313002318E-2
9.791054880E-1,-3.552654386E-1,1.268995255E-1,-6.271740049E-2
9.815931960E-1,-3.627222776E-1,1.290300637E-1,-7.230477035E-2
9.840809040E-1,-3.701791167E-1,1.300953180E-1,-8.082687855E-2
9.865686130E-1,-3.755054474E-1,1.300953180E-1,-9.041424841E-2
9.890563210E-1,-3.797664940E-1,1.279647946E-1,-9.787109494E-2
9.915440290E-1,-3.818970025E-1,1.247690022E-1,-1.053279415E-1
9.940317380E-1,-3.818970025E-1,1.194426864E-1,-1.117195264E-1
9.965194460E-1,-3.797664940E-1,1.119858399E-1,-1.170458421E-1
9.990071540E-1,-3.765707016E-1,1.034637317E-1,-1.213068962E-1
1.001494863E0,-3.723096550E-1,9.387636185E-2,-1.255679578E-1
1.003982571E0,-3.669833243E-1,8.428898454E-2,-1.276984811E-1
1.006470279E0,-3.605917394E-1,7.470161468E-2,-1.287637353E-1
1.008957988E0,-3.531349003E-1,6.617950648E-2,-1.287637353E-1
1.011445696E0,-3.435475230E-1,5.765739456E-2,-1.276984811E-1
1.013933404E0,-3.328948915E-1,5.020054802E-2,-1.266332120E-1
1.016421113E0,-3.211769760E-1,4.380896688E-2,-1.245026886E-1
1.018908821E0,-3.073285520E-1,3.848264739E-2,-1.191763729E-1
1.021396529E0,-2.913496196E-1,3.422159329E-2,-1.138500497E-1
1.023884238E0,-2.753706574E-1,2.996053919E-2,-1.053279415E-1
1.026371946E0,-2.593916953E-1,2.783001214E-2,-9.574057162E-2
1.028859654E0,-2.455432713E-1,2.463422157E-2,-8.402267098E-2
1.031347363E0,-2.316948473E-1,2.250369452E-2,-7.123950869E-2
1.033835071E0,-2.221074700E-1,2.250369452E-2,-5.845634267E-2
1.036322779E0,-2.157158852E-1,2.463422157E-2,-4.460791498E-2
1.038810488E0,-2.135853618E-1,2.676474862E-2,-3.075948730E-2
1.041298196E0,-2.146506310E-1,3.102580272E-2,-1.797632314E-2
1.043785904E0,-2.199769467E-1,3.635212034E-2,-4.127896391E-3
1.046273613E0,-2.274337858E-1,4.274370521E-2,9.720530361E-3
1.048761321E0,-2.370211631E-1,5.126581341E-2,2.463422157E-2
1.051249029E0,-2.498043180E-1,6.085318699E-2,3.741738573E-2
1.053736738E0,-2.657832801E-1,7.150582224E-2,5.126581341E-2
1.056224446E0,-2.828274965E-1,8.215846121E-2,6.085318699E-2
1.058712154E0,-3.020022511E-1,9.281109273E-2,6.937529147E-2
1.061199863E0,-3.211769760E-1,1.034637317E-1,7.576687634E-2
1.063687571E0,-3.403517306E-1,1.119858399E-1,8.002793044E-2
1.066175279E0,-3.605917394E-1,1.183774248E-1,8.322372288E-2
1.068662988E0,-3.797664940E-1,1.247690022E-1,8.641951531E-2
1.071150696E0,-3.978759646E-1,1.311605871E-1,8.748477697E-2
1.073638404E0,-4.138549268E-1,1.364869028E-1,8.855003864E-2
1.076126113E0,-4.298338890E-1,1.407479644E-1,8.855003864E-2
1.078613821E0,-4.426170290E-1,1.439437568E-1,8.855003864E-2
1.081101529E0,-4.543349445E-1,1.460742801E-1,8.748477697E-2
1.083589238E0,-4.639223218E-1,1.492700726E-1,8.855003864E-2
1.086076946E0,-4.735096991E-1,1.503353268E-1,9.068056941E-2
1.088564654E0,-4.809665382E-1,1.514005959E-1,9.174583107E-2
1.091052363E0,-4.873581231E-1,1.514005959E-1,9.494162351E-2
1.093540071E0,-4.937497079E-1,1.514005959E-1,9.920267761E-2
1.096027779E0,-4.969455004E-1,1.503353268E-1,1.034637317E-1
1.098515488E0,-5.012065172E-1,1.482048035E-1,1.109205782E-1
1.101003196E0,-5.033370852E-1,1.460742801E-1,1.183774248E-1
1.103490904E0,-5.054675937E-1,1.428784877E-1,1.258342713E-1
1.105978613E0,-5.065328479E-1,1.375521719E-1,1.343563795E-1
1.108466321E0,-5.065328479E-1,1.311605871E-1,1.418132186E-1
1.110954029E0,-5.044023395E-1,1.237037405E-1,1.482048035E-1
1.113441738E0,-5.022718310E-1,1.151816323E-1,1.545963883E-1
1.115929446E0,-4.990760088E-1,1.077247858E-1,1.620532274E-1
1.118417154E0,-4.958802164E-1,1.023984700E-1,1.695100814E-1
1.120904863E0,-4.905539155E-1,9.707214683E-2,1.790974438E-1
1.123392571E0,-4.862928391E-1,9.494162351E-2,1.897500902E-1
1.125880279E0,-4.809665382E-1,9.600688517E-2,2.014679909E-1
1.128367988E0,-4.756402075E-1,9.813741595E-2,2.142511457E-1
1.130855696E0,-4.703139067E-1,1.013332009E-1,2.280995846E-1
1.133343404E0,-4.639223218E-1,1.055942550E-1,2.408827394E-1
1.135831113E0,-4.564654827E-1,1.098553166E-1,2.536658943E-1
1.138318821E0,-4.479433596E-1,1.130511016E-1,2.643185556E-1
1.140806529E0,-4.362254739E-1,1.162468940E-1,2.739059031E-1
1.143294238E0,-4.213117659E-1,1.194426864E-1,2.802974880E-1
1.145781946E0,-4.053328037E-1,1.226384789E-1,2.824280262E-1
1.148269654E0,-3.840275407E-1,1.258342713E-1,2.813627720E-1
1.150757363E0,-3.605917394E-1,1.300953180E-1,2.781669796E-1
1.153245071E0,-3.328948915E-1,1.364869028E-1,2.749711871E-1
1.155732779E0,-3.009369671E-1,1.428784877E-1,2.675143182E-1
1.158220488E0,-2.657832801E-1,1.503353268E-1,2.579269707E-1
1.160708196E0,-2.274337858E-1,1.577921808E-1,2.483395934E-1
1.163195904E0,-1.869537681E-1,1.652490199E-1,2.366216928E-1
1.165683613E0,-1.454084814E-1,1.705753356E-1,2.227732539E-1
1.168171321E0,-1.017326787E-1,1.748363972E-1,2.099900991E-1
1.170659029E0,-5.805686861E-2,1.780321896E-1,1.972069293E-1
1.173146738E0,-1.544632297E-2,1.801627129E-1,1.854890287E-1
1.175634446E0,2.716422267E-2,1.822932363E-1,1.769669205E-1
1.178122154E0,6.764423847E-2,1.833585054E-1,1.705753356E-1
1.180609863E0,1.038632020E-1,1.854890287E-1,1.673795432E-1
1.183097571E0,1.379516423E-1,1.876195520E-1,1.673795432E-1
1.185585279E0,1.667137593E-1,1.918806136E-1,1.716406047E-1
1.188072988E0,1.901495606E-1,1.961416751E-1,1.780321896E-1
1.190560696E0,2.071937770E-1,1.982721984E-1,1.865542978E-1
1.193048404E0,2.178464085E-1,2.014679909E-1,1.961416751E-1
1.195536113E0,2.221074700E-1,2.035985142E-1,2.067943066E-1
1.198023821E0,2.199769467E-1,2.035985142E-1,2.163816839E-1
1.200511529E0,2.125200927E-1,2.046637833E-1,2.259690464E-1
1.202999238E0,1.997369379E-1,2.057290375E-1,2.344911546E-1
1.205486946E0,1.805621833E-1,2.057290375E-1,2.419480085E-1
1.207974654E0,1.581916511E-1,2.067943066E-1,2.483395934E-1
1.210462363E0,1.315600574E-1,2.067943066E-1,2.526006401E-1
1.212950071E0,1.017326787E-1,2.067943066E-1,2.568616867E-1
1.215437779E0,6.870950758E-2,2.057290375E-1,2.589922249E-1
1.217925488E0,3.355580568E-2,2.025332451E-1,2.632532716E-1
1.220413196E0,-1.597895520E-3,1.972069293E-1,2.653838098E-1
1.222900904E0,-3.568633273E-2,1.908153445E-1,2.685796022E-1
1.225388613E0,-6.764423847E-2,1.844237745E-1,2.696448565E-1
1.227876321E0,-9.747162461E-2,1.780321896E-1,2.696448565E-1
1.230364029E0,-1.241032109E-1,1.716406047E-1,2.675143182E-1
1.232851738E0,-1.454084814E-1,1.641837656E-1,2.621880174E-1
1.235339446E0,-1.624527127E-1,1.567269117E-1,2.547311783E-1
1.237827154E0,-1.752358675E-1,1.482048035E-1,2.451438010E-1
1.240314863E0,-1.837579757E-1,1.396826953E-1,2.323606312E-1
1.242802571E0,-1.869537681E-1,1.300953180E-1,2.174469382E-1
1.245290279E0,-1.858884990E-1,1.194426864E-1,2.014679909E-1
1.247777988E0,-1.805621833E-1,1.098553166E-1,1.822932363E-1
1.250265696E0,-1.699095517E-1,1.002679393E-1,1.631184965E-1
1.252753404E0,-1.560611278E-1,9.281109273E-2,1.439437568E-1
1.255241113E0,-1.390169114E-1,8.641951531E-2,1.258342713E-1
1.257728821E0,-1.177116334E-1,8.109319210E-2,1.077247858E-1
1.260216529E0,-9.427583218E-2,7.683213800E-2,9.174583107E-2
1.262704238E0,-6.870950758E-2,7.150582224E-2,7.683213800E-2
1.265191946E0,-4.314317927E-2,6.724476814E-2,6.404897571E-2
1.267679654E0,-1.864211448E-2,6.404897571E-2,5.446160212E-2
1.270167363E0,5.858949851E-3,5.872265995E-2,4.807002097E-2
1.272655071E0,2.822948620E-2,5.339634046E-2,4.593949392E-2
1.275142779E0,4.740423337E-2,4.807002097E-2,4.807002097E-2
1.277630488E0,6.444845349E-2,4.487423226E-2,5.339634046E-2
1.280118196E0,7.829687744E-2,4.167843983E-2,6.511423737E-2
1.282605904E0,8.894951642E-2,4.061317816E-2,8.215846121E-2
1.285093613E0,9.534109384E-2,4.167843983E-2,1.045289934E-1
1.287581321E0,9.640636295E-2,4.487423226E-2,1.322258562E-1
1.290069029E0,9.321057051E-2,5.126581341E-2,1.641837656E-1
1.292556738E0,8.255793154E-2,5.978792161E-2,2.004027218E-1
1.295044446E0,6.551371515E-2,7.257108390E-2,2.408827394E-1
1.297532154E0,4.314317927E-2,8.961530030E-2,2.845585644E-1
1.300019863E0,1.438105945E-2,1.087900475E-1,3.303648829E-1
1.302507571E0,-2.077264152E-2,1.311605871E-1,3.783017397E-1
1.304995279E0,-5.912213027E-2,1.535311192E-1,4.241080880E-1
1.307482988E0,-1.006674170E-1,1.748363972E-1,4.677838981E-1
1.309970696E0,-1.422126889E-1,1.929458827E-1,5.071986318E-1
1.312458404E0,-1.837579757E-1,2.067943066E-1,5.434176326E-1
1.314946113E0,-2.231727391E-1,2.174469382E-1,5.732449889E-1
1.317433821E0,-2.604569495E-1,2.249037921E-1,5.998765826E-1
1.319921529E0,-2.945453823E-1,2.291648388E-1,6.190513372E-1
1.322409238E0,-3.243727684E-1,2.323606312E-1,6.328997612E-1
1.324896946E0,-3.499391079E-1,2.344911546E-1,6.424871087E-1
1.327384654E0,-3.701791167E-1,2.355564237E-1,6.456829309E-1
1.329872363E0,-3.850927949E-1,2.366216928E-1,6.446176767E-1
1.332360071E0,-3.946801722E-1,2.376869470E-1,6.392913461E-1
1.334847779E0,-3.989412189E-1,2.387522161E-1,6.286386847E-1
1.337335540E0,-3.978759646E-1,2.408827394E-1,6.169208288E-1
1.339823300E0,-3.925496638E-1,2.451438010E-1,5.998765826E-1
1.342311061E0,-3.829622865E-1,2.483395934E-1,5.807018280E-1
1.344798821E0,-3.701791167E-1,2.526006401E-1,5.583313107E-1
1.347286581E0,-3.520696461E-1,2.568616867E-1,5.348954797E-1
1.349774342E0,-3.328948915E-1,2.589922249E-1,5.103944540E-1
1.352262102E0,-3.126548827E-1,2.600574791E-1,4.858933687E-1
1.354749863E0,-2.913496196E-1,2.600574791E-1,4.613923132E-1
1.357237623E0,-2.700443268E-1,2.600574791E-1,4.390217662E-1
1.359725384E0,-2.508696020E-1,2.621880174E-1,4.198470414E-1
1.362213144E0,-2.327601016E-1,2.643185556E-1,4.038680792E-1
1.364700904E0,-2.157158852E-1,2.685796022E-1,3.900196552E-1
1.367188665E0,-2.008021921E-1,2.749711871E-1,3.804322779E-1
1.369676425E0,-1.901495606E-1,2.813627720E-1,3.740406930E-1
1.372164186E0,-1.837579757E-1,2.877543271E-1,3.719101548E-1
1.374651946E0,-1.794969290E-1,2.941459119E-1,3.740406930E-1
1.377139706E0,-1.794969290E-1,3.016027808E-1,3.814975321E-1
1.379627467E0,-1.837579757E-1,3.101248741E-1,3.921501637E-1
1.382115227E0,-1.933453530E-1,3.186469972E-1,4.070638716E-1
1.384602988E0,-2.061285079E-1,3.282343447E-1,4.262386262E-1
1.387090748E0,-2.231727391E-1,3.399522603E-1,4.496744275E-1
1.389578509E0,-2.444780022E-1,3.516701460E-1,4.752407372E-1
1.392066269E0,-2.689790726E-1,3.644533157E-1,5.040028691E-1
1.394554029E0,-2.956106663E-1,3.772364855E-1,5.370260477E-1
1.397041790E0,-3.222422600E-1,3.889544010E-1,5.711144805E-1
1.399529550E0,-3.510043621E-1,3.996070325E-1,6.073334217E-1
1.402017311E0,-3.787012100E-1,4.091944098E-1,6.446176767E-1
1.404505019E0,-4.085285962E-1,4.166512489E-1,6.829671264E-1
1.406992727E0,-4.383559823E-1,4.241080880E-1,7.191861272E-1
1.409480436E0,-4.671181142E-1,4.304996729E-1,7.522093058E-1
1.411968144E0,-4.948149621E-1,4.358259737E-1,7.799061537E-1
1.414455852E0,-5.203812718E-1,4.390217662E-1,8.012114167E-1
1.416943561E0,-5.438171029E-1,4.432828426E-1,8.139945865E-1
1.419431269E0,-5.629918575E-1,4.464786351E-1,8.182556629E-1
1.421918977E0,-5.779055357E-1,4.507396817E-1,8.139945865E-1
1.424406686E0,-5.874928832E-1,4.550007284E-1,8.022766709E-1
1.426894394E0,-5.917539597E-1,4.581965208E-1,7.809714079E-1
1.429382102E0,-5.917539597E-1,4.603270590E-1,7.522093058E-1
1.431869811E0,-5.864276290E-1,4.624575675E-1,7.181208730E-1
1.434357519E0,-5.779055357E-1,4.635228515E-1,6.776408553E-1
1.436845227E0,-5.651223660E-1,4.624575675E-1,6.339650154E-1
1.439332936E0,-5.491434336E-1,4.603270590E-1,5.870934129E-1
1.441820644E0,-5.320991874E-1,4.560659826E-1,5.412870646E-1
1.444308352E0,-5.139896870E-1,4.518049359E-1,4.954807460E-1
1.446796061E0,-4.948149621E-1,4.454133511E-1,4.518049359E-1
1.449283769E0,-4.767054915E-1,4.379565120E-1,4.113249183E-1
1.451771477E0,-4.596612751E-1,4.304996729E-1,3.761712313E-1
1.454259186E0,-4.458128214E-1,4.219775498E-1,3.452785909E-1
1.456746894E0,-4.351601899E-1,4.134554565E-1,3.197122514E-1
1.459234602E0,-4.287686050E-1,4.038680792E-1,2.984069884E-1
1.461722311E0,-4.277033508E-1,3.942807019E-1,2.834932804E-1
1.464210019E0,-4.330296814E-1,3.836280704E-1,2.717753947E-1
1.466697727E0,-4.447475672E-1,3.740406930E-1,2.664490640E-1
1.469185436E0,-4.617917836E-1,3.665838540E-1,2.675143182E-1
1.471673144E0,-4.873581231E-1,3.601922691E-1,2.728406489E-1
1.474160852E0,-5.171855092E-1,3.580617309E-1,2.845585644E-1
1.476648561E0,-5.534044504E-1,3.580617309E-1,3.016027808E-1
1.479136269E0,-5.938844681E-1,3.591270149E-1,3.229080439E-1
1.481623977E0,-6.364950538E-1,3.623228073E-1,3.495396376E-1
1.484111686E0,-6.801708341E-1,3.665838540E-1,3.793670237E-1
1.486599394E0,-7.227813601E-1,3.687143922E-1,4.134554565E-1
1.489087102E0,-7.643266916E-1,3.708449006E-1,4.496744275E-1
1.491574811E0,-8.016108871E-1,3.687143922E-1,4.869586527E-1
1.494062519E0,-8.325035572E-1,3.644533157E-1,5.263733864E-1
1.496550227E0,-8.580698371E-1,3.569964767E-1,5.636576414E-1
1.499037936E0,-8.751140833E-1,3.474090993E-1,6.009418368E-1
1.501525644E0,-8.857667446E-1,3.356912136E-1,6.360955238E-1
1.504013352E0,-8.889625072E-1,3.250385821E-1,6.691187024E-1
1.506501061E0,-8.836361766E-1,3.143859208E-1,6.989461184E-1
1.508988769E0,-8.708530068E-1,3.037332892E-1,7.266429663E-1
1.511476477E0,-8.495477438E-1,2.962764502E-1,7.522093058E-1
1.513964186E0,-8.197203875E-1,2.898848653E-1,7.756450772E-1
1.516451894E0,-7.813708782E-1,2.866890728E-1,7.990809083E-1
1.518939602E0,-7.366297841E-1,2.856238186E-1,8.214514256E-1
1.521427311E0,-6.854971647E-1,2.877543271E-1,8.438219428E-1
1.523915019E0,-6.279729009E-1,2.909501195E-1,8.661925197E-1
1.526402727E0,-5.683181286E-1,2.941459119E-1,8.853672147E-1
1.528890436E0,-5.054675937E-1,2.984069884E-1,9.002809525E-1
1.531378144E0,-4.447475672E-1,3.037332892E-1,9.109335542E-1
1.533865852E0,-3.850927949E-1,3.079943359E-1,9.151946306E-1
1.536353561E0,-3.307643533E-1,3.133206666E-1,9.141293764E-1
1.538841269E0,-2.828274965E-1,3.175817132E-1,9.056072235E-1
1.541328977E0,-2.434127480E-1,3.186469972E-1,8.906935453E-1
1.543816686E0,-2.135853618E-1,3.154512048E-1,8.683230281E-1
1.546304394E0,-1.933453530E-1,3.047985733E-1,8.406261802E-1
1.548792102E0,-1.826927215E-1,2.888196111E-1,8.097335100E-1
1.551279811E0,-1.816274524E-1,2.643185556E-1,7.745798230E-1
1.553767519E0,-1.922800839E-1,2.355564237E-1,7.383608818E-1
1.556255227E0,-2.093243003E-1,2.035985142E-1,7.032071352E-1
1.558742936E0,-2.338253707E-1,1.695100814E-1,6.712492704E-1
1.561230644E0,-2.647180259E-1,1.354216337E-1,6.424871087E-1
1.563718352E0,-3.009369671E-1,1.034637317E-1,6.179860830E-1
1.566206061E0,-3.414169848E-1,7.363634557E-2,6.009418368E-1
1.568693769E0,-3.861580789E-1,4.913528636E-2,5.892239809E-1
1.571181477E0,-4.340949357E-1,2.996053919E-2,5.849629045E-1
1.573669186E0,-4.841623306E-1,2.037316747E-2,5.870934129E-1
1.576156894E0,-5.342296958E-1,1.824264042E-2,5.966808200E-1
1.578644602E0,-5.842971206E-1,2.463422157E-2,6.137250066E-1
1.581132311E0,-6.301034689E-1,3.848264739E-2,6.382260919E-1
1.583620019E0,-6.705834866E-1,5.978792161E-2,6.691187024E-1
1.586107727E0,-7.046719193E-1,8.641951531E-2,7.042724490E-1
1.588595436E0,-7.302381992E-1,1.162468940E-1,7.447524667E-1
1.591083144E0,-7.483476996E-1,1.471395344E-1,7.862977386E-1
1.593570852E0,-7.590003610E-1,1.780321896E-1,8.310387731E-1
1.596058561E0,-7.621961236E-1,2.025332451E-1,8.747146130E-1
1.598546269E0,-7.600656152E-1,2.238385230E-1,9.173251390E-1
1.601033977E0,-7.515435219E-1,2.376869470E-1,9.567399025E-1
1.603521686E0,-7.387603521E-1,2.440785319E-1,9.908283353E-1
1.606009394E0,-7.217161059E-1,2.440785319E-1,1.018525243E0
1.608497102E0,-6.993455887E-1,2.366216928E-1,1.037699938E0
1.610984811E0,-6.748445034E-1,2.249037921E-1,1.048352599E0
1.613472519E0,-6.460824013E-1,2.099900991E-1,1.048352599E0
1.615960227E0,-6.151897311E-1,1.918806136E-1,1.037699938E0
1.618447936E0,-5.832318664E-1,1.727058738E-1,1.016394615E0
1.620935644E0,-5.512739420E-1,1.524658650E-1,9.833714962E-1
1.623423352E0,-5.182507634E-1,1.322258562E-1,9.407609701E-1
1.625911061E0,-4.841623306E-1,1.098553166E-1,8.896282911E-1
1.628398769E0,-4.479433596E-1,8.322372288E-2,8.310387731E-1
1.630886477E0,-4.095938802E-1,5.659212917E-2,7.649924755E-1
1.633374186E0,-3.669833243E-1,2.783001214E-2,6.946850419E-1
1.635861894E0,-3.201117218E-1,-9.321057005E-4,6.201165915E-1
1.638349602E0,-2.689790726E-1,-2.756369673E-2,5.423523784E-1
1.640837311E0,-2.125200927E-1,-5.206476152E-2,4.635228515E-1
1.643325019E0,-1.528653353E-1,-7.230477035E-2,3.836280704E-1
1.645812727E0,-9.108003974E-2,-9.041424841E-2,3.037332892E-1
1.648300436E0,-2.929474972E-2,-1.063932031E-1,2.227732539E-1
1.650788144E0,3.249054030E-2,-1.213068962E-1,1.418132186E-1
1.653275852E0,9.108003974E-2,-1.340900660E-1,6.404897571E-2
1.655763561E0,1.464737505E-1,-1.468732208E-1,-1.265000552E-2
1.658251269E0,1.976063997E-1,-1.575258672E-1,-8.615319431E-2
1.660738977E0,2.423474789E-1,-1.660479754E-1,-1.553953290E-1
1.663226686E0,2.806969583E-1,-1.724395454E-1,-2.203764170E-1
1.665714394E0,3.115896285E-1,-1.756353378E-1,-2.789659202E-1
1.668202102E0,3.360906839E-1,-1.767006069E-1,-3.311638236E-1
1.670689811E0,3.531349003E-1,-1.756353378E-1,-3.769701719E-1
1.673177519E0,3.627222776E-1,-1.703090221E-1,-4.153196514E-1
1.675665227E0,3.637875319E-1,-1.639174372E-1,-4.451470375E-1
1.678152936E0,3.552654386E-1,-1.553953290E-1,-4.685828388E-1
1.680640644E0,3.382211924E-1,-1.458079666E-1,-4.834965467E-1
1.683128352E0,3.115896285E-1,-1.351553202E-1,-4.909533858E-1
1.685616061E0,2.743053734E-1,-1.245026886E-1,-4.930838943E-1
1.688103769E0,2.274337858E-1,-1.138500497E-1,-4.898881316E-1
1.690591477E0,1.720400751E-1,-1.063932031E-1,-4.824312627E-1
1.693079186E0,1.059937328E-1,-1.010668874E-1,-4.717786312E-1
1.695566894E0,3.142527863E-2,-9.787109494E-2,-4.579302073E-1
1.698054602E0,-4.953476042E-2,-9.787109494E-2,-4.430165291E-1
1.700542311E0,-1.347558498E-1,-1.010668874E-1,-4.291680753E-1
1.703030019E0,-2.231727391E-1,-1.074584723E-1,-4.163849354E-1
1.705517727E0,-3.115896285E-1,-1.159805804E-1,-4.057323039E-1
1.708005436E0,-3.989412189E-1,-1.276984811E-1,-3.972101808E-1
1.710493144E0,-4.830970466E-1,-1.404816359E-1,-3.908185959E-1
1.712980852E0,-5.608612895E-1,-1.543300748E-1,-3.886880577E-1
1.715468561E0,-6.311687231E-1,-1.681784987E-1,-3.876228034E-1
1.717956269E0,-6.918887496E-1,-1.809616536E-1,-3.897533417E-1
1.720443977E0,-7.419561148E-1,-1.905490309E-1,-3.950796425E-1
1.722931686E0,-7.792403698E-1,-1.969406158E-1,-4.004059732E-1
1.725419394E0,-8.058719635E-1,-2.001364082E-1,-4.057323039E-1
1.727907102E0,-8.197203875E-1,-2.001364082E-1,-4.131891429E-1
1.730394811E0,-8.261119723E-1,-1.980058849E-1,-4.195807278E-1
1.732882519E0,-8.229161501E-1,-1.926795542E-1,-4.227765203E-1
1.735370227E0,-8.133288026E-1,-1.852227151E-1,-4.249070287E-1
1.737857936E0,-7.994803786E-1,-1.756353378E-1,-4.238417745E-1
1.740345644E0,-7.824361324E-1,-1.639174372E-1,-4.185154438E-1
1.742833352E0,-7.653919458E-1,-1.511342824E-1,-4.099933505E-1
1.745321061E0,-7.472824454E-1,-1.383511126E-1,-3.972101808E-1
1.747808769E0,-7.302381992E-1,-1.255679578E-1,-3.791007102E-1
1.750296477E0,-7.153245211E-1,-1.127847880E-1,-3.545996249E-1
1.752784186E0,-7.004108429E-1,-1.000016257E-1,-3.237069845E-1
1.755271894E0,-6.876276731E-1,-8.721846342E-2,-2.864227593E-1
1.757759602E0,-6.759097576E-1,-7.550056279E-2,-2.459427416E-1
1.760247311E0,-6.641919017E-1,-6.378266215E-2,-2.033322006E-1
1.762735019E0,-6.524739861E-1,-5.526055023E-2,-1.607216448E-1
1.765222727E0,-6.407560706E-1,-4.886896908E-2,-1.202416345E-1
1.767710436E0,-6.269076467E-1,-4.567318037E-2,-8.402267098E-2
1.770198144E0,-6.130592227E-1,-4.673844203E-2,-5.206476152E-2
1.772685852E0,-5.960150361E-1,-4.886896908E-2,-2.436790615E-2
1.775173561E0,-5.757750273E-1,-5.313002318E-2,-5.193160381E-3
1.777661269E0,-5.512739420E-1,-5.739107728E-2,7.590003312E-3
1.780148977E0,-5.225118399E-1,-6.271740049E-2,1.398158539E-2
1.782636686E0,-4.894886315E-1,-6.591318548E-2,1.504684892E-2
1.785124394E0,-4.511391521E-1,-6.804371625E-2,1.185105834E-2
1.787612102E0,-4.095938802E-1,-7.017423958E-2,2.263685223E-3
1.790099811E0,-3.627222776E-1,-7.017423958E-2,-1.158474199E-2
1.792587519E0,-3.126548827E-1,-6.910897791E-2,-2.969422378E-2
1.795075227E0,-2.615222335E-1,-6.804371625E-2,-5.206476152E-2
1.797562936E0,-2.082590461E-1,-6.591318548E-2,-7.763108611E-2
1.800050644E0,-1.571263820E-1,-6.484792382E-2,-1.042626798E-1
1.802538352E0,-1.081242561E-1,-6.271740049E-2,-1.340900660E-1
1.805026061E0,-6.231792271E-2,-6.058686972E-2,-1.639174372E-1
1.807513769E0,-2.077264152E-2,-5.845634267E-2,-1.948100924E-1
1.810001477E0,1.544632297E-2,-5.526055023E-2,-2.267680019E-1
1.812489186E0,4.527370632E-2,-5.206476152E-2,-2.576606572E-1
1.814976894E0,7.084003091E-2,-4.886896908E-2,-2.896185517E-1
1.817464602E0,9.001477808E-2,-4.673844203E-2,-3.205111921E-1
1.819952311E0,1.070589945E-1,-4.673844203E-2,-3.503385782E-1
1.822440019E0,1.187768951E-1,-4.673844203E-2,-3.780354261E-1
1.824927727E0,1.283642650E-1,-4.780370742E-2,-4.025365114E-1
1.827415436E0,1.336905807E-1,-4.886896908E-2,-4.238417745E-1
1.829903144E0,1.347558498E-1,-4.993423447E-2,-4.387554526E-1
1.832390852E0,1.326253265E-1,-4.780370742E-2,-4.494080842E-1
1.834878561E0,1.262337416E-1,-4.460791498E-2,-4.547344148E-1
1.837366269E0,1.166463718E-1,-3.928159550E-2,-4.536691606E-1
1.839853977E0,1.006674170E-1,-2.969422378E-2,-4.494080842E-1
1.842341686E0,8.042740822E-2,-1.904158667E-2,-4.387554526E-1
1.844829394E0,5.592634156E-2,-5.193160381E-3,-4.249070287E-1
1.847317102E0,2.609895915E-2,9.720530361E-3,-4.046670198E-1
1.849804811E0,-9.054740891E-3,2.783001214E-2,-3.812312186E-1
1.852292519E0,-5.060002208E-2,4.593949392E-2,-3.524691164E-1
1.854780227E0,-9.640636295E-2,6.511423737E-2,-3.205111921E-1
1.857267936E0,-1.475390196E-1,8.535424620E-2,-2.853575051E-1
1.859755644E0,-2.039979845E-1,1.066595241E-1,-2.470080107E-1
1.862243352E0,-2.636527419E-1,1.247690022E-1,-2.086585164E-1
1.864731061E0,-3.275685608E-1,1.418132186E-1,-1.692437679E-1
1.867218769E0,-3.936149180E-1,1.556616426E-1,-1.308942735E-1
1.869706477E0,-4.617917836E-1,1.673795432E-1,-9.467530251E-2
1.872194186E0,-5.299686790E-1,1.748363972E-1,-6.058686972E-2
1.874681894E0,-5.970802903E-1,1.801627129E-1,-2.969422378E-2
1.877169602E0,-6.599308252E-1,1.833585054E-1,-9.321057005E-4
1.879657311E0,-7.185203433E-1,1.865542978E-1,2.569948509E-2
1.882145019E0,-7.707182169E-1,1.897500902E-1,4.807002097E-2
1.884632727E0,-8.154593110E-1,1.918806136E-1,6.937529147E-2
1.887120436E0,-8.527435660E-1,1.972069293E-1,8.748477697E-2
1.889608144E0,-8.815056682E-1,2.035985142E-1,1.023984700E-1
1.892095852E0,-9.006804228E-1,2.121206224E-1,1.173121557E-1
1.894583561E0,-9.123983383E-1,2.217079997E-1,1.300953180E-1
1.897071269E0,-9.155941010E-1,2.334259003E-1,1.407479644E-1
1.899558977E0,-9.081372619E-1,2.462090552E-1,1.503353268E-1
1.902046686E0,-8.932235837E-1,2.600574791E-1,1.588574350E-1
1.904534394E0,-8.697877526E-1,2.739059031E-1,1.663142890E-1
1.907022102E0,-8.399603963E-1,2.877543271E-1,1.716406047E-1
1.909509811E0,-8.026761413E-1,3.026680350E-1,1.769669205E-1
1.911997519E0,-7.600656152E-1,3.175817132E-1,1.812279820E-1
1.914485227E0,-7.153245211E-1,3.324954212E-1,1.833585054E-1
1.916972936E0,-6.684529185E-1,3.463438451E-1,1.854890287E-1
1.919460644E0,-6.194508076E-1,3.601922691E-1,1.897500902E-1
1.921948352E0,-5.704486966E-1,3.729754388E-1,1.950764060E-1
1.924436061E0,-5.235770941E-1,3.836280704E-1,2.025332451E-1
1.926923769E0,-4.788360000E-1,3.942807019E-1,2.131858915E-1
1.929411477E0,-4.383559823E-1,4.038680792E-1,2.270343155E-1
1.931899186E0,-4.042675495E-1,4.113249183E-1,2.440785319E-1
1.934386894E0,-3.744401634E-1,4.155859649E-1,2.600574791E-1
1.936874602E0,-3.520696461E-1,4.177165031E-1,2.749711871E-1
1.939362311E0,-3.371559381E-1,4.155859649E-1,2.866890728E-1
1.941850019E0,-3.296990991E-1,4.102596641E-1,2.930806577E-1
1.944337727E0,-3.286338449E-1,4.017375410E-1,2.962764502E-1
1.946825436E0,-3.318296373E-1,3.900196552E-1,2.930806577E-1
1.949313144E0,-3.392864764E-1,3.751059473E-1,2.845585644E-1
1.951800852E0,-3.478085697E-1,3.569964767E-1,2.685796022E-1
1.954288561E0,-3.552654386E-1,3.356912136E-1,2.494048476E-1
1.956776269E0,-3.616569936E-1,3.111901283E-1,2.238385230E-1
1.959263977E0,-3.648527861E-1,2.856238186E-1,1.940111369E-1
1.961751686E0,-3.637875319E-1,2.579269707E-1,1.609879732E-1
1.964239394E0,-3.563306928E-1,2.291648388E-1,1.268995255E-1
1.966727102E0,-3.446127772E-1,2.014679909E-1,9.281109273E-2
1.969214811E0,-3.243727684E-1,1.759016514E-1,5.872265995E-2
1.971702519E0,-2.998717129E-1,1.514005959E-1,2.463422157E-2
1.974190227E0,-2.689790726E-1,1.300953180E-1,-7.323687430E-3
1.976677936E0,-2.316948473E-1,1.109205782E-1,-3.715106845E-2
1.979165644E0,-1.912148297E-1,9.707214683E-2,-6.378266215E-2
1.981653352E0,-1.464737505E-1,8.748477697E-2,-8.828372508E-2
1.984141061E0,-1.006674170E-1,8.535424620E-2,-1.085237339E-1
1.986628769E0,-5.273054913E-2,8.748477697E-2,-1.255679578E-1
1.989116477E0,-4.793686327E-3,9.494162351E-2,-1.404816359E-1
1.991604186E0,4.101264849E-2,1.055942550E-1,-1.511342824E-1
1.994091894E0,8.255793154E-2,1.194426864E-1,-1.585911214E-1
1.996579602E0,1.198421568E-1,1.354216337E-1,-1.617869139E-1
1.999067311E0,1.518000662E-1,1.514005959E-1,-1.617869139E-1
2.001555019E0,1.784316599E-1,1.652490199E-1,-1.564605981E-1
2.004042727E0,1.965411454E-1,1.790974438E-1,-1.479384899E-1
2.006530436E0,2.093243003E-1,1.897500902E-1,-1.351553202E-1
2.009018144E0,2.146506310E-1,1.982721984E-1,-1.191763729E-1
2.011505852E0,2.125200927E-1,2.046637833E-1,-9.893636405E-2
2.013993561E0,2.050632536E-1,2.078595608E-1,-7.550056279E-2
2.016481269E0,1.912148297E-1,2.078595608E-1,-5.099949613E-2
2.018968977E0,1.720400751E-1,2.035985142E-1,-2.330264263E-2
2.021456686E0,1.475390196E-1,1.961416751E-1,4.394212738E-3
2.023944394E0,1.187768951E-1,1.854890287E-1,2.996053919E-2
2.026432102E0,8.681898564E-2,1.716406047E-1,5.552686751E-2
2.028919811E0,5.379581451E-2,1.577921808E-1,7.896266878E-2
2.031407519E0,2.077264152E-2,1.418132186E-1,1.002679393E-1
2.033895227E0,-1.118526794E-2,1.268995255E-1,1.173121557E-1
2.036382936E0,-4.101264849E-2,1.130511016E-1,1.300953180E-1
2.038870644E0,-6.764423847E-2,1.002679393E-1,1.386174262E-1
2.041358352E0,-8.894951642E-2,8.855003864E-2,1.439437568E-1
2.043846061E0,-1.049284711E-1,7.896266878E-2,1.460742801E-1
2.046333769E0,-1.145158410E-1,7.150582224E-2,1.450090110E-1
2.048821477E0,-1.187768951E-1,6.724476814E-2,1.418132186E-1
2.051309186E0,-1.166463718E-1,6.404897571E-2,1.364869028E-1
2.053796894E0,-1.102547869E-1,6.404897571E-2,1.290300637E-1
2.056284602E0,-9.853688627E-2,6.617950648E-2,1.205079481E-1
2.058772311E0,-8.255793154E-2,6.937529147E-2,1.098553166E-1
2.061260019E0,-6.125266105E-2,7.257108390E-2,9.920267761E-2
2.063747727E0,-3.781685978E-2,7.576687634E-2,8.748477697E-2
2.066235436E0,-1.012000442E-2,7.789740711E-2,7.683213800E-2
2.068723144E0,1.651158556E-2,7.896266878E-2,6.617950648E-2
2.071210852E0,4.527370632E-2,7.896266878E-2,5.552686751E-2
2.073698561E0,7.297056168E-2,8.002793044E-2,4.593949392E-2
2.076186269E0,9.960214794E-2,8.002793044E-2,3.741738573E-2
2.078673977E0,1.251684725E-1,8.109319210E-2,3.102580272E-2
2.081161686E0,1.475390196E-1,8.322372288E-2,2.569948509E-2
2.083649394E0,1.688442826E-1,8.428898454E-2,2.250369452E-2
2.086137102E0,1.858884990E-1,8.641951531E-2,2.250369452E-2
2.088624811E0,1.986716688E-1,8.748477697E-2,2.250369452E-2
2.091112519E0,2.082590461E-1,8.748477697E-2,2.569948509E-2
2.093600227E0,2.114548385E-1,8.748477697E-2,3.209106624E-2
2.096087936E0,2.125200927E-1,8.428898454E-2,3.954791278E-2
2.098575644E0,2.082590461E-1,8.109319210E-2,4.913528636E-2
2.101063352E0,2.008021921E-1,7.470161468E-2,5.978792161E-2
2.103551061E0,1.890842915E-1,6.724476814E-2,7.150582224E-2
2.106038769E0,1.741705984E-1,5.872265995E-2,8.322372288E-2
2.108526477E0,1.571263820E-1,4.700475931E-2,9.494162351E-2
2.111014186E0,1.379516423E-1,3.528685868E-2,1.055942550E-1
2.113501894E0,1.198421568E-1,2.143843099E-2,1.151816323E-1
2.115989602E0,1.017326787E-1,8.655266836E-3,1.226384789E-1
2.118477311E0,8.681898564E-2,-4.127896391E-3,1.247690022E-1
2.120965019E0,7.403582335E-2,-1.478053257E-2,1.268995255E-1
2.123452727E0,6.551371515E-2,-2.436790615E-2,1.247690022E-1
2.125940436E0,6.125266105E-2,-3.182475269E-2,1.205079481E-1
2.128428144E0,6.338318437E-2,-3.608580679E-2,1.151816323E-1
2.130915852E0,6.870950758E-2,-3.821633384E-2,1.077247858E-1
2.133403561E0,7.936213911E-2,-3.821633384E-2,1.002679393E-1
2.135891269E0,9.534109384E-2,-3.608580679E-2,9.281109273E-2
2.138379029E0,1.134505793E-1,-3.289001435E-2,8.535424620E-2
2.140866790E0,1.358211190E-1,-2.756369673E-2,7.896266878E-2
2.143354550E0,1.571263820E-1,-2.010685205E-2,7.470161468E-2
2.145842311E0,1.794969290E-1,-1.158474199E-2,7.257108390E-2
2.148330071E0,1.997369379E-1,-3.062632866E-3,7.150582224E-2
2.150817831E0,2.178464085E-1,5.459476262E-3,7.257108390E-2
2.153305592E0,2.327601016E-1,1.504684892E-2,7.683213800E-2
2.155793352E0,2.444780022E-1,2.356895804E-2,8.428898454E-2
2.158281113E0,2.498043180E-1,3.102580272E-2,9.281109273E-2
2.160768873E0,2.508696020E-1,3.954791278E-2,1.045289934E-1
2.163256634E0,2.455432713E-1,4.700475931E-2,1.183774248E-1
2.165744394E0,2.348906398E-1,5.126581341E-2,1.332911104E-1
2.168232154E0,2.189116776E-1,5.552686751E-2,1.492700726E-1
2.170719915E0,1.976063997E-1,5.659212917E-2,1.652490199E-1
2.173207675E0,1.720400751E-1,5.659212917E-2,1.812279820E-1
2.175695436E0,1.422126889E-1,5.233107507E-2,1.961416751E-1
2.178183196E0,1.113200486E-1,4.700475931E-2,2.099900991E-1
2.180670956E0,7.936213911E-2,3.741738573E-2,2.206427306E-1
2.183158717E0,4.740423337E-2,2.783001214E-2,2.291648388E-1
2.185646477E0,1.864211448E-2,1.611211337E-2,2.344911546E-1
2.188134238E0,-6.924213842E-3,4.394212738E-3,2.366216928E-1
2.190621998E0,-2.929474972E-2,-7.323687430E-3,2.355564237E-1
2.193109759E0,-4.740423337E-2,-1.797632314E-2,2.302301079E-1
2.195597519E0,-6.018739566E-2,-2.862896025E-2,2.217079997E-1
2.198085279E0,-6.657897681E-2,-3.608580679E-2,2.099900991E-1
2.200573040E0,-6.764423847E-2,-4.141212255E-2,1.950764060E-1
2.203060800E0,-6.338318437E-2,-4.460791498E-2,1.790974438E-1
2.205548509E0,-5.379581451E-2,-4.567318037E-2,1.609879732E-1
2.208036217E0,-3.994738683E-2,-4.354264960E-2,1.418132186E-1
2.210523925E0,-2.183790505E-2,-3.928159550E-2,1.226384789E-1
2.213011634E0,-5.326318205E-4,-3.395527974E-2,1.045289934E-1
2.215499342E0,2.183790505E-2,-2.649843320E-2,8.748477697E-2
2.217987050E0,4.633896798E-2,-1.904158667E-2,6.937529147E-2
2.220474759E0,7.190529257E-2,-9.454214945E-3,5.233107507E-2
2.222962467E0,9.534109384E-2,1.331579551E-4,3.528685868E-2
2.225450175E0,1.177116334E-1,8.655266836E-3,2.037316747E-2
2.227937884E0,1.368863732E-1,1.717737690E-2,5.459476262E-3
2.230425592E0,1.539305896E-1,2.463422157E-2,-7.323687430E-3
2.232913300E0,1.667137593E-1,3.102580272E-2,-1.797632314E-2
2.235401009E0,1.752358675E-1,3.635212034E-2,-2.543316968E-2
2.237888717E0,1.805621833E-1,4.167843983E-2,-3.075948730E-2
2.240376425E0,1.826927215E-1,4.487423226E-2,-3.289001435E-2
2.242864134E0,1.805621833E-1,4.593949392E-2,-3.075948730E-2
2.245351842E0,1.763011366E-1,4.593949392E-2,-2.756369673E-2
2.247839550E0,1.688442826E-1,4.274370521E-2,-2.010685205E-2
2.250327259E0,1.592569202E-1,3.741738573E-2,-1.158474199E-2
2.252814967E0,1.464737505E-1,2.996053919E-2,-1.997369342E-3
2.255302675E0,1.326253265E-1,2.037316747E-2,8.655266836E-3
2.257790384E0,1.177116334E-1,9.720530361E-3,1.824264042E-2
2.260278092E0,1.006674170E-1,-1.997369342E-3,2.676474862E-2
2.262765800E0,8.468846232E-2,-1.265000552E-2,3.528685868E-2
2.265253509E0,6.870950758E-2,-2.330264263E-2,4.061317816E-2
2.267741217E0,5.379581451E-2,-3.289001435E-2,4.700475931E-2
2.270228925E0,3.888212144E-2,-4.034686089E-2,5.020054802E-2
2.272716634E0,2.716422267E-2,-4.673844203E-2,5.339634046E-2
2.275204342E0,1.544632297E-2,-5.099949613E-2,5.446160212E-2
2.277692050E0,7.989477366E-3,-5.313002318E-2,5.446160212E-2
2.280179759E0,2.663159044E-3,-5.313002318E-2,5.552686751E-2
2.282667467E0,-5.326318205E-4,-4.993423447E-2,5.659212917E-2
2.285155175E0,-2.663159044E-3,-4.567318037E-2,5.659212917E-2
2.287642884E0,-1.597895520E-3,-4.034686089E-2,5.446160212E-2
2.290130592E0,5.326318205E-4,-3.289001435E-2,5.233107507E-2
2.292618300E0,3.728422802E-3,-2.543316968E-2,4.913528636E-2
2.295106009E0,6.924213842E-3,-1.691105962E-2,4.593949392E-2
2.297593717E0,1.012000442E-2,-9.454214945E-3,4.167843983E-2
2.300081425E0,1.331579592E-2,-9.321057005E-4,3.741738573E-2
2.302569134E0,1.651158556E-2,7.590003312E-3,3.315633163E-2
2.305056842E0,1.757685095E-2,1.504684892E-2,2.996053919E-2
2.307544550E0,1.970737800E-2,2.143843099E-2,2.676474862E-2
2.310032259E0,2.077264152E-2,2.676474862E-2,2.569948509E-2
2.312519967E0,2.183790505E-2,3.209106624E-2,2.356895804E-2
2.315007675E0,2.077264152E-2,3.422159329E-2,2.356895804E-2
2.317495384E0,2.077264152E-2,3.635212034E-2,2.356895804E-2
2.319983092E0,1.757685095E-2,3.528685868E-2,2.356895804E-2
2.322470800E0,1.544632297E-2,3.315633163E-2,2.463422157E-2
2.324958509E0,1.225053146E-2,2.783001214E-2,2.569948509E-2
2.327446217E0,9.054740891E-3,2.250369452E-2,2.676474862E-2
2.329933925E0,5.858949851E-3,1.398158539E-2,2.783001214E-2
2.332421634E0,3.728422802E-3,4.394212738E-3,2.783001214E-2
2.334909342E0,1.597895520E-3,-6.258423906E-3,2.783001214E-2
2.337397050E0,1.597895520E-3,-1.691105962E-2,2.783001214E-2
2.339884759E0,1.597895520E-3,-2.969422378E-2,2.676474862E-2
2.342372467E0,1.597895520E-3,-4.141212255E-2,2.463422157E-2
2.344860175E0,2.663159044E-3,-5.313002318E-2,2.143843099E-2
2.347347884E0,4.793686327E-3,-6.484792382E-2,1.824264042E-2
2.349835592E0,6.924213842E-3,-7.443529367E-2,1.504684892E-2
2.352323300E0,9.054740891E-3,-8.402267098E-2,9.720530361E-3
2.354811009E0,1.225053146E-2,-9.147951752E-2,3.328948980E-3
2.357298717E0,1.438105945E-2,-9.680583328E-2,-3.062632866E-3
2.359786425E0,1.544632297E-2,-1.021321490E-1,-1.051947847E-2
2.362274134E0,1.757685095E-2,-1.053279415E-1,-1.797632314E-2
2.364761842E0,1.864211448E-2,-1.063932031E-1,-2.436790615E-2
2.367249550E0,1.970737800E-2,-1.074584723E-1,-3.075948730E-2
2.369737259E0,1.970737800E-2,-1.063932031E-1,-3.608580679E-2
2.372224967E0,1.970737800E-2,-1.053279415E-1,-4.034686089E-2
2.374712675E0,1.864211448E-2,-1.042626798E-1,-4.460791498E-2
2.377200384E0,1.651158556E-2,-1.031974182E-1,-4.780370742E-2
2.379688092E0,1.225053146E-2,-1.042626798E-1,-4.993423447E-2
2.382175800E0,7.989477366E-3,-1.063932031E-1,-5.206476152E-2
2.384663509E0,2.663159044E-3,-1.085237339E-1,-5.206476152E-2
2.387151217E0,-2.663159044E-3,-1.127847880E-1,-4.993423447E-2
2.389638925E0,-9.054740891E-3,-1.159805804E-1,-4.673844203E-2
2.392126634E0,-1.438105945E-2,-1.213068962E-1,-4.354264960E-2
2.394614342E0,-1.970737800E-2,-1.255679578E-1,-3.928159550E-2
2.397102050E0,-2.503369562E-2,-1.308942735E-1,-3.502054140E-2
2.399589759E0,-2.929474972E-2,-1.340900660E-1,-3.182475269E-2
2.402077467E0,-3.249054030E-2,-1.372858584E-1,-2.756369673E-2
2.404565175E0,-3.462106735E-2,-1.404816359E-1,-2.330264263E-2
2.407052884E0,-3.568633273E-2,-1.415469050E-1,-2.010685205E-2
2.409540592E0,-3.568633273E-2,-1.415469050E-1,-1.691105962E-2
2.412028300E0,-3.355580568E-2,-1.415469050E-1,-1.265000552E-2
2.414516009E0,-2.929474972E-2,-1.404816359E-1,-9.454214945E-3
2.417003717E0,-2.503369562E-2,-1.372858584E-1,-6.258423906E-3
2.419491425E0,-1.970737800E-2,-1.351553202E-1,-1.997369342E-3
2.421979134E0,-1.331579592E-2,-1.308942735E-1,2.263685223E-3
2.424466842E0,-5.858949851E-3,-1.287637353E-1,6.524739787E-3
2.426954550E0,1.597895520E-3,-1.255679578E-1,9.720530361E-3
2.429442259E0,6.924213842E-3,-1.234374270E-1,1.398158539E-2
2.431929967E0,1.225053146E-2,-1.213068962E-1,1.717737690E-2
2.434417675E0,1.544632297E-2,-1.191763729E-1,2.143843099E-2
2.436905384E0,1.757685095E-2,-1.170458421E-1,2.569948509E-2
2.439393092E0,1.651158556E-2,-1.138500497E-1,2.889527567E-2
2.441880800E0,1.331579592E-2,-1.095889956E-1,3.209106624E-2
2.444368509E0,7.989477366E-3,-1.063932031E-1,3.422159329E-2
2.446856217E0,5.326318205E-4,-1.010668874E-1,3.635212034E-2
2.449343925E0,-7.989477366E-3,-9.787109494E-2,3.635212034E-2
2.451831634E0,-1.757685095E-2,-9.467530251E-2,3.635212034E-2
2.454319342E0,-2.822948620E-2,-9.361004084E-2,3.528685868E-2
2.456807050E0,-3.781685978E-2,-9.254477918E-2,3.315633163E-2
2.459294759E0,-4.740423337E-2,-9.361004084E-2,2.996053919E-2
2.461782467E0,-5.805686861E-2,-9.574057162E-2,2.463422157E-2
2.464270175E0,-6.551371515E-2,-9.787109494E-2,1.930790395E-2
2.466757884E0,-7.297056168E-2,-1.010668874E-1,1.398158539E-2
2.469245592E0,-7.829687744E-2,-1.053279415E-1,8.655266836E-3
2.471733300E0,-8.149266988E-2,-1.074584723E-1,3.328948980E-3
2.474221009E0,-8.362319320E-2,-1.106542572E-1,-1.997369342E-3
2.476708717E0,-8.468846232E-2,-1.138500497E-1,-6.258423906E-3
2.479196425E0,-8.255793154E-2,-1.138500497E-1,-1.051947847E-2
2.481684134E0,-7.936213911E-2,-1.149153188E-1,-1.478053257E-2
2.484171842E0,-7.297056168E-2,-1.138500497E-1,-1.797632314E-2
2.486659550E0,-6.657897681E-2,-1.138500497E-1,-2.117211558E-2
2.489147259E0,-5.805686861E-2,-1.127847880E-1,-2.330264263E-2
2.491634967E0,-4.633896798E-2,-1.117195264E-1,-2.543316968E-2
2.494122675E0,-3.462106735E-2,-1.095889956E-1,-2.756369673E-2
2.496610384E0,-2.077264152E-2,-1.074584723E-1,-2.862896025E-2
2.499098092E0,-6.924213842E-3,-1.053279415E-1,-2.969422378E-2
2.501585800E0,7.989477366E-3,-1.042626798E-1,-2.969422378E-2
2.504073509E0,2.290316857E-2,-1.010668874E-1,-2.969422378E-2
2.506561217E0,3.781685978E-2,-1.000016257E-1,-2.862896025E-2
2.509048925E0,5.273054913E-2,-9.680583328E-2,-2.649843320E-2
2.511536634E0,6.657897681E-2,-9.361004084E-2,-2.436790615E-2
2.514024342E0,8.042740822E-2,-8.934898674E-2,-2.117211558E-2
2.516512050E0,9.108003974E-2,-8.402267098E-2,-1.691105962E-2
2.518999759E0,1.017326787E-1,-7.869634777E-2,-1.158474199E-2
2.521487467E0,1.091895252E-1,-7.230477035E-2,-6.258423906E-3
2.523975175E0,1.155811027E-1,-6.484792382E-2,-9.321057005E-4
2.526462884E0,1.187768951E-1,-5.739107728E-2,5.459476262E-3
2.528950592E0,1.209074259E-1,-4.993423447E-2,1.185105834E-2
2.531438300E0,1.209074259E-1,-4.354264960E-2,1.717737690E-2
2.533926009E0,1.187768951E-1,-3.821633384E-2,2.250369452E-2
2.536413717E0,1.145158410E-1,-3.502054140E-2,2.783001214E-2
2.538901425E0,1.091895252E-1,-3.289001435E-2,2.996053919E-2
2.541389134E0,1.038632020E-1,-3.182475269E-2,3.315633163E-2
2.543876842E0,9.747162461E-2,-3.289001435E-2,3.528685868E-2
2.546364550E0,9.108003974E-2,-3.608580679E-2,3.635212034E-2
2.548852259E0,8.362319320E-2,-4.034686089E-2,3.528685868E-2
2.551339967E0,7.723161578E-2,-4.354264960E-2,3.422159329E-2
2.553827675E0,7.190529257E-2,-4.780370742E-2,3.209106624E-2
2.556315384E0,6.657897681E-2,-5.313002318E-2,2.889527567E-2
2.558803092E0,6.338318437E-2,-5.739107728E-2,2.569948509E-2
2.561290800E0,6.018739566E-2,-6.165213138E-2,2.143843099E-2
2.563778509E0,6.018739566E-2,-6.484792382E-2,1.824264042E-2
2.566266217E0,6.231792271E-2,-6.591318548E-2,1.398158539E-2
2.568753925E0,6.444845349E-2,-6.697845459E-2,8.655266836E-3
2.571241634E0,6.870950758E-2,-6.591318548E-2,4.394212738E-3
2.573729342E0,7.297056168E-2,-6.378266215E-2,-9.321057005E-4
2.576217050E0,7.829687744E-2,-6.058686972E-2,-5.193160381E-3
2.578704759E0,8.255793154E-2,-5.739107728E-2,-7.323687430E-3
2.581192467E0,8.788424730E-2,-5.313002318E-2,-8.388951421E-3
2.583680175E0,9.108003974E-2,-4.673844203E-2,-8.388951421E-3
2.586167884E0,9.427583218E-2,-4.141212255E-2,-7.323687430E-3
2.588655592E0,9.534109384E-2,-3.608580679E-2,-3.062632866E-3
2.591143300E0,9.534109384E-2,-2.969422378E-2,2.263685223E-3
2.593631009E0,9.214530140E-2,-2.330264263E-2,1.078579482E-2
2.596118717E0,8.788424730E-2,-1.478053257E-2,2.143843099E-2
2.598606425E0,8.149266988E-2,-7.323687430E-3,3.315633163E-2
2.601094134E0,7.190529257E-2,1.331579551E-4,4.807002097E-2
2.603581842E0,6.125266105E-2,7.590003312E-3,6.404897571E-2
2.606069550E0,4.846949503E-2,1.291632187E-2,8.109319210E-2
2.608557259E0,3.462106735E-2,1.824264042E-2,9.813741595E-2
2.611044967E0,1.864211448E-2,2.143843099E-2,1.141163707E-1
2.613532675E0,2.663159044E-3,2.250369452E-2,1.279647946E-1
2.616020384E0,-1.331579592E-2,2.250369452E-2,1.407479644E-1
2.618508092E0,-2.822948620E-2,2.250369452E-2,1.514005959E-1
2.620995800E0,-4.314317927E-2,2.037316747E-2,1.599227041E-1
2.623483509E0,-5.592634156E-2,1.824264042E-2,1.663142890E-1
2.625971217E0,-6.870950758E-2,1.398158539E-2,1.705753356E-1
2.628458925E0,-7.829687744E-2,1.078579482E-2,1.716406047E-1
2.630946634E0,-8.468846232E-2,6.524739787E-3,1.716406047E-1
2.633434342E0,-8.894951642E-2,3.328948980E-3,1.695100814E-1
2.635922050E0,-9.108003974E-2,1.198421582E-3,1.652490199E-1
2.638409759E0,-8.894951642E-2,-9.321057005E-4,1.588574350E-1
2.640897467E0,-8.468846232E-2,-3.062632866E-3,1.503353268E-1
2.643385175E0,-7.829687744E-2,-5.193160381E-3,1.407479644E-1
2.645872884E0,-6.764423847E-2,-6.258423906E-3,1.300953180E-1
2.648360592E0,-5.486107618E-2,-8.388951421E-3,1.183774248E-1
2.650848300E0,-4.101264849E-2,-9.454214945E-3,1.055942550E-1
2.653336009E0,-2.503369562E-2,-9.454214945E-3,9.387636185E-2
2.655823717E0,-6.924213842E-3,-9.454214945E-3,8.002793044E-2
2.658311425E0,1.118526794E-2,-9.454214945E-3,6.724476814E-2
2.660799134E0,3.036001325E-2,-8.388951421E-3,5.339634046E-2
2.663286842E0,4.953476042E-2,-7.323687430E-3,4.167843983E-2
2.665774550E0,6.764423847E-2,-5.193160381E-3,2.996053919E-2
2.668262259E0,8.468846232E-2,-3.062632866E-3,1.824264042E-2
2.670749967E0,1.017326787E-1,-9.321057005E-4,7.590003312E-3
2.673237675E0,1.155811027E-1,1.331579551E-4,-9.321057005E-4
2.675725384E0,1.272990108E-1,2.263685223E-3,-8.388951421E-3
2.678213092E0,1.368863732E-1,4.394212738E-3,-1.478053257E-2
2.680700800E0,1.443432271E-1,6.524739787E-3,-1.797632314E-2
2.683188509E0,1.486042738E-1,9.720530361E-3,-2.223737910E-2
2.685676217E0,1.496695429E-1,1.291632187E-2,-2.223737910E-2
2.688163925E0,1.475390196E-1,1.504684892E-2,-2.117211558E-2
2.690651634E0,1.443432271E-1,1.824264042E-2,-1.904158667E-2
2.693139342E0,1.368863732E-1,2.037316747E-2,-1.478053257E-2
2.695627050E0,1.283642650E-1,2.037316747E-2,-9.454214945E-3
2.698114759E0,1.187768951E-1,2.037316747E-2,-1.997369342E-3
2.700602467E0,1.059937328E-1,2.037316747E-2,6.524739787E-3
2.703090175E0,9.427583218E-2,1.930790395E-2,1.504684892E-2
2.705577884E0,8.042740822E-2,1.717737690E-2,2.463422157E-2
2.708065592E0,6.551371515E-2,1.398158539E-2,3.528685868E-2
2.710553300E0,5.060002208E-2,1.078579482E-2,4.380896688E-2
2.713041009E0,3.462106735E-2,5.459476262E-3,5.339634046E-2
2.715528717E0,1.970737800E-2,2.263685223E-3,6.191844866E-2
2.718016425E0,4.793686327E-3,-3.062632866E-3,6.937529147E-2
2.720504134E0,-7.989477366E-3,-5.193160381E-3,7.576687634E-2
2.722991842E0,-1.864211448E-2,-8.388951421E-3,8.109319210E-2
2.725479550E0,-2.822948620E-2,-9.454214945E-3,8.535424620E-2
2.727967259E0,-3.462106735E-2,-9.454214945E-3,8.855003864E-2
2.730454967E0,-3.994738683E-2,-8.388951421E-3,9.068056941E-2
2.732942675E0,-4.314317927E-2,-6.258423906E-3,9.068056941E-2
2.735430384E0,-4.420844093E-2,-3.062632866E-3,8.855003864E-2
2.737918092E0,-4.420844093E-2,-9.321057005E-4,8.428898454E-2
2.740405800E0,-4.314317927E-2,1.198421582E-3,7.896266878E-2
2.742893509E0,-4.101264849E-2,1.198421582E-3,7.257108390E-2
2.745381217E0,-3.675159439E-2,1.198421582E-3,6.617950648E-2
2.747868925E0,-3.142527863E-2,1.331579551E-4,5.872265995E-2
2.750356634E0,-2.503369562E-2,-9.321057005E-4,5.126581341E-2
2.752844342E0,-1.864211448E-2,-4.127896391E-3,4.487423226E-2
2.755332050E0,-9.054740891E-3,-5.193160381E-3,3.741738573E-2
2.757819759E0,5.326318205E-4,-7.323687430E-3,2.996053919E-2
2.760307467E0,1.118526794E-2,-8.388951421E-3,2.356895804E-2
2.762795175E0,2.290316857E-2,-9.454214945E-3,1.717737690E-2
2.765282884E0,3.462106735E-2,-9.454214945E-3,1.185105834E-2
2.767770592E0,4.740423337E-2,-9.454214945E-3,7.590003312E-3
2.770258300E0,6.018739566E-2,-9.454214945E-3,4.394212738E-3
2.772746009E0,7.190529257E-2,-8.388951421E-3,2.263685223E-3
2.775233717E0,8.362319320E-2,-7.323687430E-3,-9.321057005E-4
2.777721425E0,9.427583218E-2,-5.193160381E-3,-1.997369342E-3
2.780209134E0,1.049284711E-1,-5.193160381E-3,-1.997369342E-3
2.782696842E0,1.145158410E-1,-4.127896391E-3,-1.997369342E-3
2.785184550E0,1.230379492E-1,-3.062632866E-3,-3.062632866E-3
2.787672259E0,1.315600574E-1,-3.062632866E-3,-3.062632866E-3
2.790159967E0,1.379516423E-1,-3.062632866E-3,-3.062632866E-3
2.792647675E0,1.443432271E-1,-1.997369342E-3,-1.997369342E-3
2.795135384E0,1.486042738E-1,-1.997369342E-3,-9.321057005E-4
2.797623092E0,1.528653353E-1,-1.997369342E-3,1.198421582E-3
2.800110800E0,1.560611278E-1,-3.062632866E-3,2.263685223E-3
2.802598509E0,1.592569202E-1,-4.127896391E-3,4.394212738E-3
2.805086217E0,1.624527127E-1,-5.193160381E-3,5.459476262E-3
2.807573925E0,1.645832360E-1,-7.323687430E-3,7.590003312E-3
2.810061634E0,1.667137593E-1,-9.454214945E-3,8.655266836E-3
2.812549342E0,1.677790284E-1,-1.158474199E-2,9.720530361E-3
2.815037050E0,1.699095517E-1,-1.584579609E-2,8.655266836E-3
2.817524759E0,1.720400751E-1,-2.010685205E-2,7.590003312E-3
2.820012467E0,1.731053442E-1,-2.436790615E-2,6.524739787E-3
2.822500175E0,1.752358675E-1,-2.862896025E-2,4.394212738E-3
2.824987884E0,1.784316599E-1,-3.289001435E-2,-9.321057005E-4
2.827475592E0,1.805621833E-1,-3.608580679E-2,-4.127896391E-3
2.829963300E0,1.837579757E-1,-3.928159550E-2,-9.454214945E-3
2.832451009E0,1.880190372E-1,-4.141212255E-2,-1.691105962E-2
2.834938717E0,1.922800839E-1,-4.460791498E-2,-2.649843320E-2
2.837426425E0,1.976063997E-1,-4.673844203E-2,-3.608580679E-2
2.839914134E0,2.029327303E-1,-4.886896908E-2,-4.673844203E-2
2.842401842E0,2.071937770E-1,-5.099949613E-2,-5.845634267E-2
2.844889550E0,2.125200927E-1,-5.313002318E-2,-7.123950869E-2
2.847377259E0,2.178464085E-1,-5.419528857E-2,-8.295740932E-2
2.849864967E0,2.231727391E-1,-5.419528857E-2,-9.467530251E-2
2.852352675E0,2.284990549E-1,-5.313002318E-2,-1.063932031E-1
2.854840384E0,2.327601016E-1,-5.099949613E-2,-1.170458421E-1
2.857328092E0,2.370211631E-1,-4.673844203E-2,-1.266332120E-1
2.859815800E0,2.402169555E-1,-4.034686089E-2,-1.351553202E-1
2.862303509E0,2.412822098E-1,-3.289001435E-2,-1.415469050E-1
2.864791217E0,2.412822098E-1,-2.543316968E-2,-1.479384899E-1
2.867278925E0,2.412822098E-1,-1.797632314E-2,-1.521995366E-1
2.869766634E0,2.391516864E-1,-1.158474199E-2,-1.564605981E-1
2.872254342E0,2.338253707E-1,-5.193160381E-3,-1.585911214E-1
2.874742050E0,2.284990549E-1,-9.321057005E-4,-1.607216448E-1
2.877229759E0,2.221074700E-1,2.263685223E-3,-1.585911214E-1
2.879717467E0,2.125200927E-1,3.328948980E-3,-1.564605981E-1
2.882205175E0,2.029327303E-1,3.328948980E-3,-1.511342824E-1
2.884692884E0,1.922800839E-1,2.263685223E-3,-1.436774284E-1
2.887180592E0,1.816274524E-1,1.331579551E-4,-1.351553202E-1
2.889668300E0,1.709748209E-1,-9.321057005E-4,-1.245026886E-1
2.892156009E0,1.613874435E-1,-3.062632866E-3,-1.117195264E-1
2.894643717E0,1.507348120E-1,-3.062632866E-3,-9.893636405E-2
2.897131425E0,1.432779580E-1,-4.127896391E-3,-8.402267098E-2
2.899619134E0,1.368863732E-1,-3.062632866E-3,-6.910897791E-2
2.902106842E0,1.315600574E-1,-3.062632866E-3,-5.526055023E-2
2.904594550E0,1.272990108E-1,-9.321057005E-4,-4.034686089E-2
2.907082259E0,1.230379492E-1,1.198421582E-3,-2.756369673E-2
2.909569967E0,1.209074259E-1,2.263685223E-3,-1.584579609E-2
2.912057675E0,1.198421568E-1,1.198421582E-3,-6.258423906E-3
2.914545384E0,1.187768951E-1,1.198421582E-3,1.331579551E-4
2.917033092E0,1.198421568E-1,-9.321057005E-4,5.459476262E-3
2.919520800E0,1.209074259E-1,-4.127896391E-3,8.655266836E-3
2.922008509E0,1.251684725E-1,-7.323687430E-3,1.078579482E-2
2.924496217E0,1.304948032E-1,-1.265000552E-2,1.078579482E-2
2.926983925E0,1.368863732E-1,-1.797632314E-2,9.720530361E-3
2.929471634E0,1.454084814E-1,-2.330264263E-2,7.590003312E-3
2.931959342E0,1.549958587E-1,-2.862896025E-2,2.263685223E-3
2.934447050E0,1.656484902E-1,-3.502054140E-2,-4.127896391E-3
2.936934759E0,1.784316599E-1,-4.141212255E-2,-1.158474199E-2
2.939422467E0,1.933453530E-1,-4.886896908E-2,-2.010685205E-2
2.941910175E0,2.093243003E-1,-5.526055023E-2,-3.075948730E-2
2.944397884E0,2.263685167E-1,-6.165213138E-2,-4.141212255E-2
2.946885592E0,2.466085255E-1,-6.697845459E-2,-5.313002318E-2
2.949373300E0,2.679138184E-1,-7.123950869E-2,-6.591318548E-2
2.951861009E0,2.892190814E-1,-7.550056279E-2,-7.763108611E-2
2.954348717E0,3.105243444E-1,-7.763108611E-2,-8.934898674E-2
2.956836425E0,3.318296373E-1,-7.869634777E-2,-1.000016257E-1
2.959324134E0,3.531349003E-1,-7.869634777E-2,-1.117195264E-1
2.961811842E0,3.733749092E-1,-7.656582445E-2,-1.213068962E-1
2.964299550E0,3.914843798E-1,-7.337003201E-2,-1.308942735E-1
2.966787259E0,4.074633420E-1,-6.697845459E-2,-1.404816359E-1
2.969274967E0,4.213117659E-1,-5.952160433E-2,-1.511342824E-1
2.971762675E0,4.330296814E-1,-5.099949613E-2,-1.607216448E-1
2.974250384E0,4.415517747E-1,-4.141212255E-2,-1.692437679E-1
2.976738092E0,4.468781054E-1,-3.075948730E-2,-1.767006069E-1
2.979225800E0,4.500738978E-1,-2.010685205E-2,-1.830921918E-1
2.981713509E0,4.511391521E-1,-9.454214945E-3,-1.884185076E-1
2.984201217E0,4.500738978E-1,1.331579551E-4,-1.916143000E-1
2.986688925E0,4.468781054E-1,8.655266836E-3,-1.937448233E-1
2.989176634E0,4.415517747E-1,1.717737690E-2,-1.948100924E-1
2.991664342E0,4.340949357E-1,2.356895804E-2,-1.948100924E-1
2.994152050E0,4.245075583E-1,3.102580272E-2,-1.948100924E-1
2.996639759E0,4.127896726E-1,3.528685868E-2,-1.937448233E-1
2.999127467E0,3.989412189E-1,3.848264739E-2,-1.937448233E-1
3.001615175E0,3.840275407E-1,3.954791278E-2,-1.926795542E-1
3.004102884E0,3.669833243E-1,3.954791278E-2,-1.926795542E-1
3.006590592E0,3.510043621E-1,3.635212034E-2,-1.926795542E-1
3.009078300E0,3.328948915E-1,3.209106624E-2,-1.926795542E-1
3.011566009E0,3.147853911E-1,2.569948509E-2,-1.937448233E-1
3.014053717E0,2.956106663E-1,2.037316747E-2,-1.958753467E-1
3.016541425E0,2.775011659E-1,1.291632187E-2,-1.980058849E-1
3.019029134E0,2.593916953E-1,5.459476262E-3,-2.001364082E-1
3.021516842E0,2.434127480E-1,-1.997369342E-3,-2.043974549E-1
3.024004550E0,2.295643091E-1,-9.454214945E-3,-2.097237855E-1
3.026492259E0,2.167811543E-1,-1.584579609E-2,-2.139848322E-1
3.028979967E0,2.050632536E-1,-2.223737910E-2,-2.193111479E-1
3.031467675E0,1.965411454E-1,-2.649843320E-2,-2.257027328E-1
3.033955384E0,1.901495606E-1,-2.969422378E-2,-2.320943177E-1
3.036443092E0,1.858884990E-1,-3.289001435E-2,-2.395511568E-1
3.038930800E0,1.848232448E-1,-3.502054140E-2,-2.470080107E-1
3.041418509E0,1.880190372E-1,-3.821633384E-2,-2.555301189E-1
3.043906217E0,1.933453530E-1,-3.928159550E-2,-2.640522122E-1
3.046393925E0,2.008021921E-1,-4.141212255E-2,-2.715090811E-1
3.048881634E0,2.103895694E-1,-4.247738793E-2,-2.789659202E-1
3.051369342E0,2.199769467E-1,-4.247738793E-2,-2.864227593E-1
3.053857050E0,2.316948473E-1,-4.141212255E-2,-2.917490900E-1
3.056344759E0,2.444780022E-1,-3.928159550E-2,-2.970753908E-1
3.058832467E0,2.561959028E-1,-3.608580679E-2,-3.013364673E-1
3.061320175E0,2.689790726E-1,-3.182475269E-2,-3.045322299E-1
3.063807884E0,2.785664499E-1,-2.649843320E-2,-3.077280223E-1
3.066295592E0,2.892190814E-1,-2.223737910E-2,-3.098585606E-1
3.068783300E0,2.966759205E-1,-1.691105962E-2,-3.119890988E-1
3.071271009E0,3.020022511E-1,-1.265000552E-2,-3.141196072E-1
3.073758769E0,3.051980436E-1,-9.454214945E-3,-3.151848912E-1
3.076246529E0,3.062632978E-1,-7.323687430E-3,-3.162501454E-1
3.078734290E0,3.073285520E-1,-7.323687430E-3,-3.183806837E-1
3.081222050E0,3.051980436E-1,-7.323687430E-3,-3.205111921E-1
3.083709811E0,3.020022511E-1,-1.051947847E-2,-3.226417303E-1
3.086197571E0,2.956106663E-1,-1.478053257E-2,-3.237069845E-1
3.088685331E0,2.881538272E-1,-1.904158667E-2,-3.247722387E-1
3.091173092E0,2.775011659E-1,-2.330264263E-2,-3.247722387E-1
3.093660852E0,2.668485343E-1,-2.756369673E-2,-3.237069845E-1
3.096148613E0,2.540653646E-1,-3.075948730E-2,-3.226417303E-1
3.098636373E0,2.380864173E-1,-3.182475269E-2,-3.194459379E-1
3.101124134E0,2.199769467E-1,-3.075948730E-2,-3.173153996E-1
3.103611894E0,2.018674612E-1,-2.969422378E-2,-3.141196072E-1
3.106099654E0,1.816274524E-1,-2.756369673E-2,-3.109238148E-1
3.108587415E0,1.613874435E-1,-2.543316968E-2,-3.055975139E-1
3.111075175E0,1.422126889E-1,-2.543316968E-2,-3.002711833E-1
3.113562936E0,1.209074259E-1,-2.649843320E-2,-2.938795984E-1
3.116050696E0,1.027979404E-1,-3.075948730E-2,-2.842922211E-1
3.118538456E0,8.468846232E-2,-3.608580679E-2,-2.747048736E-1
3.121026217E0,6.977476925E-2,-4.460791498E-2,-2.629869580E-1
3.123513977E0,5.699160323E-2,-5.313002318E-2,-2.491385341E-1
3.126001738E0,4.740423337E-2,-6.484792382E-2,-2.331595868E-1
3.128489498E0,4.101264849E-2,-7.763108611E-2,-2.171806246E-1
3.130977259E0,3.781685978E-2,-9.041424841E-2,-2.001364082E-1
3.133465019E0,3.994738683E-2,-1.031974182E-1,-1.841574460E-1
3.135952779E0,4.420844093E-2,-1.159805804E-1,-1.681784987E-1
3.138440488E0,5.379581451E-2,-1.287637353E-1,-1.543300748E-1
3.140928196E0,6.657897681E-2,-1.404816359E-1,-1.415469050E-1
3.143415904E0,8.255793154E-2,-1.521995366E-1,-1.319595277E-1
3.145903613E0,1.038632020E-1,-1.617869139E-1,-1.245026886E-1
3.148391321E0,1.272990108E-1,-1.713742912E-1,-1.191763729E-1
3.150879029E0,1.549958587E-1,-1.788311303E-1,-1.159805804E-1
3.153366738E0,1.848232448E-1,-1.862879843E-1,-1.159805804E-1
3.155854446E0,2.178464085E-1,-1.926795542E-1,-1.181111038E-1
3.158342154E0,2.540653646E-1,-1.990711391E-1,-1.234374270E-1
3.160829863E0,2.924148738E-1,-2.043974549E-1,-1.298290044E-1
3.163317571E0,3.339601457E-1,-2.097237855E-1,-1.394163817E-1
3.165805279E0,3.765707016E-1,-2.161153555E-1,-1.521995366E-1
3.168292988E0,4.223770201E-1,-2.225069404E-1,-1.660479754E-1
3.170780696E0,4.681833684E-1,-2.310290486E-1,-1.830921918E-1
3.173268404E0,5.161202550E-1,-2.416816950E-1,-2.001364082E-1
3.175756113E0,5.629918575E-1,-2.533995807E-1,-2.182458937E-1
3.178243821E0,6.098634601E-1,-2.640522122E-1,-2.352901101E-1
3.180731529E0,6.556697488E-1,-2.736395895E-1,-2.512690723E-1
3.183219238E0,6.993455887E-1,-2.810964286E-1,-2.651174963E-1
3.185706946E0,7.387603521E-1,-2.874880135E-1,-2.779006660E-1
3.188194654E0,7.760445476E-1,-2.917490900E-1,-2.885532975E-1
3.190682363E0,8.080024719E-1,-2.938795984E-1,-2.970753908E-1
3.193170071E0,8.367645741E-1,-2.928143442E-1,-3.055975139E-1
3.195657779E0,8.602004051E-1,-2.917490900E-1,-3.109238148E-1
3.198145488E0,8.783098459E-1,-2.874880135E-1,-3.151848912E-1
3.200633196E0,8.921582699E-1,-2.821617126E-1,-3.183806837E-1
3.203120904E0,8.996151686E-1,-2.747048736E-1,-3.194459379E-1
3.205608613E0,9.038761854E-1,-2.683132887E-1,-3.194459379E-1
3.208096321E0,9.028109312E-1,-2.608564198E-1,-3.183806837E-1
3.210584029E0,8.974846005E-1,-2.544648647E-1,-3.162501454E-1
3.213071738E0,8.868319988E-1,-2.491385341E-1,-3.130543530E-1
3.215559446E0,8.729835749E-1,-2.448774725E-1,-3.077280223E-1
3.218047154E0,8.548740745E-1,-2.427469492E-1,-3.013364673E-1
3.220534863E0,8.346340656E-1,-2.395511568E-1,-2.949448824E-1
3.223022571E0,8.122635484E-1,-2.395511568E-1,-2.896185517E-1
3.225510279E0,7.888277173E-1,-2.395511568E-1,-2.832269669E-1
3.227997988E0,7.643266916E-1,-2.395511568E-1,-2.757701278E-1
3.230485696E0,7.387603521E-1,-2.416816950E-1,-2.693785429E-1
3.232973404E0,7.131940126E-1,-2.448774725E-1,-2.640522122E-1
3.235461113E0,6.886929274E-1,-2.480732650E-1,-2.587259114E-1
3.237948821E0,6.652571559E-1,-2.512690723E-1,-2.544648647E-1
3.240436529E0,6.418213248E-1,-2.555301189E-1,-2.523343265E-1
3.242924238E0,6.205160618E-1,-2.608564198E-1,-2.502037883E-1
3.245411946E0,6.002760530E-1,-2.672480047E-1,-2.491385341E-1
3.247899654E0,5.821665525E-1,-2.736395895E-1,-2.512690723E-1
3.250387363E0,5.672528744E-1,-2.800311744E-1,-2.523343265E-1
3.252875071E0,5.534044504E-1,-2.864227593E-1,-2.555301189E-1
3.255362779E0,5.416865349E-1,-2.917490900E-1,-2.597911656E-1
3.257850488E0,5.310339332E-1,-2.970753908E-1,-2.651174963E-1
3.260338196E0,5.235770941E-1,-3.002711833E-1,-2.693785429E-1
3.262825904E0,5.171855092E-1,-3.024017215E-1,-2.757701278E-1
3.265313613E0,5.118591785E-1,-3.034669757E-1,-2.821617126E-1
3.267801321E0,5.065328479E-1,-3.034669757E-1,-2.874880135E-1
3.270289029E0,5.022718310E-1,-3.024017215E-1,-2.938795984E-1
3.272776738E0,4.990760088E-1,-3.013364673E-1,-3.002711833E-1
3.275264446E0,4.958802164E-1,-2.992059290E-1,-3.066627681E-1
3.277752154E0,4.916191697E-1,-2.970753908E-1,-3.119890988E-1
3.280239863E0,4.852275848E-1,-2.949448824E-1,-3.173153996E-1
3.282727571E0,4.777707458E-1,-2.917490900E-1,-3.215764761E-1
3.285215279E0,4.692486227E-1,-2.885532975E-1,-3.247722387E-1
3.287702988E0,4.585959911E-1,-2.842922211E-1,-3.290333152E-1
3.290190696E0,4.447475672E-1,-2.810964286E-1,-3.311638236E-1
3.292678404E0,4.298338890E-1,-2.779006660E-1,-3.311638236E-1
3.295166113E0,4.117243886E-1,-2.757701278E-1,-3.300985694E-1
3.297653821E0,3.925496638E-1,-2.725743353E-1,-3.279680312E-1
3.300141529E0,3.723096550E-1,-2.715090811E-1,-3.237069845E-1
3.302629238E0,3.510043621E-1,-2.704437971E-1,-3.173153996E-1
3.305116946E0,3.286338449E-1,-2.704437971E-1,-3.098585606E-1
3.307604654E0,3.073285520E-1,-2.704437971E-1,-3.002711833E-1
3.310092363E0,2.860232890E-1,-2.715090811E-1,-2.896185517E-1
3.312580071E0,2.689790726E-1,-2.747048736E-1,-2.779006660E-1
3.315067779E0,2.519348562E-1,-2.779006660E-1,-2.672480047E-1
3.317555488E0,2.391516864E-1,-2.810964286E-1,-2.565953732E-1
3.320043196E0,2.295643091E-1,-2.832269669E-1,-2.459427416E-1
3.322530904E0,2.221074700E-1,-2.842922211E-1,-2.352901101E-1
3.325018613E0,2.178464085E-1,-2.832269669E-1,-2.267680019E-1
3.327506321E0,2.167811543E-1,-2.800311744E-1,-2.182458937E-1
3.329994029E0,2.199769467E-1,-2.757701278E-1,-2.107890397E-1
3.332481738E0,2.253032625E-1,-2.693785429E-1,-2.043974549E-1
3.334969446E0,2.327601016E-1,-2.619217038E-1,-2.001364082E-1
3.337457154E0,2.423474789E-1,-2.533995807E-1,-1.969406158E-1
3.339944863E0,2.540653646E-1,-2.448774725E-1,-1.926795542E-1
3.342432571E0,2.679138184E-1,-2.363553643E-1,-1.916143000E-1
3.344920279E0,2.828274965E-1,-2.267680019E-1,-1.905490309E-1
3.347407988E0,2.988064587E-1,-2.171806246E-1,-1.905490309E-1
3.349895696E0,3.147853911E-1,-2.075932473E-1,-1.916143000E-1
3.352383404E0,3.296990991E-1,-1.980058849E-1,-1.926795542E-1
3.354871113E0,3.446127772E-1,-1.884185076E-1,-1.937448233E-1
3.357358821E0,3.563306928E-1,-1.788311303E-1,-1.948100924E-1
3.359846529E0,3.659180701E-1,-1.713742912E-1,-1.969406158E-1
3.362334238E0,3.712443709E-1,-1.639174372E-1,-1.980058849E-1
3.364821946E0,3.733749092E-1,-1.575258672E-1,-1.990711391E-1
3.367309654E0,3.712443709E-1,-1.532648057E-1,-2.012016773E-1
3.369797363E0,3.637875319E-1,-1.500690132E-1,-2.033322006E-1
3.372285071E0,3.531349003E-1,-1.490037590E-1,-2.043974549E-1
3.374772779E0,3.382211924E-1,-1.500690132E-1,-2.065279931E-1
3.377260488E0,3.201117218E-1,-1.532648057E-1,-2.086585164E-1
3.379748196E0,2.977411747E-1,-1.575258672E-1,-2.107890397E-1
3.382235904E0,2.732401192E-1,-1.628521830E-1,-2.118543088E-1
3.384723613E0,2.476737946E-1,-1.692437679E-1,-2.129195631E-1
3.387211321E0,2.189116776E-1,-1.756353378E-1,-2.139848322E-1
3.389699029E0,1.880190372E-1,-1.830921918E-1,-2.150501013E-1
3.392186738E0,1.549958587E-1,-1.916143000E-1,-2.161153555E-1
3.394674446E0,1.219726875E-1,-2.012016773E-1,-2.171806246E-1
3.397162154E0,8.894951642E-2,-2.097237855E-1,-2.182458937E-1
3.399649863E0,5.486107618E-2,-2.182458937E-1,-2.193111479E-1
3.402137571E0,2.183790505E-2,-2.267680019E-1,-2.203764170E-1
3.404625279E0,-1.012000442E-2,-2.342248410E-1,-2.214416862E-1
3.407112988E0,-3.994738683E-2,-2.406164259E-1,-2.214416862E-1
3.409600696E0,-6.764423847E-2,-2.459427416E-1,-2.203764170E-1
3.412088404E0,-9.321057051E-2,-2.491385341E-1,-2.203764170E-1
3.414576113E0,-1.145158410E-1,-2.512690723E-1,-2.182458937E-1
3.417063821E0,-1.315600574E-1,-2.533995807E-1,-2.150501013E-1
3.419551529E0,-1.443432271E-1,-2.533995807E-1,-2.139848322E-1
3.422039238E0,-1.528653353E-1,-2.544648647E-1,-2.129195631E-1
3.424526946E0,-1.571263820E-1,-2.533995807E-1,-2.118543088E-1
3.427014654E0,-1.592569202E-1,-2.512690723E-1,-2.118543088E-1
3.429502363E0,-1.560611278E-1,-2.491385341E-1,-2.118543088E-1
3.431990071E0,-1.507348120E-1,-2.459427416E-1,-2.129195631E-1
3.434477779E0,-1.443432271E-1,-2.427469492E-1,-2.139848322E-1
3.436965488E0,-1.358211190E-1,-2.374206334E-1,-2.139848322E-1
3.439453196E0,-1.272990108E-1,-2.310290486E-1,-2.129195631E-1
3.441940904E0,-1.187768951E-1,-2.246374637E-1,-2.139848322E-1
3.444428613E0,-1.113200486E-1,-2.161153555E-1,-2.150501013E-1
3.446916321E0,-1.049284711E-1,-2.075932473E-1,-2.139848322E-1
3.449404029E0,-1.006674170E-1,-1.990711391E-1,-2.139848322E-1
3.451891738E0,-9.853688627E-2,-1.905490309E-1,-2.150501013E-1
3.454379446E0,-9.640636295E-2,-1.830921918E-1,-2.171806246E-1
3.456867154E0,-9.640636295E-2,-1.777658761E-1,-2.193111479E-1
3.459354863E0,-9.747162461E-2,-1.735048145E-1,-2.225069404E-1
3.461842571E0,-9.960214794E-2,-1.713742912E-1,-2.278332561E-1
3.464330279E0,-1.027979404E-1,-1.713742912E-1,-2.331595868E-1
3.466817988E0,-1.070589945E-1,-1.745700836E-1,-2.395511568E-1
3.469305696E0,-1.123853177E-1,-1.788311303E-1,-2.480732650E-1
3.471793404E0,-1.166463718E-1,-1.852227151E-1,-2.576606572E-1
3.474281113E0,-1.230379492E-1,-1.916143000E-1,-2.683132887E-1
3.476768821E0,-1.283642650E-1,-1.990711391E-1,-2.789659202E-1
3.479256529E0,-1.336905807E-1,-2.075932473E-1,-2.896185517E-1
3.481744238E0,-1.400821656E-1,-2.161153555E-1,-3.013364673E-1
3.484231946E0,-1.443432271E-1,-2.267680019E-1,-3.130543530E-1
3.486719654E0,-1.475390196E-1,-2.374206334E-1,-3.258375227E-1
3.489207363E0,-1.507348120E-1,-2.470080107E-1,-3.364901543E-1
3.491695071E0,-1.539305896E-1,-2.576606572E-1,-3.471427858E-1
3.494182779E0,-1.560611278E-1,-2.683132887E-1,-3.567301631E-1
3.496670488E0,-1.581916511E-1,-2.789659202E-1,-3.652522564E-1
3.499158196E0,-1.592569202E-1,-2.885532975E-1,-3.727091253E-1
3.501645904E0,-1.592569202E-1,-2.981406748E-1,-3.780354261E-1
3.504133613E0,-1.592569202E-1,-3.066627681E-1,-3.801659644E-1
3.506621321E0,-1.581916511E-1,-3.151848912E-1,-3.780354261E-1
3.509109029E0,-1.571263820E-1,-3.226417303E-1,-3.737743795E-1
3.511596738E0,-1.539305896E-1,-3.290333152E-1,-3.673827946E-1
3.514084446E0,-1.507348120E-1,-3.343596160E-1,-3.588607013E-1
3.516572154E0,-1.464737505E-1,-3.386206925E-1,-3.482080400E-1
3.519059863E0,-1.422126889E-1,-3.418164849E-1,-3.375554085E-1
3.521547571E0,-1.368863732E-1,-3.439469934E-1,-3.258375227E-1
3.524035279E0,-1.294295341E-1,-3.460775316E-1,-3.141196072E-1
3.526522988E0,-1.230379492E-1,-3.482080400E-1,-3.034669757E-1
3.529010696E0,-1.145158410E-1,-3.503385782E-1,-2.938795984E-1
3.531498404E0,-1.038632020E-1,-3.514038324E-1,-2.853575051E-1
3.533986113E0,-9.321057051E-2,-3.524691164E-1,-2.779006660E-1
3.536473821E0,-8.042740822E-2,-3.514038324E-1,-2.736395895E-1
3.538961529E0,-6.657897681E-2,-3.482080400E-1,-2.704437971E-1
3.541449238E0,-5.060002208E-2,-3.439469934E-1,-2.693785429E-1
3.543936946E0,-3.355580568E-2,-3.375554085E-1,-2.693785429E-1
3.546424654E0,-1.544632297E-2,-3.311638236E-1,-2.715090811E-1
3.548912363E0,4.793686327E-3,-3.247722387E-1,-2.757701278E-1
3.551400071E0,2.716422267E-2,-3.183806837E-1,-2.810964286E-1
3.553887779E0,4.953476042E-2,-3.130543530E-1,-2.874880135E-1
3.556375488E0,7.403582335E-2,-3.087933064E-1,-2.949448824E-1
3.558863196E0,9.853688627E-2,-3.045322299E-1,-3.045322299E-1
3.561350904E0,1.230379492E-1,-3.024017215E-1,-3.130543530E-1
3.563838613E0,1.464737505E-1,-3.002711833E-1,-3.226417303E-1
3.566326321E0,1.688442826E-1,-2.992059290E-1,-3.311638236E-1
3.568814029E0,1.901495606E-1,-2.970753908E-1,-3.407512009E-1
3.571301738E0,2.093243003E-1,-2.960101366E-1,-3.482080400E-1
3.573789446E0,2.263685167E-1,-2.949448824E-1,-3.556649089E-1
3.576277154E0,2.391516864E-1,-2.938795984E-1,-3.620564938E-1
3.578764863E0,2.498043180E-1,-2.928143442E-1,-3.663175404E-1
3.581252571E0,2.561959028E-1,-2.917490900E-1,-3.705785871E-1
3.583740279E0,2.604569495E-1,-2.917490900E-1,-3.737743795E-1
3.586227988E0,2.604569495E-1,-2.938795984E-1,-3.759049177E-1
3.588715696E0,2.561959028E-1,-2.970753908E-1,-3.780354261E-1
3.591203404E0,2.487390637E-1,-3.024017215E-1,-3.801659644E-1
3.593691113E0,2.380864173E-1,-3.087933064E-1,-3.833617568E-1
3.596178821E0,2.242379934E-1,-3.183806837E-1,-3.854922652E-1
3.598666529E0,2.071937770E-1,-3.290333152E-1,-3.886880577E-1
3.601154238E0,1.880190372E-1,-3.418164849E-1,-3.897533417E-1
3.603641946E0,1.667137593E-1,-3.545996249E-1,-3.908185959E-1
3.606129654E0,1.432779580E-1,-3.684480488E-1,-3.918838501E-1
3.608617363E0,1.187768951E-1,-3.822965026E-1,-3.918838501E-1
3.611105071E0,9.427583218E-2,-3.950796425E-1,-3.897533417E-1
3.613592779E0,7.084003091E-2,-4.067975581E-1,-3.886880577E-1
3.616080488E0,4.953476042E-2,-4.163849354E-1,-3.865575492E-1
3.618568196E0,3.036001325E-2,-4.249070287E-1,-3.812312186E-1
3.621055904E0,1.225053146E-2,-4.302333593E-1,-3.769701719E-1
3.623543613E0,-5.326318205E-4,-4.344944060E-1,-3.727091253E-1
3.626031321E0,-1.012000442E-2,-4.355596602E-1,-3.684480488E-1
3.628519029E0,-1.651158556E-2,-4.334291518E-1,-3.641870022E-1
3.631006738E0,-1.757685095E-2,-4.302333593E-1,-3.609912097E-1
3.633494446E0,-1.438105945E-2,-4.259723127E-1,-3.588607013E-1
3.635982154E0,-5.858949851E-3,-4.206459820E-1,-3.588607013E-1
3.638469863E0,7.989477366E-3,-4.142543972E-1,-3.588607013E-1
3.640957571E0,2.929474972E-2,-4.089280665E-1,-3.599259555E-1
3.643445279E0,5.699160323E-2,-4.014712274E-1,-3.631217480E-1
3.645932988E0,9.001477808E-2,-3.940143883E-1,-3.673827946E-1
3.648420696E0,1.272990108E-1,-3.865575492E-1,-3.727091253E-1
3.650908404E0,1.688442826E-1,-3.759049177E-1,-3.791007102E-1
3.653396113E0,2.125200927E-1,-3.641870022E-1,-3.865575492E-1
3.655883821E0,2.583264410E-1,-3.514038324E-1,-3.950796425E-1
3.658371529E0,3.073285520E-1,-3.386206925E-1,-4.046670198E-1
3.660859238E0,3.542001545E-1,-3.247722387E-1,-4.131891429E-1
3.663346946E0,3.989412189E-1,-3.109238148E-1,-4.227765203E-1
3.665834654E0,4.415517747E-1,-2.960101366E-1,-4.323638678E-1
3.668322363E0,4.788360000E-1,-2.821617126E-1,-4.398207366E-1
3.670810071E0,5.118591785E-1,-2.683132887E-1,-4.472775757E-1
3.673297779E0,5.384907722E-1,-2.555301189E-1,-4.547344148E-1
3.675785488E0,5.576655269E-1,-2.438122183E-1,-4.600607455E-1
3.678273196E0,5.704486966E-1,-2.352901101E-1,-4.643217921E-1
3.680760904E0,5.747097135E-1,-2.278332561E-1,-4.685828388E-1
3.683248613E0,5.725792050E-1,-2.246374637E-1,-4.707133770E-1
3.685736321E0,5.629918575E-1,-2.246374637E-1,-4.717786312E-1
3.688224029E0,5.491434336E-1,-2.278332561E-1,-4.728438854E-1
3.690711738E0,5.289034247E-1,-2.363553643E-1,-4.717786312E-1
3.693199446E0,5.022718310E-1,-2.470080107E-1,-4.685828388E-1
3.695687154E0,4.703139067E-1,-2.619217038E-1,-4.643217921E-1
3.698174863E0,4.330296814E-1,-2.779006660E-1,-4.579302073E-1
3.700662571E0,3.914843798E-1,-2.970753908E-1,-4.494080842E-1
3.703150279E0,3.467433155E-1,-3.162501454E-1,-4.398207366E-1
3.705637988E0,2.988064587E-1,-3.375554085E-1,-4.291680753E-1
3.708125696E0,2.476737946E-1,-3.567301631E-1,-4.174501896E-1
3.710613404E0,1.944106072E-1,-3.759049177E-1,-4.036017656E-1
3.713101113E0,1.422126889E-1,-3.929491341E-1,-3.897533417E-1
3.715588821E0,9.001477808E-2,-4.078628123E-1,-3.748396337E-1
3.718076529E0,4.101264849E-2,-4.195807278E-1,-3.588607013E-1
3.720564238E0,-6.924213842E-3,-4.259723127E-1,-3.439469934E-1
3.723051946E0,-4.953476042E-2,-4.281028211E-1,-3.300985694E-1
3.725539654E0,-8.894951642E-2,-4.238417745E-1,-3.173153996E-1
3.728027363E0,-1.209074259E-1,-4.142543972E-1,-3.066627681E-1
3.730515071E0,-1.475390196E-1,-4.004059732E-1,-2.992059290E-1
3.733002779E0,-1.677790284E-1,-3.844270110E-1,-2.917490900E-1
3.735490488E0,-1.805621833E-1,-3.663175404E-1,-2.864227593E-1
3.737978196E0,-1.858884990E-1,-3.471427858E-1,-2.842922211E-1
3.740465904E0,-1.837579757E-1,-3.269027770E-1,-2.842922211E-1
3.742953613E0,-1.720400751E-1,-3.077280223E-1,-2.853575051E-1
3.745441321E0,-1.528653353E-1,-2.885532975E-1,-2.874880135E-1
3.747929029E0,-1.262337416E-1,-2.704437971E-1,-2.917490900E-1
3.750416738E0,-9.108003974E-2,-2.523343265E-1,-2.970753908E-1
3.752904446E0,-4.846949503E-2,-2.352901101E-1,-3.045322299E-1
3.755392154E0,5.326318205E-4,-2.171806246E-1,-3.130543530E-1
3.757879863E0,5.379581451E-2,-1.990711391E-1,-3.226417303E-1
3.760367571E0,1.102547869E-1,-1.809616536E-1,-3.332943618E-1
3.762855279E0,1.688442826E-1,-1.617869139E-1,-3.450122476E-1
3.765342988E0,2.263685167E-1,-1.426121742E-1,-3.556649089E-1
3.767830696E0,2.828274965E-1,-1.213068962E-1,-3.652522564E-1
3.770318456E0,3.350254297E-1,-1.000016257E-1,-3.727091253E-1
3.772806217E0,3.808317482E-1,-7.763108611E-2,-3.780354261E-1
3.775293977E0,4.202465117E-1,-5.526055023E-2,-3.812312186E-1
3.777781738E0,4.511391521E-1,-3.289001435E-2,-3.812312186E-1
3.780269498E0,4.745749533E-1,-1.371526904E-2,-3.791007102E-1
3.782757259E0,4.884233773E-1,3.328948980E-3,-3.759049177E-1
3.785245019E0,4.948149621E-1,1.717737690E-2,-3.705785871E-1
3.787732779E0,4.937497079E-1,2.676474862E-2,-3.652522564E-1
3.790220540E0,4.820317924E-1,3.102580272E-2,-3.588607013E-1
3.792708300E0,4.639223218E-1,2.996053919E-2,-3.514038324E-1
3.795196061E0,4.383559823E-1,2.356895804E-2,-3.428817391E-1
3.797683821E0,4.063980877E-1,1.078579482E-2,-3.343596160E-1
3.800171581E0,3.691138625E-1,-6.258423906E-3,-3.269027770E-1
3.802659342E0,3.286338449E-1,-2.649843320E-2,-3.173153996E-1
3.805147102E0,2.828274965E-1,-4.993423447E-2,-3.087933064E-1
3.807634863E0,2.359558940E-1,-7.443529367E-2,-2.992059290E-1
3.810122623E0,1.869537681E-1,-1.000016257E-1,-2.917490900E-1
3.812610384E0,1.379516423E-1,-1.234374270E-1,-2.842922211E-1
3.815098144E0,9.001477808E-2,-1.447426975E-1,-2.779006660E-1
3.817585904E0,4.207791388E-2,-1.617869139E-1,-2.725743353E-1
3.820073665E0,-3.728422802E-3,-1.756353378E-1,-2.683132887E-1
3.822561425E0,-4.740423337E-2,-1.862879843E-1,-2.661827505E-1
3.825049186E0,-9.001477808E-2,-1.905490309E-1,-2.661827505E-1
3.827536946E0,-1.294295341E-1,-1.916143000E-1,-2.661827505E-1
3.830024706E0,-1.635179669E-1,-1.894837767E-1,-2.683132887E-1
3.832512467E0,-1.944106072E-1,-1.841574460E-1,-2.704437971E-1
3.835000227E0,-2.199769467E-1,-1.767006069E-1,-2.715090811E-1
3.837487988E0,-2.412822098E-1,-1.671132296E-1,-2.725743353E-1
3.839975696E0,-2.561959028E-1,-1.564605981E-1,-2.736395895E-1
3.842463404E0,-2.657832801E-1,-1.447426975E-1,-2.747048736E-1
3.844951113E0,-2.700443268E-1,-1.319595277E-1,-2.736395895E-1
3.847438821E0,-2.689790726E-1,-1.191763729E-1,-2.725743353E-1
3.849926529E0,-2.636527419E-1,-1.053279415E-1,-2.715090811E-1
3.852414238E0,-2.561959028E-1,-9.147951752E-2,-2.693785429E-1
3.854901946E0,-2.434127480E-1,-7.763108611E-2,-2.683132887E-1
3.857389654E0,-2.284990549E-1,-6.484792382E-2,-2.672480047E-1
3.859877363E0,-2.082590461E-1,-5.313002318E-2,-2.661827505E-1
3.862365071E0,-1.858884990E-1,-4.247738793E-2,-2.661827505E-1
3.864852779E0,-1.613874435E-1,-3.182475269E-2,-2.683132887E-1
3.867340488E0,-1.336905807E-1,-2.223737910E-2,-2.683132887E-1
3.869828196E0,-1.059937328E-1,-1.371526904E-2,-2.704437971E-1
3.872315904E0,-7.616634667E-2,-6.258423906E-3,-2.725743353E-1
3.874803613E0,-4.527370632E-2,1.331579551E-4,-2.725743353E-1
3.877291321E0,-1.544632297E-2,4.394212738E-3,-2.715090811E-1
3.879779029E0,1.438105945E-2,9.720530361E-3,-2.715090811E-1
3.882266738E0,4.314317927E-2,1.398158539E-2,-2.693785429E-1
3.884754446E0,6.977476925E-2,1.717737690E-2,-2.683132887E-1
3.887242154E0,9.534109384E-2,2.143843099E-2,-2.661827505E-1
3.889729863E0,1.177116334E-1,2.463422157E-2,-2.640522122E-1
3.892217571E0,1.368863732E-1,2.676474862E-2,-2.597911656E-1
3.894705279E0,1.549958587E-1,2.889527567E-2,-2.565953732E-1
3.897192988E0,1.699095517E-1,3.102580272E-2,-2.523343265E-1
3.899680696E0,1.816274524E-1,3.209106624E-2,-2.480732650E-1
3.902168404E0,1.922800839E-1,3.422159329E-2,-2.427469492E-1
3.904656113E0,1.997369379E-1,3.741738573E-2,-2.374206334E-1
3.907143821E0,2.039979845E-1,4.167843983E-2,-2.331595868E-1
3.909631529E0,2.050632536E-1,4.700475931E-2,-2.288985252E-1
3.912119238E0,2.039979845E-1,5.339634046E-2,-2.267680019E-1
3.914606946E0,1.997369379E-1,6.085318699E-2,-2.235722095E-1
3.917094654E0,1.933453530E-1,6.937529147E-2,-2.235722095E-1
3.919582363E0,1.848232448E-1,7.896266878E-2,-2.235722095E-1
3.922070071E0,1.741705984E-1,8.641951531E-2,-2.246374637E-1
3.924557779E0,1.624527127E-1,9.387636185E-2,-2.257027328E-1
3.927045488E0,1.496695429E-1,1.002679393E-1,-2.257027328E-1
3.929533196E0,1.358211190E-1,1.034637317E-1,-2.257027328E-1
3.932020904E0,1.209074259E-1,1.055942550E-1,-2.257027328E-1
3.934508613E0,1.049284711E-1,1.045289934E-1,-2.246374637E-1
3.936996321E0,8.788424730E-2,1.023984700E-1,-2.235722095E-1
3.939484029E0,7.190529257E-2,9.813741595E-2,-2.225069404E-1
3.941971738E0,5.699160323E-2,9.387636185E-2,-2.193111479E-1
3.944459446E0,4.314317927E-2,8.855003864E-2,-2.182458937E-1
3.946947154E0,3.142527863E-2,8.215846121E-2,-2.150501013E-1
3.949434863E0,2.290316857E-2,7.683213800E-2,-2.139848322E-1
3.951922571E0,1.651158556E-2,7.044056058E-2,-2.118543088E-1
3.954410279E0,1.331579592E-2,6.404897571E-2,-2.107890397E-1
3.956897988E0,1.438105945E-2,5.872265995E-2,-2.097237855E-1
3.959385696E0,1.757685095E-2,5.339634046E-2,-2.086585164E-1
3.961873404E0,2.503369562E-2,4.913528636E-2,-2.075932473E-1
3.964361113E0,3.568633273E-2,4.487423226E-2,-2.065279931E-1
3.966848821E0,5.060002208E-2,4.167843983E-2,-2.043974549E-1
3.969336529E0,6.764423847E-2,3.954791278E-2,-2.043974549E-1
3.971824238E0,8.788424730E-2,3.848264739E-2,-2.033322006E-1
3.974311946E0,1.102547869E-1,4.061317816E-2,-2.033322006E-1
3.976799654E0,1.336905807E-1,4.593949392E-2,-2.033322006E-1
3.979287363E0,1.571263820E-1,5.233107507E-2,-2.054627240E-1
3.981775071E0,1.805621833E-1,6.085318699E-2,-2.065279931E-1
3.984262779E0,2.050632536E-1,7.044056058E-2,-2.086585164E-1
3.986750488E0,2.284990549E-1,8.002793044E-2,-2.107890397E-1
3.989238196E0,2.519348562E-1,9.174583107E-2,-2.118543088E-1
3.991725904E0,2.732401192E-1,1.034637317E-1,-2.118543088E-1
3.994213613E0,2.924148738E-1,1.151816323E-1,-2.107890397E-1
3.996701321E0,3.105243444E-1,1.258342713E-1,-2.065279931E-1
3.999189029E0,3.254380524E-1,1.343563795E-1,-2.001364082E-1
4.001676738E0,3.392864764E-1,1.418132186E-1,-1.916143000E-1
4.004164446E0,3.499391079E-1,1.482048035E-1,-1.809616536E-1
4.006652154E0,3.584612012E-1,1.545963883E-1,-1.671132296E-1
4.009139863E0,3.627222776E-1,1.577921808E-1,-1.511342824E-1
4.011627571E0,3.648527861E-1,1.577921808E-1,-1.351553202E-1
4.014115279E0,3.637875319E-1,1.556616426E-1,-1.181111038E-1
4.016602988E0,3.595264852E-1,1.482048035E-1,-1.010668874E-1
4.019090696E0,3.520696461E-1,1.364869028E-1,-8.615319431E-2
4.021578404E0,3.446127772E-1,1.226384789E-1,-7.230477035E-2
4.024066113E0,3.339601457E-1,1.141163707E-1,-6.378266215E-2
4.026553821E0,3.169159293E-1,1.109205782E-1,-5.419528857E-2
4.029041529E0,2.924148738E-1,1.119858399E-1,-4.567318037E-2
4.031529238E0,2.636527419E-1,1.162468940E-1,-3.821633384E-2
4.034016946E0,2.295643091E-1,1.194426864E-1,-2.756369673E-2
4.036504654E0,1.912148297E-1,1.215732098E-1,-1.797632314E-2
4.038992363E0,1.518000662E-1,1.205079481E-1,-8.388951421E-3
4.041480071E0,1.113200486E-1,1.151816323E-1,2.263685223E-3
4.043967779E0,7.084003091E-2,1.045289934E-1,1.291632187E-2
4.046455488E0,2.929474972E-2,8.961530030E-2,2.143843099E-2
4.048943196E0,-1.225053146E-2,7.044056058E-2,2.783001214E-2
4.051430904E0,-5.166528746E-2,4.807002097E-2,3.102580272E-2
4.053918613E0,-9.001477808E-2,2.356895804E-2,3.102580272E-2
4.056406321E0,-1.241032109E-1,-4.127896391E-3,2.889527567E-2
4.058894029E0,-1.549958587E-1,-3.075948730E-2,2.356895804E-2
4.061381738E0,-1.816274524E-1,-5.845634267E-2,1.717737690E-2
4.063869446E0,-2.018674612E-1,-8.295740932E-2,9.720530361E-3
4.066357154E0,-2.189116776E-1,-1.053279415E-1,1.198421582E-3
4.068844863E0,-2.306295782E-1,-1.213068962E-1,-6.258423906E-3
4.071332571E0,-2.391516864E-1,-1.340900660E-1,-1.478053257E-2
4.073820279E0,-2.412822098E-1,-1.415469050E-1,-2.330264263E-2
4.076307988E0,-2.412822098E-1,-1.458079666E-1,-3.182475269E-2
4.078795696E0,-2.370211631E-1,-1.447426975E-1,-4.034686089E-2
4.081283404E0,-2.306295782E-1,-1.415469050E-1,-4.673844203E-2
4.083771113E0,-2.210422009E-1,-1.340900660E-1,-5.419528857E-2
4.086258821E0,-2.103895694E-1,-1.255679578E-1,-6.058686972E-2
4.088746529E0,-1.986716688E-1,-1.138500497E-1,-6.591318548E-2
4.091234238E0,-1.869537681E-1,-1.021321490E-1,-7.017423958E-2
4.093721946E0,-1.741705984E-1,-9.041424841E-2,-7.337003201E-2
4.096209654E0,-1.624527127E-1,-7.869634777E-2,-7.550056279E-2
4.098697363E0,-1.507348120E-1,-6.591318548E-2,-7.656582445E-2
4.101185071E0,-1.422126889E-1,-5.526055023E-2,-7.656582445E-2
4.103672779E0,-1.347558498E-1,-4.460791498E-2,-7.656582445E-2
4.106160488E0,-1.294295341E-1,-3.608580679E-2,-7.550056279E-2
4.108648196E0,-1.272990108E-1,-2.862896025E-2,-7.443529367E-2
4.111135904E0,-1.262337416E-1,-2.436790615E-2,-7.230477035E-2
4.113623613E0,-1.272990108E-1,-2.117211558E-2,-6.910897791E-2
4.116111321E0,-1.304948032E-1,-1.904158667E-2,-6.484792382E-2
4.118599029E0,-1.358211190E-1,-2.010685205E-2,-6.058686972E-2
4.121086738E0,-1.422126889E-1,-2.117211558E-2,-5.526055023E-2
4.123574446E0,-1.507348120E-1,-2.436790615E-2,-5.099949613E-2
4.126062154E0,-1.603221744E-1,-2.862896025E-2,-4.673844203E-2
4.128549863E0,-1.699095517E-1,-3.289001435E-2,-4.354264960E-2
4.131037571E0,-1.805621833E-1,-3.821633384E-2,-4.141212255E-2
4.133525279E0,-1.901495606E-1,-4.460791498E-2,-3.821633384E-2
4.136012988E0,-2.008021921E-1,-5.206476152E-2,-3.715106845E-2
4.138500696E0,-2.103895694E-1,-5.845634267E-2,-3.608580679E-2
4.140988404E0,-2.189116776E-1,-6.484792382E-2,-3.608580679E-2
4.143476113E0,-2.242379934E-1,-7.017423958E-2,-3.608580679E-2
4.145963821E0,-2.295643091E-1,-7.550056279E-2,-3.502054140E-2
4.148451529E0,-2.327601016E-1,-7.976161689E-2,-3.289001435E-2
4.150939238E0,-2.359558940E-1,-8.402267098E-2,-3.075948730E-2
4.153426946E0,-2.348906398E-1,-8.721846342E-2,-2.756369673E-2
4.155914654E0,-2.338253707E-1,-8.934898674E-2,-2.330264263E-2
4.158402363E0,-2.306295782E-1,-9.041424841E-2,-1.797632314E-2
4.160890071E0,-2.242379934E-1,-8.934898674E-2,-1.158474199E-2
4.163377779E0,-2.178464085E-1,-8.828372508E-2,-3.062632866E-3
4.165865488E0,-2.093243003E-1,-8.508793265E-2,6.524739787E-3
4.168353196E0,-1.976063997E-1,-7.869634777E-2,1.717737690E-2
4.170840904E0,-1.848232448E-1,-7.123950869E-2,2.569948509E-2
4.173328613E0,-1.699095517E-1,-6.058686972E-2,3.635212034E-2
4.175816321E0,-1.549958587E-1,-4.993423447E-2,4.593949392E-2
4.178304029E0,-1.400821656E-1,-3.608580679E-2,5.552686751E-2
4.180791738E0,-1.251684725E-1,-2.223737910E-2,6.404897571E-2
4.183279446E0,-1.091895252E-1,-7.323687430E-3,7.150582224E-2
4.185767154E0,-9.321057051E-2,7.590003312E-3,7.896266878E-2
4.188254863E0,-7.829687744E-2,2.143843099E-2,8.535424620E-2
4.190742571E0,-6.444845349E-2,3.528685868E-2,9.174583107E-2
4.193230279E0,-5.060002208E-2,4.700475931E-2,9.813741595E-2
4.195717988E0,-3.888212144E-2,5.872265995E-2,1.034637317E-1
4.198205696E0,-2.822948620E-2,6.831002980E-2,1.087900475E-1
4.200693404E0,-1.970737800E-2,7.576687634E-2,1.130511016E-1
4.203181113E0,-1.225053146E-2,8.215846121E-2,1.173121557E-1
4.205668821E0,-6.924213842E-3,8.748477697E-2,1.205079481E-1
4.208156529E0,-3.728422802E-3,9.174583107E-2,1.237037405E-1
4.210644238E0,-1.597895520E-3,9.387636185E-2,1.258342713E-1
4.213131946E0,-5.326318205E-4,9.494162351E-2,1.268995255E-1
4.215619654E0,-2.663159044E-3,9.281109273E-2,1.279647946E-1
4.218107363E0,-3.728422802E-3,8.855003864E-2,1.279647946E-1
4.220595071E0,-6.924213842E-3,8.322372288E-2,1.279647946E-1
4.223082779E0,-9.054740891E-3,7.470161468E-2,1.268995255E-1
4.225570488E0,-1.118526794E-2,6.617950648E-2,1.268995255E-1
4.228058196E0,-1.331579592E-2,5.659212917E-2,1.258342713E-1
4.230545904E0,-1.438105945E-2,4.593949392E-2,1.247690022E-1
4.233033613E0,-1.544632297E-2,3.528685868E-2,1.215732098E-1
4.235521321E0,-1.438105945E-2,2.569948509E-2,1.194426864E-1
4.238009029E0,-1.225053146E-2,1.611211337E-2,1.141163707E-1
4.240496738E0,-9.054740891E-3,5.459476262E-3,1.087900475E-1
4.242984446E0,-5.858949851E-3,-3.062632866E-3,1.034637317E-1
4.245472154E0,-5.326318205E-4,-1.051947847E-2,9.600688517E-2
4.247959863E0,6.924213842E-3,-1.584579609E-2,8.855003864E-2
4.250447571E0,1.544632297E-2,-2.010685205E-2,8.109319210E-2
4.252935279E0,2.609895915E-2,-2.223737910E-2,7.363634557E-2
4.255422988E0,3.888212144E-2,-2.223737910E-2,6.617950648E-2
4.257910696E0,5.273054913E-2,-2.117211558E-2,6.085318699E-2
4.260398404E0,6.870950758E-2,-1.904158667E-2,5.446160212E-2
4.262886113E0,8.362319320E-2,-1.478053257E-2,5.020054802E-2
4.265373821E0,1.017326787E-1,-9.454214945E-3,4.700475931E-2
4.267861529E0,1.187768951E-1,-9.321057005E-4,4.380896688E-2
4.270349238E0,1.358211190E-1,7.590003312E-3,4.167843983E-2
4.272836946E0,1.528653353E-1,1.717737690E-2,3.954791278E-2
4.275324654E0,1.677790284E-1,2.783001214E-2,3.848264739E-2
4.277812363E0,1.805621833E-1,3.848264739E-2,3.741738573E-2
4.280300071E0,1.901495606E-1,4.913528636E-2,3.635212034E-2
4.282787779E0,1.986716688E-1,5.978792161E-2,3.635212034E-2
4.285275540E0,2.039979845E-1,6.937529147E-2,3.528685868E-2
4.287763300E0,2.071937770E-1,7.789740711E-2,3.528685868E-2
4.290251061E0,2.082590461E-1,8.535424620E-2,3.635212034E-2
4.292738821E0,2.039979845E-1,9.068056941E-2,3.848264739E-2
4.295226581E0,1.986716688E-1,9.494162351E-2,3.954791278E-2
4.297714342E0,1.912148297E-1,9.707214683E-2,4.380896688E-2
4.300202102E0,1.826927215E-1,9.707214683E-2,4.807002097E-2
4.302689863E0,1.709748209E-1,9.494162351E-2,5.446160212E-2
4.305177623E0,1.581916511E-1,9.281109273E-2,6.191844866E-2
4.307665384E0,1.432779580E-1,8.961530030E-2,7.257108390E-2
4.310153144E0,1.262337416E-1,8.535424620E-2,8.215846121E-2
4.312640904E0,1.081242561E-1,7.896266878E-2,9.387636185E-2
4.315128665E0,8.788424730E-2,7.257108390E-2,1.045289934E-1
4.317616425E0,6.764423847E-2,6.511423737E-2,1.162468940E-1
4.320104186E0,4.527370632E-2,5.552686751E-2,1.279647946E-1
4.322591946E0,2.290316857E-2,4.700475931E-2,1.375521719E-1
4.325079706E0,-5.326318205E-4,3.848264739E-2,1.471395344E-1
4.327567467E0,-2.290316857E-2,2.996053919E-2,1.545963883E-1
4.330055227E0,-4.527370632E-2,2.037316747E-2,1.599227041E-1
4.332542988E0,-6.657897681E-2,1.185105834E-2,1.641837656E-1
4.335030748E0,-8.681898564E-2,4.394212738E-3,1.673795432E-1
4.337518509E0,-1.049284711E-1,-3.062632866E-3,1.684448123E-1
4.340006269E0,-1.198421568E-1,-9.454214945E-3,1.663142890E-1
4.342494029E0,-1.326253265E-1,-1.371526904E-2,1.652490199E-1
4.344981790E0,-1.432779580E-1,-1.797632314E-2,1.609879732E-1
4.347469550E0,-1.507348120E-1,-2.223737910E-2,1.556616426E-1
4.349957311E0,-1.539305896E-1,-2.436790615E-2,1.482048035E-1
4.352445071E0,-1.549958587E-1,-2.543316968E-2,1.396826953E-1
4.354932831E0,-1.528653353E-1,-2.649843320E-2,1.279647946E-1
4.357420540E0,-1.486042738E-1,-2.543316968E-2,1.162468940E-1
4.359908248E0,-1.411474347E-1,-2.330264263E-2,1.013332009E-1
4.362395956E0,-1.315600574E-1,-2.010685205E-2,8.641951531E-2
4.364883665E0,-1.187768951E-1,-1.691105962E-2,7.150582224E-2
4.367371373E0,-1.038632020E-1,-1.158474199E-2,5.659212917E-2
4.369859081E0,-8.681898564E-2,-7.323687430E-3,4.380896688E-2
4.372346790E0,-6.870950758E-2,-1.997369342E-3,3.102580272E-2
4.374834498E0,-4.846949503E-2,3.328948980E-3,2.037316747E-2
4.377322206E0,-2.822948620E-2,8.655266836E-3,1.078579482E-2
4.379809915E0,-7.989477366E-3,1.185105834E-2,4.394212738E-3
4.382297623E0,1.225053146E-2,1.611211337E-2,-9.321057005E-4
4.384785331E0,3.036001325E-2,1.930790395E-2,-4.127896391E-3
4.387273040E0,4.740423337E-2,2.143843099E-2,-7.323687430E-3
4.389760748E0,6.231792271E-2,2.143843099E-2,-8.388951421E-3
4.392248456E0,7.616634667E-2,2.143843099E-2,-9.454214945E-3
4.394736165E0,8.681898564E-2,1.824264042E-2,-8.388951421E-3
4.397223873E0,9.640636295E-2,1.398158539E-2,-8.388951421E-3
4.399711581E0,1.027979404E-1,7.590003312E-3,-6.258423906E-3
4.402199290E0,1.081242561E-1,-9.321057005E-4,-4.127896391E-3
4.404686998E0,1.123853177E-1,-9.454214945E-3,-9.321057005E-4
4.407174706E0,1.155811027E-1,-1.904158667E-2,2.263685223E-3
4.409662415E0,1.166463718E-1,-2.649843320E-2,6.524739787E-3
4.412150123E0,1.177116334E-1,-3.395527974E-2,1.078579482E-2
4.414637831E0,1.187768951E-1,-4.141212255E-2,1.611211337E-2
4.417125540E0,1.187768951E-1,-4.673844203E-2,2.143843099E-2
4.419613248E0,1.198421568E-1,-5.099949613E-2,2.676474862E-2
4.422100956E0,1.209074259E-1,-5.419528857E-2,3.315633163E-2
4.424588665E0,1.230379492E-1,-5.526055023E-2,3.954791278E-2
4.427076373E0,1.251684725E-1,-5.419528857E-2,4.593949392E-2
4.429564081E0,1.283642650E-1,-5.206476152E-2,5.233107507E-2
4.432051790E0,1.315600574E-1,-4.673844203E-2,5.978792161E-2
4.434539498E0,1.347558498E-1,-4.141212255E-2,6.617950648E-2
4.437027206E0,1.379516423E-1,-3.502054140E-2,7.257108390E-2
4.439514915E0,1.411474347E-1,-2.649843320E-2,7.789740711E-2
4.442002623E0,1.454084814E-1,-1.797632314E-2,8.109319210E-2
4.444490331E0,1.486042738E-1,-8.388951421E-3,8.428898454E-2
4.446978040E0,1.496695429E-1,2.263685223E-3,8.641951531E-2
4.449465748E0,1.507348120E-1,1.185105834E-2,8.748477697E-2
4.451953456E0,1.507348120E-1,2.143843099E-2,8.748477697E-2
4.454441165E0,1.486042738E-1,2.996053919E-2,8.641951531E-2
4.456928873E0,1.443432271E-1,3.848264739E-2,8.535424620E-2
4.459416581E0,1.390169114E-1,4.487423226E-2,8.215846121E-2
4.461904290E0,1.315600574E-1,4.913528636E-2,7.896266878E-2
4.464391998E0,1.230379492E-1,5.233107507E-2,7.470161468E-2
4.466879706E0,1.123853177E-1,5.339634046E-2,6.937529147E-2
4.469367415E0,1.006674170E-1,5.233107507E-2,6.404897571E-2
4.471855123E0,8.681898564E-2,5.020054802E-2,5.872265995E-2
4.474342831E0,7.190529257E-2,4.593949392E-2,5.126581341E-2
4.476830540E0,5.699160323E-2,3.954791278E-2,4.380896688E-2
4.479318248E0,4.207791388E-2,3.209106624E-2,3.635212034E-2
4.481805956E0,2.609895915E-2,2.250369452E-2,2.783001214E-2
4.484293665E0,1.012000442E-2,1.185105834E-2,1.824264042E-2
4.486781373E0,-3.728422802E-3,1.198421582E-3,1.078579482E-2
4.489269081E0,-1.757685095E-2,-1.051947847E-2,2.263685223E-3
4.491756790E0,-3.036001325E-2,-2.223737910E-2,-6.258423906E-3
4.494244498E0,-4.207791388E-2,-3.395527974E-2,-1.371526904E-2
4.496732206E0,-5.060002208E-2,-4.460791498E-2,-2.117211558E-2
4.499219915E0,-5.699160323E-2,-5.419528857E-2,-2.862896025E-2
4.501707623E0,-6.125266105E-2,-6.378266215E-2,-3.608580679E-2
4.504195331E0,-6.231792271E-2,-7.017423958E-2,-4.354264960E-2
4.506683040E0,-5.912213027E-2,-7.550056279E-2,-5.099949613E-2
4.509170748E0,-5.273054913E-2,-7.976161689E-2,-5.739107728E-2
4.511658456E0,-4.420844093E-2,-8.295740932E-2,-6.484792382E-2
4.514146165E0,-3.249054030E-2,-8.615319431E-2,-7.123950869E-2
4.516633873E0,-1.970737800E-2,-8.828372508E-2,-7.656582445E-2
4.519121581E0,-2.663159044E-3,-9.147951752E-2,-8.082687855E-2
4.521609290E0,1.438105945E-2,-9.361004084E-2,-8.402267098E-2
4.524096998E0,3.249054030E-2,-9.893636405E-2,-8.508793265E-2
4.526584706E0,5.273054913E-2,-1.042626798E-1,-8.508793265E-2
4.529072415E0,7.190529257E-2,-1.106542572E-1,-8.402267098E-2
4.531560123E0,9.214530140E-2,-1.191763729E-1,-8.082687855E-2
4.534047831E0,1.123853177E-1,-1.287637353E-1,-7.550056279E-2
4.536535540E0,1.315600574E-1,-1.404816359E-1,-7.017423958E-2
4.539023248E0,1.496695429E-1,-1.532648057E-1,-6.484792382E-2
4.541510956E0,1.656484902E-1,-1.681784987E-1,-5.845634267E-2
4.543998665E0,1.805621833E-1,-1.841574460E-1,-5.419528857E-2
4.546486373E0,1.922800839E-1,-2.001364082E-1,-4.993423447E-2
4.548974081E0,2.039979845E-1,-2.193111479E-1,-4.673844203E-2
4.551461790E0,2.114548385E-1,-2.395511568E-1,-4.460791498E-2
4.553949498E0,2.178464085E-1,-2.608564198E-1,-4.354264960E-2
4.556437206E0,2.210422009E-1,-2.821617126E-1,-4.460791498E-2
4.558924915E0,2.231727391E-1,-3.013364673E-1,-4.673844203E-2
4.561412623E0,2.231727391E-1,-3.194459379E-1,-5.206476152E-2
4.563900331E0,2.210422009E-1,-3.332943618E-1,-5.845634267E-2
4.566388040E0,2.199769467E-1,-3.460775316E-1,-6.697845459E-2
4.568875748E0,2.178464085E-1,-3.545996249E-1,-7.656582445E-2
4.571363456E0,2.167811543E-1,-3.599259555E-1,-8.828372508E-2
4.573851165E0,2.178464085E-1,-3.620564938E-1,-9.893636405E-2
4.576338873E0,2.199769467E-1,-3.599259555E-1,-1.095889956E-1
4.578826581E0,2.253032625E-1,-3.535343707E-1,-1.202416345E-1
4.581314290E0,2.316948473E-1,-3.439469934E-1,-1.287637353E-1
4.583801998E0,2.412822098E-1,-3.290333152E-1,-1.383511126E-1
4.586289706E0,2.519348562E-1,-3.119890988E-1,-1.479384899E-1
4.588777415E0,2.625874877E-1,-2.906838059E-1,-1.575258672E-1
4.591265123E0,2.732401192E-1,-2.704437971E-1,-1.639174372E-1
4.593752831E0,2.828274965E-1,-2.491385341E-1,-1.713742912E-1
4.596240540E0,2.924148738E-1,-2.310290486E-1,-1.777658761E-1
4.598728248E0,2.988064587E-1,-2.139848322E-1,-1.820269227E-1
4.601215956E0,3.041327596E-1,-2.001364082E-1,-1.830921918E-1
4.603703665E0,3.062632978E-1,-1.905490309E-1,-1.820269227E-1
4.606191373E0,3.051980436E-1,-1.809616536E-1,-1.788311303E-1
4.608679081E0,3.020022511E-1,-1.745700836E-1,-1.745700836E-1
4.611166790E0,2.956106663E-1,-1.703090221E-1,-1.660479754E-1
4.613654498E0,2.860232890E-1,-1.681784987E-1,-1.575258672E-1
4.616142206E0,2.743053734E-1,-1.681784987E-1,-1.468732208E-1
4.618629915E0,2.615222335E-1,-1.724395454E-1,-1.340900660E-1
4.621117623E0,2.466085255E-1,-1.777658761E-1,-1.202416345E-1
4.623605331E0,2.316948473E-1,-1.841574460E-1,-1.074584723E-1
4.626093040E0,2.146506310E-1,-1.926795542E-1,-9.361004084E-2
4.628580748E0,1.976063997E-1,-1.990711391E-1,-7.976161689E-2
4.631068456E0,1.784316599E-1,-2.065279931E-1,-6.591318548E-2
4.633556165E0,1.603221744E-1,-2.118543088E-1,-5.206476152E-2
4.636043873E0,1.411474347E-1,-2.150501013E-1,-4.034686089E-2
4.638531581E0,1.230379492E-1,-2.171806246E-1,-3.075948730E-2
4.641019290E0,1.038632020E-1,-2.161153555E-1,-2.330264263E-2
4.643506998E0,8.681898564E-2,-2.129195631E-1,-1.584579609E-2
4.645994706E0,6.977476925E-2,-2.086585164E-1,-1.051947847E-2
4.648482415E0,5.486107618E-2,-2.022669315E-1,-5.193160381E-3
4.650970123E0,4.207791388E-2,-1.948100924E-1,-3.062632866E-3
4.653457831E0,2.929474972E-2,-1.841574460E-1,-1.997369342E-3
4.655945540E0,1.970737800E-2,-1.735048145E-1,-3.062632866E-3
4.658433248E0,1.012000442E-2,-1.617869139E-1,-3.062632866E-3
4.660920956E0,4.793686327E-3,-1.479384899E-1,-4.127896391E-3
4.663408665E0,1.597895520E-3,-1.340900660E-1,-5.193160381E-3
4.665896373E0,-5.326318205E-4,-1.191763729E-1,-6.258423906E-3
4.668384081E0,5.326318205E-4,-1.042626798E-1,-7.323687430E-3
4.670871790E0,3.728422802E-3,-8.828372508E-2,-7.323687430E-3
4.673359498E0,7.989477366E-3,-7.230477035E-2,-8.388951421E-3
4.675847206E0,1.438105945E-2,-5.845634267E-2,-8.388951421E-3
4.678334915E0,2.077264152E-2,-4.354264960E-2,-7.323687430E-3
4.680822623E0,2.609895915E-2,-2.969422378E-2,-7.323687430E-3
4.683310331E0,3.249054030E-2,-1.691105962E-2,-6.258423906E-3
4.685798040E0,3.675159439E-2,-5.193160381E-3,-6.258423906E-3
4.688285748E0,3.994738683E-2,5.459476262E-3,-5.193160381E-3
4.690773456E0,4.101264849E-2,1.504684892E-2,-3.062632866E-3
4.693261165E0,3.888212144E-2,2.250369452E-2,1.198421582E-3
4.695748873E0,3.568633273E-2,3.102580272E-2,5.459476262E-3
4.698236581E0,2.822948620E-2,3.848264739E-2,1.078579482E-2
4.700724290E0,1.864211448E-2,4.593949392E-2,1.717737690E-2
4.703212050E0,4.793686327E-3,5.446160212E-2,2.463422157E-2
4.705699811E0,-1.012000442E-2,6.298371404E-2,3.422159329E-2
4.708187571E0,-2.716422267E-2,7.044056058E-2,4.380896688E-2
4.710675331E0,-4.740423337E-2,7.789740711E-2,5.339634046E-2
4.713163092E0,-6.870950758E-2,8.428898454E-2,6.404897571E-2
4.715650852E0,-9.108003974E-2,8.855003864E-2,7.576687634E-2
4.718138613E0,-1.155811027E-1,9.174583107E-2,8.748477697E-2
4.720626373E0,-1.422126889E-1,9.068056941E-2,9.813741595E-2
4.723114134E0,-1.688442826E-1,8.748477697E-2,1.087900475E-1
4.725601894E0,-1.976063997E-1,8.109319210E-2,1.205079481E-1
4.728089654E0,-2.263685167E-1,7.257108390E-2,1.311605871E-1
4.730577415E0,-2.561959028E-1,6.191844866E-2,1.418132186E-1
4.733065175E0,-2.838927507E-1,5.020054802E-2,1.514005959E-1
4.735552936E0,-3.105243444E-1,3.954791278E-2,1.609879732E-1
4.738040696E0,-3.339601457E-1,2.783001214E-2,1.705753356E-1
4.740528456E0,-3.552654386E-1,1.717737690E-2,1.780321896E-1
4.743016217E0,-3.723096550E-1,7.590003312E-3,1.844237745E-1
4.745503977E0,-3.861580789E-1,1.331579551E-4,1.897500902E-1
4.747991738E0,-3.968107104E-1,-7.323687430E-3,1.940111369E-1
4.750479498E0,-4.042675495E-1,-1.265000552E-2,1.972069293E-1
4.752967259E0,-4.063980877E-1,-1.797632314E-2,1.993374527E-1
4.755455019E0,-4.042675495E-1,-2.117211558E-2,2.014679909E-1
4.757942779E0,-3.968107104E-1,-2.117211558E-2,2.025332451E-1
4.760430540E0,-3.872233331E-1,-1.691105962E-2,2.046637833E-1
4.762918300E0,-3.712443709E-1,-9.454214945E-3,2.067943066E-1
4.765406061E0,-3.531349003E-1,2.263685223E-3,2.089248300E-1
4.767893821E0,-3.307643533E-1,1.824264042E-2,2.121206224E-1
4.770381581E0,-3.051980436E-1,3.528685868E-2,2.163816839E-1
4.772869342E0,-2.796317041E-1,5.552686751E-2,2.206427306E-1
4.775357102E0,-2.540653646E-1,7.683213800E-2,2.249037921E-1
4.777844811E0,-2.274337858E-1,9.600688517E-2,2.280995846E-1
4.780332519E0,-2.029327303E-1,1.151816323E-1,2.323606312E-1
4.782820227E0,-1.816274524E-1,1.332911104E-1,2.355564237E-1
4.785307936E0,-1.624527127E-1,1.482048035E-1,2.387522161E-1
4.787795644E0,-1.464737505E-1,1.609879732E-1,2.419480085E-1
4.790283352E0,-1.347558498E-1,1.716406047E-1,2.440785319E-1
4.792771061E0,-1.262337416E-1,1.801627129E-1,2.451438010E-1
4.795258769E0,-1.219726875E-1,1.865542978E-1,2.462090552E-1
4.797746477E0,-1.219726875E-1,1.908153445E-1,2.462090552E-1
4.800234186E0,-1.251684725E-1,1.940111369E-1,2.451438010E-1
4.802721894E0,-1.326253265E-1,1.961416751E-1,2.419480085E-1
4.805209602E0,-1.422126889E-1,1.972069293E-1,2.366216928E-1
4.807697311E0,-1.549958587E-1,1.972069293E-1,2.312953621E-1
4.810185019E0,-1.688442826E-1,1.961416751E-1,2.249037921E-1
4.812672727E0,-1.826927215E-1,1.940111369E-1,2.153164148E-1
4.815160436E0,-1.965411454E-1,1.918806136E-1,2.057290375E-1
4.817648144E0,-2.103895694E-1,1.918806136E-1,1.961416751E-1
4.820135852E0,-2.231727391E-1,1.908153445E-1,1.844237745E-1
4.822623561E0,-2.348906398E-1,1.886848211E-1,1.716406047E-1
4.825111269E0,-2.444780022E-1,1.865542978E-1,1.599227041E-1
4.827598977E0,-2.519348562E-1,1.854890287E-1,1.482048035E-1
4.830086686E0,-2.561959028E-1,1.822932363E-1,1.364869028E-1
4.832574394E0,-2.593916953E-1,1.790974438E-1,1.268995255E-1
4.835062102E0,-2.593916953E-1,1.737711281E-1,1.194426864E-1
4.837549811E0,-2.583264410E-1,1.695100814E-1,1.109205782E-1
4.840037519E0,-2.551306486E-1,1.652490199E-1,1.045289934E-1
4.842525227E0,-2.519348562E-1,1.599227041E-1,9.920267761E-2
4.845012936E0,-2.487390637E-1,1.545963883E-1,9.707214683E-2
4.847500644E0,-2.434127480E-1,1.492700726E-1,9.707214683E-2
4.849988352E0,-2.391516864E-1,1.428784877E-1,9.813741595E-2
4.852476061E0,-2.338253707E-1,1.354216337E-1,1.002679393E-1
4.854963769E0,-2.306295782E-1,1.290300637E-1,1.045289934E-1
4.857451477E0,-2.284990549E-1,1.226384789E-1,1.087900475E-1
4.859939186E0,-2.284990549E-1,1.173121557E-1,1.141163707E-1
4.862426894E0,-2.284990549E-1,1.130511016E-1,1.194426864E-1
4.864914602E0,-2.295643091E-1,1.087900475E-1,1.237037405E-1
4.867402311E0,-2.316948473E-1,1.055942550E-1,1.290300637E-1
4.869890019E0,-2.359558940E-1,1.045289934E-1,1.354216337E-1
4.872377727E0,-2.391516864E-1,1.055942550E-1,1.407479644E-1
4.874865436E0,-2.434127480E-1,1.077247858E-1,1.471395344E-1
4.877353144E0,-2.455432713E-1,1.130511016E-1,1.535311192E-1
4.879840852E0,-2.487390637E-1,1.194426864E-1,1.609879732E-1
4.882328561E0,-2.498043180E-1,1.279647946E-1,1.684448123E-1
4.884816269E0,-2.498043180E-1,1.364869028E-1,1.748363972E-1
4.887303977E0,-2.508696020E-1,1.460742801E-1,1.801627129E-1
4.889791686E0,-2.498043180E-1,1.556616426E-1,1.833585054E-1
4.892279394E0,-2.487390637E-1,1.663142890E-1,1.844237745E-1
4.894767102E0,-2.466085255E-1,1.759016514E-1,1.822932363E-1
4.897254811E0,-2.444780022E-1,1.833585054E-1,1.790974438E-1
4.899742519E0,-2.412822098E-1,1.908153445E-1,1.727058738E-1
4.902230227E0,-2.370211631E-1,1.972069293E-1,1.652490199E-1
4.904717936E0,-2.306295782E-1,2.025332451E-1,1.567269117E-1
4.907205644E0,-2.231727391E-1,2.078595608E-1,1.471395344E-1
4.909693352E0,-2.135853618E-1,2.131858915E-1,1.364869028E-1
4.912181061E0,-2.018674612E-1,2.185122073E-1,1.258342713E-1
4.914668769E0,-1.869537681E-1,2.249037921E-1,1.141163707E-1
4.917156477E0,-1.720400751E-1,2.312953621E-1,1.034637317E-1
4.919644186E0,-1.560611278E-1,2.376869470E-1,9.281109273E-2
4.922131894E0,-1.390169114E-1,2.430132627E-1,8.322372288E-2
4.924619602E0,-1.209074259E-1,2.472743243E-1,7.470161468E-2
4.927107311E0,-1.038632020E-1,2.504701018E-1,6.724476814E-2
4.929595019E0,-8.788424730E-2,2.536658943E-1,6.191844866E-2
4.932082727E0,-7.297056168E-2,2.547311783E-1,5.659212917E-2
4.934570436E0,-5.912213027E-2,2.547311783E-1,5.446160212E-2
4.937058144E0,-4.846949503E-2,2.547311783E-1,5.339634046E-2
4.939545852E0,-4.101264849E-2,2.526006401E-1,5.339634046E-2
4.942033561E0,-3.568633273E-2,2.494048476E-1,5.552686751E-2
4.944521269E0,-3.568633273E-2,2.451438010E-1,5.872265995E-2
4.947008977E0,-3.781685978E-2,2.398174703E-1,6.298371404E-2
4.949496686E0,-4.527370632E-2,2.334259003E-1,6.831002980E-2
4.951984394E0,-5.486107618E-2,2.249037921E-1,7.363634557E-2
4.954472102E0,-6.657897681E-2,2.163816839E-1,8.002793044E-2
4.956959811E0,-8.042740822E-2,2.078595608E-1,8.961530030E-2
4.959447519E0,-9.747162461E-2,1.982721984E-1,9.813741595E-2
4.961935227E0,-1.145158410E-1,1.886848211E-1,1.077247858E-1
4.964422936E0,-1.326253265E-1,1.801627129E-1,1.173121557E-1
4.966909686E0,-1.518000662E-1,1.705753356E-1,1.268995255E-1
4.969397134E0,-1.688442826E-1,1.620532274E-1,1.364869028E-1
4.971884843E0,-1.848232448E-1,1.524658650E-1,1.460742801E-1
4.974372551E0,-1.997369379E-1,1.418132186E-1,1.556616426E-1
4.976860259E0,-2.125200927E-1,1.322258562E-1,1.641837656E-1
4.979347968E0,-2.231727391E-1,1.226384789E-1,1.737711281E-1
4.981835676E0,-2.295643091E-1,1.151816323E-1,1.822932363E-1
4.984323384E0,-2.327601016E-1,1.077247858E-1,1.886848211E-1
4.986811093E0,-2.316948473E-1,1.023984700E-1,1.929458827E-1
4.989298801E0,-2.274337858E-1,9.813741595E-2,1.961416751E-1
4.991786509E0,-2.178464085E-1,9.600688517E-2,1.961416751E-1
4.994274218E0,-2.039979845E-1,9.387636185E-2,1.929458827E-1
4.996761926E0,-1.858884990E-1,9.387636185E-2,1.865542978E-1
