"Time (s)","Acceleration x (m/s^2)","Acceleration y (m/s^2)","Acceleration z (m/s^2)"
3.075548500E-2,9.060855865E0,1.960252643E0,-3.114257812E0
3.322668300E-2,9.084798813E0,1.945887446E0,-3.109469414E0
3.569918300E-2,9.094375610E0,1.941099048E0,-3.128623009E0
3.817355800E-2,9.127894402E0,1.936310649E0,-3.138199806E0
4.065022400E-2,9.142259598E0,1.921945453E0,-3.152565002E0
4.312954700E-2,9.161413193E0,1.907580256E0,-3.171718597E0
4.561178700E-2,9.161413193E0,1.902791858E0,-3.186083794E0
4.809704700E-2,9.185355186E0,1.883638144E0,-3.210026026E0
5.058230800E-2,9.199720383E0,1.874061346E0,-3.224391222E0
5.307064100E-2,9.218873978E0,1.859696150E0,-3.243544817E0
5.556189100E-2,9.242815971E0,1.830965757E0,-3.267486811E0
5.805579700E-2,9.252392769E0,1.807023764E0,-3.277063608E0
6.055204700E-2,9.247604370E0,1.792658567E0,-3.272275209E0
6.305017200E-2,9.266757965E0,1.778293371E0,-3.257910013E0
6.554970400E-2,9.271546364E0,1.778293371E0,-3.224391222E0
6.805012000E-2,9.281123161E0,1.778293371E0,-3.195660830E0
7.055084900E-2,9.266757965E0,1.773504853E0,-3.219602823E0
7.304720400E-2,9.242815971E0,1.768716455E0,-3.214814425E0
7.553496400E-2,9.199720383E0,1.759139657E0,-3.214814425E0
7.802272400E-2,9.156624794E0,1.759139657E0,-3.219602823E0
8.051043300E-2,9.123106003E0,1.773504853E0,-3.224391222E0
8.299814100E-2,9.103952408E0,1.792658567E0,-3.229179621E0
8.548584900E-2,9.089587212E0,1.797446966E0,-3.238756418E0
8.797355800E-2,9.056067467E0,1.811812162E0,-3.291428804E0
9.046126600E-2,9.032125473E0,1.816600561E0,-3.301005602E0
9.294897400E-2,9.027337074E0,1.821388960E0,-3.344101191E0
9.543668300E-2,9.003395081E0,1.807023764E0,-3.363254786E0
9.792439100E-2,8.945934296E0,1.797446966E0,-3.363254786E0
1.004120990E-1,8.941145897E0,1.792658567E0,-3.372831583E0
1.028998080E-1,8.936357498E0,1.792658567E0,-3.368043184E0
1.053875160E-1,8.921992302E0,1.797446966E0,-3.368043184E0
1.078752240E-1,8.921992302E0,1.787870169E0,-3.363254786E0
1.103629330E-1,8.912415504E0,1.802235365E0,-3.368043184E0
1.128506410E-1,8.921992302E0,1.797446966E0,-3.396773577E0
1.153383490E-1,8.931569099E0,1.797446966E0,-3.435081005E0
1.178260580E-1,8.926780701E0,1.797446966E0,-3.468599796E0
1.203137660E-1,8.917203903E0,1.778293371E0,-3.497330189E0
1.228014740E-1,8.921992302E0,1.749562860E0,-3.535637379E0
1.252891830E-1,8.907627106E0,1.716044068E0,-3.535637379E0
1.277768910E-1,8.907627106E0,1.706467271E0,-3.540425777E0
1.302645990E-1,8.907627106E0,1.711255670E0,-3.535637379E0
1.327523080E-1,8.921992302E0,1.692102075E0,-3.535637379E0
1.352400160E-1,8.936357498E0,1.682525277E0,-3.521272182E0
1.377277240E-1,8.979453087E0,1.672948480E0,-3.511695385E0
1.402154330E-1,8.993818283E0,1.672948480E0,-3.482964993E0
1.427031410E-1,9.017760277E0,1.682525277E0,-3.449446201E0
1.451908490E-1,9.032125473E0,1.672948480E0,-3.406350374E0
1.476785580E-1,9.060855865E0,1.682525277E0,-3.382408381E0
1.501662660E-1,9.103952408E0,1.687313676E0,-3.358466387E0
1.526539740E-1,9.132682800E0,1.668160081E0,-3.348889589E0
1.551416830E-1,9.166201591E0,1.649006367E0,-3.310582399E0
1.576293910E-1,9.209297180E0,1.639429569E0,-3.286640406E0
1.601171520E-1,9.223662376E0,1.644217968E0,-3.272275209E0
1.626049120E-1,9.233239174E0,1.649006367E0,-3.224391222E0
1.650926720E-1,9.223662376E0,1.653794765E0,-3.195660830E0
1.675804330E-1,9.228450775E0,1.668160081E0,-3.138199806E0
1.700681930E-1,9.218873978E0,1.687313676E0,-3.104681015E0
1.725559540E-1,9.218873978E0,1.692102075E0,-3.066373825E0
1.750437140E-1,9.204508781E0,1.692102075E0,-3.042431831E0
1.775314740E-1,9.194931984E0,1.692102075E0,-2.994547844E0
1.800192350E-1,9.166201591E0,1.658583283E0,-2.956240654E0
1.825069950E-1,9.175778389E0,1.653794765E0,-2.917933226E0
1.849947560E-1,9.156624794E0,1.634641171E0,-2.879626036E0
1.874825160E-1,9.118317604E0,1.634641171E0,-2.836530447E0
1.899702770E-1,9.094375610E0,1.639429569E0,-2.812588453E0
1.924580370E-1,9.099164009E0,1.663371682E0,-2.759916067E0
1.949457970E-1,9.089587212E0,1.682525277E0,-2.726397276E0
1.974335580E-1,9.094375610E0,1.696890473E0,-2.673724651E0
1.999213180E-1,9.094375610E0,1.711255670E0,-2.649782658E0
2.024090790E-1,9.070432663E0,1.739986062E0,-2.659359455E0
2.048968390E-1,9.036913872E0,1.768716455E0,-2.654571056E0
2.073845990E-1,9.003395081E0,1.797446966E0,-2.659359455E0
2.098723600E-1,8.969876289E0,1.835754156E0,-2.668936253E0
2.123601200E-1,8.950722694E0,1.859696150E0,-2.702455282E0
2.148478810E-1,8.931569099E0,1.869272947E0,-2.740762472E0
2.173356410E-1,8.912415504E0,1.893214941E0,-2.759916067E0
2.198234020E-1,8.912415504E0,1.917157054E0,-2.764704466E0
2.223111620E-1,8.893261909E0,1.945887446E0,-2.788646460E0
2.247989220E-1,8.878896713E0,1.969829440E0,-2.822165251E0
2.272866830E-1,8.888473511E0,1.984194636E0,-2.860472441E0
2.297744430E-1,8.883685112E0,1.998559833E0,-2.889202833E0
2.322622040E-1,8.888473511E0,2.027290344E0,-2.946663857E0
2.347499640E-1,8.888473511E0,2.032078743E0,-2.956240654E0
2.372377240E-1,8.898050308E0,2.046443939E0,-2.941875219E0
2.397254850E-1,8.936357498E0,2.060809135E0,-2.946663857E0
2.422132450E-1,8.945934296E0,2.065597534E0,-2.970605850E0
2.447010060E-1,8.969876289E0,2.065597534E0,-2.975394249E0
2.471887660E-1,8.960299492E0,2.070385933E0,-3.008913040E0
2.496765270E-1,8.955511093E0,2.056020737E0,-3.061585426E0
2.521642870E-1,8.950722694E0,2.060809135E0,-3.071162224E0
2.546520470E-1,8.984241486E0,2.056020737E0,-3.071162224E0
2.571398080E-1,9.022548676E0,2.065597534E0,-3.099892616E0
2.596275680E-1,9.051279068E0,2.051232338E0,-3.128623009E0
2.621153290E-1,9.070432663E0,2.046443939E0,-3.152565002E0
2.646030890E-1,9.084798813E0,2.051232338E0,-3.205237627E0
2.670908490E-1,9.099164009E0,2.051232338E0,-3.243544817E0
2.695786100E-1,9.123106003E0,2.036867142E0,-3.262698412E0
2.720663700E-1,9.156624794E0,2.017713547E0,-3.301005602E0
2.745541310E-1,9.185355186E0,2.003348351E0,-3.315370798E0
2.770428810E-1,9.194931984E0,1.998559833E0,-3.334524393E0
2.795303290E-1,9.214085579E0,2.017713547E0,-3.353677988E0
2.820177770E-1,9.242815971E0,2.041655540E0,-3.363254786E0
2.845052240E-1,9.238027573E0,2.036867142E0,-3.387196779E0
2.869926720E-1,9.247604370E0,2.046443939E0,-3.406350374E0
2.894801200E-1,9.266757965E0,2.056020737E0,-3.435081005E0
2.919676200E-1,9.257181168E0,2.060809135E0,-3.459022999E0
2.944551720E-1,9.257181168E0,2.046443939E0,-3.492541790E0
2.969427770E-1,9.252392769E0,2.051232338E0,-3.492541790E0
2.994304330E-1,9.228450775E0,2.065597534E0,-3.521272182E0
3.019181410E-1,9.204508781E0,2.065597534E0,-3.530848980E0
3.044059020E-1,9.161413193E0,2.075174332E0,-3.554790974E0
3.068937140E-1,9.147047997E0,2.099116325E0,-3.550002575E0
3.093815790E-1,9.113529205E0,2.118269920E0,-3.550002575E0
3.118694950E-1,9.103952408E0,2.113481522E0,-3.540425777E0
3.143574640E-1,9.065644264E0,2.123058319E0,-3.554790974E0
3.168454330E-1,9.036913872E0,2.137423515E0,-3.583521366E0
3.193334020E-1,9.012971878E0,2.147000313E0,-3.593098164E0
3.218213700E-1,8.998606682E0,2.156577110E0,-3.597886562E0
3.243093390E-1,8.969876289E0,2.161365509E0,-3.593098164E0
3.267973080E-1,8.955511093E0,2.170942307E0,-3.573944569E0
3.292852770E-1,8.960299492E0,2.185307503E0,-3.573944569E0
3.317730890E-1,8.945934296E0,2.190095901E0,-3.564367771E0
3.342607970E-1,8.945934296E0,2.194884300E0,-3.573944569E0
3.367485060E-1,8.969876289E0,2.209249735E0,-3.583521366E0
3.392362140E-1,8.960299492E0,2.190095901E0,-3.597886562E0
3.417239220E-1,8.960299492E0,2.175730705E0,-3.617040157E0
3.442116310E-1,8.945934296E0,2.175730705E0,-3.617040157E0
3.466993390E-1,8.936357498E0,2.194884300E0,-3.597886562E0
3.491870470E-1,8.931569099E0,2.190095901E0,-3.593098164E0
3.516747560E-1,8.917203903E0,2.199672699E0,-3.588309765E0
3.541624640E-1,8.893261909E0,2.223614931E0,-3.583521366E0
3.566501720E-1,8.898050308E0,2.233191729E0,-3.573944569E0
3.591378810E-1,8.893261909E0,2.247556925E0,-3.564367771E0
3.616255890E-1,8.878896713E0,2.247556925E0,-3.578732967E0
3.641132970E-1,8.869319916E0,2.242768526E0,-3.573944569E0
3.666010060E-1,8.859743118E0,2.199672699E0,-3.569156170E0
3.690887140E-1,8.840589523E0,2.199672699E0,-3.554790974E0
3.715764220E-1,8.840589523E0,2.180519104E0,-3.545214176E0
3.740641310E-1,8.845377922E0,2.185307503E0,-3.526060581E0
3.765518390E-1,8.840589523E0,2.194884300E0,-3.502118587E0
3.790395470E-1,8.845377922E0,2.204461098E0,-3.478176594E0
3.815272560E-1,8.840589523E0,2.209249735E0,-3.459022999E0
3.840149640E-1,8.821435928E0,2.190095901E0,-3.459022999E0
3.865026720E-1,8.811859131E0,2.180519104E0,-3.463811398E0
3.889903810E-1,8.807070732E0,2.161365509E0,-3.449446201E0
3.914780890E-1,8.811859131E0,2.137423515E0,-3.439869404E0
3.939657970E-1,8.797493935E0,2.123058319E0,-3.415927172E0
3.964535060E-1,8.792705536E0,2.118269920E0,-3.363254786E0
3.989412140E-1,8.778340340E0,2.118269920E0,-3.310582399E0
4.014289220E-1,8.763975143E0,2.118269920E0,-3.262698412E0
4.039166310E-1,8.730456352E0,2.123058319E0,-3.229179621E0
4.064043390E-1,8.696937561E0,2.142211914E0,-3.195660830E0
4.088920470E-1,8.672995567E0,2.137423515E0,-3.152565002E0
4.113798080E-1,8.639476776E0,2.132635117E0,-3.085527420E0
4.138675680E-1,8.610746384E0,2.147000313E0,-3.023278236E0
4.163553290E-1,8.562862396E0,2.137423515E0,-2.975394249E0
4.188430890E-1,8.553285599E0,2.156577110E0,-2.932298422E0
4.213308490E-1,8.514978409E0,2.175730705E0,-2.893991232E0
4.238186100E-1,8.457517624E0,2.190095901E0,-2.879626036E0
4.263063700E-1,8.423998833E0,2.185307503E0,-2.850895643E0
4.287941310E-1,8.361749649E0,2.199672699E0,-2.798223257E0
4.312818910E-1,8.299500465E0,2.223614931E0,-2.740762472E0
4.337696520E-1,8.232462883E0,2.252345324E0,-2.688089848E0
4.362574120E-1,8.184578896E0,2.271498919E0,-2.644994259E0
4.387451720E-1,8.155848503E0,2.285864115E0,-2.601898670E0
4.412329330E-1,8.136694908E0,2.305017710E0,-2.573168278E0
4.437206930E-1,8.103176117E0,2.314594507E0,-2.558803082E0
4.462084540E-1,8.040925980E0,2.328959703E0,-2.544437885E0
4.486962140E-1,8.002618790E0,2.333748102E0,-2.520495892E0
4.511839740E-1,7.954735279E0,2.357690096E0,-2.510919094E0
4.536717350E-1,7.911639690E0,2.395997286E0,-2.486977100E0
4.561594950E-1,7.858967304E0,2.405574083E0,-2.477400303E0
4.586472560E-1,7.787140846E0,2.429516077E0,-2.458246708E0
4.611350160E-1,7.729680061E0,2.443881273E0,-2.467823505E0
4.636227770E-1,7.672219276E0,2.453458309E0,-2.448669672E0
4.661105370E-1,7.614758492E0,2.472611904E0,-2.448669672E0
4.685982970E-1,7.547720909E0,2.463035107E0,-2.458246708E0
4.710860580E-1,7.480683327E0,2.448669672E0,-2.486977100E0
4.735738180E-1,7.428010941E0,2.443881273E0,-2.496553898E0
4.760615790E-1,7.360973358E0,2.443881273E0,-2.501342297E0
4.785493390E-1,7.298723698E0,2.429516077E0,-2.534861088E0
4.810370990E-1,7.217320919E0,2.419939280E0,-2.549226284E0
4.835248600E-1,7.135918140E0,2.410362482E0,-2.558803082E0
4.860126200E-1,7.025784969E0,2.405574083E0,-2.539649487E0
4.885003810E-1,6.934805393E0,2.391208887E0,-2.530072689E0
4.909881410E-1,6.853402138E0,2.415150881E0,-2.496553898E0
4.934759020E-1,6.781576157E0,2.395997286E0,-2.477400303E0
4.959636620E-1,6.700173378E0,2.395997286E0,-2.453458309E0
4.984514220E-1,6.604405403E0,2.381632090E0,-2.448669672E0
5.009391830E-1,6.523002625E0,2.352901697E0,-2.424727678E0
5.034269430E-1,6.451176643E0,2.324171305E0,-2.419939280E0
5.059147040E-1,6.379350662E0,2.309806108E0,-2.429516077E0
5.084024640E-1,6.326677799E0,2.261922121E0,-2.419939280E0
5.108902240E-1,6.283582211E0,2.223614931E0,-2.429516077E0
5.133779850E-1,6.240486622E0,2.185307503E0,-2.429516077E0
5.158657450E-1,6.230909824E0,2.151788712E0,-2.434304476E0
5.183535060E-1,6.197391033E0,2.103904724E0,-2.467823505E0
5.208412660E-1,6.178237438E0,2.051232338E0,-2.472611904E0
5.233290270E-1,6.149507046E0,2.008136749E0,-2.486977100E0
5.258167870E-1,6.135141850E0,1.941099048E0,-2.496553898E0
5.283045470E-1,6.106411457E0,1.902791858E0,-2.486977100E0
5.307923080E-1,6.082469463E0,1.874061346E0,-2.482188702E0
5.332800680E-1,6.082469463E0,1.850119352E0,-2.496553898E0
5.357678290E-1,6.096834660E0,1.811812162E0,-2.496553898E0
5.382555890E-1,6.092046261E0,1.768716455E0,-2.496553898E0
5.407433490E-1,6.106411457E0,1.711255670E0,-2.520495892E0
5.432311100E-1,6.130353451E0,1.653794765E0,-2.558803082E0
5.457188700E-1,6.130353451E0,1.610699177E0,-2.573168278E0
5.482066310E-1,6.130353451E0,1.567603588E0,-2.587533474E0
5.506943910E-1,6.130353451E0,1.510142684E0,-2.621052265E0
5.531821520E-1,6.130353451E0,1.467047095E0,-2.630629063E0
5.556699120E-1,6.120776653E0,1.438316703E0,-2.621052265E0
5.581576720E-1,6.101623058E0,1.371279001E0,-2.630629063E0
5.606454330E-1,6.106411457E0,1.342548609E0,-2.587533474E0
5.631331930E-1,6.115988255E0,1.304241419E0,-2.573168278E0
5.656209540E-1,6.115988255E0,1.256357312E0,-2.573168278E0
5.681087140E-1,6.092046261E0,1.213261724E0,-2.577956676E0
5.705964740E-1,6.096834660E0,1.189319730E0,-2.587533474E0
5.730842350E-1,6.106411457E0,1.170166135E0,-2.577956676E0
5.755719950E-1,6.092046261E0,1.146224022E0,-2.592321873E0
5.780597560E-1,6.053739071E0,1.122282028E0,-2.625840664E0
5.805475160E-1,6.015431881E0,1.127070427E0,-2.659359455E0
5.830352770E-1,5.991489887E0,1.146224022E0,-2.664147854E0
5.855230370E-1,5.967547894E0,1.160589218E0,-2.692878246E0
5.880107970E-1,5.948394299E0,1.170166135E0,-2.707243681E0
5.904985580E-1,5.953182697E0,1.184531331E0,-2.750339270E0
5.929863180E-1,5.977124691E0,1.198896527E0,-2.779069662E0
5.954740790E-1,5.962759495E0,1.222838521E0,-2.855684042E0
5.979618390E-1,5.986701488E0,1.218050122E0,-2.917933226E0
6.004495990E-1,5.996278286E0,1.246780515E0,-2.984971046E0
6.029373600E-1,5.986701488E0,1.275510907E0,-3.047220230E0
6.054251200E-1,5.981913090E0,1.289876223E0,-3.109469414E0
6.079128810E-1,5.991489887E0,1.309029818E0,-3.190872431E0
6.104006410E-1,6.029797077E0,1.342548609E0,-3.243544817E0
6.128884020E-1,6.053739071E0,1.361702204E0,-3.291428804E0
6.153761620E-1,6.096834660E0,1.371279001E0,-3.339312792E0
6.178639220E-1,6.130353451E0,1.414374709E0,-3.363254786E0
6.203516830E-1,6.163872242E0,1.414374709E0,-3.415927172E0
6.228394430E-1,6.206967831E0,1.423951507E0,-3.478176594E0
6.253272040E-1,6.226121426E0,1.419163108E0,-3.535637379E0
6.278149640E-1,6.269217014E0,1.428739905E0,-3.588309765E0
6.303027240E-1,6.321889400E0,1.447893500E0,-3.617040157E0
6.327904850E-1,6.369773388E0,1.443105102E0,-3.674500942E0
6.352782450E-1,6.422446251E0,1.443105102E0,-3.688866377E0
6.377660060E-1,6.465541840E0,1.443105102E0,-3.731961966E0
6.402537660E-1,6.513425827E0,1.423951507E0,-3.751115561E0
6.427415270E-1,6.556521416E0,1.423951507E0,-3.755903959E0
6.452292870E-1,6.599617004E0,1.414374709E0,-3.741538763E0
6.477170470E-1,6.652289391E0,1.404797792E0,-3.717596769E0
6.502048080E-1,6.728903770E0,1.404797792E0,-3.688866377E0
6.526925680E-1,6.776787758E0,1.404797792E0,-3.645770550E0
6.551803290E-1,6.848613739E0,1.414374709E0,-3.617040157E0
6.576680890E-1,6.920440197E0,1.400009394E0,-3.535637379E0
6.601558490E-1,7.011419773E0,1.390432596E0,-3.482964993E0
6.626436100E-1,7.102399349E0,1.385644197E0,-3.435081005E0
6.651313700E-1,7.164648533E0,1.390432596E0,-3.387196779E0
6.676191310E-1,7.217320919E0,1.361702204E0,-3.358466387E0
6.701068910E-1,7.274781704E0,1.337760210E0,-3.310582399E0
6.725946520E-1,7.346607685E0,1.318606615E0,-3.267486811E0
6.750824120E-1,7.423222542E0,1.289876223E0,-3.210026026E0
6.775701720E-1,7.495048523E0,1.275510907E0,-3.152565002E0
6.800579330E-1,7.552509308E0,1.241992116E0,-3.066373825E0
6.825456930E-1,7.629123688E0,1.237203717E0,-3.028066635E0
6.850334540E-1,7.677007675E0,1.237203717E0,-2.980182648E0
6.875212140E-1,7.705738068E0,1.256357312E0,-2.913144827E0
6.900089740E-1,7.705738068E0,1.265934110E0,-2.846107244E0
6.924967350E-1,7.696161270E0,1.270722508E0,-2.817376852E0
6.949844950E-1,7.710526466E0,1.294664621E0,-2.788646460E0
6.974722560E-1,7.724891663E0,1.309029818E0,-2.750339270E0
6.999600160E-1,7.758410454E0,1.309029818E0,-2.745550871E0
7.024477770E-1,7.782352448E0,1.332971811E0,-2.740762472E0
7.049355370E-1,7.835024834E0,1.342548609E0,-2.702455282E0
7.074232450E-1,7.849390507E0,1.347337008E0,-2.688089848E0
7.099109540E-1,7.882909298E0,1.361702204E0,-2.659359455E0
7.123986620E-1,7.911639690E0,1.371279001E0,-2.668936253E0
7.148863700E-1,7.935581684E0,1.400009394E0,-2.664147854E0
7.173740790E-1,7.949946880E0,1.423951507E0,-2.635417461E0
7.198617870E-1,7.988254070E0,1.433528304E0,-2.640205860E0
7.223494950E-1,8.026560783E0,1.457470298E0,-2.630629063E0
7.248372040E-1,8.064867973E0,1.471835494E0,-2.621052265E0
7.273249120E-1,8.088809967E0,1.481412292E0,-2.616263866E0
7.298126200E-1,8.131906509E0,1.495777488E0,-2.630629063E0
7.323003290E-1,8.165425301E0,1.505354285E0,-2.640205860E0
7.347880370E-1,8.198944092E0,1.538873196E0,-2.630629063E0
7.372757450E-1,8.251616478E0,1.567603588E0,-2.625840664E0
7.397634540E-1,8.318654060E0,1.553238392E0,-2.640205860E0
7.422511620E-1,8.376114845E0,1.558026791E0,-2.625840664E0
7.447388700E-1,8.423998833E0,1.562815189E0,-2.644994259E0
7.472265790E-1,8.495824814E0,1.577180386E0,-2.664147854E0
7.497142870E-1,8.553285599E0,1.586757183E0,-2.678513050E0
7.522019950E-1,8.620323181E0,1.577180386E0,-2.697666883E0
7.546897040E-1,8.672995567E0,1.581968784E0,-2.721608877E0
7.571774120E-1,8.735244751E0,1.562815189E0,-2.755127668E0
7.596651200E-1,8.787917137E0,1.548449993E0,-2.783858061E0
7.621528290E-1,8.826224327E0,1.538873196E0,-2.812588453E0
7.646405370E-1,8.845377922E0,1.514931083E0,-2.812588453E0
7.671282450E-1,8.869319916E0,1.495777488E0,-2.826953650E0
7.696159540E-1,8.864531517E0,1.514931083E0,-2.812588453E0
7.721036620E-1,8.840589523E0,1.534084797E0,-2.798223257E0
7.745913700E-1,8.821435928E0,1.553238392E0,-2.807800055E0
7.770800680E-1,8.787917137E0,1.572391987E0,-2.822165251E0
7.795680370E-1,8.763975143E0,1.610699177E0,-2.855684042E0
7.820557970E-1,8.740033150E0,1.625064373E0,-2.922721624E0
7.845435580E-1,8.720879555E0,1.649006367E0,-2.989759445E0
7.870313180E-1,8.687360764E0,1.672948480E0,-3.085527420E0
7.895190270E-1,8.687360764E0,1.677736878E0,-3.147776604E0
7.920067350E-1,8.692149162E0,1.677736878E0,-3.224391222E0
7.944944430E-1,8.696937561E0,1.692102075E0,-3.281852007E0
7.969821520E-1,8.720879555E0,1.711255670E0,-3.377619982E0
7.994698600E-1,8.744821548E0,1.720832467E0,-3.454234600E0
8.019575680E-1,8.778340340E0,1.725620866E0,-3.535637379E0
8.044452770E-1,8.811859131E0,1.720832467E0,-3.612251759E0
8.069329850E-1,8.850166321E0,1.730409265E0,-3.684077978E0
8.094206930E-1,8.888473511E0,1.730409265E0,-3.760692358E0
8.119084020E-1,8.917203903E0,1.739986062E0,-3.827729940E0
8.143961100E-1,8.960299492E0,1.744774461E0,-3.899555922E0
8.168838180E-1,9.008183479E0,1.730409265E0,-3.937863350E0
8.193715270E-1,9.036913872E0,1.749562860E0,-3.980958939E0
8.218592350E-1,9.065644264E0,1.744774461E0,-3.995324135E0
8.243469430E-1,9.080010414E0,1.744774461E0,-4.019266129E0
8.268346520E-1,9.108740807E0,1.730409265E0,-4.043208122E0
8.293223600E-1,9.132682800E0,1.701678872E0,-4.043208122E0
8.318100680E-1,9.151836395E0,1.687313676E0,-4.081515312E0
8.342977770E-1,9.180566788E0,1.668160081E0,-4.110245705E0
8.367854850E-1,9.199720383E0,1.625064373E0,-4.153341293E0
8.392731930E-1,9.228450775E0,1.567603588E0,-4.215590477E0
8.417609020E-1,9.242815971E0,1.524507880E0,-4.249109268E0
8.442486100E-1,9.252392769E0,1.471835494E0,-4.273051262E0
8.467363180E-1,9.266757965E0,1.419163108E0,-4.273051262E0
8.492240270E-1,9.309853554E0,1.371279001E0,-4.239532471E0
8.517117350E-1,9.343372345E0,1.313818216E0,-4.225167274E0
8.541994430E-1,9.372102737E0,1.280299306E0,-4.186860085E0
8.566871520E-1,9.415198326E0,1.237203717E0,-4.143764496E0
8.591748600E-1,9.458293915E0,1.198896527E0,-4.062361717E0
8.616625680E-1,9.477447510E0,1.170166135E0,-3.990535736E0
8.641503290E-1,9.496601105E0,1.141435623E0,-3.880402327E0
8.666380890E-1,9.510966301E0,1.136647224E0,-3.794211149E0
8.691258490E-1,9.534908295E0,1.107916832E0,-3.712808371E0
8.716136100E-1,9.554061890E0,1.112705231E0,-3.597886562E0
8.741013700E-1,9.558850288E0,1.112705231E0,-3.497330189E0
8.765891310E-1,9.563638687E0,1.117493629E0,-3.420715570E0
8.790768910E-1,9.563638687E0,1.136647224E0,-3.344101191E0
8.815646520E-1,9.563638687E0,1.151012421E0,-3.267486811E0
8.840524120E-1,9.549273491E0,1.170166135E0,-3.224391222E0
8.865401720E-1,9.544485092E0,1.198896527E0,-3.195660830E0
8.890279330E-1,9.549273491E0,1.203684926E0,-3.171718597E0
8.915156930E-1,9.539696693E0,1.213261724E0,-3.152565002E0
8.940034540E-1,9.525331497E0,1.227626920E0,-3.162141800E0
8.964912140E-1,9.487024307E0,1.237203717E0,-3.162141800E0
8.989789740E-1,9.482235909E0,1.251568913E0,-3.138199806E0
9.014667350E-1,9.482235909E0,1.261145711E0,-3.133411407E0
9.039544950E-1,9.496601105E0,1.251568913E0,-3.152565002E0
9.064422560E-1,9.491812706E0,1.241992116E0,-3.186083794E0
9.089300160E-1,9.496601105E0,1.251568913E0,-3.219602823E0
9.114177770E-1,9.477447510E0,1.270722508E0,-3.267486811E0
9.139055370E-1,9.439140320E0,1.304241419E0,-3.320159197E0
9.163932970E-1,9.410409927E0,1.332971811E0,-3.368043184E0
9.188810580E-1,9.391256332E0,1.352125406E0,-3.415927172E0
9.213688180E-1,9.367314339E0,1.395220995E0,-3.454234600E0
9.238565790E-1,9.357737541E0,1.400009394E0,-3.482964993E0
9.263443390E-1,9.329007149E0,1.390432596E0,-3.540425777E0
9.288320990E-1,9.309853554E0,1.414374709E0,-3.583521366E0
9.313198600E-1,9.281123161E0,1.423951507E0,-3.631405354E0
9.338076200E-1,9.238027573E0,1.438316703E0,-3.688866377E0
9.362953810E-1,9.204508781E0,1.447893500E0,-3.736750364E0
9.387831410E-1,9.180566788E0,1.476623893E0,-3.784634352E0
9.412709020E-1,9.170989990E0,1.490989089E0,-3.851671934E0
9.437586620E-1,9.166201591E0,1.495777488E0,-3.899555922E0
9.462464220E-1,9.170989990E0,1.481412292E0,-3.966593742E0
9.487341830E-1,9.151836395E0,1.452681899E0,-4.019266129E0
9.512219430E-1,9.142259598E0,1.419163108E0,-4.076726913E0
9.537097040E-1,9.142259598E0,1.380855799E0,-4.134187698E0
9.561974640E-1,9.156624794E0,1.332971811E0,-4.182071686E0
9.586852240E-1,9.175778389E0,1.280299306E0,-4.225167274E0
9.611729850E-1,9.194931984E0,1.222838521E0,-4.244320869E0
9.636607450E-1,9.204508781E0,1.174954534E0,-4.244320869E0
9.661485060E-1,9.228450775E0,1.131858826E0,-4.244320869E0
9.686362660E-1,9.271546364E0,1.074398041E0,-4.258686066E0
9.711240270E-1,9.300276756E0,1.016937137E0,-4.268262863E0
9.736117870E-1,9.348160744E0,9.594763517E-1,-4.301782131E0
9.760995470E-1,9.367314339E0,8.972271085E-1,-4.325724125E0
9.785873080E-1,9.405621529E0,8.397662640E-1,-4.373608112E0
9.810750680E-1,9.419986725E0,7.727286220E-1,-4.378396511E0
9.835628290E-1,9.458293915E0,7.104793787E-1,-4.416703701E0
9.860505890E-1,9.510966301E0,6.625953317E-1,-4.459799290E0
9.885383490E-1,9.549273491E0,6.099228859E-1,-4.522048473E0
9.910261100E-1,9.578003883E0,5.572504401E-1,-4.541202068E0
9.935138700E-1,9.621099472E0,5.141547918E-1,-4.579509258E0
9.960016310E-1,9.654618263E0,4.854243994E-1,-4.622604847E0
9.984893910E-1,9.688137054E0,4.471171796E-1,-4.665700436E0
1.000977152E0,9.712079048E0,4.040215313E-1,-4.699219227E0
1.003464912E0,9.721655846E0,3.657143116E-1,-4.751891613E0
1.005952672E0,9.740809441E0,3.561375141E-1,-4.833294868E0
1.008440433E0,9.712079048E0,3.226186931E-1,-4.919486046E0
1.010928193E0,9.697713852E0,3.178302646E-1,-4.991312027E0
1.013415954E0,9.668983459E0,3.178302646E-1,-5.063138008E0
1.015903714E0,9.616311073E0,3.226186931E-1,-5.111021996E0
1.018391474E0,9.563638687E0,3.321954906E-1,-5.173271179E0
1.020879235E0,9.506177902E0,3.513490856E-1,-5.211578369E0
1.023366995E0,9.463082314E0,3.752911091E-1,-5.259462357E0
1.025854756E0,9.443928719E0,3.800795078E-1,-5.288193226E0
1.028342516E0,9.386467934E0,3.800795078E-1,-5.312135220E0
1.030830277E0,9.333795547E0,3.609259129E-1,-5.326500416E0
1.033318037E0,9.319430351E0,3.513490856E-1,-5.326500416E0
1.035805797E0,9.309853554E0,3.321954906E-1,-5.331288815E0
1.038293558E0,9.257181168E0,2.986766696E-1,-5.321712017E0
1.040781318E0,9.228450775E0,2.890998423E-1,-5.288193226E0
1.043269079E0,9.185355186E0,2.795230448E-1,-5.235520363E0
1.045756839E0,9.185355186E0,2.699462473E-1,-5.163694382E0
1.048244599E0,9.147047997E0,2.890998423E-1,-5.106233597E0
1.050732360E0,9.113529205E0,2.986766696E-1,-5.034407616E0
1.053220120E0,9.065644264E0,2.938882709E-1,-4.967370033E0
1.055707881E0,9.036913872E0,3.130418658E-1,-4.895544052E0
1.058195641E0,9.027337074E0,2.938882709E-1,-4.823718071E0
1.060683402E0,9.008183479E0,2.890998423E-1,-4.751891613E0
1.063171162E0,8.979453087E0,2.890998423E-1,-4.660912037E0
1.065658922E0,8.945934296E0,2.699462473E-1,-4.593874454E0
1.068146683E0,8.926780701E0,2.747346461E-1,-4.507683277E0
1.070634443E0,8.921992302E0,2.986766696E-1,-4.459799290E0
1.073122204E0,8.921992302E0,3.178302646E-1,-4.407126904E0
1.075609964E0,8.941145897E0,3.417722881E-1,-4.330512524E0
1.078097724E0,8.969876289E0,3.369838893E-1,-4.296993732E0
1.080585485E0,9.022548676E0,3.513490856E-1,-4.258686066E0
1.083073245E0,9.080010414E0,3.609259129E-1,-4.253897667E0
1.085561006E0,9.123106003E0,3.752911091E-1,-4.282628059E0
1.088048766E0,9.170989990E0,3.465606868E-1,-4.311358929E0
1.090536527E0,9.209297180E0,3.082534671E-1,-4.368819714E0
1.093024287E0,9.266757965E0,2.795230448E-1,-4.445434093E0
1.095512047E0,9.319430351E0,2.460042238E-1,-4.517260075E0
1.097999808E0,9.348160744E0,1.837549806E-1,-4.569932461E0
1.100487568E0,9.372102737E0,1.406593472E-1,-4.593874454E0
1.102975329E0,9.372102737E0,8.798690885E-2,-4.593874454E0
1.105463089E0,9.372102737E0,5.446808785E-2,-4.560355663E0
1.107950849E0,9.348160744E0,3.531447425E-2,-4.526836872E0
1.110438610E0,9.300276756E0,3.531447425E-2,-4.483741283E0
1.112926370E0,9.276334763E0,3.052607179E-2,-4.421492100E0
1.115414131E0,9.261969566E0,5.446808785E-2,-4.392761707E0
1.117901891E0,9.242815971E0,5.446808785E-2,-4.364031315E0
1.120389652E0,9.242815971E0,4.489128292E-2,-4.335300922E0
1.122877412E0,9.223662376E0,3.531447425E-2,-4.330512524E0
1.125365172E0,9.204508781E0,-1.256955881E-2,-4.316147327E0
1.127852933E0,9.175778389E0,-6.045359373E-2,-4.306570530E0
1.130340693E0,9.166201591E0,-1.035492271E-1,-4.229955673E0
1.132828454E0,9.137471199E0,-1.083376259E-1,-4.191648483E0
1.135316214E0,9.103952408E0,-1.131260321E-1,-4.129399300E0
1.137803974E0,9.080010414E0,-7.960720360E-2,-4.081515312E0
1.140291735E0,9.046490669E0,-1.735796221E-2,-4.043208122E0
1.142779495E0,9.036913872E0,2.573766746E-2,-4.009689331E0
1.145267256E0,9.036913872E0,7.362170517E-2,-3.980958939E0
1.147755016E0,9.017760277E0,1.406593472E-1,-3.966593742E0
1.150242777E0,9.022548676E0,1.981201917E-1,-3.976170540E0
1.152730537E0,9.017760277E0,2.460042238E-1,-4.009689331E0
1.155218297E0,9.017760277E0,2.843114436E-1,-4.086303711E0
1.157706058E0,9.022548676E0,3.082534671E-1,-4.172494888E0
1.160193818E0,9.051279068E0,3.082534671E-1,-4.277839661E0
1.162681579E0,9.099164009E0,3.130418658E-1,-4.411915302E0
1.165169339E0,9.161413193E0,2.795230448E-1,-4.598662853E0
1.167657099E0,9.218873978E0,2.507926226E-1,-4.799776077E0
1.170144860E0,9.266757965E0,2.316390127E-1,-5.000888824E0
1.172632620E0,9.305065155E0,1.933317930E-1,-5.216366768E0
1.175120381E0,9.352949142E0,1.646013707E-1,-5.412691593E0
1.177608141E0,9.386467934E0,1.406593472E-1,-5.585073948E0
1.180095902E0,9.434351921E0,1.119289324E-1,-5.743091106E0
1.182583662E0,9.525331497E0,8.319851011E-2,-5.886743546E0
1.185071422E0,9.601945877E0,3.052607179E-2,-6.025607109E0
1.187559183E0,9.692925453E0,-3.172317147E-2,-6.174047470E0
1.190046943E0,9.779116631E0,-9.397241473E-2,-6.336853504E0
1.192534704E0,9.903614998E0,-1.801636815E-1,-6.490082264E0
1.195022464E0,1.001374817E1,-2.472013235E-1,-6.662464619E0
1.197510224E0,1.011909389E1,-3.190273643E-1,-6.810905457E0
1.199997985E0,1.021965027E1,-3.573346138E-1,-6.940192223E0
1.202485745E0,1.031062984E1,-3.764882088E-1,-7.050325394E0
1.204973506E0,1.038724422E1,-4.004302323E-1,-7.136516571E0
1.207461266E0,1.046385860E1,-3.956418335E-1,-7.198765755E0
1.209949027E0,1.053568459E1,-3.908534348E-1,-7.270592213E0
1.212436787E0,1.058835697E1,-3.908534348E-1,-7.318476200E0
1.214924547E0,1.063145256E1,-4.100070298E-1,-7.356783390E0
1.217412308E0,1.065060616E1,-3.956418335E-1,-7.366360188E0
1.219900068E0,1.064102936E1,-3.956418335E-1,-7.342418194E0
1.222387829E0,1.063624096E1,-4.100070298E-1,-7.299322605E0
1.224875589E0,1.062666416E1,-4.100070298E-1,-7.265803814E0
1.227363349E0,1.059314537E1,-4.004302323E-1,-7.193977356E0
1.229851110E0,1.056441498E1,-4.147954583E-1,-7.112574577E0
1.232338870E0,1.052610779E1,-4.291606545E-1,-7.016806602E0
1.234826631E0,1.049737740E1,-4.483142793E-1,-6.911461830E0
1.237314391E0,1.045428181E1,-4.531026781E-1,-6.763021469E0
1.239802152E0,1.040639782E1,-4.674678743E-1,-6.600215435E0
1.242289912E0,1.038245583E1,-4.674678743E-1,-6.451775074E0
1.244777672E0,1.033457184E1,-4.722562730E-1,-6.317699909E0
1.247265433E0,1.029147625E1,-4.866214991E-1,-6.164470673E0
1.249753193E0,1.027711105E1,-5.009866953E-1,-5.982511520E0
1.252240954E0,1.024838066E1,-4.914098978E-1,-5.810129166E0
1.254728714E0,1.021007347E1,-4.914098978E-1,-5.695207119E0
1.257216474E0,1.017176628E1,-4.961982965E-1,-5.565920353E0
1.259704235E0,1.011909389E1,-4.866214991E-1,-5.450998783E0
1.262191995E0,1.007120991E1,-4.866214991E-1,-5.336077213E0
1.264679756E0,1.002811337E1,-4.722562730E-1,-5.187636375E0
1.267167516E0,1.001374817E1,-4.626794755E-1,-5.043984413E0
1.269655277E0,1.000895977E1,-4.626794755E-1,-4.890755653E0
1.272143037E0,9.989806175E0,-4.435258508E-1,-4.737526417E0
1.274630797E0,9.975440979E0,-4.195838571E-1,-4.617816448E0
1.277119339E0,9.975440979E0,-4.004302323E-1,-4.502894878E0
1.279606422E0,9.989806175E0,-3.812766075E-1,-4.407126904E0
1.282093506E0,9.980229378E0,-3.621230125E-1,-4.311358929E0
1.284580641E0,9.985017776E0,-3.429693878E-1,-4.215590477E0
1.287067829E0,9.980229378E0,-3.238157928E-1,-4.153341293E0
1.289555068E0,9.951498985E0,-2.950853705E-1,-4.057573318E0
1.292042412E0,9.917980194E0,-2.663549483E-1,-3.966593742E0
1.294529860E0,9.894038200E0,-2.424129248E-1,-3.904344320E0
1.297017412E0,9.874884605E0,-2.232593149E-1,-3.832518339E0
1.299505068E0,9.812635422E0,-2.088941038E-1,-3.798999548E0
1.301992829E0,9.783905029E0,-2.136825025E-1,-3.775057554E0
1.304480693E0,9.721655846E0,-1.993172914E-1,-3.712808371E0
1.306968662E0,9.668983459E0,-1.849520802E-1,-3.650558949E0
1.309456735E0,9.625887871E0,-1.705868691E-1,-3.626616955E0
1.311944860E0,9.587580681E0,-1.466448605E-1,-3.583521366E0
1.314433037E0,9.549273491E0,-1.227028370E-1,-3.526060581E0
1.316921266E0,9.496601105E0,-1.083376259E-1,-3.478176594E0
1.319409495E0,9.487024307E0,-9.876082093E-2,-3.430292368E0
1.321897724E0,9.458293915E0,-7.960720360E-2,-3.358466387E0
1.324385954E0,9.429563522E0,-7.481880486E-2,-3.310582399E0
1.326873766E0,9.415198326E0,-6.524199992E-2,-3.243544817E0
1.329361474E0,9.415198326E0,-4.129998013E-2,-3.200449228E0
1.331849183E0,9.386467934E0,-1.256955881E-2,-3.114257812E0
1.334336891E0,9.376891136E0,3.531447425E-2,-3.080739021E0
1.336824599E0,9.362525940E0,7.841010392E-2,-3.075950623E0
1.339312308E0,9.357737541E0,1.023521200E-1,-3.071162224E0
1.341800016E0,9.319430351E0,1.310825497E-1,-3.052008629E0
1.344287724E0,9.319430351E0,1.358709484E-1,-3.056797028E0
1.346775433E0,9.314641953E0,1.454477459E-1,-3.071162224E0
1.349263141E0,9.305065155E0,1.358709484E-1,-3.114257812E0
1.351750849E0,9.319430351E0,1.406593472E-1,-3.138199806E0
1.354238558E0,9.343372345E0,1.550245583E-1,-3.176506996E0
1.356726266E0,9.324218750E0,1.646013707E-1,-3.210026026E0
1.359213974E0,9.319430351E0,1.646013707E-1,-3.257910013E0
1.361701683E0,9.333795547E0,1.550245583E-1,-3.339312792E0
1.364189391E0,9.362525940E0,1.646013707E-1,-3.430292368E0
1.366677099E0,9.381679535E0,1.837549806E-1,-3.545214176E0
1.369164808E0,9.386467934E0,1.741781682E-1,-3.655347347E0
1.371652516E0,9.396044731E0,1.502361596E-1,-3.818153143E0
1.374140224E0,9.405621529E0,1.454477459E-1,-3.947440147E0
1.376627933E0,9.419986725E0,1.119289324E-1,-4.071938515E0
1.379115641E0,9.415198326E0,7.841010392E-2,-4.182071686E0
1.381603349E0,9.400833130E0,4.967968538E-2,-4.277839661E0
1.384091058E0,9.391256332E0,5.446808785E-2,-4.340089321E0
1.386578766E0,9.386467934E0,4.967968538E-2,-4.411915302E0
1.389066474E0,9.386467934E0,6.404489279E-2,-4.459799290E0
1.391554183E0,9.391256332E0,8.798690885E-2,-4.522048473E0
1.394041891E0,9.381679535E0,7.841010392E-2,-4.579509258E0
1.396529652E0,9.372102737E0,6.404489279E-2,-4.651335239E0
1.399017412E0,9.362525940E0,5.925649032E-2,-4.689642429E0
1.401505172E0,9.343372345E0,4.489128292E-2,-4.737526417E0
1.403992933E0,9.324218750E0,1.616086066E-2,-4.723161221E0
1.406480693E0,9.333795547E0,-1.256955881E-2,-4.708796024E0
1.408968454E0,9.333795547E0,-3.172317147E-2,-4.684854031E0
1.411456787E0,9.329007149E0,-3.172317147E-2,-4.627393246E0
1.413945120E0,9.329007149E0,-2.693476900E-2,-4.598662853E0
1.416432933E0,9.348160744E0,-2.214636654E-2,-4.560355663E0
1.418920693E0,9.367314339E0,-4.129998013E-2,-4.498106480E0
1.421408454E0,9.376891136E0,-6.524199992E-2,-4.445434093E0
1.423896214E0,9.415198326E0,-8.918401599E-2,-4.387973309E0
1.426383974E0,9.439140320E0,-1.274912357E-1,-4.320935726E0
1.428871683E0,9.463082314E0,-1.562216580E-1,-4.229955673E0
1.431359391E0,9.463082314E0,-1.753752679E-1,-4.143764496E0
1.433847099E0,9.472659111E0,-1.897404790E-1,-4.024054527E0
1.436334808E0,9.453505516E0,-1.897404790E-1,-3.880402327E0
1.438822516E0,9.434351921E0,-1.897404790E-1,-3.775057554E0
1.441310224E0,9.410409927E0,-1.657984704E-1,-3.636193752E0
1.443797933E0,9.376891136E0,-1.322796494E-1,-3.492541790E0
1.446285641E0,9.352949142E0,-1.322796494E-1,-3.396773577E0
1.448773349E0,9.300276756E0,-1.131260321E-1,-3.286640406E0
1.451261422E0,9.266757965E0,-8.918401599E-2,-3.181295395E0
1.453749235E0,9.233239174E0,-5.087678507E-2,-3.075950623E0
1.456236995E0,9.214085579E0,-2.992752008E-3,-2.999336243E0
1.458724756E0,9.175778389E0,1.137245819E-2,-2.970605850E0
1.461212516E0,9.137471199E0,2.573766746E-2,-2.951452255E0
1.463700277E0,9.127894402E0,3.531447425E-2,-2.913144827E0
1.466188037E0,9.089587212E0,3.531447425E-2,-2.917933226E0
1.468675797E0,9.080010414E0,4.489128292E-2,-2.903568029E0
1.471163558E0,9.060855865E0,5.925649032E-2,-2.879626036E0
1.473651318E0,9.056067467E0,5.925649032E-2,-2.831742048E0
1.476139027E0,9.027337074E0,7.362170517E-2,-2.822165251E0
1.478626735E0,9.041702271E0,7.841010392E-2,-2.807800055E0
1.481114443E0,9.065644264E0,1.023521200E-1,-2.793434858E0
1.483602152E0,9.070432663E0,1.023521200E-1,-2.783858061E0
1.486089860E0,9.123106003E0,1.262941360E-1,-2.793434858E0
1.488577568E0,9.161413193E0,1.550245583E-1,-2.822165251E0
1.491065277E0,9.194931984E0,1.502361596E-1,-2.870049238E0
1.493552985E0,9.228450775E0,1.454477459E-1,-2.927510023E0
1.496040693E0,9.285911560E0,1.119289324E-1,-2.999336243E0
1.498528402E0,9.333795547E0,9.756372124E-2,-3.085527420E0
1.501016110E0,9.376891136E0,7.841010392E-2,-3.166930199E0
1.503503818E0,9.439140320E0,6.883329898E-2,-3.243544817E0
1.505991527E0,9.491812706E0,4.967968538E-2,-3.320159197E0
1.508479235E0,9.563638687E0,4.967968538E-2,-3.368043184E0
1.510966943E0,9.640253067E0,4.010287672E-2,-3.425503969E0
1.513454652E0,9.707290649E0,3.531447425E-2,-3.459022999E0
1.515942360E0,9.769539833E0,2.573766746E-2,-3.482964993E0
1.518430068E0,9.822212219E0,1.795651275E-3,-3.497330189E0
1.520917777E0,9.860519409E0,-2.214636654E-2,-3.511695385E0
1.523405485E0,9.913191795E0,-6.045359373E-2,-3.535637379E0
1.525893193E0,9.956287384E0,-7.960720360E-2,-3.559579372E0
1.528380902E0,9.994594574E0,-1.035492271E-1,-3.564367771E0
1.530868610E0,1.002332497E1,-1.418564469E-1,-3.588309765E0
1.533356318E0,1.003769016E1,-1.562216580E-1,-3.626616955E0
1.535844027E0,1.003290176E1,-1.753752679E-1,-3.669712543E0
1.538331735E0,1.002811337E1,-1.993172914E-1,-3.722385168E0
1.540819443E0,1.003769016E1,-2.088941038E-1,-3.755903959E0
1.543307204E0,1.001853657E1,-2.136825025E-1,-3.775057554E0
1.545794964E0,1.001853657E1,-2.376245260E-1,-3.822941542E0
1.548282724E0,9.985017776E0,-2.376245260E-1,-3.875613928E0
1.550770485E0,9.961075783E0,-2.328361124E-1,-3.875613928E0
1.553258245E0,9.932345390E0,-2.376245260E-1,-3.870825529E0
1.555746006E0,9.889249802E0,-2.280477136E-1,-3.856460333E0
1.558233766E0,9.865307808E0,-2.088941038E-1,-3.842095137E0
1.560721527E0,9.846154213E0,-1.945288926E-1,-3.832518339E0
1.563209287E0,9.831789017E0,-1.705868691E-1,-3.846883535E0
1.565697047E0,9.822212219E0,-1.370680481E-1,-3.866037130E0
1.568184808E0,9.793481827E0,-9.876082093E-2,-3.894767523E0
1.570672568E0,9.740809441E0,-5.566519126E-2,-3.937863350E0
1.573160329E0,9.683348656E0,-1.735796221E-2,-3.971382141E0
1.575648089E0,9.630676270E0,1.616086066E-2,-4.019266129E0
1.578135849E0,9.601945877E0,5.446808785E-2,-4.047996521E0
1.580623610E0,9.568427086E0,5.446808785E-2,-4.086303711E0
1.583111370E0,9.539696693E0,5.925649032E-2,-4.138976097E0
1.585599131E0,9.534908295E0,7.841010392E-2,-4.162918091E0
1.588086891E0,9.539696693E0,8.798690885E-2,-4.196436882E0
1.590574652E0,9.506177902E0,8.798690885E-2,-4.258686066E0
1.593062412E0,9.496601105E0,1.167173311E-1,-4.273051262E0
1.595550172E0,9.506177902E0,1.406593472E-1,-4.273051262E0
1.598037933E0,9.506177902E0,1.837549806E-1,-4.268262863E0
1.600525693E0,9.515754700E0,1.981201917E-1,-4.268262863E0
1.603013454E0,9.510966301E0,2.220622003E-1,-4.234744072E0
1.605501214E0,9.525331497E0,2.172738016E-1,-4.191648483E0
1.607988974E0,9.544485092E0,2.268506140E-1,-4.162918091E0
1.610476735E0,9.587580681E0,2.124854028E-1,-4.138976097E0
1.612964495E0,9.601945877E0,2.172738016E-1,-4.105457306E0
1.615452256E0,9.645041466E0,2.076970041E-1,-4.081515312E0
1.617940016E0,9.683348656E0,1.885433793E-1,-4.038419724E0
1.620427777E0,9.716867447E0,1.885433793E-1,-4.014477730E0
1.622915537E0,9.779116631E0,1.789665818E-1,-3.985747337E0
1.625403297E0,9.841365814E0,1.693897694E-1,-3.966593742E0
1.627891058E0,9.932345390E0,1.598129570E-1,-3.942651749E0
1.630378818E0,1.000895977E1,1.550245583E-1,-3.942651749E0
1.632866579E0,1.006642151E1,1.502361596E-1,-3.971382141E0
1.635354339E0,1.012388229E1,1.310825497E-1,-3.995324135E0
1.637842099E0,1.016697788E1,1.262941360E-1,-4.009689331E0
1.640329860E0,1.021965027E1,1.071405262E-1,-4.043208122E0
1.642817620E0,1.023401546E1,1.071405262E-1,-4.100668907E0
1.645305381E0,1.025316906E1,1.262941360E-1,-4.129399300E0
1.647793141E0,1.025795746E1,1.262941360E-1,-4.210802078E0
1.650280902E0,1.024838066E1,1.262941360E-1,-4.301782131E0
1.652768662E0,1.021007347E1,1.454477459E-1,-4.392761707E0
1.655256422E0,1.018134308E1,1.837549806E-1,-4.483741283E0
1.657744183E0,1.015261269E1,1.981201917E-1,-4.569932461E0
1.660231943E0,1.010472870E1,2.412158251E-1,-4.593874454E0
1.662719704E0,1.007599831E1,2.651578486E-1,-4.622604847E0
1.665207464E0,1.000895977E1,2.938882709E-1,-4.636970043E0
1.667695224E0,9.908403397E0,3.226186931E-1,-4.660912037E0
1.670182985E0,9.855731010E0,3.465606868E-1,-4.684854031E0
1.672670745E0,9.793481827E0,3.609259129E-1,-4.704007626E0
1.675158506E0,9.745597839E0,3.848679364E-1,-4.747103214E0
1.677646266E0,9.697713852E0,3.944447339E-1,-4.780622005E0
1.680134027E0,9.659406662E0,3.992331326E-1,-4.818929672E0
1.682621787E0,9.611522675E0,4.135983288E-1,-4.818929672E0
1.685109547E0,9.554061890E0,4.279635549E-1,-4.818929672E0
1.687597308E0,9.482235909E0,4.471171796E-1,-4.775833607E0
1.690085068E0,9.434351921E0,4.614823759E-1,-4.761468410E0
1.692572829E0,9.391256332E0,4.806360006E-1,-4.727949619E0
1.695060589E0,9.314641953E0,4.758476019E-1,-4.675277233E0
1.697548349E0,9.261969566E0,4.997895956E-1,-4.603451252E0
1.700036110E0,9.209297180E0,5.189431906E-1,-4.526836872E0
1.702523870E0,9.151836395E0,5.380968451E-1,-4.459799290E0
1.705011631E0,9.108740807E0,5.380968451E-1,-4.387973309E0
1.707499391E0,9.084798813E0,5.237316489E-1,-4.344877720E0
1.709987152E0,9.060855865E0,5.093663931E-1,-4.296993732E0
1.712474912E0,9.036913872E0,4.950011969E-1,-4.263474464E0
1.714962672E0,9.027337074E0,4.662707746E-1,-4.234744072E0
1.717450433E0,9.036913872E0,4.471171796E-1,-4.210802078E0
1.719938193E0,9.051279068E0,3.992331326E-1,-4.186860085E0
1.722425954E0,9.051279068E0,3.705027103E-1,-4.153341293E0
1.724913714E0,9.075222015E0,3.465606868E-1,-4.086303711E0
1.727401474E0,9.103952408E0,3.274070919E-1,-4.009689331E0
1.729889235E0,9.127894402E0,3.130418658E-1,-3.928286552E0
1.732376995E0,9.147047997E0,3.178302646E-1,-3.851671934E0
1.734864756E0,9.161413193E0,3.321954906E-1,-3.803787947E0
1.737352516E0,9.199720383E0,3.226186931E-1,-3.779845953E0
1.739840277E0,9.218873978E0,3.226186931E-1,-3.741538763E0
1.742328037E0,9.214085579E0,3.369838893E-1,-3.731961966E0
1.744815797E0,9.218873978E0,3.609259129E-1,-3.727173567E0
1.747303558E0,9.238027573E0,3.657143116E-1,-3.741538763E0
1.749791318E0,9.238027573E0,3.944447339E-1,-3.770269156E0
1.752279079E0,9.242815971E0,3.944447339E-1,-3.779845953E0
1.754766839E0,9.209297180E0,4.183867574E-1,-3.813364744E0
1.757254599E0,9.199720383E0,4.566939771E-1,-3.846883535E0
1.759742360E0,9.170989990E0,4.662707746E-1,-3.889979124E0
1.762230120E0,9.151836395E0,4.758476019E-1,-3.947440147E0
1.764717881E0,9.142259598E0,5.093663931E-1,-4.028842926E0
1.767205641E0,9.123106003E0,5.333084464E-1,-4.086303711E0
1.769693402E0,9.103952408E0,5.572504401E-1,-4.134187698E0
1.772181162E0,9.065644264E0,5.811924338E-1,-4.206013680E0
1.774668922E0,9.041702271E0,5.907692909E-1,-4.296993732E0
1.777157256E0,9.022548676E0,6.003460884E-1,-4.392761707E0
1.779645224E0,9.017760277E0,6.003460884E-1,-4.440645695E0
1.782132985E0,9.027337074E0,5.859808922E-1,-4.498106480E0
1.784620745E0,9.022548676E0,5.620388389E-1,-4.512471676E0
1.787108506E0,8.989029884E0,5.333084464E-1,-4.522048473E0
1.789596266E0,8.989029884E0,4.950011969E-1,-4.512471676E0
1.792084027E0,8.993818283E0,4.662707746E-1,-4.498106480E0
1.794571787E0,8.979453087E0,4.614823759E-1,-4.440645695E0
1.797059547E0,8.984241486E0,4.279635549E-1,-4.383184910E0
1.799547256E0,9.008183479E0,4.183867574E-1,-4.320935726E0
1.802034964E0,9.008183479E0,4.040215313E-1,-4.244320869E0
1.804522672E0,9.027337074E0,3.705027103E-1,-4.158129692E0
1.807010381E0,9.056067467E0,3.513490856E-1,-4.076726913E0
1.809498089E0,9.099164009E0,3.417722881E-1,-3.961805344E0
1.811985797E0,9.137471199E0,2.938882709E-1,-3.851671934E0
1.814473506E0,9.175778389E0,2.747346461E-1,-3.751115561E0
1.816961214E0,9.218873978E0,2.699462473E-1,-3.655347347E0
1.819448922E0,9.261969566E0,2.555810213E-1,-3.540425777E0
1.821936631E0,9.305065155E0,2.555810213E-1,-3.435081005E0
1.824424339E0,9.309853554E0,2.603694201E-1,-3.353677988E0
1.826912047E0,9.319430351E0,2.651578486E-1,-3.281852007E0
1.829399756E0,9.338583946E0,2.843114436E-1,-3.233968019E0
1.831887464E0,9.333795547E0,3.034650683E-1,-3.190872431E0
1.834375172E0,9.324218750E0,3.321954906E-1,-3.176506996E0
1.836862881E0,9.333795547E0,3.944447339E-1,-3.142988205E0
1.839350589E0,9.309853554E0,4.375403523E-1,-3.109469414E0
1.841838297E0,9.309853554E0,4.854243994E-1,-3.123834610E0
1.844326006E0,9.290699959E0,5.572504401E-1,-3.162141800E0
1.846813714E0,9.266757965E0,5.955576897E-1,-3.229179621E0
1.849301422E0,9.233239174E0,6.290764809E-1,-3.315370798E0
1.851789131E0,9.209297180E0,6.578069329E-1,-3.415927172E0
1.854276839E0,9.170989990E0,6.721721292E-1,-3.530848980E0
1.856764547E0,9.190143585E0,6.961141229E-1,-3.664924145E0
1.859252256E0,9.190143585E0,6.913257241E-1,-3.813364744E0
1.861739964E0,9.199720383E0,7.056909800E-1,-3.976170540E0
1.864227672E0,9.223662376E0,7.200561762E-1,-4.119822502E0
1.866715433E0,9.261969566E0,7.104793787E-1,-4.244320869E0
1.869203193E0,9.290699959E0,6.865373254E-1,-4.359242916E0
1.871690954E0,9.333795547E0,6.865373254E-1,-4.445434093E0
1.874178714E0,9.391256332E0,6.913257241E-1,-4.569932461E0
1.876666474E0,9.410409927E0,6.913257241E-1,-4.651335239E0
1.879154235E0,9.472659111E0,6.769605279E-1,-4.699219227E0
1.881641995E0,9.520543098E0,6.673837304E-1,-4.766256809E0
1.884129756E0,9.544485092E0,6.578069329E-1,-4.794987679E0
1.886617516E0,9.621099472E0,6.482301354E-1,-4.842871666E0
1.889105277E0,9.702502251E0,6.194996834E-1,-4.871602058E0
1.891593037E0,9.726444244E0,6.003460884E-1,-4.885967255E0
1.894080797E0,9.788693428E0,5.716156363E-1,-4.885967255E0
1.896568558E0,9.827000618E0,5.620388389E-1,-4.881178856E0
1.899056318E0,9.884461403E0,5.524620414E-1,-4.866813660E0
1.901544079E0,9.946710587E0,5.572504401E-1,-4.814141273E0
1.904031839E0,9.985017776E0,5.620388389E-1,-4.790199280E0
1.906519599E0,1.003769016E1,5.716156363E-1,-4.766256809E0
1.909007360E0,1.008557510E1,5.907692909E-1,-4.723161221E0
1.911495120E0,1.012867069E1,6.003460884E-1,-4.689642429E0
1.913982881E0,1.014303589E1,6.099228859E-1,-4.656123638E0
1.916470641E0,1.019091988E1,6.386532784E-1,-4.641758442E0
1.918958402E0,1.022922707E1,6.625953317E-1,-4.636970043E0
1.921446162E0,1.024359226E1,7.009025216E-1,-4.646546841E0
1.923933922E0,1.025316906E1,7.104793787E-1,-4.632181644E0
1.926421683E0,1.029626465E1,7.344213724E-1,-4.608239651E0
1.928909443E0,1.031541824E1,7.535749674E-1,-4.622604847E0
1.931397204E0,1.035851383E1,7.823054194E-1,-4.627393246E0
1.933884964E0,1.040639782E1,7.918822169E-1,-4.651335239E0
1.936372724E0,1.045428181E1,8.158242106E-1,-4.680065632E0
1.938860485E0,1.050216579E1,8.541314602E-1,-4.704007626E0
1.941348245E0,1.053568459E1,8.876502514E-1,-4.756680012E0
1.943836006E0,1.058356857E1,9.355342984E-1,-4.785410881E0
1.946323766E0,1.063145256E1,9.546879530E-1,-4.842871666E0
1.948811527E0,1.066497135E1,9.882067442E-1,-4.885967255E0
1.951299287E0,1.071285534E1,1.031302333E0,-4.929062843E0
1.953787047E0,1.076073933E1,1.055244446E0,-4.986523628E0
1.956274808E0,1.080383492E1,1.074398041E0,-5.020042419E0
1.958762568E0,1.085650730E1,1.088763237E0,-5.077503204E0
1.961250329E0,1.093312168E1,1.122282028E0,-5.154117584E0
1.963738089E0,1.096185207E1,1.146224022E0,-5.225943565E0
1.966225849E0,1.100494766E1,1.179742932E0,-5.302558422E0
1.968713610E0,1.103367901E1,1.194108129E0,-5.407903194E0
1.971201370E0,1.108156300E1,1.218050122E0,-5.494094372E0
1.973689131E0,1.113423538E1,1.241992116E0,-5.575497150E0
1.976176891E0,1.115817738E1,1.265934110E0,-5.661688328E0
1.978664652E0,1.118211937E1,1.275510907E0,-5.743091106E0
1.981152412E0,1.119169617E1,1.294664621E0,-5.829282761E0
1.983640172E0,1.122521496E1,1.313818216E0,-5.905897141E0
1.986127933E0,1.128267574E1,1.299453020E0,-5.944204330E0
1.988615693E0,1.133534813E1,1.294664621E0,-5.972934723E0
1.991103454E0,1.136407852E1,1.285087705E0,-6.011241913E0
1.993591214E0,1.141675091E1,1.261145711E0,-6.044760704E0
1.996078974E0,1.145505810E1,1.256357312E0,-6.068702698E0
1.998566735E0,1.151730728E1,1.256357312E0,-6.083067894E0
2.001054495E0,1.156519127E1,1.251568913E0,-6.092644691E0
2.003542256E0,1.163701725E1,1.227626920E0,-6.107009888E0
2.006030016E0,1.168011284E1,1.213261724E0,-6.111798286E0
2.008517777E0,1.173278522E1,1.198896527E0,-6.135740280E0
2.011005537E0,1.179503441E1,1.165377736E0,-6.150105476E0
2.013493297E0,1.184770679E1,1.112705231E0,-6.145317078E0
2.015981058E0,1.189559078E1,1.088763237E0,-6.150105476E0
2.018468818E0,1.192910957E1,1.045667648E0,-6.140528679E0
2.020956579E0,1.198178196E1,9.977835417E-1,-6.121375084E0
2.023444339E0,1.202966690E1,9.403226972E-1,-6.097433090E0
2.025932099E0,1.206318569E1,9.163807034E-1,-6.092644691E0
2.028419860E0,1.207755089E1,8.780734539E-1,-6.083067894E0
2.030907620E0,1.209670448E1,8.254010081E-1,-6.049549103E0
2.033395381E0,1.212543488E1,7.918822169E-1,-6.025607109E0
2.035883141E0,1.214458847E1,7.392097712E-1,-6.011241913E0
2.038370902E0,1.216374207E1,7.104793787E-1,-5.968146324E0
2.040858662E0,1.217810726E1,6.673837304E-1,-5.905897141E0
2.043346422E0,1.217331886E1,6.290764809E-1,-5.853224754E0
2.045834183E0,1.217810726E1,5.955576897E-1,-5.767033577E0
2.048321943E0,1.216374207E1,5.285200477E-1,-5.699995518E0
2.050809704E0,1.214937687E1,4.806360006E-1,-5.647323132E0
2.053297464E0,1.212064648E1,4.471171796E-1,-5.599439144E0
2.055785224E0,1.208712769E1,4.183867574E-1,-5.494094372E0
2.058272985E0,1.206318569E1,3.992331326E-1,-5.412691593E0
2.060760745E0,1.203924370E1,3.992331326E-1,-5.331288815E0
2.063248506E0,1.201051235E1,3.992331326E-1,-5.230731964E0
2.065736266E0,1.198178196E1,4.040215313E-1,-5.115810394E0
2.068224027E0,1.191953278E1,3.992331326E-1,-5.039196014E0
2.070711787E0,1.188601398E1,3.752911091E-1,-4.953004837E0
2.073199547E0,1.183334160E1,3.705027103E-1,-4.890755653E0
2.075687308E0,1.177109241E1,3.513490856E-1,-4.814141273E0
2.078175068E0,1.171363163E1,3.226186931E-1,-4.756680012E0
2.080662829E0,1.165617085E1,3.082534671E-1,-4.699219227E0
2.083150589E0,1.158434486E1,3.082534671E-1,-4.680065632E0
2.085638349E0,1.150773048E1,2.938882709E-1,-4.651335239E0
2.088126110E0,1.143111610E1,2.890998423E-1,-4.641758442E0
2.090613870E0,1.136886692E1,2.747346461E-1,-4.608239651E0
2.093101631E0,1.131619453E1,2.699462473E-1,-4.565144062E0
2.095589391E0,1.124915695E1,2.412158251E-1,-4.531625271E0
2.098077152E0,1.118211937E1,2.124854028E-1,-4.507683277E0
2.100564912E0,1.114381218E1,1.789665818E-1,-4.474164486E0
2.103052672E0,1.110550499E1,1.550245583E-1,-4.407126904E0
2.105540433E0,1.107677460E1,1.406593472E-1,-4.354454517E0
2.108028193E0,1.104804420E1,1.598129570E-1,-4.311358929E0
2.110515954E0,1.102888966E1,1.693897694E-1,-4.253897667E0
2.113003714E0,1.098579407E1,1.646013707E-1,-4.210802078E0
2.115491474E0,1.097142887E1,1.454477459E-1,-4.153341293E0
2.117979235E0,1.095706367E1,1.071405262E-1,-4.095880508E0
2.120466995E0,1.098100567E1,8.798690885E-2,-4.043208122E0
2.122954756E0,1.099058247E1,4.489128292E-2,-3.971382141E0
2.125442516E0,1.100015926E1,1.795651275E-3,-3.909132719E0
2.127930277E0,1.099537086E1,-2.992752008E-3,-3.832518339E0
2.130418037E0,1.100494766E1,-7.781155407E-3,-3.751115561E0
2.132905797E0,1.101452446E1,-3.172317147E-2,-3.693654776E0
2.135393558E0,1.101931286E1,-1.735796221E-2,-3.607463360E0
2.137881318E0,1.104804420E1,-2.992752008E-3,-3.545214176E0
2.140369079E0,1.106719780E1,1.795651275E-3,-3.478176594E0
2.142856839E0,1.106240940E1,1.137245819E-2,-3.406350374E0
2.145344599E0,1.107198620E1,6.584054790E-3,-3.344101191E0
2.147832360E0,1.108635139E1,3.531447425E-2,-3.305794001E0
2.150320120E0,1.109592819E1,3.531447425E-2,-3.238756418E0
2.152807881E0,1.109113979E1,4.010287672E-2,-3.190872431E0
2.155295641E0,1.110550499E1,7.362170517E-2,-3.157353401E0
2.157783402E0,1.111508179E1,8.319851011E-2,-3.133411407E0
2.160271162E0,1.111987019E1,6.404489279E-2,-3.114257812E0
2.162758922E0,1.113423538E1,6.883329898E-2,-3.104681015E0
2.165246683E0,1.114860058E1,5.446808785E-2,-3.080739021E0
2.167734443E0,1.113902378E1,6.883329898E-2,-3.052008629E0
2.170222204E0,1.113423538E1,9.756372124E-2,-3.013701439E0
2.172709964E0,1.109592819E1,1.406593472E-1,-2.961029053E0
2.175197724E0,1.107677460E1,1.693897694E-1,-2.903568029E0
2.177685485E0,1.108635139E1,2.124854028E-1,-2.831742048E0
2.180173245E0,1.109113979E1,2.603694201E-1,-2.783858061E0
2.182661006E0,1.109592819E1,2.795230448E-1,-2.721608877E0
2.185148766E0,1.110071659E1,3.178302646E-1,-2.668936253E0
2.187636527E0,1.110071659E1,3.417722881E-1,-2.635417461E0
2.190124287E0,1.109592819E1,3.944447339E-1,-2.611475468E0
2.192612047E0,1.109592819E1,4.375403523E-1,-2.606687069E0
2.195099808E0,1.109113979E1,4.758476019E-1,-2.592321873E0
2.197587568E0,1.108156300E1,5.189431906E-1,-2.568379879E0
2.200075329E0,1.111987019E1,5.859808922E-1,-2.568379879E0
2.202563089E0,1.113902378E1,6.386532784E-1,-2.568379879E0
2.205050849E0,1.117733097E1,6.913257241E-1,-2.597110271E0
2.207538610E0,1.121563816E1,7.009025216E-1,-2.678513050E0
2.210026370E0,1.125394535E1,7.200561762E-1,-2.788646460E0
2.212514131E0,1.126831055E1,7.296329737E-1,-2.917933226E0
2.215001891E0,1.130661774E1,7.296329737E-1,-3.085527420E0
2.217489652E0,1.132098293E1,7.392097712E-1,-3.229179621E0
2.219977412E0,1.133534813E1,7.631517649E-1,-3.377619982E0
2.222465172E0,1.134013653E1,7.823054194E-1,-3.526060581E0
2.224952933E0,1.133534813E1,8.445546627E-1,-3.650558949E0
2.227440693E0,1.132098293E1,9.068039060E-1,-3.794211149E0
2.229928454E0,1.131140614E1,9.690531492E-1,-3.918709517E0
2.232416214E0,1.129225254E1,1.007360339E0,-4.076726913E0
2.234903974E0,1.127788734E1,1.045667648E0,-4.234744072E0
2.237391735E0,1.125394535E1,1.060032845E0,-4.407126904E0
2.239879495E0,1.122521496E1,1.079186440E0,-4.598662853E0
2.242367256E0,1.118211937E1,1.098340034E0,-4.747103214E0
2.244855016E0,1.112944698E1,1.141435623E0,-4.900332451E0
2.247342777E0,1.106719780E1,1.165377736E0,-5.039196014E0
2.249830537E0,1.098100567E1,1.213261724E0,-5.178059578E0
2.252318297E0,1.094269848E1,1.251568913E0,-5.288193226E0
2.254806058E0,1.088044930E1,1.270722508E0,-5.374384403E0
2.257293818E0,1.082298851E1,1.304241419E0,-5.427056789E0
2.259781579E0,1.075595093E1,1.328183413E0,-5.494094372E0
2.262269339E0,1.071764374E1,1.337760210E0,-5.522824764E0
2.264757099E0,1.066497135E1,1.356913805E0,-5.546766758E0
2.267244860E0,1.060751057E1,1.371279001E0,-5.551555157E0
2.269732620E0,1.054047298E1,1.366490602E0,-5.532401562E0
2.272220381E0,1.047822380E1,1.380855799E0,-5.508459568E0
2.274708141E0,1.040639782E1,1.385644197E0,-5.441421986E0
2.277195902E0,1.035851383E1,1.409586191E0,-5.383961201E0
2.279683662E0,1.031062984E1,1.433528304E0,-5.326500416E0
2.282171422E0,1.025316906E1,1.457470298E0,-5.245097160E0
2.284659183E0,1.020528507E1,1.462258697E0,-5.163694382E0
2.287146943E0,1.014782429E1,1.481412292E0,-5.077503204E0
2.289634704E0,1.009036350E1,1.471835494E0,-4.991312027E0
2.292122464E0,1.002811337E1,1.462258697E0,-4.905120850E0
2.294610224E0,9.980229378E0,1.452681899E0,-4.814141273E0
2.297097985E0,9.965864182E0,1.447893500E0,-4.747103214E0
2.299585745E0,9.941922188E0,1.419163108E0,-4.670488834E0
2.302073506E0,9.903614998E0,1.419163108E0,-4.617816448E0
2.304561266E0,9.860519409E0,1.385644197E0,-4.598662853E0
2.307049027E0,9.822212219E0,1.361702204E0,-4.555567265E0
2.309536787E0,9.783905029E0,1.347337008E0,-4.541202068E0
2.312024547E0,9.750386238E0,1.332971811E0,-4.555567265E0
2.314512308E0,9.721655846E0,1.299453020E0,-4.574720860E0
2.317000068E0,9.683348656E0,1.265934110E0,-4.598662853E0
2.319487829E0,9.635464668E0,1.237203717E0,-4.613028049E0
2.321975589E0,9.592369080E0,1.189319730E0,-4.603451252E0
2.324463349E0,9.573215485E0,1.174954534E0,-4.603451252E0
2.326951110E0,9.515754700E0,1.146224022E0,-4.622604847E0
2.329438870E0,9.487024307E0,1.117493629E0,-4.641758442E0
2.331926631E0,9.467870712E0,1.117493629E0,-4.641758442E0
2.334414391E0,9.439140320E0,1.107916832E0,-4.646546841E0
2.336902152E0,9.424775124E0,1.103128433E0,-4.665700436E0
2.339389912E0,9.400833130E0,1.136647224E0,-4.689642429E0
2.341877672E0,9.391256332E0,1.136647224E0,-4.704007626E0
2.344365433E0,9.376891136E0,1.122282028E0,-4.742314816E0
2.346853193E0,9.329007149E0,1.117493629E0,-4.771045208E0
2.349340954E0,9.300276756E0,1.122282028E0,-4.771045208E0
2.351828714E0,9.266757965E0,1.093551636E0,-4.756680012E0
2.354316474E0,9.238027573E0,1.098340034E0,-4.737526417E0
2.356804235E0,9.214085579E0,1.136647224E0,-4.684854031E0
2.359291995E0,9.242815971E0,1.131858826E0,-4.641758442E0
2.361779756E0,9.218873978E0,1.103128433E0,-4.636970043E0
2.364267516E0,9.132682800E0,1.074398041E0,-4.632181644E0
2.366755277E0,9.080010414E0,1.060032845E0,-4.636970043E0
2.369243037E0,9.060855865E0,1.069609642E0,-4.584297657E0
2.371730797E0,9.065644264E0,1.083974838E0,-4.517260075E0
2.374218558E0,9.051279068E0,1.098340034E0,-4.435857296E0
2.376706318E0,9.027337074E0,1.122282028E0,-4.301782131E0
2.379194079E0,9.003395081E0,1.131858826E0,-4.177283287E0
2.381681839E0,8.984241486E0,1.127070427E0,-4.009689331E0
2.384169599E0,8.955511093E0,1.122282028E0,-3.856460333E0
2.386657360E0,8.931569099E0,1.117493629E0,-3.722385168E0
2.389145120E0,8.902838707E0,1.117493629E0,-3.588309765E0
2.391632881E0,8.907627106E0,1.112705231E0,-3.468599796E0
2.394120641E0,8.898050308E0,1.093551636E0,-3.363254786E0
2.396608402E0,8.902838707E0,1.107916832E0,-3.224391222E0
2.399096162E0,8.893261909E0,1.117493629E0,-3.133411407E0
2.401583922E0,8.883685112E0,1.107916832E0,-3.028066635E0
2.404071683E0,8.883685112E0,1.122282028E0,-2.970605850E0
2.406559443E0,8.878896713E0,1.112705231E0,-2.951452255E0
2.409047204E0,8.859743118E0,1.093551636E0,-2.932298422E0
2.411534964E0,8.826224327E0,1.060032845E0,-2.913144827E0
2.414022724E0,8.807070732E0,1.021725535E0,-2.908356428E0
2.416510485E0,8.787917137E0,9.690531492E-1,-2.913144827E0
2.418998245E0,8.759186745E0,9.403226972E-1,-2.937086821E0
2.421486006E0,8.740033150E0,9.451110959E-1,-2.932298422E0
2.423973766E0,8.716091156E0,9.259575009E-1,-2.965817451E0
2.426461527E0,8.692149162E0,9.211691022E-1,-3.032855034E0
2.428949287E0,8.668207169E0,8.972271085E-1,-3.123834610E0
2.431437047E0,8.658630371E0,8.732850552E-1,-3.205237627E0
2.433924808E0,8.620323181E0,8.301894665E-1,-3.310582399E0
2.436412568E0,8.586804390E0,7.870938182E-1,-3.415927172E0
2.438900329E0,8.553285599E0,7.344213724E-1,-3.530848980E0
2.441388089E0,8.548497200E0,6.673837304E-1,-3.631405354E0
2.443875849E0,8.548497200E0,6.242880821E-1,-3.727173567E0
2.446363610E0,8.495824814E0,5.764040351E-1,-3.803787947E0
2.448851370E0,8.447940826E0,5.476736426E-1,-3.909132719E0
2.451339131E0,8.390480042E0,5.093663931E-1,-3.995324135E0
2.453826891E0,8.323442459E0,5.189431906E-1,-4.071938515E0
2.456314652E0,8.246828079E0,5.141547918E-1,-4.134187698E0
2.458802412E0,8.165425301E0,5.189431906E-1,-4.225167274E0
2.461290172E0,8.088809967E0,5.045779943E-1,-4.316147327E0
2.463777881E0,7.993042469E0,4.854243994E-1,-4.383184910E0
2.466265589E0,7.897274494E0,4.566939771E-1,-4.450222492E0
2.468753297E0,7.854178905E0,4.423287511E-1,-4.512471676E0
2.471241110E0,7.825448036E0,4.327519536E-1,-4.565144062E0
2.473728922E0,7.791929245E0,3.992331326E-1,-4.589086056E0
2.476216683E0,7.763198853E0,3.752911091E-1,-4.627393246E0
2.478704443E0,7.767987251E0,3.465606868E-1,-4.641758442E0
2.481192204E0,7.777564049E0,3.130418658E-1,-4.651335239E0
2.483679912E0,7.801506042E0,2.890998423E-1,-4.646546841E0
2.486167620E0,7.825448036E0,2.603694201E-1,-4.665700436E0
2.488655329E0,7.863755703E0,2.076970041E-1,-4.636970043E0
2.491143037E0,7.916428089E0,1.789665818E-1,-4.617816448E0
2.493630745E0,7.983465672E0,1.454477459E-1,-4.608239651E0
2.496118454E0,8.036137581E0,1.167173311E-1,-4.574720860E0
2.498606162E0,8.107964516E0,8.798690885E-2,-4.536413670E0
2.501093870E0,8.155848503E0,4.967968538E-2,-4.522048473E0
2.503581579E0,8.194155693E0,6.584054790E-3,-4.488529682E0
2.506069287E0,8.237251282E0,-3.172317147E-2,-4.469376087E0
2.508556995E0,8.299500465E0,-7.003039867E-2,-4.474164486E0
2.511044704E0,8.337807655E0,-8.918401599E-2,-4.469376087E0
2.513532412E0,8.361749649E0,-1.083376259E-1,-4.455010891E0
2.516020120E0,8.371326447E0,-1.227028370E-1,-4.426280499E0
2.518507829E0,8.385691643E0,-1.322796494E-1,-4.407126904E0
2.520995537E0,8.371326447E0,-1.466448605E-1,-4.383184910E0
2.523483245E0,8.356961250E0,-1.322796494E-1,-4.344877720E0
2.525970954E0,8.342596054E0,-1.274912357E-1,-4.306570530E0
2.528458662E0,8.333019257E0,-1.179144308E-1,-4.282628059E0
2.530946370E0,8.309077263E0,-1.131260321E-1,-4.225167274E0
2.533434079E0,8.285135269E0,-1.274912357E-1,-4.177283287E0
2.535921787E0,8.227674484E0,-1.418564469E-1,-4.124610901E0
2.538409495E0,8.194155693E0,-1.514332592E-1,-4.076726913E0
2.540897204E0,8.146271706E0,-1.466448605E-1,-4.004900932E0
2.543384912E0,8.098387718E0,-1.753752679E-1,-3.933074951E0
2.545872620E0,8.064867973E0,-1.705868691E-1,-3.866037130E0
2.548360329E0,8.012195587E0,-1.801636815E-1,-3.794211149E0
2.550848037E0,7.978677273E0,-1.801636815E-1,-3.708019972E0
2.553335797E0,7.911639690E0,-1.562216580E-1,-3.617040157E0
2.555823558E0,7.878120899E0,-1.274912357E-1,-3.550002575E0
2.558311318E0,7.811082840E0,-8.918401599E-2,-3.459022999E0
2.560799079E0,7.782352448E0,-3.172317147E-2,-3.363254786E0
2.563286839E0,7.724891663E0,1.616086066E-2,-3.305794001E0
2.565774599E0,7.667430878E0,5.446808785E-2,-3.233968019E0
2.568262360E0,7.609970093E0,1.071405262E-1,-3.147776604E0
2.570750120E0,7.576451302E0,1.454477459E-1,-3.095104218E0
2.573237881E0,7.509413719E0,1.598129570E-1,-3.056797028E0
2.575725641E0,7.442376137E0,1.885433793E-1,-3.008913040E0
2.578213402E0,7.389703751E0,2.172738016E-1,-2.994547844E0
2.580701162E0,7.303512096E0,2.460042238E-1,-2.970605850E0
2.583188922E0,7.226897717E0,2.603694201E-1,-2.956240654E0
2.585676683E0,7.174225330E0,2.938882709E-1,-2.937086821E0
2.588164443E0,7.121552944E0,3.178302646E-1,-2.937086821E0
2.590652204E0,7.073668957E0,3.513490856E-1,-2.917933226E0
2.593139964E0,7.049726963E0,3.752911091E-1,-2.927510023E0
2.595627724E0,6.992266178E0,4.040215313E-1,-2.917933226E0
2.598115485E0,6.944382191E0,4.183867574E-1,-2.903568029E0
2.600603245E0,6.915651798E0,4.375403523E-1,-2.879626036E0
2.603091006E0,6.877344608E0,4.614823759E-1,-2.884414434E0
2.605578766E0,6.834248543E0,4.662707746E-1,-2.841318846E0
2.608066527E0,6.786364555E0,4.566939771E-1,-2.817376852E0
2.610554287E0,6.738480568E0,4.710591733E-1,-2.807800055E0
2.613042047E0,6.719326973E0,4.710591733E-1,-2.817376852E0
2.615529808E0,6.681019783E0,4.902127981E-1,-2.812588453E0
2.618017568E0,6.642712593E0,5.141547918E-1,-2.755127668E0
2.620505329E0,6.604405403E0,5.333084464E-1,-2.731185675E0
2.622993089E0,6.570886612E0,5.524620414E-1,-2.702455282E0
2.625480849E0,6.566098213E0,5.764040351E-1,-2.688089848E0
2.627968610E0,6.566098213E0,5.907692909E-1,-2.649782658E0
2.630456370E0,6.537367821E0,5.955576897E-1,-2.630629063E0
2.632944131E0,6.542156219E0,6.051344872E-1,-2.592321873E0
2.635431891E0,6.537367821E0,6.051344872E-1,-2.549226284E0
2.637919652E0,6.537367821E0,6.386532784E-1,-2.510919094E0
2.640407412E0,6.556521416E0,6.338648796E-1,-2.482188702E0
2.642895172E0,6.537367821E0,6.386532784E-1,-2.463035107E0
2.645382933E0,6.527791023E0,6.386532784E-1,-2.448669672E0
2.647870693E0,6.508637428E0,6.290764809E-1,-2.434304476E0
2.650358454E0,6.494272232E0,6.338648796E-1,-2.381632090E0
2.652846214E0,6.484695435E0,6.434416771E-1,-2.352901697E0
2.655333974E0,6.470330238E0,6.721721292E-1,-2.305017710E0
2.657821735E0,6.422446251E0,6.769605279E-1,-2.271498919E0
2.660309495E0,6.393715858E0,6.961141229E-1,-2.252345324E0
2.662797256E0,6.355408192E0,7.104793787E-1,-2.242768526E0
2.665285016E0,6.336254597E0,6.913257241E-1,-2.247556925E0
2.667772777E0,6.317101002E0,6.913257241E-1,-2.276287317E0
2.670260537E0,6.293159008E0,7.056909800E-1,-2.295440912E0
2.672748297E0,6.250063419E0,6.913257241E-1,-2.319382906E0
2.675236058E0,6.221333027E0,6.865373254E-1,-2.357690096E0
2.677723818E0,6.178237438E0,6.865373254E-1,-2.381632090E0
2.680211579E0,6.139930248E0,6.817489266E-1,-2.381632090E0
2.682699339E0,6.092046261E0,6.721721292E-1,-2.381632090E0
2.685187099E0,6.053739071E0,6.769605279E-1,-2.391208887E0
2.687674860E0,6.010643482E0,6.817489266E-1,-2.391208887E0
2.690162620E0,5.957971096E0,6.913257241E-1,-2.391208887E0
2.692650381E0,5.919663906E0,6.961141229E-1,-2.400785685E0
2.695138141E0,5.876567841E0,6.961141229E-1,-2.424727678E0
2.697625902E0,5.847837448E0,6.865373254E-1,-2.424727678E0
2.700113662E0,5.819107056E0,7.009025216E-1,-2.448669672E0
2.702601422E0,5.795165062E0,6.817489266E-1,-2.482188702E0
2.705089183E0,5.780799866E0,6.625953317E-1,-2.472611904E0
2.707576943E0,5.780799866E0,6.482301354E-1,-2.486977100E0
2.710064704E0,5.761646271E0,6.482301354E-1,-2.496553898E0
2.712552464E0,5.732915878E0,6.673837304E-1,-2.477400303E0
2.715040224E0,5.723339081E0,6.578069329E-1,-2.463035107E0
2.717527985E0,5.704185486E0,6.434416771E-1,-2.458246708E0
2.720015745E0,5.713762283E0,6.386532784E-1,-2.439092875E0
2.722503506E0,5.685031891E0,6.338648796E-1,-2.400785685E0
2.724991266E0,5.661089897E0,6.242880821E-1,-2.386420488E0
2.727479027E0,5.661089897E0,6.147112846E-1,-2.376843691E0
2.729966787E0,5.632359505E0,5.907692909E-1,-2.357690096E0
2.732454547E0,5.632359505E0,5.811924338E-1,-2.343324900E0
2.734942308E0,5.641936302E0,5.620388389E-1,-2.314594507E0
2.737430068E0,5.646724701E0,5.476736426E-1,-2.309806108E0
2.739917829E0,5.661089897E0,5.285200477E-1,-2.309806108E0
2.742405589E0,5.675455093E0,4.997895956E-1,-2.314594507E0
2.744893349E0,5.665878296E0,4.662707746E-1,-2.295440912E0
2.747381110E0,5.675455093E0,4.279635549E-1,-2.300229311E0
2.749868870E0,5.689820290E0,4.040215313E-1,-2.281075716E0
2.752356631E0,5.708973885E0,3.752911091E-1,-2.261922121E0
2.754844391E0,5.704185486E0,3.369838893E-1,-2.237980127E0
2.757332152E0,5.723339081E0,3.034650683E-1,-2.214038134E0
2.759819912E0,5.752069473E0,2.699462473E-1,-2.185307503E0
2.762307672E0,5.771223068E0,2.268506140E-1,-2.190095901E0
2.764795433E0,5.795165062E0,1.837549806E-1,-2.194884300E0
2.767283193E0,5.823895454E0,1.406593472E-1,-2.204461098E0
2.769770954E0,5.838260651E0,1.071405262E-1,-2.214038134E0
2.772258714E0,5.886145115E0,6.404489279E-2,-2.242768526E0
2.774746474E0,5.924452305E0,6.404489279E-2,-2.281075716E0
2.777234235E0,5.977124691E0,4.967968538E-2,-2.300229311E0
2.779721995E0,6.010643482E0,3.531447425E-2,-2.328959703E0
2.782209756E0,6.058527470E0,2.094926499E-2,-2.352901697E0
2.784697516E0,6.077681065E0,2.573766746E-2,-2.386420488E0
2.787185277E0,6.101623058E0,1.137245819E-2,-2.400785685E0
2.789673037E0,6.130353451E0,1.616086066E-2,-2.434304476E0
2.792160797E0,6.154295444E0,-1.735796221E-2,-2.472611904E0
2.794648558E0,6.183025837E0,-2.214636654E-2,-2.510919094E0
2.797136318E0,6.183025837E0,-1.735796221E-2,-2.558803082E0
2.799624079E0,6.183025837E0,-3.172317147E-2,-2.611475468E0
2.802111839E0,6.197391033E0,-1.256955881E-2,-2.625840664E0
2.804599599E0,6.202179432E0,-2.992752008E-3,-2.664147854E0
2.807087360E0,6.216544628E0,6.584054790E-3,-2.702455282E0
2.809575120E0,6.240486622E0,3.531447425E-2,-2.750339270E0
2.812062881E0,6.250063419E0,4.489128292E-2,-2.807800055E0
2.814550641E0,6.288370609E0,4.967968538E-2,-2.850895643E0
2.817038402E0,6.326677799E0,5.925649032E-2,-2.889202833E0
2.819526162E0,6.360196590E0,4.967968538E-2,-2.932298422E0
2.822013922E0,6.408081055E0,2.573766746E-2,-2.984971046E0
2.824501683E0,6.460753441E0,-1.256955881E-2,-3.037643433E0
2.826989443E0,6.518214226E0,-3.172317147E-2,-3.061585426E0
2.829477204E0,6.566098213E0,-6.045359373E-2,-3.085527420E0
2.831964964E0,6.609193802E0,-8.439560980E-2,-3.109469414E0
2.834452724E0,6.666654587E0,-9.397241473E-2,-3.095104218E0
2.836940485E0,6.728903770E0,-8.918401599E-2,-3.066373825E0
2.839428245E0,6.805518150E0,-8.439560980E-2,-3.023278236E0
2.841916006E0,6.882133007E0,-8.918401599E-2,-2.984971046E0
2.844403766E0,6.963535786E0,-8.439560980E-2,-2.946663857E0
2.846891527E0,7.044938564E0,-9.397241473E-2,-2.884414434E0
2.849379287E0,7.135918140E0,-1.035492271E-1,-2.874837637E0
2.851867047E0,7.202955723E0,-9.876082093E-2,-2.841318846E0
2.854354808E0,7.284358501E0,-1.227028370E-1,-2.803011656E0
2.856842568E0,7.370550156E0,-1.466448605E-1,-2.750339270E0
2.859330329E0,7.475894928E0,-1.418564469E-1,-2.702455282E0
2.861818089E0,7.542932510E0,-1.274912357E-1,-2.659359455E0
2.864305849E0,7.648277283E0,-1.514332592E-1,-2.611475468E0
2.866793610E0,7.724891663E0,-1.418564469E-1,-2.539649487E0
2.869281370E0,7.815871239E0,-9.397241473E-2,-2.486977100E0
2.871769131E0,7.897274494E0,-5.566519126E-2,-2.410362482E0
2.874256891E0,7.959523678E0,-7.781155407E-3,-2.343324900E0
2.876744652E0,8.036137581E0,4.010287672E-2,-2.285864115E0
2.879232412E0,8.112752914E0,1.071405262E-1,-2.252345324E0
2.881720172E0,8.194155693E0,1.550245583E-1,-2.266710520E0
2.884207933E0,8.289923668E0,2.316390127E-1,-2.266710520E0
2.886695693E0,8.376114845E0,2.843114436E-1,-2.300229311E0
2.889183454E0,8.443152428E0,3.226186931E-1,-2.357690096E0
2.891671214E0,8.524555206E0,3.705027103E-1,-2.434304476E0
2.894158974E0,8.586804390E0,4.327519536E-1,-2.491765499E0
2.896646735E0,8.629899979E0,4.806360006E-1,-2.544437885E0
2.899134495E0,8.682572365E0,5.333084464E-1,-2.649782658E0
2.901622256E0,8.735244751E0,6.099228859E-1,-2.750339270E0
2.904110016E0,8.778340340E0,6.865373254E-1,-2.836530447E0
2.906597777E0,8.821435928E0,7.631517649E-1,-2.922721624E0
2.909085537E0,8.840589523E0,8.349778652E-1,-3.032855034E0
2.911573297E0,8.883685112E0,9.211691022E-1,-3.133411407E0
2.914061058E0,8.907627106E0,9.834183455E-1,-3.238756418E0
2.916548818E0,8.902838707E0,1.026513934E0,-3.363254786E0
2.919036579E0,8.931569099E0,1.098340034E0,-3.492541790E0
2.921524339E0,8.965087891E0,1.155800819E0,-3.645770550E0
2.924012099E0,8.993818283E0,1.203684926E0,-3.775057554E0
2.926499860E0,9.051279068E0,1.246780515E0,-3.933074951E0
2.928987620E0,9.123106003E0,1.289876223E0,-4.095880508E0
2.931475381E0,9.166201591E0,1.352125406E0,-4.244320869E0
2.933963141E0,9.214085579E0,1.385644197E0,-4.411915302E0
2.936450902E0,9.281123161E0,1.414374709E0,-4.574720860E0
2.938938662E0,9.348160744E0,1.462258697E0,-4.708796024E0
2.941426422E0,9.410409927E0,1.495777488E0,-4.866813660E0
2.943914183E0,9.472659111E0,1.500565886E0,-5.015254021E0
2.946401943E0,9.520543098E0,1.519719481E0,-5.158905983E0
2.948889704E0,9.573215485E0,1.514931083E0,-5.297770023E0
2.951377464E0,9.611522675E0,1.524507880E0,-5.431845188E0
2.953865224E0,9.630676270E0,1.510142684E0,-5.541978359E0
2.956352985E0,9.645041466E0,1.495777488E0,-5.632957935E0
2.958840745E0,9.678560257E0,1.481412292E0,-5.714360714E0
2.961328506E0,9.702502251E0,1.457470298E0,-5.771821976E0
2.963816266E0,9.707290649E0,1.447893500E0,-5.800552368E0
2.966304027E0,9.707290649E0,1.395220995E0,-5.800552368E0
2.968791787E0,9.678560257E0,1.371279001E0,-5.810129166E0
2.971279547E0,9.683348656E0,1.342548609E0,-5.771821976E0
2.973767308E0,9.673771858E0,1.323395014E0,-5.714360714E0
2.976255068E0,9.702502251E0,1.304241419E0,-5.647323132E0
2.978742829E0,9.688137054E0,1.289876223E0,-5.580285549E0
2.981230589E0,9.702502251E0,1.265934110E0,-5.503671169E0
2.983718349E0,9.707290649E0,1.237203717E0,-5.446210384E0
2.986206110E0,9.736021042E0,1.227626920E0,-5.383961201E0
2.988693870E0,9.759963036E0,1.194108129E0,-5.297770023E0
2.991181839E0,9.769539833E0,1.189319730E0,-5.221155167E0
2.993669443E0,9.807847023E0,1.155800819E0,-5.134963989E0
2.996157047E0,9.846154213E0,1.117493629E0,-5.043984413E0
2.998644652E0,9.846154213E0,1.103128433E0,-4.943428040E0
3.001132256E0,9.855731010E0,1.074398041E0,-4.866813660E0
3.003619860E0,9.874884605E0,1.050456047E0,-4.771045208E0
3.006107464E0,9.903614998E0,1.012148738E0,-4.660912037E0
3.008595068E0,9.913191795E0,9.977835417E-1,-4.541202068E0
3.011082672E0,9.927556992E0,9.546879530E-1,-4.445434093E0
3.013570277E0,9.927556992E0,9.068039060E-1,-4.330512524E0
3.016057933E0,9.941922188E0,8.684966564E-1,-4.220378876E0
3.018545641E0,9.941922188E0,8.397662640E-1,-4.095880508E0
3.021033402E0,9.927556992E0,8.014590144E-1,-3.966593742E0
3.023521214E0,9.951498985E0,7.679402232E-1,-3.837306738E0
3.026009027E0,9.965864182E0,7.439981699E-1,-3.708019972E0
3.028496839E0,9.961075783E0,7.152677774E-1,-3.573944569E0
3.030984652E0,9.980229378E0,6.817489266E-1,-3.435081005E0
3.033472464E0,9.989806175E0,6.578069329E-1,-3.305794001E0
3.035960277E0,9.989806175E0,6.290764809E-1,-3.166930199E0
3.038448089E0,9.999382973E0,5.859808922E-1,-3.018489838E0
3.040935902E0,1.000895977E1,5.668272376E-1,-2.879626036E0
3.043423714E0,9.985017776E0,5.285200477E-1,-2.740762472E0
3.045911527E0,1.001853657E1,4.950011969E-1,-2.577956676E0
3.048399339E0,1.004247856E1,4.614823759E-1,-2.448669672E0
3.050887152E0,1.006163311E1,4.423287511E-1,-2.328959703E0
3.053374964E0,1.008557510E1,4.375403523E-1,-2.214038134E0
3.055862777E0,1.010472870E1,4.471171796E-1,-2.108693123E0
3.058350589E0,1.010951710E1,4.566939771E-1,-2.003348351E0
3.060838402E0,1.011909389E1,4.710591733E-1,-1.898003340E0
3.063326214E0,1.012388229E1,4.806360006E-1,-1.811812162E0
3.065814027E0,1.012388229E1,5.045779943E-1,-1.725620866E0
3.068301839E0,1.011430550E1,5.093663931E-1,-1.663371682E0
3.070789652E0,1.009994030E1,5.141547918E-1,-1.601122379E0
3.073277464E0,1.007599831E1,5.285200477E-1,-1.543661594E0
3.075765277E0,1.003769016E1,5.285200477E-1,-1.490989089E0
3.078253037E0,1.001374817E1,5.524620414E-1,-1.467047095E0
3.080740797E0,9.994594574E0,5.572504401E-1,-1.452681899E0
3.083228558E0,9.975440979E0,5.668272376E-1,-1.467047095E0
3.085716318E0,9.932345390E0,5.716156363E-1,-1.486200690E0
3.088204079E0,9.884461403E0,5.764040351E-1,-1.510142684E0
3.090691787E0,9.793481827E0,5.764040351E-1,-1.548449993E0
3.093179495E0,9.716867447E0,6.003460884E-1,-1.577180386E0
3.095667204E0,9.616311073E0,6.242880821E-1,-1.625064373E0
3.098154912E0,9.544485092E0,6.242880821E-1,-1.668160081E0
3.100642620E0,9.491812706E0,6.290764809E-1,-1.716044068E0
3.103130329E0,9.405621529E0,6.386532784E-1,-1.759139657E0
3.105618037E0,9.324218750E0,6.578069329E-1,-1.850119352E0
3.108105745E0,9.223662376E0,6.482301354E-1,-1.955464244E0
3.110593454E0,9.161413193E0,6.530185342E-1,-2.032078743E0
3.113081162E0,9.089587212E0,6.578069329E-1,-2.099116325E0
3.115568870E0,9.012971878E0,6.721721292E-1,-2.190095901E0
3.118056579E0,8.912415504E0,6.673837304E-1,-2.266710520E0
3.120544287E0,8.821435928E0,6.817489266E-1,-2.319382906E0
3.123031995E0,8.716091156E0,7.056909800E-1,-2.367266893E0
3.125519704E0,8.653841972E0,7.392097712E-1,-2.400785685E0
3.128007412E0,8.586804390E0,7.487865686E-1,-2.448669672E0
3.130495120E0,8.510190010E0,7.823054194E-1,-2.506130695E0
3.132982829E0,8.438364029E0,8.110358119E-1,-2.549226284E0
3.135470537E0,8.376114845E0,8.254010081E-1,-2.611475468E0
3.137958245E0,8.309077263E0,8.493430614E-1,-2.702455282E0
3.140445954E0,8.261193275E0,8.637082577E-1,-2.798223257E0
3.142933662E0,8.198944092E0,8.780734539E-1,-2.860472441E0
3.145421370E0,8.160636902E0,8.780734539E-1,-2.922721624E0
3.147909079E0,8.131906509E0,8.876502514E-1,-3.023278236E0
3.150396787E0,8.112752914E0,8.876502514E-1,-3.095104218E0
3.152884495E0,8.098387718E0,8.972271085E-1,-3.176506996E0
3.155372204E0,8.084021568E0,9.068039060E-1,-3.253121614E0
3.157859912E0,8.088809967E0,9.020155072E-1,-3.329735994E0
3.160347620E0,8.069656372E0,9.115923047E-1,-3.363254786E0
3.162835381E0,8.069656372E0,9.115923047E-1,-3.411138773E0
3.165323141E0,8.084021568E0,8.828618526E-1,-3.454234600E0
3.167810902E0,8.098387718E0,8.732850552E-1,-3.516483784E0
3.170298662E0,8.131906509E0,8.589198589E-1,-3.578732967E0
3.172786422E0,8.179790497E0,8.349778652E-1,-3.660135746E0
3.175274183E0,8.218097687E0,8.254010081E-1,-3.727173567E0
3.177761943E0,8.246828079E0,7.966706157E-1,-3.784634352E0
3.180249704E0,8.299500465E0,7.679402232E-1,-3.827729940E0
3.182737464E0,8.333019257E0,7.439981699E-1,-3.880402327E0
3.185225224E0,8.385691643E0,7.487865686E-1,-3.966593742E0
3.187712985E0,8.467094421E0,7.487865686E-1,-3.980958939E0
3.190200745E0,8.524555206E0,7.439981699E-1,-4.047996521E0
3.192688506E0,8.596381187E0,7.439981699E-1,-4.100668907E0
3.195176266E0,8.668207169E0,7.344213724E-1,-4.124610901E0
3.197664027E0,8.725667953E0,7.056909800E-1,-4.177283287E0
3.200151787E0,8.797493935E0,6.769605279E-1,-4.249109268E0
3.202639547E0,8.874108315E0,6.625953317E-1,-4.311358929E0
3.205127308E0,8.945934296E0,6.625953317E-1,-4.344877720E0
3.207615068E0,9.008183479E0,6.673837304E-1,-4.383184910E0
3.210102829E0,9.075222015E0,6.673837304E-1,-4.407126904E0
3.212590589E0,9.094375610E0,6.865373254E-1,-4.402338505E0
3.215078349E0,9.137471199E0,6.961141229E-1,-4.402338505E0
3.217566110E0,9.180566788E0,7.248445749E-1,-4.364031315E0
3.220053870E0,9.218873978E0,7.487865686E-1,-4.311358929E0
3.222541631E0,9.252392769E0,7.727286220E-1,-4.273051262E0
3.225029391E0,9.285911560E0,7.966706157E-1,-4.229955673E0
3.227517152E0,9.314641953E0,8.397662640E-1,-4.182071686E0
3.230004912E0,9.333795547E0,8.541314602E-1,-4.129399300E0
3.232492672E0,9.348160744E0,8.637082577E-1,-4.057573318E0
3.234980433E0,9.338583946E0,9.115923047E-1,-3.980958939E0
3.237468193E0,9.343372345E0,9.786299467E-1,-3.909132719E0
3.239955954E0,9.352949142E0,1.031302333E0,-3.822941542E0
3.242443714E0,9.376891136E0,1.083974838E0,-3.760692358E0
3.244931474E0,9.372102737E0,1.122282028E0,-3.655347347E0
3.247419235E0,9.381679535E0,1.179742932E0,-3.569156170E0
3.249906995E0,9.376891136E0,1.218050122E0,-3.468599796E0
3.252394756E0,9.372102737E0,1.275510907E0,-3.391985178E0
3.254882516E0,9.372102737E0,1.318606615E0,-3.315370798E0
3.257370277E0,9.376891136E0,1.352125406E0,-3.257910013E0
3.259858037E0,9.333795547E0,1.390432596E0,-3.186083794E0
3.262345797E0,9.333795547E0,1.419163108E0,-3.099892616E0
3.264833558E0,9.309853554E0,1.462258697E0,-3.037643433E0
3.267321318E0,9.305065155E0,1.505354285E0,-2.980182648E0
3.269809079E0,9.295488358E0,1.538873196E0,-2.941875219E0
3.272296839E0,9.295488358E0,1.572391987E0,-2.884414434E0
3.274784599E0,9.290699959E0,1.610699177E0,-2.841318846E0
3.277272360E0,9.271546364E0,1.644217968E0,-2.817376852E0
3.279760120E0,9.257181168E0,1.682525277E0,-2.822165251E0
3.282247881E0,9.238027573E0,1.716044068E0,-2.831742048E0
3.284735641E0,9.228450775E0,1.725620866E0,-2.846107244E0
3.287223402E0,9.218873978E0,1.720832467E0,-2.846107244E0
3.289711162E0,9.228450775E0,1.749562860E0,-2.879626036E0
3.292198922E0,9.214085579E0,1.749562860E0,-2.927510023E0
3.294686683E0,9.228450775E0,1.749562860E0,-2.984971046E0
3.297174443E0,9.233239174E0,1.749562860E0,-3.008913040E0
3.299662204E0,9.266757965E0,1.739986062E0,-3.066373825E0
3.302149964E0,9.276334763E0,1.739986062E0,-3.104681015E0
3.304637724E0,9.281123161E0,1.754351258E0,-3.133411407E0
3.307125485E0,9.309853554E0,1.739986062E0,-3.176506996E0
3.309613245E0,9.314641953E0,1.739986062E0,-3.219602823E0
3.312101006E0,9.305065155E0,1.706467271E0,-3.257910013E0
3.314588766E0,9.309853554E0,1.687313676E0,-3.272275209E0
3.317076527E0,9.319430351E0,1.677736878E0,-3.301005602E0
3.319564287E0,9.357737541E0,1.653794765E0,-3.315370798E0
3.322052047E0,9.367314339E0,1.644217968E0,-3.315370798E0
3.324539808E0,9.376891136E0,1.634641171E0,-3.348889589E0
3.327027568E0,9.391256332E0,1.620275974E0,-3.358466387E0
3.329515329E0,9.405621529E0,1.591545582E0,-3.344101191E0
3.332003089E0,9.415198326E0,1.586757183E0,-3.348889589E0
3.334490849E0,9.410409927E0,1.562815189E0,-3.348889589E0
3.336978610E0,9.400833130E0,1.529296279E0,-3.372831583E0
3.339466370E0,9.405621529E0,1.505354285E0,-3.368043184E0
3.341954131E0,9.415198326E0,1.476623893E0,-3.353677988E0
3.344441891E0,9.410409927E0,1.428739905E0,-3.339312792E0
3.346929652E0,9.415198326E0,1.409586191E0,-3.334524393E0
3.349417412E0,9.415198326E0,1.404797792E0,-3.324947596E0
3.351905172E0,9.410409927E0,1.356913805E0,-3.339312792E0
3.354392933E0,9.419986725E0,1.332971811E0,-3.334524393E0
3.356880693E0,9.410409927E0,1.313818216E0,-3.353677988E0
3.359368454E0,9.405621529E0,1.304241419E0,-3.339312792E0
3.361856214E0,9.400833130E0,1.270722508E0,-3.334524393E0
3.364343974E0,9.376891136E0,1.261145711E0,-3.339312792E0
3.366831735E0,9.352949142E0,1.241992116E0,-3.310582399E0
3.369319495E0,9.329007149E0,1.222838521E0,-3.305794001E0
3.371807256E0,9.309853554E0,1.213261724E0,-3.277063608E0
3.374295016E0,9.285911560E0,1.203684926E0,-3.233968019E0
3.376782777E0,9.261969566E0,1.194108129E0,-3.210026026E0
3.379270537E0,9.242815971E0,1.174954534E0,-3.171718597E0
3.381758297E0,9.233239174E0,1.170166135E0,-3.138199806E0
3.384246058E0,9.214085579E0,1.165377736E0,-3.114257812E0
3.386733818E0,9.185355186E0,1.165377736E0,-3.109469414E0
3.389221579E0,9.180566788E0,1.151012421E0,-3.080739021E0
3.391709339E0,9.166201591E0,1.141435623E0,-3.061585426E0
3.394197099E0,9.151836395E0,1.122282028E0,-3.032855034E0
3.396684860E0,9.142259598E0,1.117493629E0,-3.023278236E0
3.399172620E0,9.118317604E0,1.112705231E0,-3.013701439E0
3.401660381E0,9.094375610E0,1.107916832E0,-2.989759445E0
3.404148141E0,9.080010414E0,1.107916832E0,-2.965817451E0
3.406635902E0,9.075222015E0,1.083974838E0,-2.917933226E0
3.409123662E0,9.080010414E0,1.079186440E0,-2.903568029E0
3.411611422E0,9.084798813E0,1.050456047E0,-2.893991232E0
3.414099183E0,9.084798813E0,1.055244446E0,-2.879626036E0
3.416586943E0,9.080010414E0,1.045667648E0,-2.874837637E0
3.419074704E0,9.060855865E0,1.050456047E0,-2.865260839E0
3.421562464E0,9.080010414E0,1.040879130E0,-2.841318846E0
3.424050224E0,9.099164009E0,1.036090732E0,-2.822165251E0
3.426537985E0,9.084798813E0,1.036090732E0,-2.807800055E0
3.429025745E0,9.070432663E0,1.055244446E0,-2.817376852E0
3.431513506E0,9.060855865E0,1.050456047E0,-2.807800055E0
3.434001266E0,9.080010414E0,1.040879130E0,-2.793434858E0
3.436489027E0,9.070432663E0,1.060032845E0,-2.769492865E0
3.438976787E0,9.075222015E0,1.060032845E0,-2.755127668E0
3.441464547E0,9.060855865E0,1.069609642E0,-2.750339270E0
3.443952308E0,9.070432663E0,1.069609642E0,-2.769492865E0
3.446440068E0,9.094375610E0,1.064821243E0,-2.788646460E0
3.448927829E0,9.099164009E0,1.055244446E0,-2.788646460E0
3.451416214E0,9.089587212E0,1.045667648E0,-2.812588453E0
3.453903610E0,9.080010414E0,1.055244446E0,-2.807800055E0
3.456391006E0,9.084798813E0,1.074398041E0,-2.812588453E0
3.458878402E0,9.080010414E0,1.088763237E0,-2.803011656E0
3.461365797E0,9.070432663E0,1.103128433E0,-2.798223257E0
3.463853245E0,9.089587212E0,1.112705231E0,-2.793434858E0
3.466340745E0,9.094375610E0,1.127070427E0,-2.793434858E0
3.468828297E0,9.099164009E0,1.117493629E0,-2.812588453E0
3.471315902E0,9.094375610E0,1.122282028E0,-2.822165251E0
3.473803558E0,9.089587212E0,1.122282028E0,-2.836530447E0
3.476291266E0,9.113529205E0,1.131858826E0,-2.841318846E0
3.478779027E0,9.127894402E0,1.127070427E0,-2.865260839E0
3.481266839E0,9.151836395E0,1.117493629E0,-2.870049238E0
3.483754704E0,9.161413193E0,1.098340034E0,-2.884414434E0
3.486242620E0,9.170989990E0,1.064821243E0,-2.908356428E0
3.488730589E0,9.190143585E0,1.060032845E0,-2.937086821E0
3.491218610E0,9.199720383E0,1.045667648E0,-2.956240654E0
3.493706631E0,9.214085579E0,1.036090732E0,-2.961029053E0
3.496194652E0,9.199720383E0,1.036090732E0,-2.994547844E0
3.498682672E0,9.214085579E0,1.036090732E0,-2.989759445E0
3.501170693E0,9.214085579E0,1.031302333E0,-3.008913040E0
3.503658610E0,9.214085579E0,1.026513934E0,-3.013701439E0
3.506146370E0,9.209297180E0,1.021725535E0,-3.071162224E0
3.508634131E0,9.190143585E0,1.021725535E0,-3.099892616E0
3.511121891E0,9.204508781E0,1.050456047E0,-3.095104218E0
3.513609652E0,9.214085579E0,1.055244446E0,-3.109469414E0
3.516097360E0,9.204508781E0,1.069609642E0,-3.147776604E0
3.518585068E0,9.199720383E0,1.074398041E0,-3.176506996E0
3.521072777E0,9.190143585E0,1.079186440E0,-3.214814425E0
3.523560485E0,9.170989990E0,1.083974838E0,-3.214814425E0
3.526048193E0,9.170989990E0,1.069609642E0,-3.238756418E0
3.528535902E0,9.166201591E0,1.083974838E0,-3.243544817E0
3.531023610E0,9.175778389E0,1.083974838E0,-3.267486811E0
3.533511318E0,9.175778389E0,1.107916832E0,-3.253121614E0
3.535999027E0,9.209297180E0,1.112705231E0,-3.262698412E0
3.538486735E0,9.199720383E0,1.107916832E0,-3.262698412E0
3.540974443E0,9.204508781E0,1.117493629E0,-3.281852007E0
3.543462152E0,9.199720383E0,1.141435623E0,-3.286640406E0
3.545949860E0,9.204508781E0,1.122282028E0,-3.291428804E0
3.548437568E0,9.223662376E0,1.131858826E0,-3.296217203E0
3.550925277E0,9.228450775E0,1.127070427E0,-3.324947596E0
3.553412985E0,9.218873978E0,1.127070427E0,-3.344101191E0
3.555900693E0,9.238027573E0,1.122282028E0,-3.334524393E0
3.558388402E0,9.238027573E0,1.122282028E0,-3.368043184E0
3.560876110E0,9.242815971E0,1.131858826E0,-3.358466387E0
3.563363818E0,9.238027573E0,1.141435623E0,-3.353677988E0
3.565851527E0,9.242815971E0,1.131858826E0,-3.363254786E0
3.568339235E0,9.242815971E0,1.136647224E0,-3.363254786E0
3.570826943E0,9.247604370E0,1.151012421E0,-3.387196779E0
3.573314652E0,9.266757965E0,1.151012421E0,-3.406350374E0
3.575802360E0,9.290699959E0,1.160589218E0,-3.411138773E0
3.578290068E0,9.295488358E0,1.146224022E0,-3.425503969E0
3.580777777E0,9.309853554E0,1.122282028E0,-3.449446201E0
3.583265485E0,9.314641953E0,1.122282028E0,-3.459022999E0
3.585753193E0,9.319430351E0,1.107916832E0,-3.463811398E0
3.588240902E0,9.329007149E0,1.093551636E0,-3.478176594E0
3.590728662E0,9.338583946E0,1.083974838E0,-3.487753391E0
3.593216422E0,9.372102737E0,1.088763237E0,-3.478176594E0
3.595704183E0,9.400833130E0,1.093551636E0,-3.497330189E0
3.598191943E0,9.439140320E0,1.088763237E0,-3.511695385E0
3.600679704E0,9.477447510E0,1.093551636E0,-3.526060581E0
3.603167464E0,9.482235909E0,1.079186440E0,-3.573944569E0
3.605655224E0,9.491812706E0,1.060032845E0,-3.588309765E0
3.608142985E0,9.525331497E0,1.045667648E0,-3.607463360E0
3.610630745E0,9.554061890E0,1.036090732E0,-3.617040157E0
3.613118506E0,9.578003883E0,1.031302333E0,-3.636193752E0
3.615606266E0,9.601945877E0,1.016937137E0,-3.650558949E0
3.618094027E0,9.630676270E0,1.016937137E0,-3.664924145E0
3.620581787E0,9.659406662E0,1.002571940E0,-3.660135746E0
3.623069547E0,9.707290649E0,9.929951429E-1,-3.674500942E0
3.625557308E0,9.731232643E0,9.834183455E-1,-3.679289579E0
3.628045068E0,9.759963036E0,9.498994946E-1,-3.703231573E0
3.630532829E0,9.803058624E0,9.355342984E-1,-3.708019972E0
3.633020589E0,9.831789017E0,9.115923047E-1,-3.708019972E0
3.635508349E0,9.841365814E0,8.972271085E-1,-3.722385168E0
3.637996110E0,9.879673004E0,8.924387097E-1,-3.722385168E0
3.640483870E0,9.884461403E0,8.732850552E-1,-3.722385168E0
3.642971631E0,9.884461403E0,8.637082577E-1,-3.722385168E0
3.645459391E0,9.898826599E0,8.589198589E-1,-3.712808371E0
3.647947152E0,9.917980194E0,8.589198589E-1,-3.703231573E0
3.650434912E0,9.913191795E0,8.684966564E-1,-3.669712543E0
3.652922672E0,9.927556992E0,8.541314602E-1,-3.679289579E0
3.655410433E0,9.946710587E0,8.541314602E-1,-3.684077978E0
3.657898193E0,9.951498985E0,8.589198589E-1,-3.688866377E0
3.660385954E0,9.946710587E0,8.493430614E-1,-3.684077978E0
3.662873714E0,9.965864182E0,8.397662640E-1,-3.688866377E0
3.665361474E0,9.961075783E0,8.493430614E-1,-3.688866377E0
3.667849235E0,9.941922188E0,8.589198589E-1,-3.688866377E0
3.670336995E0,9.927556992E0,8.684966564E-1,-3.684077978E0
3.672824756E0,9.927556992E0,8.684966564E-1,-3.660135746E0
3.675312516E0,9.884461403E0,8.732850552E-1,-3.650558949E0
3.677800277E0,9.865307808E0,9.020155072E-1,-3.617040157E0
3.680288037E0,9.846154213E0,9.259575009E-1,-3.573944569E0
3.682775797E0,9.807847023E0,9.307458997E-1,-3.569156170E0
3.685263558E0,9.769539833E0,9.259575009E-1,-3.559579372E0
3.687751318E0,9.721655846E0,9.355342984E-1,-3.550002575E0
3.690239079E0,9.683348656E0,9.259575009E-1,-3.540425777E0
3.692726839E0,9.640253067E0,9.403226972E-1,-3.554790974E0
3.695214599E0,9.601945877E0,9.451110959E-1,-3.540425777E0
3.697702360E0,9.549273491E0,9.498994946E-1,-3.511695385E0
3.700190120E0,9.506177902E0,9.642647505E-1,-3.492541790E0
3.702677881E0,9.458293915E0,9.738415480E-1,-3.468599796E0
3.705165641E0,9.429563522E0,9.834183455E-1,-3.406350374E0
3.707653402E0,9.405621529E0,9.834183455E-1,-3.363254786E0
3.710141162E0,9.381679535E0,9.834183455E-1,-3.320159197E0
3.712628922E0,9.348160744E0,9.882067442E-1,-3.272275209E0
3.715116683E0,9.309853554E0,9.929951429E-1,-3.229179621E0
3.717604443E0,9.276334763E0,9.929951429E-1,-3.205237627E0
3.720092204E0,9.252392769E0,1.007360339E0,-3.181295395E0
3.722579964E0,9.242815971E0,1.016937137E0,-3.166930199E0
3.725067724E0,9.233239174E0,1.007360339E0,-3.119046211E0
3.727555485E0,9.223662376E0,1.012148738E0,-3.104681015E0
3.730043245E0,9.214085579E0,1.026513934E0,-3.085527420E0
3.732531006E0,9.199720383E0,1.021725535E0,-3.056797028E0
3.735018766E0,9.180566788E0,1.021725535E0,-3.032855034E0
3.737506527E0,9.142259598E0,1.021725535E0,-2.980182648E0
3.739994287E0,9.123106003E0,1.031302333E0,-2.965817451E0
3.742482047E0,9.080010414E0,1.031302333E0,-2.913144827E0
3.744969808E0,9.051279068E0,1.012148738E0,-2.874837637E0
3.747457568E0,9.017760277E0,1.036090732E0,-2.850895643E0
3.749945329E0,8.965087891E0,1.050456047E0,-2.803011656E0
3.752433089E0,8.926780701E0,1.050456047E0,-2.755127668E0
3.754920849E0,8.888473511E0,1.040879130E0,-2.712032080E0
3.757408610E0,8.831012726E0,1.026513934E0,-2.702455282E0
3.759896370E0,8.778340340E0,1.031302333E0,-2.668936253E0
3.762384131E0,8.754398346E0,1.036090732E0,-2.630629063E0
3.764871891E0,8.730456352E0,1.036090732E0,-2.606687069E0
3.767359652E0,8.706514359E0,1.036090732E0,-2.568379879E0
3.769847412E0,8.653841972E0,1.016937137E0,-2.525284290E0
3.772335172E0,8.634688377E0,1.016937137E0,-2.486977100E0
3.774822933E0,8.610746384E0,1.012148738E0,-2.458246708E0
3.777310693E0,8.586804390E0,1.016937137E0,-2.424727678E0
3.779798454E0,8.548497200E0,1.012148738E0,-2.372055292E0
3.782286214E0,8.500613213E0,9.882067442E-1,-2.338536501E0
3.784773974E0,8.486248016E0,9.882067442E-1,-2.305017710E0
3.787261735E0,8.467094421E0,9.786299467E-1,-2.271498919E0
3.789749495E0,8.395268440E0,9.690531492E-1,-2.237980127E0
3.792237256E0,8.333019257E0,9.738415480E-1,-2.204461098E0
3.794725016E0,8.280346870E0,9.786299467E-1,-2.170942307E0
3.797212777E0,8.222886086E0,9.882067442E-1,-2.142211914E0
3.799700537E0,8.179790497E0,9.929951429E-1,-2.123058319E0
3.802188297E0,8.122329712E0,1.007360339E0,-2.099116325E0
3.804676058E0,8.055291176E0,1.026513934E0,-2.051232338E0
3.807163818E0,8.002618790E0,1.031302333E0,-2.017713547E0
3.809651579E0,7.959523678E0,1.026513934E0,-1.998559833E0
3.812139339E0,7.892486095E0,1.021725535E0,-1.988983035E0
3.814627099E0,7.825448036E0,1.021725535E0,-1.960252643E0
3.817114860E0,7.763198853E0,1.002571940E0,-1.960252643E0
3.819602620E0,7.710526466E0,9.882067442E-1,-1.950675845E0
3.822090381E0,7.657854080E0,1.007360339E0,-1.931522250E0
3.824578141E0,7.609970093E0,9.929951429E-1,-1.921945453E0
3.827065902E0,7.566874504E0,9.882067442E-1,-1.917157054E0
3.829553662E0,7.504625320E0,9.929951429E-1,-1.907580256E0
3.832041422E0,7.447164536E0,9.594763517E-1,-1.907580256E0
3.834529183E0,7.394492149E0,9.546879530E-1,-1.878849745E0
3.837016943E0,7.365761757E0,9.690531492E-1,-1.878849745E0
3.839504704E0,7.308300495E0,9.498994946E-1,-1.874061346E0
3.841992464E0,7.260416508E0,9.211691022E-1,-1.859696150E0
3.844480224E0,7.198167324E0,9.115923047E-1,-1.850119352E0
3.846967985E0,7.135918140E0,9.068039060E-1,-1.840542555E0
3.849455745E0,7.088034153E0,8.876502514E-1,-1.830965757E0
3.851943506E0,7.054515362E0,8.876502514E-1,-1.826177359E0
3.854431266E0,7.020996571E0,8.684966564E-1,-1.816600561E0
3.856919027E0,6.939593792E0,8.684966564E-1,-1.821388960E0
3.859406787E0,6.882133007E0,8.445546627E-1,-1.811812162E0
3.861894547E0,6.839036942E0,8.397662640E-1,-1.816600561E0
3.864382308E0,6.800729752E0,8.254010081E-1,-1.816600561E0
3.866870068E0,6.748057365E0,8.158242106E-1,-1.797446966E0
3.869357829E0,6.671442986E0,8.110358119E-1,-1.826177359E0
3.871845589E0,6.604405403E0,8.014590144E-1,-1.830965757E0
3.874333349E0,6.542156219E0,7.823054194E-1,-1.864484549E0
3.876821110E0,6.484695435E0,7.583633661E-1,-1.878849745E0
3.879308870E0,6.441599846E0,7.439981699E-1,-1.912368655E0
3.881796631E0,6.403292656E0,7.296329737E-1,-1.945887446E0
3.884284391E0,6.341042995E0,7.104793787E-1,-1.988983035E0
3.886772152E0,6.288370609E0,6.865373254E-1,-2.041655540E0
3.889259912E0,6.230909824E0,6.673837304E-1,-2.099116325E0
3.891747672E0,6.202179432E0,6.386532784E-1,-2.161365509E0
3.894235433E0,6.159083843E0,6.338648796E-1,-2.218826532E0
3.896723193E0,6.111199856E0,6.003460884E-1,-2.285864115E0
3.899210954E0,6.072892666E0,6.099228859E-1,-2.328959703E0
3.901698714E0,6.015431881E0,6.051344872E-1,-2.405574083E0
3.904186474E0,5.957971096E0,5.859808922E-1,-2.467823505E0
3.906674235E0,5.890933514E0,5.859808922E-1,-2.520495892E0
3.909161995E0,5.838260651E0,5.907692909E-1,-2.582745075E0
3.911649756E0,5.795165062E0,5.764040351E-1,-2.640205860E0
3.914137464E0,5.761646271E0,5.572504401E-1,-2.716820478E0
3.916625172E0,5.723339081E0,5.476736426E-1,-2.774281263E0
3.919112881E0,5.699397087E0,5.428852439E-1,-2.826953650E0
3.921600589E0,5.685031891E0,5.476736426E-1,-2.884414434E0
3.924088297E0,5.665878296E0,5.572504401E-1,-2.961029053E0
3.926576006E0,5.670666695E0,5.716156363E-1,-3.032855034E0
3.929063714E0,5.699397087E0,5.907692909E-1,-3.095104218E0
3.931551422E0,5.723339081E0,5.859808922E-1,-3.142988205E0
3.934039131E0,5.737704277E0,5.524620414E-1,-3.200449228E0
3.936526839E0,5.771223068E0,5.428852439E-1,-3.248333216E0
3.939014547E0,5.809530258E0,5.285200477E-1,-3.301005602E0
3.941502256E0,5.843049049E0,5.093663931E-1,-3.315370798E0
3.943989964E0,5.857414246E0,4.950011969E-1,-3.348889589E0
3.946477672E0,5.910087109E0,4.902127981E-1,-3.348889589E0
3.948965381E0,5.948394299E0,4.950011969E-1,-3.315370798E0
3.951453089E0,6.005855083E0,5.285200477E-1,-3.296217203E0
3.953940797E0,6.068104267E0,5.476736426E-1,-3.281852007E0
3.956428506E0,6.130353451E0,5.524620414E-1,-3.277063608E0
3.958916214E0,6.206967831E0,5.524620414E-1,-3.281852007E0
3.961403922E0,6.307524204E0,5.524620414E-1,-3.291428804E0
3.963891631E0,6.412869453E0,5.380968451E-1,-3.339312792E0
3.966379339E0,6.532579422E0,5.189431906E-1,-3.387196779E0
3.968867047E0,6.623558998E0,4.854243994E-1,-3.444657803E0
3.971354756E0,6.681019783E0,4.519055784E-1,-3.492541790E0
3.973842464E0,6.719326973E0,4.231751561E-1,-3.535637379E0
3.976330172E0,6.733692169E0,3.896563351E-1,-3.554790974E0
3.978817881E0,6.757634163E0,3.705027103E-1,-3.540425777E0
3.981305589E0,6.795941353E0,3.848679364E-1,-3.482964993E0
3.983793297E0,6.810306549E0,3.896563351E-1,-3.449446201E0
3.986281006E0,6.839036942E0,4.183867574E-1,-3.415927172E0
3.988768714E0,6.853402138E0,4.327519536E-1,-3.377619982E0
3.991256474E0,6.829460144E0,4.423287511E-1,-3.315370798E0
3.993744235E0,6.815094948E0,4.566939771E-1,-3.243544817E0
3.996231995E0,6.800729752E0,4.758476019E-1,-3.186083794E0
3.998719756E0,6.800729752E0,5.141547918E-1,-3.123834610E0
4.001207516E0,6.795941353E0,5.333084464E-1,-3.028066635E0
4.003695277E0,6.786364555E0,5.572504401E-1,-2.922721624E0
4.006183037E0,6.786364555E0,5.859808922E-1,-2.826953650E0
4.008670797E0,6.781576157E0,6.003460884E-1,-2.702455282E0
4.011159287E0,6.762422562E0,6.242880821E-1,-2.568379879E0
4.013647464E0,6.776787758E0,6.290764809E-1,-2.448669672E0
4.016135224E0,6.819883347E0,6.530185342E-1,-2.352901697E0
4.018622985E0,6.839036942E0,6.865373254E-1,-2.242768526E0
4.021110745E0,6.862978935E0,7.296329737E-1,-2.180519104E0
4.023598454E0,6.882133007E0,7.727286220E-1,-2.094327927E0
4.026086162E0,6.915651798E0,7.775170207E-1,-2.032078743E0
4.028573870E0,6.982689381E0,8.062474132E-1,-1.969829440E0
4.031061579E0,7.078457355E0,8.062474132E-1,-1.936310649E0
4.033549287E0,7.159860134E0,8.206126094E-1,-1.926733851E0
4.036036995E0,7.265204906E0,8.254010081E-1,-1.941099048E0
4.038524704E0,7.375338554E0,8.445546627E-1,-1.960252643E0
4.041012412E0,7.499836922E0,8.158242106E-1,-2.027290344E0
4.043500120E0,7.605181694E0,8.014590144E-1,-2.075174332E0
4.045987829E0,7.748833656E0,7.775170207E-1,-2.161365509E0
4.048475537E0,7.868544102E0,7.392097712E-1,-2.252345324E0
4.050963245E0,7.959523678E0,7.009025216E-1,-2.357690096E0
4.053450954E0,8.026560783E0,6.865373254E-1,-2.463035107E0
4.055938662E0,8.107964516E0,6.673837304E-1,-2.582745075E0
4.058426370E0,8.175002098E0,6.530185342E-1,-2.712032080E0
4.060914079E0,8.227674484E0,6.338648796E-1,-2.822165251E0
4.063401787E0,8.275558472E0,6.194996834E-1,-2.946663857E0
4.065889495E0,8.309077263E0,5.955576897E-1,-3.066373825E0
4.068377204E0,8.352172852E0,5.428852439E-1,-3.195660830E0
4.070864912E0,8.380903244E0,4.854243994E-1,-3.324947596E0
4.073352620E0,8.390480042E0,4.375403523E-1,-3.449446201E0
4.075840329E0,8.423998833E0,3.896563351E-1,-3.569156170E0
4.078328037E0,8.467094421E0,3.321954906E-1,-3.655347347E0
4.080815745E0,8.510190010E0,2.795230448E-1,-3.717596769E0
4.083303454E0,8.529343605E0,2.460042238E-1,-3.798999548E0
4.085791162E0,8.572439194E0,2.124854028E-1,-3.861248732E0
4.088278870E0,8.596381187E0,1.837549806E-1,-3.885190725E0
4.090766579E0,8.629899979E0,1.646013707E-1,-3.894767523E0
4.093254287E0,8.672995567E0,1.598129570E-1,-3.885190725E0
4.095741995E0,8.716091156E0,1.502361596E-1,-3.842095137E0
4.098229704E0,8.768763542E0,1.550245583E-1,-3.818153143E0
4.100717464E0,8.783128738E0,1.550245583E-1,-3.775057554E0
4.103205224E0,8.797493935E0,1.550245583E-1,-3.722385168E0
4.105692985E0,8.816647530E0,1.454477459E-1,-3.660135746E0
4.108180745E0,8.835801125E0,1.262941360E-1,-3.607463360E0
4.110668506E0,8.864531517E0,1.023521200E-1,-3.545214176E0
4.113156266E0,8.878896713E0,1.119289324E-1,-3.478176594E0
4.115644027E0,8.893261909E0,1.071405262E-1,-3.420715570E0
4.118131787E0,8.926780701E0,8.798690885E-2,-3.387196779E0
4.120619547E0,8.979453087E0,8.319851011E-2,-3.344101191E0
4.123107308E0,9.012971878E0,7.841010392E-2,-3.296217203E0
4.125595068E0,9.060855865E0,7.362170517E-2,-3.262698412E0
4.128082829E0,9.089587212E0,7.362170517E-2,-3.262698412E0
4.130570589E0,9.132682800E0,6.883329898E-2,-3.248333216E0
4.133058349E0,9.194931984E0,5.446808785E-2,-3.243544817E0
4.135546110E0,9.257181168E0,5.446808785E-2,-3.253121614E0
4.138033870E0,9.309853554E0,4.967968538E-2,-3.277063608E0
4.140521631E0,9.357737541E0,3.052607179E-2,-3.296217203E0
4.143009391E0,9.391256332E0,2.573766746E-2,-3.329735994E0
4.145497152E0,9.410409927E0,6.584054790E-3,-3.372831583E0
4.147984912E0,9.434351921E0,1.616086066E-2,-3.415927172E0
4.150472672E0,9.482235909E0,2.573766746E-2,-3.463811398E0
4.152960433E0,9.510966301E0,3.531447425E-2,-3.487753391E0
4.155448193E0,9.525331497E0,5.925649032E-2,-3.540425777E0
4.157935954E0,9.544485092E0,7.362170517E-2,-3.617040157E0
4.160423714E0,9.544485092E0,1.071405262E-1,-3.693654776E0
4.162911474E0,9.539696693E0,1.502361596E-1,-3.765480757E0
4.165399235E0,9.520543098E0,1.837549806E-1,-3.827729940E0
4.167886995E0,9.506177902E0,2.316390127E-1,-3.846883535E0
4.170374756E0,9.477447510E0,2.890998423E-1,-3.870825529E0
4.172862516E0,9.439140320E0,3.226186931E-1,-3.866037130E0
4.175350277E0,9.386467934E0,3.609259129E-1,-3.842095137E0
4.177838037E0,9.357737541E0,3.992331326E-1,-3.846883535E0
4.180325797E0,9.319430351E0,4.471171796E-1,-3.861248732E0
4.182813558E0,9.290699959E0,4.950011969E-1,-3.875613928E0
4.185301318E0,9.257181168E0,5.285200477E-1,-3.894767523E0
4.187789079E0,9.223662376E0,5.955576897E-1,-3.918709517E0
4.190276839E0,9.199720383E0,6.290764809E-1,-3.971382141E0
4.192764599E0,9.190143585E0,6.482301354E-1,-4.038419724E0
4.195252360E0,9.180566788E0,6.673837304E-1,-4.067150116E0
4.197740120E0,9.175778389E0,6.817489266E-1,-4.095880508E0
4.200227881E0,9.194931984E0,6.769605279E-1,-4.105457306E0
4.202715641E0,9.199720383E0,6.434416771E-1,-4.129399300E0
4.205203402E0,9.223662376E0,6.386532784E-1,-4.124610901E0
4.207691162E0,9.261969566E0,6.386532784E-1,-4.115034103E0
4.210178922E0,9.285911560E0,6.338648796E-1,-4.129399300E0
4.212666683E0,9.319430351E0,6.242880821E-1,-4.148552895E0
4.215154443E0,9.357737541E0,6.482301354E-1,-4.138976097E0
4.217642204E0,9.381679535E0,6.530185342E-1,-4.148552895E0
4.220129964E0,9.419986725E0,6.434416771E-1,-4.138976097E0
4.222617724E0,9.439140320E0,6.769605279E-1,-4.134187698E0
4.225105485E0,9.472659111E0,7.009025216E-1,-4.119822502E0
4.227593245E0,9.487024307E0,7.056909800E-1,-4.124610901E0
4.230081006E0,9.515754700E0,7.392097712E-1,-4.100668907E0
4.232568766E0,9.525331497E0,7.679402232E-1,-4.095880508E0
4.235056527E0,9.554061890E0,7.775170207E-1,-4.129399300E0
4.237544287E0,9.578003883E0,7.918822169E-1,-4.153341293E0
4.240032047E0,9.592369080E0,8.158242106E-1,-4.162918091E0
4.242519808E0,9.611522675E0,8.589198589E-1,-4.196436882E0
4.245007568E0,9.635464668E0,8.828618526E-1,-4.225167274E0
4.247495329E0,9.645041466E0,9.068039060E-1,-4.282628059E0
4.249983089E0,9.659406662E0,9.355342984E-1,-4.311358929E0
4.252470849E0,9.668983459E0,9.642647505E-1,-4.320935726E0
4.254958610E0,9.683348656E0,1.012148738E0,-4.354454517E0
4.257446370E0,9.688137054E0,1.040879130E0,-4.383184910E0
4.259934131E0,9.697713852E0,1.069609642E0,-4.402338505E0
4.262421891E0,9.678560257E0,1.117493629E0,-4.416703701E0
4.264909652E0,9.630676270E0,1.127070427E0,-4.455010891E0
4.267397412E0,9.597157478E0,1.131858826E0,-4.498106480E0
4.269885172E0,9.544485092E0,1.155800819E0,-4.522048473E0
4.272372933E0,9.510966301E0,1.165377736E0,-4.565144062E0
4.274860693E0,9.453505516E0,1.174954534E0,-4.603451252E0
4.277348454E0,9.419986725E0,1.174954534E0,-4.651335239E0
4.279836214E0,9.405621529E0,1.170166135E0,-4.689642429E0
4.282323974E0,9.376891136E0,1.184531331E0,-4.737526417E0
4.284811735E0,9.357737541E0,1.184531331E0,-4.804564476E0
4.287299495E0,9.348160744E0,1.189319730E0,-4.881178856E0
4.289787256E0,9.343372345E0,1.208473325E0,-4.953004837E0
4.292275016E0,9.309853554E0,1.227626920E0,-5.029619217E0
4.294762777E0,9.276334763E0,1.237203717E0,-5.125387192E0
4.297250537E0,9.242815971E0,1.256357312E0,-5.178059578E0
4.299738297E0,9.214085579E0,1.261145711E0,-5.259462357E0
4.302226058E0,9.180566788E0,1.265934110E0,-5.326500416E0
4.304713818E0,9.161413193E0,1.256357312E0,-5.355230808E0
4.307201579E0,9.132682800E0,1.241992116E0,-5.412691593E0
4.309689339E0,9.089587212E0,1.222838521E0,-5.417479992E0
4.312177099E0,9.070432663E0,1.227626920E0,-5.450998783E0
4.314664860E0,9.036913872E0,1.227626920E0,-5.460575581E0
4.317152620E0,9.017760277E0,1.194108129E0,-5.465363979E0
4.319640381E0,9.017760277E0,1.194108129E0,-5.474940777E0
4.322128141E0,9.008183479E0,1.203684926E0,-5.446210384E0
4.324615902E0,9.017760277E0,1.203684926E0,-5.441421986E0
4.327103662E0,9.022548676E0,1.213261724E0,-5.455787182E0
4.329591422E0,9.051279068E0,1.189319730E0,-5.446210384E0
4.332079183E0,9.075222015E0,1.179742932E0,-5.436633587E0
4.334566943E0,9.099164009E0,1.146224022E0,-5.436633587E0
4.337054704E0,9.127894402E0,1.112705231E0,-5.422268391E0
4.339542464E0,9.156624794E0,1.083974838E0,-5.403114796E0
4.342030224E0,9.194931984E0,1.050456047E0,-5.379172802E0
4.344517985E0,9.199720383E0,1.031302333E0,-5.345654011E0
4.347005745E0,9.238027573E0,1.026513934E0,-5.292981625E0
4.349493506E0,9.238027573E0,1.012148738E0,-5.249885559E0
4.351981266E0,9.242815971E0,9.977835417E-1,-5.192424774E0
4.354469027E0,9.281123161E0,9.977835417E-1,-5.144540787E0
4.356956787E0,9.300276756E0,9.929951429E-1,-5.063138008E0
4.359444547E0,9.305065155E0,9.977835417E-1,-4.991312027E0
4.361932308E0,9.281123161E0,9.882067442E-1,-4.933851242E0
4.364420068E0,9.261969566E0,9.738415480E-1,-4.881178856E0
4.366907829E0,9.218873978E0,9.642647505E-1,-4.833294868E0
4.369395589E0,9.180566788E0,9.642647505E-1,-4.799776077E0
4.371883297E0,9.156624794E0,9.690531492E-1,-4.756680012E0
4.374371006E0,9.137471199E0,9.834183455E-1,-4.718372822E0
4.376858714E0,9.132682800E0,9.882067442E-1,-4.708796024E0
4.379346422E0,9.113529205E0,9.690531492E-1,-4.713584423E0
4.381834131E0,9.103952408E0,9.355342984E-1,-4.704007626E0
4.384321839E0,9.084798813E0,9.451110959E-1,-4.684854031E0
4.386809547E0,9.060855865E0,9.403226972E-1,-4.670488834E0
4.389297256E0,9.051279068E0,9.259575009E-1,-4.656123638E0
4.391784964E0,9.041702271E0,9.020155072E-1,-4.622604847E0
4.394272672E0,9.051279068E0,8.828618526E-1,-4.593874454E0
4.396760381E0,9.075222015E0,8.732850552E-1,-4.565144062E0
4.399248089E0,9.103952408E0,8.589198589E-1,-4.565144062E0
4.401735797E0,9.123106003E0,8.158242106E-1,-4.579509258E0
4.404223506E0,9.166201591E0,7.727286220E-1,-4.608239651E0
4.406711214E0,9.214085579E0,7.439981699E-1,-4.632181644E0
4.409198922E0,9.257181168E0,6.913257241E-1,-4.675277233E0
4.411686631E0,9.281123161E0,6.482301354E-1,-4.723161221E0
4.414174339E0,9.319430351E0,5.859808922E-1,-4.732738018E0
4.416662047E0,9.329007149E0,5.428852439E-1,-4.704007626E0
4.419149756E0,9.362525940E0,4.997895956E-1,-4.704007626E0
4.421637464E0,9.405621529E0,4.614823759E-1,-4.699219227E0
4.424125172E0,9.467870712E0,4.183867574E-1,-4.689642429E0
4.426612881E0,9.520543098E0,3.896563351E-1,-4.704007626E0
4.429100589E0,9.573215485E0,3.513490856E-1,-4.694430828E0
4.431588297E0,9.611522675E0,3.082534671E-1,-4.694430828E0
4.434076006E0,9.645041466E0,2.651578486E-1,-4.684854031E0
4.436563714E0,9.697713852E0,2.316390127E-1,-4.680065632E0
4.439051422E0,9.755174637E0,1.646013707E-1,-4.670488834E0
4.441539131E0,9.803058624E0,1.310825497E-1,-4.617816448E0
4.444026839E0,9.874884605E0,1.119289324E-1,-4.569932461E0
4.446514547E0,9.908403397E0,8.798690885E-2,-4.522048473E0
4.449002256E0,9.937133789E0,7.362170517E-2,-4.455010891E0
4.451490016E0,1.001853657E1,6.404489279E-2,-4.387973309E0
4.453977777E0,1.007599831E1,4.489128292E-2,-4.301782131E0
4.456465537E0,1.011909389E1,3.531447425E-2,-4.225167274E0
4.458953297E0,1.014782429E1,4.010287672E-2,-4.138976097E0
4.461441058E0,1.017176628E1,3.052607179E-2,-4.043208122E0
4.463928818E0,1.021486187E1,6.584054790E-3,-3.995324135E0
4.466416579E0,1.026274586E1,1.795651275E-3,-3.913921118E0
4.468904339E0,1.028668785E1,-1.735796221E-2,-3.842095137E0
4.471392099E0,1.030105305E1,-2.214636654E-2,-3.794211149E0
4.473879860E0,1.029147625E1,-3.172317147E-2,-3.741538763E0
4.476367620E0,1.026753426E1,-2.214636654E-2,-3.698443174E0
4.478855381E0,1.024359226E1,-1.735796221E-2,-3.674500942E0
4.481343141E0,1.020528507E1,1.137245819E-2,-3.679289579E0
4.483830902E0,1.017655468E1,2.573766746E-2,-3.664924145E0
4.486318662E0,1.012867069E1,5.446808785E-2,-3.674500942E0
4.488806422E0,1.006642151E1,9.756372124E-2,-3.698443174E0
4.491294183E0,9.999382973E0,1.358709484E-1,-3.703231573E0
4.493781943E0,9.898826599E0,1.502361596E-1,-3.741538763E0
4.496269704E0,9.827000618E0,1.885433793E-1,-3.746327162E0
4.498757464E0,9.736021042E0,2.076970041E-1,-3.765480757E0
4.501245224E0,9.668983459E0,2.316390127E-1,-3.818153143E0
4.503732985E0,9.601945877E0,2.412158251E-1,-3.851671934E0
4.506220745E0,9.558850288E0,2.460042238E-1,-3.885190725E0
4.508708506E0,9.510966301E0,2.603694201E-1,-3.937863350E0
4.511196266E0,9.463082314E0,2.603694201E-1,-3.995324135E0
4.513684027E0,9.443928719E0,2.603694201E-1,-4.076726913E0
4.516171787E0,9.400833130E0,2.651578486E-1,-4.138976097E0
4.518659547E0,9.372102737E0,2.555810213E-1,-4.172494888E0
4.521147308E0,9.362525940E0,2.603694201E-1,-4.225167274E0
4.523635068E0,9.357737541E0,2.603694201E-1,-4.249109268E0
4.526122829E0,9.352949142E0,2.699462473E-1,-4.268262863E0
4.528610589E0,9.348160744E0,2.699462473E-1,-4.273051262E0
4.531098349E0,9.348160744E0,2.699462473E-1,-4.258686066E0
4.533586110E0,9.348160744E0,2.603694201E-1,-4.225167274E0
4.536073870E0,9.372102737E0,2.603694201E-1,-4.220378876E0
4.538561631E0,9.381679535E0,2.507926226E-1,-4.201225281E0
4.541049391E0,9.372102737E0,2.555810213E-1,-4.177283287E0
4.543537152E0,9.372102737E0,2.747346461E-1,-4.158129692E0
4.546024912E0,9.381679535E0,2.651578486E-1,-4.148552895E0
4.548512672E0,9.391256332E0,2.651578486E-1,-4.148552895E0
4.551000433E0,9.419986725E0,2.603694201E-1,-4.148552895E0
4.553488193E0,9.434351921E0,2.651578486E-1,-4.191648483E0
4.555975954E0,9.434351921E0,2.651578486E-1,-4.225167274E0
4.558463714E0,9.424775124E0,2.603694201E-1,-4.273051262E0
4.560951474E0,9.419986725E0,2.747346461E-1,-4.306570530E0
4.563439235E0,9.429563522E0,2.843114436E-1,-4.354454517E0
4.565926995E0,9.424775124E0,3.034650683E-1,-4.407126904E0
4.568414756E0,9.415198326E0,3.130418658E-1,-4.450222492E0
4.570902516E0,9.376891136E0,3.321954906E-1,-4.517260075E0
4.573390277E0,9.348160744E0,3.561375141E-1,-4.603451252E0
4.575878037E0,9.314641953E0,3.800795078E-1,-4.694430828E0
4.578365797E0,9.266757965E0,4.231751561E-1,-4.761468410E0
4.580853558E0,9.214085579E0,4.566939771E-1,-4.838083267E0
4.583341318E0,9.166201591E0,4.710591733E-1,-4.909909248E0
4.585829079E0,9.127894402E0,5.045779943E-1,-4.996100426E0
4.588316839E0,9.084798813E0,5.189431906E-1,-5.072714806E0
4.590804599E0,9.075222015E0,5.237316489E-1,-5.144540787E0
4.593292360E0,9.032125473E0,5.333084464E-1,-5.225943565E0
4.595780120E0,8.993818283E0,5.572504401E-1,-5.302558422E0
4.598267881E0,8.965087891E0,5.524620414E-1,-5.369596004E0
4.600755641E0,8.931569099E0,5.572504401E-1,-5.441421986E0
4.603243402E0,8.912415504E0,5.764040351E-1,-5.498882771E0
4.605731162E0,8.859743118E0,5.859808922E-1,-5.522824764E0
4.608218922E0,8.816647530E0,5.907692909E-1,-5.561131954E0
4.610706683E0,8.792705536E0,6.099228859E-1,-5.575497150E0
4.613194443E0,8.730456352E0,6.051344872E-1,-5.580285549E0
4.615682204E0,8.696937561E0,5.907692909E-1,-5.541978359E0
4.618169964E0,8.653841972E0,5.907692909E-1,-5.508459568E0
4.620657724E0,8.639476776E0,5.955576897E-1,-5.465363979E0
4.623145485E0,8.610746384E0,5.859808922E-1,-5.431845188E0
4.625633245E0,8.601169586E0,6.003460884E-1,-5.374384403E0
4.628121006E0,8.610746384E0,5.907692909E-1,-5.350442410E0
4.630608766E0,8.605957985E0,5.716156363E-1,-5.326500416E0
4.633096527E0,8.591592789E0,5.716156363E-1,-5.321712017E0
4.635584287E0,8.629899979E0,5.716156363E-1,-5.312135220E0
4.638072047E0,8.653841972E0,5.524620414E-1,-5.273828030E0
4.640559808E0,8.696937561E0,5.476736426E-1,-5.240308762E0
4.643047568E0,8.735244751E0,5.524620414E-1,-5.202001572E0
4.645535329E0,8.783128738E0,5.572504401E-1,-5.173271179E0
4.648023089E0,8.816647530E0,5.668272376E-1,-5.178059578E0
4.650510849E0,8.869319916E0,5.380968451E-1,-5.178059578E0
4.652998610E0,8.893261909E0,5.285200477E-1,-5.221155167E0
4.655486370E0,8.926780701E0,4.997895956E-1,-5.264250755E0
4.657974131E0,8.945934296E0,4.854243994E-1,-5.278616428E0
4.660461891E0,8.945934296E0,4.854243994E-1,-5.292981625E0
4.662949652E0,8.931569099E0,4.854243994E-1,-5.273828030E0
4.665437412E0,8.912415504E0,4.997895956E-1,-5.302558422E0
4.667925172E0,8.907627106E0,5.141547918E-1,-5.331288815E0
4.670412933E0,8.869319916E0,5.428852439E-1,-5.350442410E0
4.672900693E0,8.845377922E0,5.572504401E-1,-5.412691593E0
4.675388454E0,8.821435928E0,5.572504401E-1,-5.460575581E0
4.677876214E0,8.802282333E0,5.428852439E-1,-5.494094372E0
4.680363974E0,8.797493935E0,5.476736426E-1,-5.565920353E0
4.682851735E0,8.759186745E0,5.237316489E-1,-5.599439144E0
4.685339495E0,8.725667953E0,4.854243994E-1,-5.647323132E0
4.687827256E0,8.677783966E0,4.854243994E-1,-5.690418720E0
4.690315016E0,8.663418770E0,4.710591733E-1,-5.704783916E0
4.692802777E0,8.658630371E0,4.471171796E-1,-5.728725910E0
4.695290537E0,8.663418770E0,4.471171796E-1,-5.747879505E0
4.697778297E0,8.682572365E0,4.614823759E-1,-5.771821976E0
4.700266058E0,8.687360764E0,4.471171796E-1,-5.814917564E0
4.702753818E0,8.658630371E0,4.183867574E-1,-5.819705963E0
4.705241579E0,8.620323181E0,3.896563351E-1,-5.838859558E0
4.707729287E0,8.567650795E0,3.800795078E-1,-5.824494362E0
4.710216995E0,8.491036415E0,3.800795078E-1,-5.829282761E0
4.712704704E0,8.457517624E0,3.417722881E-1,-5.814917564E0
4.715192412E0,8.419210434E0,3.274070919E-1,-5.757456303E0
4.717680120E0,8.395268440E0,3.178302646E-1,-5.709572315E0
4.720167829E0,8.385691643E0,3.082534671E-1,-5.628169537E0
4.722655537E0,8.409633636E0,2.747346461E-1,-5.546766758E0
4.725143245E0,8.409633636E0,2.555810213E-1,-5.484517574E0
4.727630954E0,8.438364029E0,2.316390127E-1,-5.422268391E0
4.730118662E0,8.505401611E0,2.029085904E-1,-5.364807606E0
4.732606370E0,8.577227592E0,1.646013707E-1,-5.307346821E0
4.735094079E0,8.639476776E0,1.119289324E-1,-5.249885559E0
4.737581787E0,8.711302757E0,7.841010392E-2,-5.173271179E0
4.740069495E0,8.783128738E0,2.094926499E-2,-5.106233597E0
4.742557204E0,8.869319916E0,-2.214636654E-2,-5.048772812E0
4.745044912E0,8.984241486E0,-6.045359373E-2,-4.991312027E0
4.747532620E0,9.070432663E0,-8.918401599E-2,-4.953004837E0
4.750020329E0,9.190143585E0,-1.227028370E-1,-4.933851242E0
4.752508037E0,9.290699959E0,-1.562216580E-1,-4.933851242E0
4.754995745E0,9.386467934E0,-2.136825025E-1,-4.953004837E0
4.757483454E0,9.482235909E0,-2.519897223E-1,-4.981735229E0
4.759971162E0,9.539696693E0,-2.902969420E-1,-5.015254021E0
4.762458870E0,9.606734276E0,-3.381809890E-1,-5.048772812E0
4.764946579E0,9.668983459E0,-3.860650361E-1,-5.096656799E0
4.767434287E0,9.692925453E0,-4.291606545E-1,-5.144540787E0
4.769921995E0,9.745597839E0,-4.722562730E-1,-5.245097160E0
4.772409704E0,9.803058624E0,-5.201402903E-1,-5.374384403E0
4.774897412E0,9.822212219E0,-5.632359385E-1,-5.503671169E0
4.777386058E0,9.846154213E0,-6.206967831E-1,-5.623381138E0
4.779873974E0,9.855731010E0,-6.590040326E-1,-5.762245178E0
4.782361735E0,9.846154213E0,-6.925228238E-1,-5.891531944E0
4.784849443E0,9.846154213E0,-7.212532759E-1,-6.016030312E0
4.787337152E0,9.831789017E0,-7.547720671E-1,-6.126163483E0
4.789824860E0,9.807847023E0,-7.930793166E-1,-6.202777863E0
4.792312568E0,9.783905029E0,-8.122329116E-1,-6.269815922E0
4.794800277E0,9.721655846E0,-8.361749649E-1,-6.293757915E0
4.797287985E0,9.688137054E0,-8.505401611E-1,-6.312911510E0
4.799775693E0,9.630676270E0,-8.649053574E-1,-6.312911510E0
4.802263402E0,9.578003883E0,-8.361749649E-1,-6.288969517E0
4.804751110E0,9.520543098E0,-8.074445128E-1,-6.288969517E0
4.807238818E0,9.467870712E0,-8.074445128E-1,-6.284181118E0
4.809726527E0,9.439140320E0,-8.026561141E-1,-6.255450726E0
4.812214235E0,9.367314339E0,-8.026561141E-1,-6.245873451E0
4.814701943E0,9.309853554E0,-8.026561141E-1,-6.217143059E0
4.817189652E0,9.276334763E0,-8.122329116E-1,-6.159682274E0
4.819677360E0,9.223662376E0,-8.074445128E-1,-6.135740280E0
4.822165068E0,9.175778389E0,-7.787141204E-1,-6.083067894E0
4.824652777E0,9.108740807E0,-7.499836683E-1,-6.035183907E0
4.827140485E0,9.027337074E0,-7.451952696E-1,-5.992088318E0
4.829628193E0,8.969876289E0,-7.499836683E-1,-5.939415932E0
4.832115902E0,8.888473511E0,-7.451952696E-1,-5.886743546E0
4.834603610E0,8.840589523E0,-7.308300734E-1,-5.848436356E0
4.837091318E0,8.763975143E0,-7.212532759E-1,-5.800552368E0
4.839579027E0,8.706514359E0,-7.116764784E-1,-5.747879505E0
4.842066735E0,8.629899979E0,-7.260416746E-1,-5.690418720E0
4.844554443E0,8.553285599E0,-7.404068708E-1,-5.609015942E0
4.847042152E0,8.505401611E0,-7.356184721E-1,-5.494094372E0
4.849529860E0,8.462306023E0,-7.499836683E-1,-5.393537998E0
4.852017568E0,8.404845238E0,-7.595604658E-1,-5.283404827E0
4.854505277E0,8.380903244E0,-7.547720671E-1,-5.168482780E0
4.856992985E0,8.361749649E0,-7.308300734E-1,-5.053561211E0
4.859480693E0,8.361749649E0,-7.164648771E-1,-4.953004837E0
4.861968402E0,8.356961250E0,-7.356184721E-1,-4.842871666E0
4.864456110E0,8.356961250E0,-7.451952696E-1,-4.780622005E0
4.866943870E0,8.361749649E0,-7.739257216E-1,-4.723161221E0
4.869431631E0,8.352172852E0,-7.835025191E-1,-4.632181644E0
4.871919391E0,8.347384453E0,-7.930793166E-1,-4.517260075E0
4.874407152E0,8.352172852E0,-8.170213103E-1,-4.426280499E0
4.876894912E0,8.376114845E0,-8.218097091E-1,-4.320935726E0
4.879382672E0,8.414422035E0,-7.978677154E-1,-4.220378876E0
4.881870433E0,8.423998833E0,-7.595604658E-1,-4.091092110E0
4.884358193E0,8.443152428E0,-7.499836683E-1,-3.990535736E0
4.886845954E0,8.476671219E0,-7.212532759E-1,-3.889979124E0
4.889333714E0,8.514978409E0,-7.020996213E-1,-3.784634352E0
4.891821474E0,8.538920403E0,-6.637924314E-1,-3.717596769E0
4.894309235E0,8.553285599E0,-6.350619793E-1,-3.669712543E0
4.896796995E0,8.548497200E0,-6.206967831E-1,-3.621828556E0
4.899284756E0,8.572439194E0,-6.111199856E-1,-3.593098164E0
4.901772516E0,8.601169586E0,-5.871779919E-1,-3.550002575E0
4.904260277E0,8.615534782E0,-5.728127360E-1,-3.511695385E0
4.906748037E0,8.620323181E0,-5.632359385E-1,-3.506906986E0
4.909235797E0,8.634688377E0,-5.345055461E-1,-3.506906986E0
4.911723558E0,8.653841972E0,-5.009866953E-1,-3.516483784E0
4.914211318E0,8.672995567E0,-4.770447016E-1,-3.511695385E0
4.916699079E0,8.692149162E0,-4.435258508E-1,-3.506906986E0
4.919186839E0,8.696937561E0,-4.195838571E-1,-3.545214176E0
4.921674599E0,8.677783966E0,-3.860650361E-1,-3.588309765E0
4.924162360E0,8.663418770E0,-3.621230125E-1,-3.655347347E0
4.926650120E0,8.658630371E0,-3.429693878E-1,-3.755903959E0
4.929137881E0,8.625111580E0,-3.333925903E-1,-3.861248732E0
4.931625641E0,8.615534782E0,-2.998737693E-1,-3.961805344E0
4.934113402E0,8.610746384E0,-2.807201445E-1,-4.062361717E0
4.936601162E0,8.620323181E0,-2.376245260E-1,-4.167706490E0
4.939088922E0,8.625111580E0,-1.849520802E-1,-4.244320869E0
4.941576683E0,8.610746384E0,-1.514332592E-1,-4.340089321E0
4.944064443E0,8.629899979E0,-1.131260321E-1,-4.407126904E0
4.946552204E0,8.653841972E0,-8.918401599E-2,-4.459799290E0
4.949039964E0,8.692149162E0,-5.566519126E-2,-4.512471676E0
4.951527724E0,8.706514359E0,-6.045359373E-2,-4.565144062E0
4.954015485E0,8.749609947E0,-7.481880486E-2,-4.579509258E0
4.956503245E0,8.811859131E0,-6.524199992E-2,-4.608239651E0
4.958991006E0,8.888473511E0,-5.087678507E-2,-4.574720860E0
4.961478766E0,8.969876289E0,-3.651157767E-2,-4.545990467E0
4.963966527E0,9.022548676E0,-3.172317147E-2,-4.522048473E0
4.966454287E0,9.103952408E0,-2.214636654E-2,-4.522048473E0
4.968942047E0,9.185355186E0,1.795651275E-3,-4.502894878E0
4.971429808E0,9.285911560E0,2.094926499E-2,-4.450222492E0
4.973917568E0,9.376891136E0,3.052607179E-2,-4.416703701E0
4.976405329E0,9.443928719E0,2.573766746E-2,-4.387973309E0
4.978893089E0,9.506177902E0,2.094926499E-2,-4.311358929E0
4.981380849E0,9.563638687E0,2.573766746E-2,-4.244320869E0
4.983868610E0,9.601945877E0,4.010287672E-2,-4.167706490E0
4.986356370E0,9.625887871E0,5.925649032E-2,-4.115034103E0
4.988844131E0,9.659406662E0,8.319851011E-2,-4.047996521E0
4.991331891E0,9.688137054E0,1.071405262E-1,-3.995324135E0
4.993819652E0,9.712079048E0,1.358709484E-1,-3.942651749E0
4.996307412E0,9.745597839E0,1.598129570E-1,-3.894767523E0
4.998795172E0,9.769539833E0,1.837549806E-1,-3.856460333E0
5.001282933E0,9.793481827E0,1.981201917E-1,-3.789422750E0
5.003770693E0,9.793481827E0,2.172738016E-1,-3.770269156E0
5.006258454E0,9.769539833E0,2.651578486E-1,-3.746327162E0
5.008746214E0,9.726444244E0,2.795230448E-1,-3.746327162E0
5.011234443E0,9.712079048E0,3.178302646E-1,-3.751115561E0
5.013722256E0,9.688137054E0,3.752911091E-1,-3.765480757E0
5.016209964E0,9.654618263E0,4.423287511E-1,-3.813364744E0
5.018697672E0,9.621099472E0,4.950011969E-1,-3.880402327E0
5.021185381E0,9.587580681E0,5.572504401E-1,-3.966593742E0
5.023673089E0,9.554061890E0,5.955576897E-1,-4.091092110E0
5.026160797E0,9.525331497E0,6.194996834E-1,-4.186860085E0
5.028648506E0,9.510966301E0,6.386532784E-1,-4.301782131E0
5.031136214E0,9.477447510E0,6.769605279E-1,-4.411915302E0
5.033623922E0,9.448717117E0,7.056909800E-1,-4.531625271E0
5.036111631E0,9.439140320E0,7.296329737E-1,-4.646546841E0
5.038599339E0,9.429563522E0,7.631517649E-1,-4.737526417E0
5.041087047E0,9.415198326E0,7.870938182E-1,-4.828506470E0
5.043574756E0,9.419986725E0,7.870938182E-1,-4.924274445E0
5.046062464E0,9.443928719E0,7.918822169E-1,-5.024830818E0
5.048550172E0,9.443928719E0,7.870938182E-1,-5.130175591E0
5.051037881E0,9.434351921E0,7.631517649E-1,-5.240308762E0
5.053525589E0,9.415198326E0,7.487865686E-1,-5.345654011E0
5.056013297E0,9.419986725E0,7.392097712E-1,-5.431845188E0
5.058501006E0,9.419986725E0,7.296329737E-1,-5.508459568E0
5.060988714E0,9.434351921E0,7.056909800E-1,-5.585073948E0
5.063476422E0,9.443928719E0,6.673837304E-1,-5.661688328E0
5.065964131E0,9.453505516E0,6.242880821E-1,-5.723937511E0
5.068451839E0,9.472659111E0,5.811924338E-1,-5.743091106E0
5.070939547E0,9.491812706E0,5.380968451E-1,-5.786187172E0
5.073427256E0,9.496601105E0,4.902127981E-1,-5.838859558E0
5.075914964E0,9.487024307E0,4.423287511E-1,-5.901108742E0
5.078402672E0,9.472659111E0,3.848679364E-1,-5.929839134E0
5.080890381E0,9.501389503E0,3.417722881E-1,-5.920262337E0
5.083378089E0,9.491812706E0,2.843114436E-1,-5.925050735E0
5.085865797E0,9.501389503E0,2.220622003E-1,-5.905897141E0
5.088353506E0,9.510966301E0,1.789665818E-1,-5.867589951E0
5.090841214E0,9.515754700E0,1.310825497E-1,-5.838859558E0
5.093328922E0,9.506177902E0,8.319851011E-2,-5.819705963E0
5.095816631E0,9.506177902E0,3.531447425E-2,-5.786187172E0
5.098304391E0,9.520543098E0,6.584054790E-3,-5.752667904E0
5.100792152E0,9.525331497E0,-1.256955881E-2,-5.719149113E0
5.103279912E0,9.544485092E0,-1.256955881E-2,-5.623381138E0
5.105767672E0,9.544485092E0,-1.256955881E-2,-5.537189960E0
5.108255433E0,9.539696693E0,-7.781155407E-3,-5.474940777E0
5.110743193E0,9.534908295E0,6.584054790E-3,-5.407903194E0
5.113230954E0,9.510966301E0,2.094926499E-2,-5.336077213E0
5.115718714E0,9.496601105E0,3.531447425E-2,-5.269039154E0
5.118206474E0,9.482235909E0,5.446808785E-2,-5.187636375E0
5.120694235E0,9.448717117E0,5.446808785E-2,-5.101445198E0
5.123181995E0,9.396044731E0,5.925649032E-2,-5.034407616E0
5.125669756E0,9.295488358E0,6.404489279E-2,-4.976946831E0
5.128157516E0,9.209297180E0,5.446808785E-2,-4.929062843E0
5.130645277E0,9.103952408E0,7.362170517E-2,-4.895544052E0
5.133133037E0,9.008183479E0,8.798690885E-2,-4.885967255E0
5.135620797E0,8.936357498E0,1.262941360E-1,-4.881178856E0
5.138108558E0,8.883685112E0,1.789665818E-1,-4.862025261E0
5.140596318E0,8.840589523E0,2.029085904E-1,-4.852448463E0
5.143084079E0,8.783128738E0,2.172738016E-1,-4.842871666E0
5.145571839E0,8.711302757E0,2.029085904E-1,-4.818929672E0
5.148059599E0,8.649053574E0,1.646013707E-1,-4.809352875E0
5.150547360E0,8.582015991E0,1.215057373E-1,-4.780622005E0
5.153035120E0,8.538920403E0,1.071405262E-1,-4.761468410E0
5.155522881E0,8.471882820E0,7.841010392E-2,-4.747103214E0
5.158010641E0,8.447940826E0,8.319851011E-2,-4.723161221E0
5.160498402E0,8.452729225E0,9.756372124E-2,-4.680065632E0
5.162986162E0,8.476671219E0,1.119289324E-1,-4.670488834E0
5.165473922E0,8.500613213E0,1.119289324E-1,-4.646546841E0
5.167961683E0,8.558073997E0,9.756372124E-2,-4.636970043E0
5.170449443E0,8.615534782E0,8.319851011E-2,-4.632181644E0
5.172937204E0,8.682572365E0,3.531447425E-2,-4.603451252E0
5.175424964E0,8.749609947E0,-1.735796221E-2,-4.555567265E0
