"Time (s)","Gyroscope x (rad/s)","Gyroscope y (rad/s)","Gyroscope z (rad/s)"
4.809704700E-2,1.331579592E-2,-1.371526904E-2,-4.141212255E-2
5.058230800E-2,1.438105945E-2,-1.584579609E-2,-4.141212255E-2
5.307064100E-2,1.544632297E-2,-1.797632314E-2,-4.141212255E-2
5.556189100E-2,1.544632297E-2,-1.904158667E-2,-4.354264960E-2
5.805579700E-2,1.438105945E-2,-2.223737910E-2,-4.354264960E-2
6.055204700E-2,1.331579592E-2,-2.543316968E-2,-4.673844203E-2
6.305017200E-2,1.118526794E-2,-2.756369673E-2,-4.886896908E-2
6.554970400E-2,9.054740891E-3,-2.969422378E-2,-5.313002318E-2
6.805012000E-2,6.924213842E-3,-3.289001435E-2,-5.632581562E-2
7.055084900E-2,6.924213842E-3,-3.608580679E-2,-6.058686972E-2
7.304720400E-2,5.858949851E-3,-4.034686089E-2,-6.484792382E-2
7.553496400E-2,4.793686327E-3,-4.247738793E-2,-7.017423958E-2
7.802272400E-2,3.728422802E-3,-4.567318037E-2,-7.337003201E-2
8.051043300E-2,2.663159044E-3,-4.886896908E-2,-7.763108611E-2
8.299814100E-2,2.663159044E-3,-5.206476152E-2,-8.082687855E-2
8.548584900E-2,1.597895520E-3,-5.632581562E-2,-8.402267098E-2
8.797355800E-2,5.326318205E-4,-5.845634267E-2,-8.615319431E-2
9.046126600E-2,5.326318205E-4,-6.165213138E-2,-8.721846342E-2
9.294897400E-2,-5.326318205E-4,-6.271740049E-2,-8.828372508E-2
9.543668300E-2,-1.597895520E-3,-6.378266215E-2,-8.721846342E-2
9.792439100E-2,-2.663159044E-3,-6.484792382E-2,-8.615319431E-2
1.004120990E-1,-3.728422802E-3,-6.378266215E-2,-8.508793265E-2
1.028998080E-1,-4.793686327E-3,-6.165213138E-2,-8.295740932E-2
1.053875160E-1,-6.924213842E-3,-5.952160433E-2,-8.189214021E-2
1.078752240E-1,-1.012000442E-2,-5.845634267E-2,-7.976161689E-2
1.103629330E-1,-1.331579592E-2,-5.739107728E-2,-7.763108611E-2
1.128506410E-1,-1.757685095E-2,-5.739107728E-2,-7.550056279E-2
1.153383490E-1,-2.290316857E-2,-5.845634267E-2,-7.337003201E-2
1.178260580E-1,-2.929474972E-2,-5.845634267E-2,-7.123950869E-2
1.203137660E-1,-3.781685978E-2,-5.952160433E-2,-6.910897791E-2
1.228014740E-1,-4.740423337E-2,-6.058686972E-2,-6.697845459E-2
1.252891830E-1,-5.805686861E-2,-6.165213138E-2,-6.591318548E-2
1.277768910E-1,-7.084003091E-2,-6.271740049E-2,-6.484792382E-2
1.302645990E-1,-8.362319320E-2,-6.484792382E-2,-6.378266215E-2
1.327523080E-1,-9.747162461E-2,-6.804371625E-2,-6.378266215E-2
1.352400160E-1,-1.113200486E-1,-7.123950869E-2,-6.378266215E-2
1.377277240E-1,-1.262337416E-1,-7.443529367E-2,-6.378266215E-2
1.402154330E-1,-1.400821656E-1,-7.869634777E-2,-6.378266215E-2
1.427031410E-1,-1.539305896E-1,-8.295740932E-2,-6.484792382E-2
1.451908490E-1,-1.667137593E-1,-8.721846342E-2,-6.591318548E-2
1.476785580E-1,-1.794969290E-1,-8.934898674E-2,-6.591318548E-2
1.501662660E-1,-1.901495606E-1,-9.254477918E-2,-6.697845459E-2
1.526539740E-1,-2.008021921E-1,-9.361004084E-2,-6.697845459E-2
1.551416830E-1,-2.093243003E-1,-9.467530251E-2,-6.910897791E-2
1.576293910E-1,-2.167811543E-1,-9.467530251E-2,-7.017423958E-2
1.601171520E-1,-2.221074700E-1,-9.467530251E-2,-7.230477035E-2
1.626049120E-1,-2.253032625E-1,-9.361004084E-2,-7.550056279E-2
1.650926720E-1,-2.284990549E-1,-9.254477918E-2,-7.763108611E-2
1.675804330E-1,-2.295643091E-1,-8.934898674E-2,-8.082687855E-2
1.700681930E-1,-2.306295782E-1,-8.615319431E-2,-8.402267098E-2
1.725559540E-1,-2.284990549E-1,-8.295740932E-2,-8.721846342E-2
1.750437140E-1,-2.263685167E-1,-7.976161689E-2,-8.934898674E-2
1.775314740E-1,-2.221074700E-1,-7.550056279E-2,-9.147951752E-2
1.800192350E-1,-2.178464085E-1,-7.230477035E-2,-9.361004084E-2
1.825069950E-1,-2.125200927E-1,-6.910897791E-2,-9.574057162E-2
1.849947560E-1,-2.061285079E-1,-6.697845459E-2,-9.680583328E-2
1.874825160E-1,-1.997369379E-1,-6.484792382E-2,-9.893636405E-2
1.899702770E-1,-1.944106072E-1,-6.484792382E-2,-1.010668874E-1
1.924580370E-1,-1.869537681E-1,-6.484792382E-2,-1.031974182E-1
1.949457970E-1,-1.794969290E-1,-6.591318548E-2,-1.053279415E-1
1.974335580E-1,-1.709748209E-1,-6.804371625E-2,-1.074584723E-1
1.999213180E-1,-1.624527127E-1,-7.123950869E-2,-1.095889956E-1
2.024090790E-1,-1.539305896E-1,-7.443529367E-2,-1.106542572E-1
2.048968390E-1,-1.454084814E-1,-7.976161689E-2,-1.117195264E-1
2.073845990E-1,-1.347558498E-1,-8.295740932E-2,-1.127847880E-1
2.098723600E-1,-1.241032109E-1,-8.721846342E-2,-1.127847880E-1
2.123601200E-1,-1.145158410E-1,-9.041424841E-2,-1.127847880E-1
2.148478810E-1,-1.038632020E-1,-9.361004084E-2,-1.106542572E-1
2.173356410E-1,-9.321057051E-2,-9.574057162E-2,-1.085237339E-1
2.198234020E-1,-8.255793154E-2,-9.893636405E-2,-1.063932031E-1
2.223111620E-1,-7.190529257E-2,-1.010668874E-1,-1.031974182E-1
2.247989220E-1,-6.018739566E-2,-1.031974182E-1,-9.893636405E-2
2.272866830E-1,-4.846949503E-2,-1.042626798E-1,-9.467530251E-2
2.297744430E-1,-3.888212144E-2,-1.063932031E-1,-8.934898674E-2
2.322622040E-1,-2.929474972E-2,-1.063932031E-1,-8.402267098E-2
2.347499640E-1,-1.970737800E-2,-1.074584723E-1,-7.763108611E-2
2.372377240E-1,-1.118526794E-2,-1.074584723E-1,-7.123950869E-2
2.397254850E-1,-2.663159044E-3,-1.063932031E-1,-6.591318548E-2
2.422132450E-1,4.793686327E-3,-1.053279415E-1,-5.952160433E-2
2.447010060E-1,1.225053146E-2,-1.053279415E-1,-5.419528857E-2
2.471887660E-1,1.970737800E-2,-1.053279415E-1,-4.886896908E-2
2.496765270E-1,2.503369562E-2,-1.053279415E-1,-4.460791498E-2
2.521642870E-1,2.929474972E-2,-1.063932031E-1,-4.034686089E-2
2.546520470E-1,3.249054030E-2,-1.063932031E-1,-3.608580679E-2
2.571398080E-1,3.568633273E-2,-1.095889956E-1,-3.395527974E-2
2.596275680E-1,3.675159439E-2,-1.117195264E-1,-3.182475269E-2
2.621153290E-1,3.675159439E-2,-1.159805804E-1,-3.075948730E-2
2.646030890E-1,3.568633273E-2,-1.213068962E-1,-3.075948730E-2
2.670908490E-1,3.355580568E-2,-1.255679578E-1,-3.075948730E-2
2.695786100E-1,3.036001325E-2,-1.308942735E-1,-3.182475269E-2
2.720663700E-1,2.609895915E-2,-1.372858584E-1,-3.289001435E-2
2.745541310E-1,2.183790505E-2,-1.426121742E-1,-3.395527974E-2
2.770428810E-1,1.651158556E-2,-1.490037590E-1,-3.608580679E-2
2.795303290E-1,1.118526794E-2,-1.553953290E-1,-3.928159550E-2
2.820177770E-1,6.924213842E-3,-1.617869139E-1,-4.247738793E-2
2.845052240E-1,1.597895520E-3,-1.681784987E-1,-4.673844203E-2
2.869926720E-1,-1.597895520E-3,-1.735048145E-1,-5.099949613E-2
2.894801200E-1,-3.728422802E-3,-1.788311303E-1,-5.526055023E-2
2.919676200E-1,-5.858949851E-3,-1.830921918E-1,-6.058686972E-2
2.944551720E-1,-7.989477366E-3,-1.862879843E-1,-6.591318548E-2
2.969427770E-1,-9.054740891E-3,-1.884185076E-1,-7.017423958E-2
2.994304330E-1,-9.054740891E-3,-1.905490309E-1,-7.550056279E-2
3.019181410E-1,-9.054740891E-3,-1.916143000E-1,-7.976161689E-2
3.044059020E-1,-1.012000442E-2,-1.916143000E-1,-8.402267098E-2
3.068937140E-1,-9.054740891E-3,-1.916143000E-1,-8.721846342E-2
3.093815790E-1,-7.989477366E-3,-1.916143000E-1,-9.041424841E-2
3.118694950E-1,-6.924213842E-3,-1.905490309E-1,-9.147951752E-2
3.143574640E-1,-4.793686327E-3,-1.894837767E-1,-9.361004084E-2
3.168454330E-1,-2.663159044E-3,-1.894837767E-1,-9.467530251E-2
3.193334020E-1,-1.597895520E-3,-1.894837767E-1,-9.467530251E-2
3.218213700E-1,-5.326318205E-4,-1.873532385E-1,-9.361004084E-2
3.243093390E-1,1.597895520E-3,-1.862879843E-1,-9.254477918E-2
3.267973080E-1,2.663159044E-3,-1.841574460E-1,-9.147951752E-2
3.292852770E-1,3.728422802E-3,-1.830921918E-1,-8.828372508E-2
3.317730890E-1,3.728422802E-3,-1.830921918E-1,-8.615319431E-2
3.342607970E-1,4.793686327E-3,-1.830921918E-1,-8.402267098E-2
3.367485060E-1,5.858949851E-3,-1.830921918E-1,-8.082687855E-2
3.392362140E-1,5.858949851E-3,-1.830921918E-1,-7.763108611E-2
3.417239220E-1,5.858949851E-3,-1.841574460E-1,-7.550056279E-2
3.442116310E-1,4.793686327E-3,-1.841574460E-1,-7.230477035E-2
3.466993390E-1,2.663159044E-3,-1.852227151E-1,-7.017423958E-2
3.491870470E-1,-5.326318205E-4,-1.862879843E-1,-6.697845459E-2
3.516747560E-1,-2.663159044E-3,-1.862879843E-1,-6.484792382E-2
3.541624640E-1,-6.924213842E-3,-1.873532385E-1,-6.271740049E-2
3.566501720E-1,-1.118526794E-2,-1.884185076E-1,-6.058686972E-2
3.591378810E-1,-1.544632297E-2,-1.894837767E-1,-5.845634267E-2
3.616255890E-1,-1.970737800E-2,-1.894837767E-1,-5.632581562E-2
3.641132970E-1,-2.396843210E-2,-1.905490309E-1,-5.526055023E-2
3.666010060E-1,-2.822948620E-2,-1.905490309E-1,-5.419528857E-2
3.690887140E-1,-3.355580568E-2,-1.905490309E-1,-5.313002318E-2
3.715764220E-1,-3.781685978E-2,-1.916143000E-1,-5.206476152E-2
3.740641310E-1,-4.314317927E-2,-1.916143000E-1,-5.206476152E-2
3.765518390E-1,-4.846949503E-2,-1.916143000E-1,-5.206476152E-2
3.790395470E-1,-5.379581451E-2,-1.926795542E-1,-5.206476152E-2
3.815272560E-1,-5.912213027E-2,-1.937448233E-1,-5.419528857E-2
3.840149640E-1,-6.444845349E-2,-1.948100924E-1,-5.526055023E-2
3.865026720E-1,-6.977476925E-2,-1.948100924E-1,-5.632581562E-2
3.889903810E-1,-7.510108501E-2,-1.958753467E-1,-5.739107728E-2
3.914780890E-1,-8.149266988E-2,-1.958753467E-1,-5.845634267E-2
3.939657970E-1,-8.788424730E-2,-1.969406158E-1,-5.952160433E-2
3.964535060E-1,-9.427583218E-2,-1.980058849E-1,-6.165213138E-2
3.989412140E-1,-1.006674170E-1,-1.980058849E-1,-6.271740049E-2
4.014289220E-1,-1.070589945E-1,-1.990711391E-1,-6.484792382E-2
4.039166310E-1,-1.123853177E-1,-2.001364082E-1,-6.697845459E-2
4.064043390E-1,-1.177116334E-1,-2.012016773E-1,-6.804371625E-2
4.088920470E-1,-1.219726875E-1,-2.022669315E-1,-7.017423958E-2
4.113798080E-1,-1.262337416E-1,-2.043974549E-1,-7.123950869E-2
4.138675680E-1,-1.283642650E-1,-2.054627240E-1,-7.337003201E-2
4.163553290E-1,-1.304948032E-1,-2.075932473E-1,-7.550056279E-2
4.188430890E-1,-1.304948032E-1,-2.086585164E-1,-7.550056279E-2
4.213308490E-1,-1.304948032E-1,-2.107890397E-1,-7.550056279E-2
4.238186100E-1,-1.304948032E-1,-2.129195631E-1,-7.443529367E-2
4.263063700E-1,-1.283642650E-1,-2.129195631E-1,-7.443529367E-2
4.287941310E-1,-1.251684725E-1,-2.139848322E-1,-7.230477035E-2
4.312818910E-1,-1.209074259E-1,-2.150501013E-1,-7.123950869E-2
4.337696520E-1,-1.166463718E-1,-2.150501013E-1,-6.804371625E-2
4.362574120E-1,-1.113200486E-1,-2.150501013E-1,-6.484792382E-2
4.387451720E-1,-1.049284711E-1,-2.161153555E-1,-6.165213138E-2
4.412329330E-1,-9.747162461E-2,-2.171806246E-1,-5.739107728E-2
4.437206930E-1,-8.788424730E-2,-2.182458937E-1,-5.313002318E-2
4.462084540E-1,-7.829687744E-2,-2.182458937E-1,-4.780370742E-2
4.486962140E-1,-6.657897681E-2,-2.171806246E-1,-4.247738793E-2
4.511839740E-1,-5.379581451E-2,-2.171806246E-1,-3.715106845E-2
4.536717350E-1,-3.994738683E-2,-2.161153555E-1,-3.182475269E-2
4.561594950E-1,-2.609895915E-2,-2.150501013E-1,-2.543316968E-2
4.586472560E-1,-1.118526794E-2,-2.150501013E-1,-2.010685205E-2
4.611350160E-1,3.728422802E-3,-2.129195631E-1,-1.371526904E-2
4.636227770E-1,1.970737800E-2,-2.118543088E-1,-7.323687430E-3
4.661105370E-1,3.568633273E-2,-2.097237855E-1,-9.321057005E-4
4.685982970E-1,5.166528746E-2,-2.075932473E-1,6.524739787E-3
4.710860580E-1,6.657897681E-2,-2.054627240E-1,1.185105834E-2
4.735738180E-1,8.149266988E-2,-2.022669315E-1,1.930790395E-2
4.760615790E-1,9.640636295E-2,-1.990711391E-1,2.569948509E-2
4.785493390E-1,1.091895252E-1,-1.948100924E-1,3.315633163E-2
4.810370990E-1,1.219726875E-1,-1.916143000E-1,3.954791278E-2
4.835248600E-1,1.326253265E-1,-1.862879843E-1,4.700475931E-2
4.860126200E-1,1.432779580E-1,-1.820269227E-1,5.446160212E-2
4.885003810E-1,1.518000662E-1,-1.767006069E-1,6.191844866E-2
4.909881410E-1,1.603221744E-1,-1.713742912E-1,7.044056058E-2
4.934759020E-1,1.688442826E-1,-1.671132296E-1,7.896266878E-2
4.959636620E-1,1.752358675E-1,-1.628521830E-1,8.855003864E-2
4.984514220E-1,1.816274524E-1,-1.596563905E-1,9.920267761E-2
5.009391830E-1,1.869537681E-1,-1.585911214E-1,1.098553166E-1
5.034269430E-1,1.922800839E-1,-1.564605981E-1,1.215732098E-1
5.059147040E-1,1.965411454E-1,-1.564605981E-1,1.322258562E-1
5.084024640E-1,1.986716688E-1,-1.575258672E-1,1.450090110E-1
5.108902240E-1,2.018674612E-1,-1.596563905E-1,1.577921808E-1
5.133779850E-1,2.039979845E-1,-1.607216448E-1,1.705753356E-1
5.158657450E-1,2.061285079E-1,-1.617869139E-1,1.833585054E-1
5.183535060E-1,2.071937770E-1,-1.639174372E-1,1.961416751E-1
5.208412660E-1,2.071937770E-1,-1.649827063E-1,2.078595608E-1
5.233290270E-1,2.061285079E-1,-1.660479754E-1,2.195774615E-1
5.258167870E-1,2.061285079E-1,-1.671132296E-1,2.291648388E-1
5.283045470E-1,2.050632536E-1,-1.671132296E-1,2.398174703E-1
5.307923080E-1,2.050632536E-1,-1.660479754E-1,2.494048476E-1
5.332800680E-1,2.039979845E-1,-1.649827063E-1,2.579269707E-1
5.357678290E-1,2.039979845E-1,-1.649827063E-1,2.653838098E-1
5.382555890E-1,2.050632536E-1,-1.628521830E-1,2.728406489E-1
5.407433490E-1,2.061285079E-1,-1.607216448E-1,2.792322338E-1
5.432311100E-1,2.082590461E-1,-1.575258672E-1,2.834932804E-1
5.457188700E-1,2.114548385E-1,-1.543300748E-1,2.866890728E-1
5.482066310E-1,2.146506310E-1,-1.490037590E-1,2.898848653E-1
5.506943910E-1,2.178464085E-1,-1.426121742E-1,2.920154035E-1
5.531821520E-1,2.210422009E-1,-1.351553202E-1,2.930806577E-1
5.556699120E-1,2.253032625E-1,-1.266332120E-1,2.930806577E-1
5.581576720E-1,2.295643091E-1,-1.170458421E-1,2.941459119E-1
5.606454330E-1,2.338253707E-1,-1.095889956E-1,2.941459119E-1
5.631331930E-1,2.380864173E-1,-1.010668874E-1,2.930806577E-1
5.656209540E-1,2.434127480E-1,-9.361004084E-2,2.898848653E-1
5.681087140E-1,2.476737946E-1,-8.721846342E-2,2.856238186E-1
5.705964740E-1,2.530001104E-1,-8.295740932E-2,2.824280262E-1
5.730842350E-1,2.572611570E-1,-7.869634777E-2,2.781669796E-1
5.755719950E-1,2.615222335E-1,-7.763108611E-2,2.739059031E-1
5.780597560E-1,2.647180259E-1,-7.550056279E-2,2.675143182E-1
5.805475160E-1,2.679138184E-1,-7.656582445E-2,2.600574791E-1
5.830352770E-1,2.700443268E-1,-7.763108611E-2,2.536658943E-1
5.855230370E-1,2.732401192E-1,-7.869634777E-2,2.472743243E-1
5.880107970E-1,2.743053734E-1,-7.976161689E-2,2.408827394E-1
5.904985580E-1,2.764359117E-1,-8.082687855E-2,2.355564237E-1
5.929863180E-1,2.785664499E-1,-8.082687855E-2,2.302301079E-1
5.954740790E-1,2.806969583E-1,-8.082687855E-2,2.259690464E-1
5.979618390E-1,2.828274965E-1,-7.763108611E-2,2.217079997E-1
6.004495990E-1,2.860232890E-1,-7.443529367E-2,2.174469382E-1
6.029373600E-1,2.892190814E-1,-6.910897791E-2,2.142511457E-1
6.054251200E-1,2.934801280E-1,-6.378266215E-2,2.110553533E-1
6.079128810E-1,2.966759205E-1,-5.526055023E-2,2.110553533E-1
6.104006410E-1,2.998717129E-1,-4.460791498E-2,2.099900991E-1
6.128884020E-1,3.041327596E-1,-3.289001435E-2,2.110553533E-1
6.153761620E-1,3.094590902E-1,-2.010685205E-2,2.110553533E-1
6.178639220E-1,3.126548827E-1,-6.258423906E-3,2.131858915E-1
6.203516830E-1,3.169159293E-1,8.655266836E-3,2.153164148E-1
6.228394430E-1,3.201117218E-1,2.356895804E-2,2.174469382E-1
6.253272040E-1,3.233075142E-1,3.954791278E-2,2.195774615E-1
6.278149640E-1,3.265033066E-1,5.659212917E-2,2.217079997E-1
6.303027240E-1,3.286338449E-1,7.363634557E-2,2.249037921E-1
6.327904850E-1,3.286338449E-1,9.174583107E-2,2.270343155E-1
6.352782450E-1,3.286338449E-1,1.087900475E-1,2.291648388E-1
6.377660060E-1,3.265033066E-1,1.258342713E-1,2.312953621E-1
6.402537660E-1,3.222422600E-1,1.418132186E-1,2.334259003E-1
6.427415270E-1,3.147853911E-1,1.556616426E-1,2.344911546E-1
6.452292870E-1,3.062632978E-1,1.673795432E-1,2.366216928E-1
6.477170470E-1,2.945453823E-1,1.780321896E-1,2.366216928E-1
6.502048080E-1,2.817622423E-1,1.854890287E-1,2.376869470E-1
6.526925680E-1,2.668485343E-1,1.897500902E-1,2.387522161E-1
6.551803290E-1,2.508696020E-1,1.908153445E-1,2.376869470E-1
6.576680890E-1,2.327601016E-1,1.886848211E-1,2.366216928E-1
6.601558490E-1,2.146506310E-1,1.833585054E-1,2.366216928E-1
6.626436100E-1,1.944106072E-1,1.769669205E-1,2.355564237E-1
6.651313700E-1,1.731053442E-1,1.673795432E-1,2.334259003E-1
6.676191310E-1,1.528653353E-1,1.567269117E-1,2.312953621E-1
6.701068910E-1,1.315600574E-1,1.460742801E-1,2.291648388E-1
6.725946520E-1,1.113200486E-1,1.332911104E-1,2.259690464E-1
6.750824120E-1,9.108003974E-2,1.226384789E-1,2.217079997E-1
6.775701720E-1,7.190529257E-2,1.109205782E-1,2.174469382E-1
6.800579330E-1,5.379581451E-2,1.002679393E-1,2.121206224E-1
6.825456930E-1,3.781685978E-2,9.068056941E-2,2.067943066E-1
6.850334540E-1,2.290316857E-2,8.002793044E-2,2.004027218E-1
6.875212140E-1,9.054740891E-3,7.150582224E-2,1.940111369E-1
6.900089740E-1,-2.663159044E-3,6.511423737E-2,1.865542978E-1
6.924967350E-1,-1.118526794E-2,5.765739456E-2,1.801627129E-1
6.949844950E-1,-1.970737800E-2,5.233107507E-2,1.737711281E-1
6.974722560E-1,-2.609895915E-2,4.807002097E-2,1.695100814E-1
6.999600160E-1,-2.929474972E-2,4.380896688E-2,1.652490199E-1
7.024477770E-1,-3.249054030E-2,4.274370521E-2,1.620532274E-1
7.049355370E-1,-3.355580568E-2,4.274370521E-2,1.588574350E-1
7.074232450E-1,-3.249054030E-2,4.380896688E-2,1.567269117E-1
7.099109540E-1,-2.822948620E-2,4.593949392E-2,1.535311192E-1
7.123986620E-1,-2.290316857E-2,5.020054802E-2,1.535311192E-1
7.148863700E-1,-1.651158556E-2,5.552686751E-2,1.514005959E-1
7.173740790E-1,-9.054740891E-3,6.085318699E-2,1.514005959E-1
7.198617870E-1,-5.326318205E-4,6.831002980E-2,1.514005959E-1
7.223494950E-1,1.012000442E-2,7.470161468E-2,1.514005959E-1
7.248372040E-1,2.290316857E-2,8.109319210E-2,1.524658650E-1
7.273249120E-1,3.675159439E-2,8.748477697E-2,1.545963883E-1
7.298126200E-1,5.166528746E-2,9.281109273E-2,1.567269117E-1
7.323003290E-1,6.657897681E-2,9.707214683E-2,1.599227041E-1
7.347880370E-1,8.362319320E-2,1.013332009E-1,1.631184965E-1
7.372757450E-1,1.006674170E-1,1.034637317E-1,1.663142890E-1
7.397634540E-1,1.177116334E-1,1.055942550E-1,1.705753356E-1
7.422511620E-1,1.368863732E-1,1.066595241E-1,1.748363972E-1
7.447388700E-1,1.549958587E-1,1.066595241E-1,1.790974438E-1
7.472265790E-1,1.720400751E-1,1.045289934E-1,1.833585054E-1
7.497142870E-1,1.901495606E-1,1.023984700E-1,1.865542978E-1
7.522019950E-1,2.061285079E-1,9.920267761E-2,1.897500902E-1
7.546897040E-1,2.221074700E-1,9.600688517E-2,1.918806136E-1
7.571774120E-1,2.370211631E-1,9.281109273E-2,1.940111369E-1
7.596651200E-1,2.498043180E-1,8.855003864E-2,1.950764060E-1
7.621528290E-1,2.604569495E-1,8.428898454E-2,1.950764060E-1
7.646405370E-1,2.689790726E-1,7.789740711E-2,1.940111369E-1
7.671282450E-1,2.764359117E-1,6.937529147E-2,1.918806136E-1
7.696159540E-1,2.828274965E-1,5.978792161E-2,1.897500902E-1
7.721036620E-1,2.870885432E-1,4.807002097E-2,1.876195520E-1
7.745913700E-1,2.913496196E-1,3.422159329E-2,1.844237745E-1
7.770800680E-1,2.924148738E-1,1.930790395E-2,1.812279820E-1
7.795680370E-1,2.924148738E-1,2.263685223E-3,1.790974438E-1
7.820557970E-1,2.913496196E-1,-1.478053257E-2,1.759016514E-1
7.845435580E-1,2.881538272E-1,-3.289001435E-2,1.759016514E-1
7.870313180E-1,2.849580348E-1,-5.099949613E-2,1.769669205E-1
7.895190270E-1,2.796317041E-1,-6.804371625E-2,1.780321896E-1
7.920067350E-1,2.743053734E-1,-8.402267098E-2,1.812279820E-1
7.944944430E-1,2.689790726E-1,-9.787109494E-2,1.844237745E-1
7.969821520E-1,2.636527419E-1,-1.095889956E-1,1.876195520E-1
7.994698600E-1,2.593916953E-1,-1.181111038E-1,1.908153445E-1
8.019575680E-1,2.551306486E-1,-1.234374270E-1,1.950764060E-1
8.044452770E-1,2.519348562E-1,-1.266332120E-1,1.993374527E-1
8.069329850E-1,2.487390637E-1,-1.266332120E-1,2.035985142E-1
8.094206930E-1,2.466085255E-1,-1.245026886E-1,2.067943066E-1
8.119084020E-1,2.444780022E-1,-1.202416345E-1,2.110553533E-1
8.143961100E-1,2.444780022E-1,-1.127847880E-1,2.163816839E-1
8.168838180E-1,2.434127480E-1,-1.021321490E-1,2.217079997E-1
8.193715270E-1,2.434127480E-1,-9.041424841E-2,2.259690464E-1
8.218592350E-1,2.434127480E-1,-7.869634777E-2,2.312953621E-1
8.243469430E-1,2.434127480E-1,-6.591318548E-2,2.366216928E-1
8.268346520E-1,2.434127480E-1,-5.419528857E-2,2.430132627E-1
8.293223600E-1,2.423474789E-1,-4.460791498E-2,2.483395934E-1
8.318100680E-1,2.412822098E-1,-3.502054140E-2,2.547311783E-1
8.342977770E-1,2.391516864E-1,-2.543316968E-2,2.600574791E-1
8.367854850E-1,2.338253707E-1,-1.691105962E-2,2.653838098E-1
8.392731930E-1,2.284990549E-1,-1.051947847E-2,2.707101107E-1
8.417609020E-1,2.199769467E-1,-3.062632866E-3,2.760364413E-1
8.442486100E-1,2.103895694E-1,3.328948980E-3,2.802974880E-1
8.467363180E-1,1.986716688E-1,1.078579482E-2,2.834932804E-1
8.492240270E-1,1.848232448E-1,1.717737690E-2,2.866890728E-1
8.517117350E-1,1.709748209E-1,2.463422157E-2,2.898848653E-1
8.541994430E-1,1.539305896E-1,2.996053919E-2,2.909501195E-1
8.566871520E-1,1.358211190E-1,3.635212034E-2,2.909501195E-1
8.591748600E-1,1.155811027E-1,4.167843983E-2,2.888196111E-1
8.616625680E-1,9.534109384E-2,4.593949392E-2,2.866890728E-1
8.641503290E-1,7.510108501E-2,4.807002097E-2,2.834932804E-1
8.666380890E-1,5.273054913E-2,4.807002097E-2,2.792322338E-1
8.691258490E-1,3.036001325E-2,4.487423226E-2,2.739059031E-1
8.716136100E-1,7.989477366E-3,3.954791278E-2,2.675143182E-1
8.741013700E-1,-1.651158556E-2,3.102580272E-2,2.611227632E-1
8.765891310E-1,-3.888212144E-2,2.037316747E-2,2.557964325E-1
8.790768910E-1,-6.231792271E-2,6.524739787E-3,2.494048476E-1
8.815646520E-1,-8.575372398E-2,-8.388951421E-3,2.430132627E-1
8.840524120E-1,-1.070589945E-1,-2.649843320E-2,2.376869470E-1
8.865401720E-1,-1.294295341E-1,-4.460791498E-2,2.323606312E-1
8.890279330E-1,-1.486042738E-1,-6.378266215E-2,2.291648388E-1
8.915156930E-1,-1.677790284E-1,-8.295740932E-2,2.249037921E-1
8.940034540E-1,-1.858884990E-1,-1.010668874E-1,2.227732539E-1
8.964912140E-1,-2.029327303E-1,-1.191763729E-1,2.217079997E-1
8.989789740E-1,-2.178464085E-1,-1.372858584E-1,2.206427306E-1
9.014667350E-1,-2.327601016E-1,-1.532648057E-1,2.206427306E-1
9.039544950E-1,-2.466085255E-1,-1.681784987E-1,2.206427306E-1
9.064422560E-1,-2.583264410E-1,-1.820269227E-1,2.195774615E-1
9.089300160E-1,-2.689790726E-1,-1.948100924E-1,2.195774615E-1
9.114177770E-1,-2.775011659E-1,-2.075932473E-1,2.185122073E-1
9.139055370E-1,-2.870885432E-1,-2.182458937E-1,2.185122073E-1
9.163932970E-1,-2.934801280E-1,-2.267680019E-1,2.174469382E-1
9.188810580E-1,-2.998717129E-1,-2.331595868E-1,2.185122073E-1
9.213688180E-1,-3.030675054E-1,-2.384859025E-1,2.195774615E-1
9.238565790E-1,-3.041327596E-1,-2.416816950E-1,2.217079997E-1
9.263443390E-1,-3.020022511E-1,-2.416816950E-1,2.238385230E-1
9.288320990E-1,-2.966759205E-1,-2.384859025E-1,2.280995846E-1
9.313198600E-1,-2.892190814E-1,-2.352901101E-1,2.323606312E-1
9.338076200E-1,-2.796317041E-1,-2.288985252E-1,2.366216928E-1
9.362953810E-1,-2.679138184E-1,-2.214416862E-1,2.419480085E-1
9.387831410E-1,-2.540653646E-1,-2.139848322E-1,2.483395934E-1
9.412709020E-1,-2.380864173E-1,-2.043974549E-1,2.557964325E-1
9.437586620E-1,-2.199769467E-1,-1.969406158E-1,2.643185556E-1
9.462464220E-1,-2.018674612E-1,-1.884185076E-1,2.739059031E-1
9.487341830E-1,-1.816274524E-1,-1.788311303E-1,2.834932804E-1
9.512219430E-1,-1.613874435E-1,-1.681784987E-1,2.941459119E-1
9.537097040E-1,-1.400821656E-1,-1.564605981E-1,3.047985733E-1
9.561974640E-1,-1.177116334E-1,-1.436774284E-1,3.165164590E-1
9.586852240E-1,-9.534109384E-2,-1.298290044E-1,3.271690905E-1
9.611729850E-1,-7.190529257E-2,-1.149153188E-1,3.388870060E-1
9.636607450E-1,-4.846949503E-2,-1.000016257E-1,3.484743834E-1
9.661485060E-1,-2.503369562E-2,-8.402267098E-2,3.601922691E-1
9.686362660E-1,-1.597895520E-3,-6.910897791E-2,3.687143922E-1
9.711240270E-1,2.183790505E-2,-5.739107728E-2,3.772364855E-1
9.736117870E-1,4.314317927E-2,-4.567318037E-2,3.846933246E-1
9.760995470E-1,6.231792271E-2,-3.608580679E-2,3.910849094E-1
9.785873080E-1,7.829687744E-2,-2.969422378E-2,3.964112401E-1
9.810750680E-1,9.214530140E-2,-2.543316968E-2,4.006722867E-1
9.835628290E-1,1.017326787E-1,-2.436790615E-2,4.038680792E-1
9.860505890E-1,1.091895252E-1,-2.543316968E-2,4.038680792E-1
9.885383490E-1,1.123853177E-1,-2.862896025E-2,4.038680792E-1
9.910261100E-1,1.145158410E-1,-3.502054140E-2,4.006722867E-1
9.935138700E-1,1.123853177E-1,-4.141212255E-2,3.974764943E-1
9.960016310E-1,1.081242561E-1,-5.099949613E-2,3.921501637E-1
9.984893910E-1,1.027979404E-1,-6.058686972E-2,3.857586086E-1
1.000977152E0,9.534109384E-2,-7.017423958E-2,3.772364855E-1
1.003464912E0,8.468846232E-2,-7.976161689E-2,3.676491082E-1
1.005952672E0,7.403582335E-2,-8.934898674E-2,3.580617309E-1
1.008440433E0,6.018739566E-2,-9.893636405E-2,3.463438451E-1
1.010928193E0,4.527370632E-2,-1.074584723E-1,3.346259296E-1
1.013415954E0,2.822948620E-2,-1.149153188E-1,3.218427896E-1
1.015903714E0,1.118526794E-2,-1.234374270E-1,3.090596199E-1
1.018391474E0,-7.989477366E-3,-1.308942735E-1,2.962764502E-1
1.020879235E0,-2.716422267E-2,-1.362205893E-1,2.856238186E-1
1.023366995E0,-4.633896798E-2,-1.404816359E-1,2.739059031E-1
1.025854756E0,-6.657897681E-2,-1.436774284E-1,2.643185556E-1
1.028342516E0,-8.362319320E-2,-1.447426975E-1,2.557964325E-1
1.030830277E0,-1.017326787E-1,-1.436774284E-1,2.472743243E-1
1.033318037E0,-1.177116334E-1,-1.404816359E-1,2.408827394E-1
1.035805797E0,-1.304948032E-1,-1.340900660E-1,2.344911546E-1
1.038293558E0,-1.411474347E-1,-1.245026886E-1,2.291648388E-1
1.040781318E0,-1.507348120E-1,-1.127847880E-1,2.238385230E-1
1.043269079E0,-1.571263820E-1,-9.893636405E-2,2.195774615E-1
1.045756839E0,-1.592569202E-1,-8.402267098E-2,2.153164148E-1
1.048244599E0,-1.592569202E-1,-6.697845459E-2,2.121206224E-1
1.050732360E0,-1.560611278E-1,-4.993423447E-2,2.099900991E-1
1.053220120E0,-1.507348120E-1,-3.182475269E-2,2.078595608E-1
1.055707881E0,-1.432779580E-1,-1.371526904E-2,2.078595608E-1
1.058195641E0,-1.336905807E-1,3.328948980E-3,2.089248300E-1
1.060683402E0,-1.230379492E-1,1.824264042E-2,2.110553533E-1
1.063171162E0,-1.113200486E-1,3.315633163E-2,2.131858915E-1
1.065658922E0,-9.640636295E-2,4.593949392E-2,2.153164148E-1
1.068146683E0,-8.149266988E-2,5.765739456E-2,2.195774615E-1
1.070634443E0,-6.551371515E-2,6.724476814E-2,2.238385230E-1
1.073122204E0,-4.740423337E-2,7.470161468E-2,2.291648388E-1
1.075609964E0,-2.929474972E-2,8.109319210E-2,2.334259003E-1
1.078097724E0,-1.118526794E-2,8.535424620E-2,2.398174703E-1
1.080585485E0,7.989477366E-3,8.641951531E-2,2.451438010E-1
1.083073245E0,2.609895915E-2,8.535424620E-2,2.504701018E-1
1.085561006E0,4.527370632E-2,8.322372288E-2,2.557964325E-1
1.088048766E0,6.338318437E-2,7.896266878E-2,2.611227632E-1
1.090536527E0,7.936213911E-2,7.363634557E-2,2.653838098E-1
1.093024287E0,9.534109384E-2,6.937529147E-2,2.685796022E-1
1.095512047E0,1.081242561E-1,6.511423737E-2,2.717753947E-1
1.097999808E0,1.187768951E-1,6.191844866E-2,2.728406489E-1
1.100487568E0,1.283642650E-1,5.872265995E-2,2.728406489E-1
1.102975329E0,1.347558498E-1,5.659212917E-2,2.728406489E-1
1.105463089E0,1.411474347E-1,5.659212917E-2,2.707101107E-1
1.107950849E0,1.454084814E-1,5.446160212E-2,2.664490640E-1
1.110438610E0,1.496695429E-1,5.233107507E-2,2.611227632E-1
1.112926370E0,1.549958587E-1,5.020054802E-2,2.568616867E-1
1.115414131E0,1.613874435E-1,4.807002097E-2,2.515353858E-1
1.117901891E0,1.677790284E-1,4.487423226E-2,2.472743243E-1
1.120389652E0,1.773663908E-1,4.274370521E-2,2.419480085E-1
1.122877412E0,1.880190372E-1,4.061317816E-2,2.376869470E-1
1.125365172E0,1.997369379E-1,4.061317816E-2,2.334259003E-1
1.127852933E0,2.135853618E-1,4.167843983E-2,2.302301079E-1
1.130340693E0,2.295643091E-1,4.487423226E-2,2.259690464E-1
1.132828454E0,2.476737946E-1,4.807002097E-2,2.227732539E-1
1.135316214E0,2.668485343E-1,5.126581341E-2,2.206427306E-1
1.137803974E0,2.902843356E-1,5.552686751E-2,2.174469382E-1
1.140291735E0,3.147853911E-1,5.872265995E-2,2.174469382E-1
1.142779495E0,3.446127772E-1,6.298371404E-2,2.174469382E-1
1.145267256E0,3.776359558E-1,6.724476814E-2,2.206427306E-1
1.147755016E0,4.127896726E-1,7.150582224E-2,2.259690464E-1
1.150242777E0,4.511391521E-1,7.683213800E-2,2.323606312E-1
1.152730537E0,4.916191697E-1,8.215846121E-2,2.408827394E-1
1.155218297E0,5.342296958E-1,8.535424620E-2,2.504701018E-1
1.157706058E0,5.768402815E-1,9.068056941E-2,2.611227632E-1
1.160193818E0,6.194508076E-1,9.174583107E-2,2.728406489E-1
1.162681579E0,6.599308252E-1,9.281109273E-2,2.856238186E-1
1.165169339E0,6.982803345E-1,9.281109273E-2,2.973417044E-1
1.167657099E0,7.323687673E-1,8.961530030E-2,3.090596199E-1
1.170144860E0,7.621961236E-1,8.748477697E-2,3.207775056E-1
1.172632620E0,7.888277173E-1,8.322372288E-2,3.303648829E-1
1.175120381E0,8.101329803E-1,8.002793044E-2,3.399522603E-1
1.177608141E0,8.261119723E-1,7.683213800E-2,3.474090993E-1
1.180095902E0,8.378298283E-1,7.470161468E-2,3.548659384E-1
1.182583662E0,8.431561589E-1,7.257108390E-2,3.601922691E-1
1.185071422E0,8.442214131E-1,6.937529147E-2,3.644533157E-1
1.187559183E0,8.399603963E-1,6.511423737E-2,3.655185997E-1
1.190046943E0,8.303729892E-1,5.978792161E-2,3.644533157E-1
1.192534704E0,8.133288026E-1,5.339634046E-2,3.601922691E-1
1.195022464E0,7.909582257E-1,4.487423226E-2,3.527354300E-1
1.197510224E0,7.632613778E-1,3.635212034E-2,3.420827985E-1
1.199997985E0,7.313035131E-1,2.676474862E-2,3.282343447E-1
1.202485745E0,6.940192580E-1,1.824264042E-2,3.133206666E-1
1.204973506E0,6.535392404E-1,9.720530361E-3,2.952111959E-1
1.207461266E0,6.119939685E-1,3.328948980E-3,2.771016955E-1
1.209949027E0,5.672528744E-1,-3.062632866E-3,2.568616867E-1
1.212436787E0,5.225118399E-1,-7.323687430E-3,2.355564237E-1
1.214924547E0,4.767054915E-1,-8.388951421E-3,2.153164148E-1
1.217412308E0,4.319643974E-1,-6.258423906E-3,1.940111369E-1
1.219900068E0,3.872233331E-1,-9.321057005E-4,1.737711281E-1
1.222387829E0,3.456780612E-1,6.524739787E-3,1.524658650E-1
1.224875589E0,3.041327596E-1,1.717737690E-2,1.322258562E-1
1.227363349E0,2.647180259E-1,2.889527567E-2,1.130511016E-1
1.229851110E0,2.284990549E-1,4.380896688E-2,9.387636185E-2
1.232338870E0,1.944106072E-1,5.978792161E-2,7.683213800E-2
1.234826631E0,1.635179669E-1,7.789740711E-2,5.978792161E-2
1.237314391E0,1.358211190E-1,9.600688517E-2,4.380896688E-2
1.239802152E0,1.102547869E-1,1.141163707E-1,2.889527567E-2
1.242289912E0,8.788424730E-2,1.322258562E-1,1.504684892E-2
1.244777672E0,6.870950758E-2,1.492700726E-1,1.198421582E-3
1.247265433E0,5.273054913E-2,1.663142890E-1,-1.158474199E-2
1.249753193E0,3.994738683E-2,1.801627129E-1,-2.330264263E-2
1.252240954E0,2.822948620E-2,1.940111369E-1,-3.395527974E-2
1.254728714E0,1.970737800E-2,2.067943066E-1,-4.460791498E-2
1.257216474E0,1.331579592E-2,2.163816839E-1,-5.419528857E-2
1.259704235E0,7.989477366E-3,2.270343155E-1,-6.378266215E-2
1.262191995E0,4.793686327E-3,2.355564237E-1,-7.123950869E-2
1.264679756E0,1.597895520E-3,2.440785319E-1,-7.763108611E-2
1.267167516E0,-5.326318205E-4,2.515353858E-1,-8.295740932E-2
1.269655277E0,-2.663159044E-3,2.557964325E-1,-8.828372508E-2
1.272143037E0,-2.663159044E-3,2.589922249E-1,-9.254477918E-2
1.274630797E0,-1.597895520E-3,2.568616867E-1,-9.574057162E-2
1.277119339E0,-5.326318205E-4,2.547311783E-1,-9.893636405E-2
1.279606422E0,1.597895520E-3,2.494048476E-1,-1.000016257E-1
1.282093506E0,4.793686327E-3,2.430132627E-1,-1.021321490E-1
1.284580641E0,9.054740891E-3,2.366216928E-1,-1.031974182E-1
1.287067829E0,1.438105945E-2,2.302301079E-1,-1.053279415E-1
1.289555068E0,2.077264152E-2,2.238385230E-1,-1.063932031E-1
1.292042412E0,2.822948620E-2,2.174469382E-1,-1.063932031E-1
1.294529860E0,3.675159439E-2,2.121206224E-1,-1.063932031E-1
1.297017412E0,4.740423337E-2,2.067943066E-1,-1.063932031E-1
1.299505068E0,5.805686861E-2,2.025332451E-1,-1.074584723E-1
1.301992829E0,6.870950758E-2,1.972069293E-1,-1.074584723E-1
1.304480693E0,8.149266988E-2,1.918806136E-1,-1.063932031E-1
1.306968662E0,9.214530140E-2,1.865542978E-1,-1.053279415E-1
1.309456735E0,1.038632020E-1,1.801627129E-1,-1.031974182E-1
1.311944860E0,1.145158410E-1,1.737711281E-1,-1.021321490E-1
1.314433037E0,1.262337416E-1,1.663142890E-1,-1.000016257E-1
1.316921266E0,1.368863732E-1,1.588574350E-1,-9.574057162E-2
1.319409495E0,1.464737505E-1,1.514005959E-1,-9.254477918E-2
1.321897724E0,1.581916511E-1,1.428784877E-1,-8.828372508E-2
1.324385954E0,1.688442826E-1,1.332911104E-1,-8.402267098E-2
1.326873766E0,1.816274524E-1,1.247690022E-1,-8.189214021E-2
1.329361474E0,1.944106072E-1,1.162468940E-1,-7.656582445E-2
1.331849183E0,2.114548385E-1,1.066595241E-1,-7.337003201E-2
1.334336891E0,2.284990549E-1,9.813741595E-2,-6.910897791E-2
1.336824599E0,2.476737946E-1,8.961530030E-2,-6.378266215E-2
1.339312308E0,2.689790726E-1,8.215846121E-2,-5.952160433E-2
1.341800016E0,2.934801280E-1,7.470161468E-2,-5.419528857E-2
1.344287724E0,3.201117218E-1,7.044056058E-2,-4.886896908E-2
1.346775433E0,3.478085697E-1,6.724476814E-2,-4.247738793E-2
1.349263141E0,3.776359558E-1,6.617950648E-2,-3.608580679E-2
1.351750849E0,4.063980877E-1,6.724476814E-2,-3.075948730E-2
1.354238558E0,4.362254739E-1,6.937529147E-2,-2.543316968E-2
1.356726266E0,4.660528302E-1,7.150582224E-2,-2.010685205E-2
1.359213974E0,4.958802164E-1,7.470161468E-2,-1.478053257E-2
1.361701683E0,5.257076025E-1,7.896266878E-2,-1.051947847E-2
1.364189391E0,5.523391962E-1,8.215846121E-2,-5.193160381E-3
1.366677099E0,5.779055357E-1,8.428898454E-2,-9.321057005E-4
1.369164808E0,6.013413072E-1,8.748477697E-2,2.263685223E-3
1.371652516E0,6.205160618E-1,9.068056941E-2,4.394212738E-3
1.374140224E0,6.354297400E-1,9.387636185E-2,6.524739787E-3
1.376627933E0,6.471476555E-1,9.813741595E-2,7.590003312E-3
1.379115641E0,6.535392404E-1,1.023984700E-1,7.590003312E-3
1.381603349E0,6.567350626E-1,1.066595241E-1,6.524739787E-3
1.384091058E0,6.535392404E-1,1.098553166E-1,5.459476262E-3
1.386578766E0,6.471476555E-1,1.141163707E-1,2.263685223E-3
1.389066474E0,6.364950538E-1,1.162468940E-1,1.331579551E-4
1.391554183E0,6.205160618E-1,1.173121557E-1,-3.062632866E-3
1.394041891E0,6.013413072E-1,1.173121557E-1,-6.258423906E-3
1.396529652E0,5.789707899E-1,1.183774248E-1,-9.454214945E-3
1.399017412E0,5.534044504E-1,1.183774248E-1,-1.265000552E-2
1.401505172E0,5.235770941E-1,1.194426864E-1,-1.584579609E-2
1.403992933E0,4.894886315E-1,1.205079481E-1,-1.797632314E-2
1.406480693E0,4.543349445E-1,1.205079481E-1,-2.117211558E-2
1.408968454E0,4.159854650E-1,1.194426864E-1,-2.436790615E-2
1.411456787E0,3.765707016E-1,1.173121557E-1,-2.649843320E-2
1.413945120E0,3.371559381E-1,1.151816323E-1,-2.969422378E-2
1.416432933E0,2.966759205E-1,1.119858399E-1,-3.289001435E-2
1.418920693E0,2.561959028E-1,1.087900475E-1,-3.608580679E-2
1.421408454E0,2.167811543E-1,1.055942550E-1,-3.928159550E-2
1.423896214E0,1.773663908E-1,1.034637317E-1,-4.141212255E-2
1.426383974E0,1.390169114E-1,1.023984700E-1,-4.567318037E-2
1.428871683E0,1.017326787E-1,1.013332009E-1,-4.993423447E-2
1.431359391E0,6.657897681E-2,1.013332009E-1,-5.419528857E-2
1.433847099E0,3.355580568E-2,1.002679393E-1,-6.058686972E-2
1.436334808E0,3.728422802E-3,9.920267761E-2,-6.591318548E-2
1.438822516E0,-2.290316857E-2,9.813741595E-2,-7.337003201E-2
1.441310224E0,-4.846949503E-2,9.600688517E-2,-7.976161689E-2
1.443797933E0,-6.977476925E-2,9.387636185E-2,-8.721846342E-2
1.446285641E0,-8.788424730E-2,9.174583107E-2,-9.467530251E-2
1.448773349E0,-1.038632020E-1,8.748477697E-2,-1.010668874E-1
1.451261422E0,-1.177116334E-1,8.215846121E-2,-1.074584723E-1
1.453749235E0,-1.294295341E-1,7.576687634E-2,-1.127847880E-1
1.456236995E0,-1.379516423E-1,6.831002980E-2,-1.170458421E-1
1.458724756E0,-1.432779580E-1,5.978792161E-2,-1.202416345E-1
1.461212516E0,-1.486042738E-1,5.126581341E-2,-1.223721579E-1
1.463700277E0,-1.496695429E-1,4.380896688E-2,-1.223721579E-1
1.466188037E0,-1.496695429E-1,3.741738573E-2,-1.213068962E-1
1.468675797E0,-1.475390196E-1,3.315633163E-2,-1.202416345E-1
1.471163558E0,-1.422126889E-1,3.209106624E-2,-1.170458421E-1
1.473651318E0,-1.347558498E-1,3.209106624E-2,-1.127847880E-1
1.476139027E0,-1.251684725E-1,3.315633163E-2,-1.074584723E-1
1.478626735E0,-1.134505793E-1,3.528685868E-2,-1.021321490E-1
1.481114443E0,-9.960214794E-2,3.741738573E-2,-9.680583328E-2
1.483602152E0,-8.362319320E-2,4.061317816E-2,-8.934898674E-2
1.486089860E0,-6.657897681E-2,4.380896688E-2,-8.189214021E-2
1.488577568E0,-4.633896798E-2,4.700475931E-2,-7.443529367E-2
1.491065277E0,-2.822948620E-2,5.020054802E-2,-6.697845459E-2
1.493552985E0,-7.989477366E-3,5.233107507E-2,-5.952160433E-2
1.496040693E0,1.012000442E-2,5.552686751E-2,-5.206476152E-2
1.498528402E0,2.822948620E-2,5.872265995E-2,-4.460791498E-2
1.501016110E0,4.633896798E-2,6.085318699E-2,-3.715106845E-2
1.503503818E0,6.231792271E-2,6.404897571E-2,-3.182475269E-2
1.505991527E0,7.723161578E-2,6.724476814E-2,-2.543316968E-2
1.508479235E0,9.001477808E-2,7.044056058E-2,-2.010685205E-2
1.510966943E0,9.960214794E-2,7.257108390E-2,-1.478053257E-2
1.513454652E0,1.081242561E-1,7.576687634E-2,-1.158474199E-2
1.515942360E0,1.145158410E-1,7.789740711E-2,-8.388951421E-3
1.518430068E0,1.177116334E-1,7.789740711E-2,-6.258423906E-3
1.520917777E0,1.187768951E-1,7.576687634E-2,-5.193160381E-3
1.523405485E0,1.166463718E-1,7.363634557E-2,-6.258423906E-3
1.525893193E0,1.123853177E-1,6.831002980E-2,-7.323687430E-3
1.528380902E0,1.049284711E-1,6.191844866E-2,-9.454214945E-3
1.530868610E0,9.640636295E-2,5.233107507E-2,-1.265000552E-2
1.533356318E0,8.468846232E-2,4.061317816E-2,-1.797632314E-2
1.535844027E0,7.084003091E-2,2.783001214E-2,-2.543316968E-2
1.538331735E0,5.486107618E-2,1.291632187E-2,-3.289001435E-2
1.540819443E0,3.675159439E-2,-3.062632866E-3,-3.928159550E-2
1.543307204E0,1.757685095E-2,-2.010685205E-2,-4.780370742E-2
1.545794964E0,-1.597895520E-3,-3.608580679E-2,-5.526055023E-2
1.548282724E0,-2.183790505E-2,-5.206476152E-2,-6.271740049E-2
1.550770485E0,-4.207791388E-2,-6.697845459E-2,-7.017423958E-2
1.553258245E0,-6.338318437E-2,-8.189214021E-2,-7.763108611E-2
1.555746006E0,-8.255793154E-2,-9.574057162E-2,-8.402267098E-2
1.558233766E0,-1.006674170E-1,-1.106542572E-1,-9.041424841E-2
1.560721527E0,-1.177116334E-1,-1.245026886E-1,-9.574057162E-2
1.563209287E0,-1.326253265E-1,-1.383511126E-1,-1.000016257E-1
1.565697047E0,-1.443432271E-1,-1.500690132E-1,-1.053279415E-1
1.568184808E0,-1.560611278E-1,-1.607216448E-1,-1.085237339E-1
1.570672568E0,-1.645832360E-1,-1.692437679E-1,-1.106542572E-1
1.573160329E0,-1.699095517E-1,-1.767006069E-1,-1.117195264E-1
1.575648089E0,-1.731053442E-1,-1.820269227E-1,-1.106542572E-1
1.578135849E0,-1.741705984E-1,-1.841574460E-1,-1.085237339E-1
1.580623610E0,-1.731053442E-1,-1.841574460E-1,-1.053279415E-1
1.583111370E0,-1.688442826E-1,-1.809616536E-1,-1.010668874E-1
1.585599131E0,-1.635179669E-1,-1.735048145E-1,-9.574057162E-2
1.588086891E0,-1.560611278E-1,-1.639174372E-1,-9.041424841E-2
1.590574652E0,-1.464737505E-1,-1.521995366E-1,-8.295740932E-2
1.593062412E0,-1.347558498E-1,-1.383511126E-1,-7.763108611E-2
1.595550172E0,-1.241032109E-1,-1.223721579E-1,-7.017423958E-2
1.598037933E0,-1.123853177E-1,-1.053279415E-1,-6.271740049E-2
1.600525693E0,-9.853688627E-2,-8.721846342E-2,-5.419528857E-2
1.603013454E0,-8.575372398E-2,-7.017423958E-2,-4.460791498E-2
1.605501214E0,-7.084003091E-2,-5.419528857E-2,-3.502054140E-2
1.607988974E0,-5.699160323E-2,-3.928159550E-2,-2.649843320E-2
1.610476735E0,-4.314317927E-2,-2.436790615E-2,-1.691105962E-2
1.612964495E0,-2.929474972E-2,-1.158474199E-2,-8.388951421E-3
1.615452256E0,-1.651158556E-2,-9.321057005E-4,1.331579551E-4
1.617940016E0,-3.728422802E-3,8.655266836E-3,8.655266836E-3
1.620427777E0,9.054740891E-3,1.717737690E-2,1.611211337E-2
1.622915537E0,2.077264152E-2,2.463422157E-2,2.250369452E-2
1.625403297E0,3.142527863E-2,3.102580272E-2,2.783001214E-2
1.627891058E0,4.207791388E-2,3.528685868E-2,3.209106624E-2
1.630378818E0,5.060002208E-2,3.848264739E-2,3.528685868E-2
1.632866579E0,5.805686861E-2,4.061317816E-2,3.635212034E-2
1.635354339E0,6.338318437E-2,4.061317816E-2,3.528685868E-2
1.637842099E0,6.551371515E-2,3.848264739E-2,3.209106624E-2
1.640329860E0,6.551371515E-2,3.422159329E-2,2.676474862E-2
1.642817620E0,6.231792271E-2,2.889527567E-2,2.037316747E-2
1.645305381E0,5.592634156E-2,1.930790395E-2,1.185105834E-2
1.647793141E0,4.527370632E-2,8.655266836E-3,1.198421582E-3
1.650280902E0,3.249054030E-2,-4.127896391E-3,-1.051947847E-2
1.652768662E0,1.544632297E-2,-1.797632314E-2,-2.330264263E-2
1.655256422E0,-5.858949851E-3,-3.289001435E-2,-3.608580679E-2
1.657744183E0,-2.822948620E-2,-4.673844203E-2,-4.780370742E-2
1.660231943E0,-5.486107618E-2,-6.165213138E-2,-5.952160433E-2
1.662719704E0,-8.255793154E-2,-7.656582445E-2,-7.017423958E-2
1.665207464E0,-1.113200486E-1,-9.041424841E-2,-7.869634777E-2
1.667695224E0,-1.400821656E-1,-1.042626798E-1,-8.828372508E-2
1.670182985E0,-1.688442826E-1,-1.170458421E-1,-9.574057162E-2
1.672670745E0,-1.976063997E-1,-1.287637353E-1,-1.031974182E-1
1.675158506E0,-2.242379934E-1,-1.383511126E-1,-1.095889956E-1
1.677646266E0,-2.508696020E-1,-1.468732208E-1,-1.159805804E-1
1.680134027E0,-2.743053734E-1,-1.521995366E-1,-1.202416345E-1
1.682621787E0,-2.966759205E-1,-1.553953290E-1,-1.245026886E-1
1.685109547E0,-3.158506751E-1,-1.585911214E-1,-1.266332120E-1
1.687597308E0,-3.328948915E-1,-1.585911214E-1,-1.287637353E-1
1.690085068E0,-3.467433155E-1,-1.553953290E-1,-1.287637353E-1
1.692572829E0,-3.573959470E-1,-1.500690132E-1,-1.276984811E-1
1.695060589E0,-3.637875319E-1,-1.426121742E-1,-1.245026886E-1
1.697548349E0,-3.680485785E-1,-1.330247968E-1,-1.223721579E-1
1.700036110E0,-3.680485785E-1,-1.223721579E-1,-1.181111038E-1
1.702523870E0,-3.659180701E-1,-1.085237339E-1,-1.138500497E-1
1.705011631E0,-3.605917394E-1,-9.467530251E-2,-1.085237339E-1
1.707499391E0,-3.520696461E-1,-8.189214021E-2,-1.021321490E-1
1.709987152E0,-3.414169848E-1,-6.804371625E-2,-9.574057162E-2
1.712474912E0,-3.286338449E-1,-5.526055023E-2,-8.721846342E-2
1.714962672E0,-3.147853911E-1,-4.247738793E-2,-7.976161689E-2
1.717450433E0,-3.009369671E-1,-3.075948730E-2,-7.230477035E-2
1.719938193E0,-2.870885432E-1,-1.797632314E-2,-6.484792382E-2
1.722425954E0,-2.732401192E-1,-6.258423906E-3,-5.845634267E-2
1.724913714E0,-2.615222335E-1,4.394212738E-3,-5.206476152E-2
1.727401474E0,-2.498043180E-1,1.291632187E-2,-4.780370742E-2
1.729889235E0,-2.391516864E-1,2.143843099E-2,-4.460791498E-2
1.732376995E0,-2.306295782E-1,2.676474862E-2,-4.247738793E-2
1.734864756E0,-2.210422009E-1,2.996053919E-2,-4.141212255E-2
1.737352516E0,-2.135853618E-1,3.102580272E-2,-4.141212255E-2
1.739840277E0,-2.071937770E-1,2.889527567E-2,-4.247738793E-2
1.742328037E0,-2.018674612E-1,2.569948509E-2,-4.567318037E-2
1.744815797E0,-1.965411454E-1,2.037316747E-2,-4.886896908E-2
1.747303558E0,-1.912148297E-1,1.398158539E-2,-5.206476152E-2
1.749791318E0,-1.880190372E-1,6.524739787E-3,-5.632581562E-2
1.752279079E0,-1.848232448E-1,-1.997369342E-3,-5.952160433E-2
1.754766839E0,-1.805621833E-1,-9.454214945E-3,-6.271740049E-2
1.757254599E0,-1.784316599E-1,-1.691105962E-2,-6.697845459E-2
1.759742360E0,-1.752358675E-1,-2.330264263E-2,-7.017423958E-2
1.762230120E0,-1.731053442E-1,-2.862896025E-2,-7.443529367E-2
1.764717881E0,-1.709748209E-1,-3.289001435E-2,-7.763108611E-2
1.767205641E0,-1.699095517E-1,-3.608580679E-2,-8.082687855E-2
1.769693402E0,-1.677790284E-1,-3.821633384E-2,-8.189214021E-2
1.772181162E0,-1.677790284E-1,-4.034686089E-2,-8.402267098E-2
1.774668922E0,-1.688442826E-1,-4.034686089E-2,-8.508793265E-2
1.777157256E0,-1.709748209E-1,-3.928159550E-2,-8.508793265E-2
1.779645224E0,-1.763011366E-1,-3.715106845E-2,-8.508793265E-2
1.782132985E0,-1.837579757E-1,-3.395527974E-2,-8.402267098E-2
1.784620745E0,-1.933453530E-1,-3.075948730E-2,-8.189214021E-2
1.787108506E0,-2.050632536E-1,-2.756369673E-2,-8.189214021E-2
1.789596266E0,-2.199769467E-1,-2.543316968E-2,-8.082687855E-2
1.792084027E0,-2.380864173E-1,-2.436790615E-2,-7.976161689E-2
1.794571787E0,-2.572611570E-1,-2.543316968E-2,-7.976161689E-2
1.797059547E0,-2.785664499E-1,-2.756369673E-2,-7.976161689E-2
1.799547256E0,-2.988064587E-1,-3.075948730E-2,-7.976161689E-2
1.802034964E0,-3.201117218E-1,-3.395527974E-2,-8.082687855E-2
1.804522672E0,-3.403517306E-1,-3.928159550E-2,-8.082687855E-2
1.807010381E0,-3.595264852E-1,-4.354264960E-2,-8.082687855E-2
1.809498089E0,-3.755054474E-1,-4.780370742E-2,-8.189214021E-2
1.811985797E0,-3.893538713E-1,-5.206476152E-2,-8.295740932E-2
1.814473506E0,-4.010717571E-1,-5.632581562E-2,-8.402267098E-2
1.816961214E0,-4.074633420E-1,-5.952160433E-2,-8.615319431E-2
1.819448922E0,-4.117243886E-1,-6.271740049E-2,-8.828372508E-2
1.821936631E0,-4.117243886E-1,-6.591318548E-2,-9.041424841E-2
1.824424339E0,-4.074633420E-1,-6.910897791E-2,-9.361004084E-2
1.826912047E0,-3.978759646E-1,-7.123950869E-2,-9.574057162E-2
1.829399756E0,-3.840275407E-1,-7.230477035E-2,-9.787109494E-2
1.831887464E0,-3.659180701E-1,-7.337003201E-2,-1.000016257E-1
1.834375172E0,-3.435475230E-1,-7.337003201E-2,-1.021321490E-1
1.836862881E0,-3.190464675E-1,-7.230477035E-2,-1.031974182E-1
1.839350589E0,-2.902843356E-1,-7.123950869E-2,-1.031974182E-1
1.841838297E0,-2.593916953E-1,-6.910897791E-2,-1.031974182E-1
1.844326006E0,-2.253032625E-1,-6.804371625E-2,-1.010668874E-1
1.846813714E0,-1.922800839E-1,-6.591318548E-2,-9.893636405E-2
1.849301422E0,-1.581916511E-1,-6.484792382E-2,-9.680583328E-2
1.851789131E0,-1.241032109E-1,-6.484792382E-2,-9.361004084E-2
1.854276839E0,-9.108003974E-2,-6.591318548E-2,-9.041424841E-2
1.856764547E0,-6.125266105E-2,-6.697845459E-2,-8.615319431E-2
1.859252256E0,-3.355580568E-2,-6.804371625E-2,-8.082687855E-2
1.861739964E0,-9.054740891E-3,-7.017423958E-2,-7.656582445E-2
1.864227672E0,1.118526794E-2,-7.017423958E-2,-7.017423958E-2
1.866715433E0,2.716422267E-2,-7.017423958E-2,-6.378266215E-2
1.869203193E0,3.994738683E-2,-6.910897791E-2,-5.739107728E-2
1.871690954E0,5.060002208E-2,-6.804371625E-2,-5.206476152E-2
1.874178714E0,5.592634156E-2,-6.697845459E-2,-4.673844203E-2
1.876666474E0,5.912213027E-2,-6.591318548E-2,-4.247738793E-2
1.879154235E0,5.805686861E-2,-6.378266215E-2,-3.821633384E-2
1.881641995E0,5.486107618E-2,-6.378266215E-2,-3.608580679E-2
1.884129756E0,4.953476042E-2,-6.271740049E-2,-3.395527974E-2
1.886617516E0,4.207791388E-2,-6.271740049E-2,-3.182475269E-2
1.889105277E0,3.142527863E-2,-6.378266215E-2,-3.075948730E-2
1.891593037E0,2.077264152E-2,-6.378266215E-2,-2.969422378E-2
1.894080797E0,9.054740891E-3,-6.484792382E-2,-2.862896025E-2
1.896568558E0,-3.728422802E-3,-6.591318548E-2,-3.075948730E-2
1.899056318E0,-1.438105945E-2,-6.804371625E-2,-3.182475269E-2
1.901544079E0,-2.609895915E-2,-7.017423958E-2,-3.502054140E-2
1.904031839E0,-3.675159439E-2,-7.230477035E-2,-3.715106845E-2
1.906519599E0,-4.420844093E-2,-7.443529367E-2,-4.034686089E-2
1.909007360E0,-5.166528746E-2,-7.656582445E-2,-4.460791498E-2
1.911495120E0,-5.699160323E-2,-7.869634777E-2,-4.886896908E-2
1.913982881E0,-6.018739566E-2,-8.189214021E-2,-5.206476152E-2
1.916470641E0,-6.231792271E-2,-8.402267098E-2,-5.632581562E-2
1.918958402E0,-6.125266105E-2,-8.721846342E-2,-5.845634267E-2
1.921446162E0,-6.018739566E-2,-8.828372508E-2,-6.058686972E-2
1.923933922E0,-5.379581451E-2,-8.934898674E-2,-6.271740049E-2
1.926421683E0,-4.740423337E-2,-9.041424841E-2,-6.378266215E-2
1.928909443E0,-3.888212144E-2,-9.041424841E-2,-6.378266215E-2
1.931397204E0,-2.822948620E-2,-8.934898674E-2,-6.378266215E-2
1.933884964E0,-1.757685095E-2,-8.828372508E-2,-6.378266215E-2
1.936372724E0,-4.793686327E-3,-8.721846342E-2,-6.271740049E-2
1.938860485E0,7.989477366E-3,-8.508793265E-2,-6.271740049E-2
1.941348245E0,2.077264152E-2,-8.295740932E-2,-6.165213138E-2
1.943836006E0,3.462106735E-2,-8.082687855E-2,-5.952160433E-2
1.946323766E0,4.740423337E-2,-7.976161689E-2,-5.739107728E-2
1.948811527E0,6.125266105E-2,-7.763108611E-2,-5.526055023E-2
1.951299287E0,7.403582335E-2,-7.656582445E-2,-5.206476152E-2
1.953787047E0,8.681898564E-2,-7.337003201E-2,-4.780370742E-2
1.956274808E0,9.960214794E-2,-7.017423958E-2,-4.354264960E-2
1.958762568E0,1.102547869E-1,-6.804371625E-2,-3.928159550E-2
1.961250329E0,1.219726875E-1,-6.591318548E-2,-3.502054140E-2
1.963738089E0,1.326253265E-1,-6.271740049E-2,-3.075948730E-2
1.966225849E0,1.432779580E-1,-6.058686972E-2,-2.543316968E-2
1.968713610E0,1.518000662E-1,-5.739107728E-2,-1.904158667E-2
1.971201370E0,1.613874435E-1,-5.206476152E-2,-1.265000552E-2
1.973689131E0,1.709748209E-1,-4.567318037E-2,-5.193160381E-3
1.976176891E0,1.794969290E-1,-3.715106845E-2,2.263685223E-3
1.978664652E0,1.880190372E-1,-2.543316968E-2,1.078579482E-2
1.981152412E0,1.954758763E-1,-1.371526904E-2,1.930790395E-2
1.983640172E0,2.029327303E-1,2.263685223E-3,2.889527567E-2
1.986127933E0,2.093243003E-1,1.930790395E-2,3.954791278E-2
1.988615693E0,2.157158852E-1,3.635212034E-2,5.020054802E-2
1.991103454E0,2.189116776E-1,5.446160212E-2,5.978792161E-2
1.993591214E0,2.221074700E-1,7.044056058E-2,6.937529147E-2
1.996078974E0,2.231727391E-1,8.748477697E-2,7.896266878E-2
1.998566735E0,2.221074700E-1,1.023984700E-1,8.961530030E-2
2.001054495E0,2.199769467E-1,1.162468940E-1,9.707214683E-2
2.003542256E0,2.146506310E-1,1.279647946E-1,1.055942550E-1
2.006030016E0,2.082590461E-1,1.386174262E-1,1.130511016E-1
2.008517777E0,1.997369379E-1,1.482048035E-1,1.194426864E-1
2.011005537E0,1.880190372E-1,1.556616426E-1,1.247690022E-1
2.013493297E0,1.752358675E-1,1.620532274E-1,1.300953180E-1
2.015981058E0,1.603221744E-1,1.663142890E-1,1.343563795E-1
2.018468818E0,1.443432271E-1,1.705753356E-1,1.386174262E-1
2.020956579E0,1.262337416E-1,1.737711281E-1,1.407479644E-1
2.023444339E0,1.059937328E-1,1.759016514E-1,1.418132186E-1
2.025932099E0,8.575372398E-2,1.759016514E-1,1.418132186E-1
2.028419860E0,6.551371515E-2,1.769669205E-1,1.407479644E-1
2.030907620E0,4.420844093E-2,1.780321896E-1,1.386174262E-1
2.033395381E0,2.290316857E-2,1.790974438E-1,1.364869028E-1
2.035883141E0,2.663159044E-3,1.790974438E-1,1.322258562E-1
2.038370902E0,-1.757685095E-2,1.801627129E-1,1.268995255E-1
2.040858662E0,-3.781685978E-2,1.801627129E-1,1.215732098E-1
2.043346422E0,-5.699160323E-2,1.822932363E-1,1.151816323E-1
2.045834183E0,-7.510108501E-2,1.833585054E-1,1.087900475E-1
2.048321943E0,-9.321057051E-2,1.854890287E-1,1.013332009E-1
2.050809704E0,-1.081242561E-1,1.865542978E-1,9.281109273E-2
2.053297464E0,-1.230379492E-1,1.865542978E-1,8.428898454E-2
2.055785224E0,-1.358211190E-1,1.876195520E-1,7.576687634E-2
2.058272985E0,-1.475390196E-1,1.886848211E-1,6.617950648E-2
2.060760745E0,-1.571263820E-1,1.897500902E-1,5.872265995E-2
2.063248506E0,-1.656484902E-1,1.918806136E-1,5.020054802E-2
2.065736266E0,-1.720400751E-1,1.929458827E-1,4.274370521E-2
2.068224027E0,-1.752358675E-1,1.950764060E-1,3.528685868E-2
2.070711787E0,-1.741705984E-1,1.972069293E-1,2.889527567E-2
2.073199547E0,-1.709748209E-1,2.004027218E-1,2.250369452E-2
2.075687308E0,-1.656484902E-1,2.025332451E-1,1.717737690E-2
2.078175068E0,-1.581916511E-1,2.057290375E-1,1.291632187E-2
2.080662829E0,-1.475390196E-1,2.099900991E-1,7.590003312E-3
2.083150589E0,-1.368863732E-1,2.142511457E-1,4.394212738E-3
2.085638349E0,-1.241032109E-1,2.195774615E-1,1.331579551E-4
2.088126110E0,-1.113200486E-1,2.259690464E-1,-1.997369342E-3
2.090613870E0,-9.853688627E-2,2.312953621E-1,-4.127896391E-3
2.093101631E0,-8.468846232E-2,2.376869470E-1,-6.258423906E-3
2.095589391E0,-7.297056168E-2,2.451438010E-1,-7.323687430E-3
2.098077152E0,-6.338318437E-2,2.515353858E-1,-7.323687430E-3
2.100564912E0,-5.486107618E-2,2.568616867E-1,-8.388951421E-3
2.103052672E0,-4.846949503E-2,2.600574791E-1,-1.051947847E-2
2.105540433E0,-4.420844093E-2,2.621880174E-1,-1.158474199E-2
2.108028193E0,-4.420844093E-2,2.611227632E-1,-1.265000552E-2
2.110515954E0,-4.527370632E-2,2.589922249E-1,-1.371526904E-2
2.113003714E0,-4.846949503E-2,2.557964325E-1,-1.478053257E-2
2.115491474E0,-5.486107618E-2,2.515353858E-1,-1.584579609E-2
2.117979235E0,-6.231792271E-2,2.462090552E-1,-1.691105962E-2
2.120466995E0,-7.084003091E-2,2.419480085E-1,-1.797632314E-2
2.122954756E0,-8.042740822E-2,2.355564237E-1,-2.010685205E-2
2.125442516E0,-9.108003974E-2,2.280995846E-1,-2.330264263E-2
2.127930277E0,-1.017326787E-1,2.206427306E-1,-2.756369673E-2
2.130418037E0,-1.145158410E-1,2.110553533E-1,-3.075948730E-2
2.132905797E0,-1.262337416E-1,2.014679909E-1,-3.608580679E-2
2.135393558E0,-1.379516423E-1,1.929458827E-1,-4.141212255E-2
2.137881318E0,-1.496695429E-1,1.822932363E-1,-4.673844203E-2
2.140369079E0,-1.603221744E-1,1.716406047E-1,-5.313002318E-2
2.142856839E0,-1.699095517E-1,1.609879732E-1,-5.952160433E-2
2.145344599E0,-1.794969290E-1,1.492700726E-1,-6.591318548E-2
2.147832360E0,-1.880190372E-1,1.386174262E-1,-7.230477035E-2
2.150320120E0,-1.954758763E-1,1.279647946E-1,-7.869634777E-2
2.152807881E0,-2.029327303E-1,1.173121557E-1,-8.508793265E-2
2.155295641E0,-2.082590461E-1,1.055942550E-1,-9.147951752E-2
2.157783402E0,-2.146506310E-1,9.494162351E-2,-9.893636405E-2
2.160271162E0,-2.210422009E-1,8.215846121E-2,-1.053279415E-1
2.162758922E0,-2.284990549E-1,7.044056058E-2,-1.127847880E-1
2.165246683E0,-2.348906398E-1,5.765739456E-2,-1.191763729E-1
2.167734443E0,-2.434127480E-1,4.593949392E-2,-1.255679578E-1
2.170222204E0,-2.508696020E-1,3.209106624E-2,-1.319595277E-1
2.172709964E0,-2.572611570E-1,1.930790395E-2,-1.394163817E-1
2.175197724E0,-2.647180259E-1,4.394212738E-3,-1.436774284E-1
2.177685485E0,-2.689790726E-1,-9.454214945E-3,-1.479384899E-1
2.180173245E0,-2.732401192E-1,-2.436790615E-2,-1.511342824E-1
2.182661006E0,-2.753706574E-1,-3.821633384E-2,-1.553953290E-1
2.185148766E0,-2.753706574E-1,-5.313002318E-2,-1.585911214E-1
2.187636527E0,-2.743053734E-1,-6.697845459E-2,-1.607216448E-1
2.190124287E0,-2.700443268E-1,-8.189214021E-2,-1.628521830E-1
2.192612047E0,-2.636527419E-1,-9.574057162E-2,-1.639174372E-1
2.195099808E0,-2.572611570E-1,-1.085237339E-1,-1.639174372E-1
2.197587568E0,-2.466085255E-1,-1.223721579E-1,-1.639174372E-1
2.200075329E0,-2.348906398E-1,-1.351553202E-1,-1.628521830E-1
2.202563089E0,-2.199769467E-1,-1.479384899E-1,-1.617869139E-1
2.205050849E0,-2.050632536E-1,-1.607216448E-1,-1.596563905E-1
2.207538610E0,-1.880190372E-1,-1.756353378E-1,-1.575258672E-1
2.210026370E0,-1.699095517E-1,-1.905490309E-1,-1.564605981E-1
2.212514131E0,-1.528653353E-1,-2.054627240E-1,-1.564605981E-1
2.215001891E0,-1.368863732E-1,-2.203764170E-1,-1.564605981E-1
2.217489652E0,-1.219726875E-1,-2.352901101E-1,-1.585911214E-1
2.219977412E0,-1.081242561E-1,-2.491385341E-1,-1.596563905E-1
2.222465172E0,-9.640636295E-2,-2.629869580E-1,-1.617869139E-1
2.224952933E0,-8.575372398E-2,-2.768353820E-1,-1.628521830E-1
2.227440693E0,-7.723161578E-2,-2.896185517E-1,-1.649827063E-1
2.229928454E0,-6.977476925E-2,-3.024017215E-1,-1.671132296E-1
2.232416214E0,-6.338318437E-2,-3.130543530E-1,-1.692437679E-1
2.234903974E0,-5.699160323E-2,-3.237069845E-1,-1.713742912E-1
2.237391735E0,-5.486107618E-2,-3.322291076E-1,-1.724395454E-1
2.239879495E0,-5.379581451E-2,-3.386206925E-1,-1.735048145E-1
2.242367256E0,-5.486107618E-2,-3.439469934E-1,-1.756353378E-1
2.244855016E0,-5.805686861E-2,-3.482080400E-1,-1.767006069E-1
2.247342777E0,-6.338318437E-2,-3.503385782E-1,-1.777658761E-1
2.249830537E0,-7.084003091E-2,-3.514038324E-1,-1.777658761E-1
2.252318297E0,-7.936213911E-2,-3.492733240E-1,-1.756353378E-1
2.254806058E0,-8.894951642E-2,-3.460775316E-1,-1.735048145E-1
2.257293818E0,-9.960214794E-2,-3.407512009E-1,-1.703090221E-1
2.259781579E0,-1.102547869E-1,-3.332943618E-1,-1.649827063E-1
2.262269339E0,-1.219726875E-1,-3.237069845E-1,-1.596563905E-1
2.264757099E0,-1.336905807E-1,-3.141196072E-1,-1.543300748E-1
2.267244860E0,-1.432779580E-1,-3.013364673E-1,-1.490037590E-1
2.269732620E0,-1.549958587E-1,-2.885532975E-1,-1.426121742E-1
2.272220381E0,-1.645832360E-1,-2.757701278E-1,-1.351553202E-1
2.274708141E0,-1.720400751E-1,-2.629869580E-1,-1.276984811E-1
2.277195902E0,-1.794969290E-1,-2.491385341E-1,-1.202416345E-1
2.279683662E0,-1.837579757E-1,-2.363553643E-1,-1.106542572E-1
2.282171422E0,-1.869537681E-1,-2.225069404E-1,-1.021321490E-1
2.284659183E0,-1.869537681E-1,-2.075932473E-1,-9.254477918E-2
2.287146943E0,-1.858884990E-1,-1.937448233E-1,-8.295740932E-2
2.289634704E0,-1.816274524E-1,-1.809616536E-1,-7.230477035E-2
2.292122464E0,-1.752358675E-1,-1.681784987E-1,-6.165213138E-2
2.294610224E0,-1.677790284E-1,-1.553953290E-1,-4.993423447E-2
2.297097985E0,-1.560611278E-1,-1.447426975E-1,-3.928159550E-2
2.299585745E0,-1.422126889E-1,-1.340900660E-1,-2.862896025E-2
2.302073506E0,-1.283642650E-1,-1.245026886E-1,-1.797632314E-2
2.304561266E0,-1.123853177E-1,-1.149153188E-1,-9.454214945E-3
2.307049027E0,-9.534109384E-2,-1.074584723E-1,-9.321057005E-4
2.309536787E0,-7.723161578E-2,-9.893636405E-2,7.590003312E-3
2.312024547E0,-5.912213027E-2,-9.147951752E-2,1.398158539E-2
2.314512308E0,-4.101264849E-2,-8.402267098E-2,2.037316747E-2
2.317000068E0,-2.503369562E-2,-7.550056279E-2,2.569948509E-2
2.319487829E0,-9.054740891E-3,-6.804371625E-2,3.102580272E-2
2.321975589E0,4.793686327E-3,-6.165213138E-2,3.528685868E-2
2.324463349E0,1.864211448E-2,-5.526055023E-2,3.848264739E-2
2.326951110E0,2.929474972E-2,-4.886896908E-2,4.061317816E-2
2.329438870E0,3.994738683E-2,-4.354264960E-2,4.274370521E-2
2.331926631E0,4.740423337E-2,-3.928159550E-2,4.274370521E-2
2.334414391E0,5.273054913E-2,-3.502054140E-2,4.380896688E-2
2.336902152E0,5.699160323E-2,-3.182475269E-2,4.380896688E-2
2.339389912E0,5.912213027E-2,-2.969422378E-2,4.274370521E-2
2.341877672E0,5.912213027E-2,-2.756369673E-2,4.167843983E-2
2.344365433E0,5.699160323E-2,-2.436790615E-2,4.061317816E-2
2.346853193E0,5.166528746E-2,-2.223737910E-2,3.848264739E-2
2.349340954E0,4.420844093E-2,-1.904158667E-2,3.741738573E-2
2.351828714E0,3.568633273E-2,-1.691105962E-2,3.528685868E-2
2.354316474E0,2.503369562E-2,-1.371526904E-2,3.315633163E-2
2.356804235E0,1.225053146E-2,-1.051947847E-2,2.996053919E-2
2.359291995E0,-5.326318205E-4,-8.388951421E-3,2.569948509E-2
2.361779756E0,-1.544632297E-2,-6.258423906E-3,2.143843099E-2
2.364267516E0,-3.036001325E-2,-5.193160381E-3,1.611211337E-2
2.366755277E0,-4.740423337E-2,-4.127896391E-3,1.185105834E-2
2.369243037E0,-6.551371515E-2,-3.062632866E-3,7.590003312E-3
2.371730797E0,-8.362319320E-2,-9.321057005E-4,3.328948980E-3
2.374218558E0,-1.038632020E-1,1.198421582E-3,-1.997369342E-3
2.376706318E0,-1.241032109E-1,2.263685223E-3,-5.193160381E-3
2.379194079E0,-1.443432271E-1,1.198421582E-3,-9.454214945E-3
2.381681839E0,-1.635179669E-1,-9.321057005E-4,-1.371526904E-2
2.384169599E0,-1.816274524E-1,-5.193160381E-3,-1.904158667E-2
2.386657360E0,-1.986716688E-1,-1.265000552E-2,-2.330264263E-2
2.389145120E0,-2.135853618E-1,-2.117211558E-2,-2.756369673E-2
2.391632881E0,-2.263685167E-1,-3.182475269E-2,-3.182475269E-2
2.394120641E0,-2.370211631E-1,-4.460791498E-2,-3.608580679E-2
2.396608402E0,-2.444780022E-1,-5.952160433E-2,-4.034686089E-2
2.399096162E0,-2.498043180E-1,-7.656582445E-2,-4.460791498E-2
2.401583922E0,-2.508696020E-1,-9.361004084E-2,-4.886896908E-2
2.404071683E0,-2.476737946E-1,-1.106542572E-1,-5.206476152E-2
2.406559443E0,-2.402169555E-1,-1.287637353E-1,-5.526055023E-2
2.409047204E0,-2.274337858E-1,-1.447426975E-1,-5.739107728E-2
2.411534964E0,-2.114548385E-1,-1.575258672E-1,-6.058686972E-2
2.414022724E0,-1.912148297E-1,-1.692437679E-1,-6.271740049E-2
2.416510485E0,-1.667137593E-1,-1.788311303E-1,-6.484792382E-2
2.418998245E0,-1.400821656E-1,-1.862879843E-1,-6.697845459E-2
2.421486006E0,-1.102547869E-1,-1.916143000E-1,-6.910897791E-2
2.423973766E0,-7.829687744E-2,-1.958753467E-1,-7.017423958E-2
2.426461527E0,-4.314317927E-2,-1.990711391E-1,-7.123950869E-2
2.428949287E0,-9.054740891E-3,-2.001364082E-1,-7.230477035E-2
2.431437047E0,2.609895915E-2,-1.990711391E-1,-7.230477035E-2
2.433924808E0,6.018739566E-2,-1.969406158E-1,-7.123950869E-2
2.436412568E0,9.321057051E-2,-1.937448233E-1,-7.017423958E-2
2.438900329E0,1.241032109E-1,-1.894837767E-1,-7.017423958E-2
2.441388089E0,1.518000662E-1,-1.841574460E-1,-6.910897791E-2
2.443875849E0,1.763011366E-1,-1.788311303E-1,-6.910897791E-2
2.446363610E0,1.965411454E-1,-1.724395454E-1,-7.017423958E-2
2.448851370E0,2.135853618E-1,-1.671132296E-1,-7.017423958E-2
2.451339131E0,2.274337858E-1,-1.617869139E-1,-7.017423958E-2
2.453826891E0,2.359558940E-1,-1.575258672E-1,-7.123950869E-2
2.456314652E0,2.391516864E-1,-1.553953290E-1,-7.017423958E-2
2.458802412E0,2.391516864E-1,-1.532648057E-1,-6.910897791E-2
2.461290172E0,2.348906398E-1,-1.532648057E-1,-6.591318548E-2
2.463777881E0,2.263685167E-1,-1.543300748E-1,-6.271740049E-2
2.466265589E0,2.146506310E-1,-1.564605981E-1,-5.632581562E-2
2.468753297E0,1.997369379E-1,-1.596563905E-1,-4.886896908E-2
2.471241110E0,1.816274524E-1,-1.639174372E-1,-3.928159550E-2
2.473728922E0,1.613874435E-1,-1.681784987E-1,-2.969422378E-2
2.476216683E0,1.390169114E-1,-1.735048145E-1,-1.797632314E-2
2.478704443E0,1.155811027E-1,-1.777658761E-1,-5.193160381E-3
2.481192204E0,9.321057051E-2,-1.820269227E-1,7.590003312E-3
2.483679912E0,7.084003091E-2,-1.852227151E-1,2.037316747E-2
2.486167620E0,4.846949503E-2,-1.873532385E-1,3.315633163E-2
2.488655329E0,2.929474972E-2,-1.873532385E-1,4.700475931E-2
2.491143037E0,1.118526794E-2,-1.873532385E-1,5.978792161E-2
2.493630745E0,-4.793686327E-3,-1.841574460E-1,7.150582224E-2
2.496118454E0,-1.757685095E-2,-1.788311303E-1,8.215846121E-2
2.498606162E0,-2.609895915E-2,-1.724395454E-1,9.281109273E-2
2.501093870E0,-3.462106735E-2,-1.649827063E-1,1.013332009E-1
2.503581579E0,-3.888212144E-2,-1.553953290E-1,1.077247858E-1
2.506069287E0,-4.101264849E-2,-1.447426975E-1,1.130511016E-1
2.508556995E0,-4.207791388E-2,-1.319595277E-1,1.173121557E-1
2.511044704E0,-3.994738683E-2,-1.170458421E-1,1.194426864E-1
2.513532412E0,-3.781685978E-2,-1.021321490E-1,1.194426864E-1
2.516020120E0,-3.462106735E-2,-8.615319431E-2,1.183774248E-1
2.518507829E0,-3.036001325E-2,-6.910897791E-2,1.151816323E-1
2.520995537E0,-2.716422267E-2,-5.206476152E-2,1.119858399E-1
2.523483245E0,-2.290316857E-2,-3.395527974E-2,1.077247858E-1
2.525970954E0,-2.077264152E-2,-1.691105962E-2,1.045289934E-1
2.528458662E0,-1.757685095E-2,1.331579551E-4,9.920267761E-2
2.530946370E0,-1.651158556E-2,1.611211337E-2,9.281109273E-2
2.533434079E0,-1.651158556E-2,3.102580272E-2,8.535424620E-2
2.535921787E0,-1.651158556E-2,4.487423226E-2,7.896266878E-2
2.538409495E0,-1.970737800E-2,5.872265995E-2,7.150582224E-2
2.540897204E0,-2.290316857E-2,7.044056058E-2,6.404897571E-2
2.543384912E0,-2.822948620E-2,8.109319210E-2,5.552686751E-2
2.545872620E0,-3.568633273E-2,9.068056941E-2,4.593949392E-2
2.548360329E0,-4.420844093E-2,9.813741595E-2,3.635212034E-2
2.550848037E0,-5.379581451E-2,1.034637317E-1,2.569948509E-2
2.553335797E0,-6.444845349E-2,1.077247858E-1,1.611211337E-2
2.555823558E0,-7.510108501E-2,1.098553166E-1,5.459476262E-3
2.558311318E0,-8.575372398E-2,1.109205782E-1,-4.127896391E-3
2.560799079E0,-9.640636295E-2,1.109205782E-1,-1.265000552E-2
2.563286839E0,-1.059937328E-1,1.109205782E-1,-1.904158667E-2
2.565774599E0,-1.134505793E-1,1.109205782E-1,-2.649843320E-2
2.568262360E0,-1.209074259E-1,1.098553166E-1,-3.182475269E-2
2.570750120E0,-1.262337416E-1,1.098553166E-1,-3.715106845E-2
2.573237881E0,-1.283642650E-1,1.077247858E-1,-4.141212255E-2
2.575725641E0,-1.283642650E-1,1.077247858E-1,-4.567318037E-2
2.578213402E0,-1.262337416E-1,1.087900475E-1,-4.886896908E-2
2.580701162E0,-1.230379492E-1,1.119858399E-1,-4.993423447E-2
2.583188922E0,-1.187768951E-1,1.141163707E-1,-5.206476152E-2
2.585676683E0,-1.123853177E-1,1.173121557E-1,-5.313002318E-2
2.588164443E0,-1.059937328E-1,1.215732098E-1,-5.313002318E-2
2.590652204E0,-9.853688627E-2,1.279647946E-1,-5.206476152E-2
2.593139964E0,-9.001477808E-2,1.332911104E-1,-4.993423447E-2
2.595627724E0,-8.149266988E-2,1.396826953E-1,-4.673844203E-2
2.598115485E0,-7.297056168E-2,1.460742801E-1,-4.354264960E-2
2.600603245E0,-6.444845349E-2,1.535311192E-1,-3.821633384E-2
2.603091006E0,-5.592634156E-2,1.609879732E-1,-3.395527974E-2
2.605578766E0,-4.740423337E-2,1.673795432E-1,-2.969422378E-2
2.608066527E0,-3.888212144E-2,1.759016514E-1,-2.436790615E-2
2.610554287E0,-3.036001325E-2,1.833585054E-1,-2.010685205E-2
2.613042047E0,-2.396843210E-2,1.908153445E-1,-1.691105962E-2
2.615529808E0,-1.757685095E-2,1.972069293E-1,-1.158474199E-2
2.618017568E0,-1.225053146E-2,2.025332451E-1,-7.323687430E-3
2.620505329E0,-7.989477366E-3,2.067943066E-1,-4.127896391E-3
2.622993089E0,-2.663159044E-3,2.099900991E-1,1.198421582E-3
2.625480849E0,2.663159044E-3,2.131858915E-1,5.459476262E-3
2.627968610E0,6.924213842E-3,2.163816839E-1,1.078579482E-2
2.630456370E0,1.225053146E-2,2.185122073E-1,1.611211337E-2
2.632944131E0,1.970737800E-2,2.206427306E-1,2.037316747E-2
2.635431891E0,2.716422267E-2,2.238385230E-1,2.569948509E-2
2.637919652E0,3.568633273E-2,2.270343155E-1,2.996053919E-2
2.640407412E0,4.420844093E-2,2.291648388E-1,3.315633163E-2
2.642895172E0,5.273054913E-2,2.312953621E-1,3.635212034E-2
2.645382933E0,6.125266105E-2,2.344911546E-1,3.848264739E-2
2.647870693E0,6.977476925E-2,2.366216928E-1,3.954791278E-2
2.650358454E0,7.829687744E-2,2.387522161E-1,4.167843983E-2
2.652846214E0,8.681898564E-2,2.398174703E-1,4.274370521E-2
2.655333974E0,9.534109384E-2,2.408827394E-1,4.380896688E-2
2.657821735E0,1.038632020E-1,2.408827394E-1,4.487423226E-2
2.660309495E0,1.134505793E-1,2.387522161E-1,4.487423226E-2
2.662797256E0,1.241032109E-1,2.366216928E-1,4.593949392E-2
2.665285016E0,1.347558498E-1,2.344911546E-1,4.593949392E-2
2.667772777E0,1.454084814E-1,2.312953621E-1,4.593949392E-2
2.670260537E0,1.549958587E-1,2.302301079E-1,4.593949392E-2
2.672748297E0,1.656484902E-1,2.280995846E-1,4.593949392E-2
2.675236058E0,1.752358675E-1,2.270343155E-1,4.593949392E-2
2.677723818E0,1.826927215E-1,2.259690464E-1,4.487423226E-2
2.680211579E0,1.901495606E-1,2.259690464E-1,4.380896688E-2
2.682699339E0,1.954758763E-1,2.259690464E-1,4.380896688E-2
2.685187099E0,1.997369379E-1,2.259690464E-1,4.380896688E-2
2.687674860E0,2.029327303E-1,2.238385230E-1,4.487423226E-2
2.690162620E0,2.039979845E-1,2.206427306E-1,4.487423226E-2
2.692650381E0,2.050632536E-1,2.174469382E-1,4.593949392E-2
2.695138141E0,2.039979845E-1,2.131858915E-1,4.700475931E-2
2.697625902E0,2.018674612E-1,2.089248300E-1,4.807002097E-2
2.700113662E0,1.976063997E-1,2.035985142E-1,5.020054802E-2
2.702601422E0,1.922800839E-1,1.982721984E-1,5.233107507E-2
2.705089183E0,1.858884990E-1,1.929458827E-1,5.446160212E-2
2.707576943E0,1.773663908E-1,1.865542978E-1,5.659212917E-2
2.710064704E0,1.667137593E-1,1.812279820E-1,5.872265995E-2
2.712552464E0,1.560611278E-1,1.748363972E-1,6.085318699E-2
2.715040224E0,1.454084814E-1,1.695100814E-1,6.298371404E-2
2.717527985E0,1.315600574E-1,1.652490199E-1,6.617950648E-2
2.720015745E0,1.198421568E-1,1.609879732E-1,6.937529147E-2
2.722503506E0,1.091895252E-1,1.577921808E-1,7.257108390E-2
2.724991266E0,9.640636295E-2,1.556616426E-1,7.576687634E-2
2.727479027E0,8.468846232E-2,1.524658650E-1,7.896266878E-2
2.729966787E0,7.510108501E-2,1.492700726E-1,8.215846121E-2
2.732454547E0,6.551371515E-2,1.471395344E-1,8.428898454E-2
2.734942308E0,5.592634156E-2,1.450090110E-1,8.748477697E-2
2.737430068E0,4.633896798E-2,1.428784877E-1,9.068056941E-2
2.739917829E0,3.781685978E-2,1.396826953E-1,9.387636185E-2
2.742405589E0,2.929474972E-2,1.375521719E-1,9.707214683E-2
2.744893349E0,2.183790505E-2,1.343563795E-1,1.002679393E-1
2.747381110E0,1.544632297E-2,1.311605871E-1,1.023984700E-1
2.749868870E0,9.054740891E-3,1.290300637E-1,1.045289934E-1
2.752356631E0,2.663159044E-3,1.268995255E-1,1.066595241E-1
2.754844391E0,-2.663159044E-3,1.247690022E-1,1.087900475E-1
2.757332152E0,-6.924213842E-3,1.226384789E-1,1.098553166E-1
2.759819912E0,-1.012000442E-2,1.194426864E-1,1.109205782E-1
2.762307672E0,-1.225053146E-2,1.173121557E-1,1.109205782E-1
2.764795433E0,-1.438105945E-2,1.151816323E-1,1.087900475E-1
2.767283193E0,-1.544632297E-2,1.119858399E-1,1.066595241E-1
2.769770954E0,-1.544632297E-2,1.087900475E-1,1.045289934E-1
2.772258714E0,-1.438105945E-2,1.066595241E-1,1.002679393E-1
2.774746474E0,-1.225053146E-2,1.066595241E-1,9.707214683E-2
2.777234235E0,-9.054740891E-3,1.066595241E-1,9.281109273E-2
2.779721995E0,-4.793686327E-3,1.087900475E-1,8.748477697E-2
2.782209756E0,-5.326318205E-4,1.109205782E-1,8.215846121E-2
2.784697516E0,4.793686327E-3,1.151816323E-1,7.683213800E-2
2.787185277E0,1.118526794E-2,1.205079481E-1,7.150582224E-2
2.789673037E0,1.757685095E-2,1.268995255E-1,6.511423737E-2
2.792160797E0,2.503369562E-2,1.343563795E-1,5.978792161E-2
2.794648558E0,3.249054030E-2,1.407479644E-1,5.339634046E-2
2.797136318E0,3.994738683E-2,1.471395344E-1,4.807002097E-2
2.799624079E0,4.633896798E-2,1.545963883E-1,4.167843983E-2
2.802111839E0,5.273054913E-2,1.620532274E-1,3.528685868E-2
2.804599599E0,5.805686861E-2,1.684448123E-1,2.996053919E-2
2.807087360E0,6.338318437E-2,1.748363972E-1,2.569948509E-2
2.809575120E0,6.764423847E-2,1.812279820E-1,2.143843099E-2
2.812062881E0,6.870950758E-2,1.865542978E-1,1.824264042E-2
2.814550641E0,6.977476925E-2,1.918806136E-1,1.504684892E-2
2.817038402E0,6.870950758E-2,1.972069293E-1,1.291632187E-2
2.819526162E0,6.444845349E-2,2.014679909E-1,9.720530361E-3
2.822013922E0,5.912213027E-2,2.046637833E-1,6.524739787E-3
2.824501683E0,5.166528746E-2,2.078595608E-1,2.263685223E-3
2.826989443E0,3.994738683E-2,2.099900991E-1,-1.997369342E-3
2.829477204E0,2.716422267E-2,2.121206224E-1,-6.258423906E-3
2.831964964E0,1.012000442E-2,2.131858915E-1,-1.265000552E-2
2.834452724E0,-1.012000442E-2,2.121206224E-1,-1.904158667E-2
2.836940485E0,-3.142527863E-2,2.099900991E-1,-2.543316968E-2
2.839428245E0,-5.592634156E-2,2.057290375E-1,-3.182475269E-2
2.841916006E0,-8.255793154E-2,1.993374527E-1,-4.034686089E-2
2.844403766E0,-1.102547869E-1,1.897500902E-1,-4.780370742E-2
2.846891527E0,-1.379516423E-1,1.790974438E-1,-5.632581562E-2
2.849379287E0,-1.677790284E-1,1.663142890E-1,-6.591318548E-2
2.851867047E0,-1.986716688E-1,1.503353268E-1,-7.550056279E-2
2.854354808E0,-2.284990549E-1,1.343563795E-1,-8.615319431E-2
2.856842568E0,-2.604569495E-1,1.162468940E-1,-9.787109494E-2
2.859330329E0,-2.902843356E-1,9.707214683E-2,-1.106542572E-1
2.861818089E0,-3.211769760E-1,7.576687634E-2,-1.223721579E-1
2.864305849E0,-3.499391079E-1,5.552686751E-2,-1.351553202E-1
2.866793610E0,-3.776359558E-1,3.315633163E-2,-1.479384899E-1
2.869281370E0,-4.021370113E-1,1.078579482E-2,-1.607216448E-1
2.871769131E0,-4.245075583E-1,-1.158474199E-2,-1.735048145E-1
2.874256891E0,-4.436823130E-1,-3.395527974E-2,-1.862879843E-1
2.876744652E0,-4.575307369E-1,-5.632581562E-2,-1.969406158E-1
2.879232412E0,-4.660528302E-1,-7.763108611E-2,-2.065279931E-1
2.881720172E0,-4.703139067E-1,-9.680583328E-2,-2.171806246E-1
2.884207933E0,-4.692486227E-1,-1.149153188E-1,-2.267680019E-1
2.886695693E0,-4.628570378E-1,-1.298290044E-1,-2.352901101E-1
2.889183454E0,-4.511391521E-1,-1.426121742E-1,-2.427469492E-1
2.891671214E0,-4.362254739E-1,-1.532648057E-1,-2.502037883E-1
2.894158974E0,-4.170507193E-1,-1.617869139E-1,-2.565953732E-1
2.896646735E0,-3.925496638E-1,-1.681784987E-1,-2.619217038E-1
2.899134495E0,-3.659180701E-1,-1.703090221E-1,-2.661827505E-1
2.901622256E0,-3.339601457E-1,-1.703090221E-1,-2.693785429E-1
2.904110016E0,-3.009369671E-1,-1.681784987E-1,-2.704437971E-1
2.906597777E0,-2.625874877E-1,-1.628521830E-1,-2.704437971E-1
2.909085537E0,-2.221074700E-1,-1.553953290E-1,-2.693785429E-1
2.911573297E0,-1.794969290E-1,-1.458079666E-1,-2.661827505E-1
2.914061058E0,-1.336905807E-1,-1.340900660E-1,-2.608564198E-1
2.916548818E0,-8.681898564E-2,-1.213068962E-1,-2.533995807E-1
2.919036579E0,-3.888212144E-2,-1.074584723E-1,-2.448774725E-1
2.921524339E0,9.054740891E-3,-9.254477918E-2,-2.342248410E-1
2.924012099E0,5.592634156E-2,-7.656582445E-2,-2.235722095E-1
2.926499860E0,1.017326787E-1,-6.058686972E-2,-2.107890397E-1
2.928987620E0,1.464737505E-1,-4.460791498E-2,-1.969406158E-1
2.931475381E0,1.890842915E-1,-2.862896025E-2,-1.830921918E-1
2.933963141E0,2.295643091E-1,-1.051947847E-2,-1.681784987E-1
2.936450902E0,2.668485343E-1,7.590003312E-3,-1.532648057E-1
2.938938662E0,3.009369671E-1,2.676474862E-2,-1.362205893E-1
2.941426422E0,3.318296373E-1,4.487423226E-2,-1.202416345E-1
2.943914183E0,3.605917394E-1,6.511423737E-2,-1.042626798E-1
2.946401943E0,3.829622865E-1,8.535424620E-2,-8.934898674E-2
2.948889704E0,4.021370113E-1,1.055942550E-1,-7.337003201E-2
2.951377464E0,4.149201810E-1,1.247690022E-1,-5.845634267E-2
2.953865224E0,4.234423041E-1,1.450090110E-1,-4.354264960E-2
2.956352985E0,4.255728126E-1,1.663142890E-1,-3.075948730E-2
2.958840745E0,4.234423041E-1,1.854890287E-1,-1.797632314E-2
2.961328506E0,4.149201810E-1,2.046637833E-1,-7.323687430E-3
2.963816266E0,4.021370113E-1,2.227732539E-1,4.394212738E-3
2.966304027E0,3.840275407E-1,2.398174703E-1,1.504684892E-2
2.968791787E0,3.605917394E-1,2.557964325E-1,2.569948509E-2
2.971279547E0,3.339601457E-1,2.685796022E-1,3.528685868E-2
2.973767308E0,3.051980436E-1,2.792322338E-1,4.380896688E-2
2.976255068E0,2.732401192E-1,2.877543271E-1,5.233107507E-2
2.978742829E0,2.402169555E-1,2.941459119E-1,6.085318699E-2
2.981230589E0,2.050632536E-1,2.973417044E-1,6.724476814E-2
2.983718349E0,1.688442826E-1,2.994722426E-1,7.470161468E-2
2.986206110E0,1.326253265E-1,3.005374968E-1,8.002793044E-2
2.988693870E0,9.534109384E-2,3.005374968E-1,8.641951531E-2
2.991181839E0,6.125266105E-2,2.994722426E-1,9.174583107E-2
2.993669443E0,2.716422267E-2,2.994722426E-1,9.707214683E-2
2.996157047E0,-3.728422802E-3,2.994722426E-1,1.013332009E-1
2.998644652E0,-3.249054030E-2,3.016027808E-1,1.066595241E-1
3.001132256E0,-6.018739566E-2,3.047985733E-1,1.098553166E-1
3.003619860E0,-8.468846232E-2,3.079943359E-1,1.130511016E-1
3.006107464E0,-1.070589945E-1,3.143859208E-1,1.173121557E-1
3.008595068E0,-1.272990108E-1,3.218427896E-1,1.205079481E-1
3.011082672E0,-1.443432271E-1,3.314301372E-1,1.226384789E-1
3.013570277E0,-1.592569202E-1,3.410175145E-1,1.247690022E-1
3.016057933E0,-1.720400751E-1,3.516701460E-1,1.268995255E-1
3.018545641E0,-1.826927215E-1,3.623228073E-1,1.290300637E-1
3.021033402E0,-1.922800839E-1,3.740406930E-1,1.300953180E-1
3.023521214E0,-1.997369379E-1,3.846933246E-1,1.311605871E-1
3.026009027E0,-2.061285079E-1,3.953459561E-1,1.322258562E-1
3.028496839E0,-2.114548385E-1,4.049333334E-1,1.322258562E-1
3.030984652E0,-2.157158852E-1,4.145207107E-1,1.322258562E-1
3.033472464E0,-2.199769467E-1,4.241080880E-1,1.311605871E-1
3.035960277E0,-2.231727391E-1,4.315649271E-1,1.300953180E-1
3.038448089E0,-2.263685167E-1,4.379565120E-1,1.279647946E-1
3.040935902E0,-2.284990549E-1,4.422175586E-1,1.258342713E-1
3.043423714E0,-2.306295782E-1,4.454133511E-1,1.226384789E-1
3.045911527E0,-2.316948473E-1,4.454133511E-1,1.194426864E-1
3.048399339E0,-2.306295782E-1,4.432828426E-1,1.141163707E-1
3.050887152E0,-2.306295782E-1,4.390217662E-1,1.077247858E-1
3.053374964E0,-2.284990549E-1,4.326302111E-1,1.002679393E-1
3.055862777E0,-2.263685167E-1,4.262386262E-1,9.174583107E-2
3.058350589E0,-2.231727391E-1,4.177165031E-1,8.322372288E-2
3.060838402E0,-2.189116776E-1,4.081291258E-1,7.363634557E-2
3.063326214E0,-2.146506310E-1,3.974764943E-1,6.404897571E-2
3.065814027E0,-2.082590461E-1,3.857586086E-1,5.446160212E-2
3.068301839E0,-2.029327303E-1,3.708449006E-1,4.380896688E-2
3.070789652E0,-1.965411454E-1,3.548659384E-1,3.209106624E-2
3.073277464E0,-1.901495606E-1,3.388870060E-1,2.037316747E-2
3.075765277E0,-1.837579757E-1,3.197122514E-1,8.655266836E-3
3.078253037E0,-1.773663908E-1,2.984069884E-1,-3.062632866E-3
3.080740797E0,-1.709748209E-1,2.771016955E-1,-1.478053257E-2
3.083228558E0,-1.656484902E-1,2.526006401E-1,-2.756369673E-2
3.085716318E0,-1.613874435E-1,2.270343155E-1,-4.034686089E-2
3.088204079E0,-1.571263820E-1,2.014679909E-1,-5.206476152E-2
3.090691787E0,-1.528653353E-1,1.759016514E-1,-6.484792382E-2
3.093179495E0,-1.496695429E-1,1.503353268E-1,-7.656582445E-2
3.095667204E0,-1.475390196E-1,1.247690022E-1,-8.828372508E-2
3.098154912E0,-1.443432271E-1,1.002679393E-1,-9.893636405E-2
3.100642620E0,-1.411474347E-1,7.576687634E-2,-1.095889956E-1
3.103130329E0,-1.379516423E-1,5.233107507E-2,-1.181111038E-1
3.105618037E0,-1.358211190E-1,2.889527567E-2,-1.276984811E-1
3.108105745E0,-1.336905807E-1,6.524739787E-3,-1.351553202E-1
3.110593454E0,-1.315600574E-1,-1.584579609E-2,-1.436774284E-1
3.113081162E0,-1.294295341E-1,-3.608580679E-2,-1.490037590E-1
3.115568870E0,-1.283642650E-1,-5.526055023E-2,-1.553953290E-1
3.118056579E0,-1.272990108E-1,-7.230477035E-2,-1.596563905E-1
3.120544287E0,-1.251684725E-1,-8.828372508E-2,-1.617869139E-1
3.123031995E0,-1.230379492E-1,-1.010668874E-1,-1.639174372E-1
3.125519704E0,-1.198421568E-1,-1.127847880E-1,-1.649827063E-1
3.128007412E0,-1.155811027E-1,-1.223721579E-1,-1.639174372E-1
3.130495120E0,-1.102547869E-1,-1.319595277E-1,-1.628521830E-1
3.132982829E0,-1.027979404E-1,-1.404816359E-1,-1.596563905E-1
3.135470537E0,-9.427583218E-2,-1.458079666E-1,-1.564605981E-1
3.137958245E0,-8.362319320E-2,-1.511342824E-1,-1.511342824E-1
3.140445954E0,-7.190529257E-2,-1.532648057E-1,-1.458079666E-1
3.142933662E0,-5.912213027E-2,-1.521995366E-1,-1.383511126E-1
3.145421370E0,-4.420844093E-2,-1.500690132E-1,-1.298290044E-1
3.147909079E0,-2.929474972E-2,-1.458079666E-1,-1.213068962E-1
3.150396787E0,-1.225053146E-2,-1.394163817E-1,-1.117195264E-1
3.152884495E0,3.728422802E-3,-1.308942735E-1,-1.010668874E-1
3.155372204E0,2.183790505E-2,-1.202416345E-1,-9.041424841E-2
3.157859912E0,3.888212144E-2,-1.085237339E-1,-7.976161689E-2
3.160347620E0,5.592634156E-2,-9.574057162E-2,-6.910897791E-2
3.162835381E0,7.403582335E-2,-8.082687855E-2,-5.739107728E-2
3.165323141E0,9.214530140E-2,-6.591318548E-2,-4.780370742E-2
3.167810902E0,1.081242561E-1,-4.993423447E-2,-3.821633384E-2
3.170298662E0,1.251684725E-1,-3.395527974E-2,-3.075948730E-2
3.172786422E0,1.390169114E-1,-1.797632314E-2,-2.330264263E-2
3.175274183E0,1.518000662E-1,-1.997369342E-3,-1.691105962E-2
3.177761943E0,1.635179669E-1,1.504684892E-2,-1.158474199E-2
3.180249704E0,1.720400751E-1,2.889527567E-2,-8.388951421E-3
3.182737464E0,1.794969290E-1,4.380896688E-2,-6.258423906E-3
3.185225224E0,1.826927215E-1,5.659212917E-2,-6.258423906E-3
3.187712985E0,1.837579757E-1,6.831002980E-2,-7.323687430E-3
3.190200745E0,1.805621833E-1,7.789740711E-2,-9.454214945E-3
3.192688506E0,1.752358675E-1,8.535424620E-2,-1.371526904E-2
3.195176266E0,1.656484902E-1,8.855003864E-2,-2.010685205E-2
3.197664027E0,1.528653353E-1,9.068056941E-2,-2.756369673E-2
3.200151787E0,1.358211190E-1,9.068056941E-2,-3.608580679E-2
3.202639547E0,1.134505793E-1,8.961530030E-2,-4.780370742E-2
3.205127308E0,8.894951642E-2,8.641951531E-2,-6.058686972E-2
3.207615068E0,6.125266105E-2,8.215846121E-2,-7.337003201E-2
3.210102829E0,3.036001325E-2,7.683213800E-2,-8.934898674E-2
3.212590589E0,-1.597895520E-3,7.044056058E-2,-1.042626798E-1
3.215078349E0,-3.675159439E-2,6.511423737E-2,-1.202416345E-1
3.217566110E0,-7.190529257E-2,5.765739456E-2,-1.372858584E-1
3.220053870E0,-1.070589945E-1,5.126581341E-2,-1.532648057E-1
3.222541631E0,-1.422126889E-1,4.487423226E-2,-1.703090221E-1
3.225029391E0,-1.763011366E-1,3.741738573E-2,-1.862879843E-1
3.227517152E0,-2.103895694E-1,2.889527567E-2,-2.033322006E-1
3.230004912E0,-2.412822098E-1,2.037316747E-2,-2.193111479E-1
3.232492672E0,-2.711096108E-1,1.185105834E-2,-2.342248410E-1
3.234980433E0,-2.988064587E-1,3.328948980E-3,-2.491385341E-1
3.237468193E0,-3.233075142E-1,-4.127896391E-3,-2.619217038E-1
3.239955954E0,-3.435475230E-1,-1.158474199E-2,-2.747048736E-1
3.242443714E0,-3.595264852E-1,-1.797632314E-2,-2.853575051E-1
3.244931474E0,-3.712443709E-1,-2.330264263E-2,-2.938795984E-1
3.247419235E0,-3.787012100E-1,-2.756369673E-2,-3.013364673E-1
3.249906995E0,-3.818970025E-1,-2.969422378E-2,-3.077280223E-1
3.252394756E0,-3.797664940E-1,-3.182475269E-2,-3.130543530E-1
3.254882516E0,-3.733749092E-1,-3.075948730E-2,-3.162501454E-1
3.257370277E0,-3.605917394E-1,-3.075948730E-2,-3.162501454E-1
3.259858037E0,-3.435475230E-1,-2.649843320E-2,-3.162501454E-1
3.262345797E0,-3.222422600E-1,-2.223737910E-2,-3.141196072E-1
3.264833558E0,-2.956106663E-1,-1.691105962E-2,-3.098585606E-1
3.267321318E0,-2.647180259E-1,-8.388951421E-3,-3.034669757E-1
3.269809079E0,-2.295643091E-1,1.198421582E-3,-2.981406748E-1
3.272296839E0,-1.922800839E-1,1.078579482E-2,-2.896185517E-1
3.274784599E0,-1.518000662E-1,2.250369452E-2,-2.800311744E-1
3.277272360E0,-1.102547869E-1,3.315633163E-2,-2.704437971E-1
3.279760120E0,-6.657897681E-2,4.487423226E-2,-2.587259114E-1
3.282247881E0,-2.183790505E-2,5.552686751E-2,-2.470080107E-1
3.284735641E0,2.077264152E-2,6.511423737E-2,-2.331595868E-1
3.287223402E0,6.338318437E-2,7.470161468E-2,-2.193111479E-1
3.289711162E0,1.038632020E-1,8.322372288E-2,-2.043974549E-1
3.292198922E0,1.422126889E-1,8.961530030E-2,-1.894837767E-1
3.294686683E0,1.763011366E-1,9.494162351E-2,-1.724395454E-1
3.297174443E0,2.093243003E-1,9.813741595E-2,-1.575258672E-1
3.299662204E0,2.370211631E-1,1.013332009E-1,-1.415469050E-1
3.302149964E0,2.625874877E-1,1.034637317E-1,-1.255679578E-1
3.304637724E0,2.849580348E-1,1.045289934E-1,-1.117195264E-1
3.307125485E0,3.030675054E-1,1.045289934E-1,-9.680583328E-2
3.309613245E0,3.201117218E-1,1.055942550E-1,-8.189214021E-2
3.312101006E0,3.328948915E-1,1.055942550E-1,-6.804371625E-2
3.314588766E0,3.435475230E-1,1.055942550E-1,-5.419528857E-2
3.317076527E0,3.520696461E-1,1.066595241E-1,-4.034686089E-2
3.319564287E0,3.595264852E-1,1.055942550E-1,-2.756369673E-2
3.322052047E0,3.637875319E-1,1.045289934E-1,-1.584579609E-2
3.324539808E0,3.659180701E-1,1.034637317E-1,-4.127896391E-3
3.327027568E0,3.659180701E-1,1.013332009E-1,6.524739787E-3
3.329515329E0,3.648527861E-1,1.002679393E-1,1.611211337E-2
3.332003089E0,3.616569936E-1,9.813741595E-2,2.463422157E-2
3.334490849E0,3.563306928E-1,9.600688517E-2,3.209106624E-2
3.336978610E0,3.499391079E-1,9.387636185E-2,3.848264739E-2
3.339466370E0,3.435475230E-1,9.068056941E-2,4.487423226E-2
3.341954131E0,3.339601457E-1,8.641951531E-2,5.020054802E-2
3.344441891E0,3.243727684E-1,8.215846121E-2,5.446160212E-2
3.346929652E0,3.137201369E-1,7.683213800E-2,5.872265995E-2
3.349417412E0,3.020022511E-1,7.150582224E-2,6.085318699E-2
3.351905172E0,2.892190814E-1,6.617950648E-2,6.298371404E-2
3.354392933E0,2.775011659E-1,5.978792161E-2,6.298371404E-2
3.356880693E0,2.625874877E-1,5.446160212E-2,6.298371404E-2
3.359368454E0,2.498043180E-1,4.807002097E-2,6.298371404E-2
3.361856214E0,2.359558940E-1,4.380896688E-2,6.085318699E-2
3.364343974E0,2.210422009E-1,3.954791278E-2,5.978792161E-2
3.366831735E0,2.082590461E-1,3.528685868E-2,5.765739456E-2
3.369319495E0,1.944106072E-1,3.315633163E-2,5.552686751E-2
3.371807256E0,1.816274524E-1,3.102580272E-2,5.339634046E-2
3.374295016E0,1.688442826E-1,2.996053919E-2,5.020054802E-2
3.376782777E0,1.571263820E-1,2.996053919E-2,4.700475931E-2
3.379270537E0,1.464737505E-1,2.996053919E-2,4.380896688E-2
3.381758297E0,1.379516423E-1,2.996053919E-2,4.061317816E-2
3.384246058E0,1.294295341E-1,2.996053919E-2,3.635212034E-2
3.386733818E0,1.219726875E-1,3.102580272E-2,3.315633163E-2
3.389221579E0,1.155811027E-1,3.102580272E-2,2.889527567E-2
3.391709339E0,1.102547869E-1,3.209106624E-2,2.569948509E-2
3.394197099E0,1.059937328E-1,3.315633163E-2,2.143843099E-2
3.396684860E0,1.017326787E-1,3.528685868E-2,1.717737690E-2
3.399172620E0,9.747162461E-2,3.741738573E-2,1.398158539E-2
3.401660381E0,9.214530140E-2,3.954791278E-2,1.078579482E-2
3.404148141E0,8.681898564E-2,4.061317816E-2,6.524739787E-3
3.406635902E0,8.255793154E-2,4.167843983E-2,2.263685223E-3
3.409123662E0,7.616634667E-2,4.167843983E-2,-9.321057005E-4
3.411611422E0,7.190529257E-2,4.167843983E-2,-5.193160381E-3
3.414099183E0,6.551371515E-2,4.167843983E-2,-9.454214945E-3
3.416586943E0,5.912213027E-2,3.954791278E-2,-1.265000552E-2
3.419074704E0,5.379581451E-2,3.741738573E-2,-1.691105962E-2
3.421562464E0,4.846949503E-2,3.635212034E-2,-2.010685205E-2
3.424050224E0,4.314317927E-2,3.528685868E-2,-2.330264263E-2
3.426537985E0,3.781685978E-2,3.315633163E-2,-2.756369673E-2
3.429025745E0,3.355580568E-2,3.102580272E-2,-3.075948730E-2
3.431513506E0,3.036001325E-2,2.889527567E-2,-3.289001435E-2
3.434001266E0,2.822948620E-2,2.676474862E-2,-3.715106845E-2
3.436489027E0,2.609895915E-2,2.569948509E-2,-3.928159550E-2
3.438976787E0,2.396843210E-2,2.356895804E-2,-4.141212255E-2
3.441464547E0,2.396843210E-2,2.250369452E-2,-4.354264960E-2
3.443952308E0,2.396843210E-2,2.037316747E-2,-4.567318037E-2
3.446440068E0,2.503369562E-2,2.037316747E-2,-4.780370742E-2
3.448927829E0,2.609895915E-2,1.930790395E-2,-4.886896908E-2
3.451416214E0,2.609895915E-2,1.824264042E-2,-4.886896908E-2
3.453903610E0,2.716422267E-2,1.717737690E-2,-4.886896908E-2
3.456391006E0,2.716422267E-2,1.504684892E-2,-4.993423447E-2
3.458878402E0,2.716422267E-2,1.291632187E-2,-4.886896908E-2
3.461365797E0,2.716422267E-2,1.078579482E-2,-4.886896908E-2
3.463853245E0,2.716422267E-2,7.590003312E-3,-4.673844203E-2
3.466340745E0,2.716422267E-2,5.459476262E-3,-4.460791498E-2
3.468828297E0,2.716422267E-2,2.263685223E-3,-4.247738793E-2
3.471315902E0,2.822948620E-2,-1.997369342E-3,-4.034686089E-2
3.473803558E0,2.929474972E-2,-6.258423906E-3,-3.821633384E-2
3.476291266E0,2.929474972E-2,-9.454214945E-3,-3.608580679E-2
3.478779027E0,3.036001325E-2,-1.371526904E-2,-3.395527974E-2
3.481266839E0,3.142527863E-2,-1.691105962E-2,-3.182475269E-2
3.483754704E0,3.249054030E-2,-2.117211558E-2,-2.969422378E-2
3.486242620E0,3.249054030E-2,-2.436790615E-2,-2.756369673E-2
3.488730589E0,3.355580568E-2,-2.756369673E-2,-2.649843320E-2
3.491218610E0,3.462106735E-2,-3.182475269E-2,-2.543316968E-2
3.493706631E0,3.568633273E-2,-3.502054140E-2,-2.543316968E-2
3.496194652E0,3.675159439E-2,-3.928159550E-2,-2.543316968E-2
3.498682672E0,3.675159439E-2,-4.247738793E-2,-2.543316968E-2
3.501170693E0,3.781685978E-2,-4.780370742E-2,-2.649843320E-2
3.503658610E0,3.781685978E-2,-5.099949613E-2,-2.862896025E-2
3.506146370E0,3.888212144E-2,-5.526055023E-2,-2.969422378E-2
3.508634131E0,3.888212144E-2,-6.058686972E-2,-3.075948730E-2
3.511121891E0,3.888212144E-2,-6.484792382E-2,-3.182475269E-2
3.513609652E0,3.888212144E-2,-6.910897791E-2,-3.289001435E-2
3.516097360E0,3.994738683E-2,-7.443529367E-2,-3.289001435E-2
3.518585068E0,4.101264849E-2,-7.869634777E-2,-3.182475269E-2
3.521072777E0,4.314317927E-2,-8.189214021E-2,-3.182475269E-2
3.523560485E0,4.527370632E-2,-8.615319431E-2,-3.182475269E-2
3.526048193E0,4.740423337E-2,-8.721846342E-2,-3.075948730E-2
3.528535902E0,5.060002208E-2,-8.934898674E-2,-2.862896025E-2
3.531023610E0,5.379581451E-2,-9.041424841E-2,-2.649843320E-2
3.533511318E0,5.805686861E-2,-9.147951752E-2,-2.543316968E-2
3.535999027E0,6.338318437E-2,-9.147951752E-2,-2.330264263E-2
3.538486735E0,6.977476925E-2,-9.147951752E-2,-2.010685205E-2
3.540974443E0,7.616634667E-2,-9.147951752E-2,-1.797632314E-2
3.543462152E0,8.362319320E-2,-9.041424841E-2,-1.584579609E-2
3.545949860E0,9.001477808E-2,-8.934898674E-2,-1.265000552E-2
3.548437568E0,9.747162461E-2,-8.828372508E-2,-1.158474199E-2
3.550925277E0,1.059937328E-1,-8.615319431E-2,-8.388951421E-3
3.553412985E0,1.145158410E-1,-8.508793265E-2,-7.323687430E-3
3.555900693E0,1.230379492E-1,-8.295740932E-2,-5.193160381E-3
3.558388402E0,1.304948032E-1,-8.082687855E-2,-3.062632866E-3
3.560876110E0,1.400821656E-1,-7.869634777E-2,1.331579551E-4
3.563363818E0,1.475390196E-1,-7.763108611E-2,1.198421582E-3
3.565851527E0,1.549958587E-1,-7.763108611E-2,3.328948980E-3
3.568339235E0,1.613874435E-1,-7.763108611E-2,5.459476262E-3
3.570826943E0,1.688442826E-1,-7.763108611E-2,8.655266836E-3
3.573314652E0,1.752358675E-1,-7.763108611E-2,1.185105834E-2
3.575802360E0,1.816274524E-1,-7.869634777E-2,1.504684892E-2
3.578290068E0,1.880190372E-1,-7.869634777E-2,1.824264042E-2
3.580777777E0,1.933453530E-1,-7.976161689E-2,2.143843099E-2
3.583265485E0,1.997369379E-1,-7.869634777E-2,2.463422157E-2
3.585753193E0,2.061285079E-1,-7.869634777E-2,2.783001214E-2
3.588240902E0,2.114548385E-1,-7.763108611E-2,3.102580272E-2
3.590728662E0,2.167811543E-1,-7.763108611E-2,3.422159329E-2
3.593216422E0,2.231727391E-1,-7.656582445E-2,3.741738573E-2
3.595704183E0,2.295643091E-1,-7.656582445E-2,4.061317816E-2
3.598191943E0,2.359558940E-1,-7.550056279E-2,4.274370521E-2
3.600679704E0,2.412822098E-1,-7.550056279E-2,4.487423226E-2
3.603167464E0,2.455432713E-1,-7.443529367E-2,4.700475931E-2
3.605655224E0,2.498043180E-1,-7.337003201E-2,5.020054802E-2
3.608142985E0,2.540653646E-1,-7.123950869E-2,5.233107507E-2
3.610630745E0,2.561959028E-1,-7.017423958E-2,5.446160212E-2
3.613118506E0,2.593916953E-1,-6.910897791E-2,5.659212917E-2
3.615606266E0,2.615222335E-1,-6.697845459E-2,5.765739456E-2
3.618094027E0,2.615222335E-1,-6.591318548E-2,5.872265995E-2
3.620581787E0,2.604569495E-1,-6.484792382E-2,6.085318699E-2
3.623069547E0,2.583264410E-1,-6.484792382E-2,6.085318699E-2
3.625557308E0,2.561959028E-1,-6.378266215E-2,6.085318699E-2
3.628045068E0,2.519348562E-1,-6.484792382E-2,6.085318699E-2
3.630532829E0,2.466085255E-1,-6.484792382E-2,5.978792161E-2
3.633020589E0,2.412822098E-1,-6.697845459E-2,5.872265995E-2
3.635508349E0,2.338253707E-1,-6.910897791E-2,5.659212917E-2
3.637996110E0,2.253032625E-1,-7.230477035E-2,5.339634046E-2
3.640483870E0,2.167811543E-1,-7.550056279E-2,5.020054802E-2
3.642971631E0,2.071937770E-1,-7.976161689E-2,4.700475931E-2
3.645459391E0,1.965411454E-1,-8.402267098E-2,4.380896688E-2
3.647947152E0,1.858884990E-1,-8.721846342E-2,4.061317816E-2
3.650434912E0,1.752358675E-1,-9.041424841E-2,3.635212034E-2
3.652922672E0,1.645832360E-1,-9.467530251E-2,3.209106624E-2
3.655410433E0,1.539305896E-1,-9.893636405E-2,2.996053919E-2
3.657898193E0,1.432779580E-1,-1.031974182E-1,2.463422157E-2
3.660385954E0,1.336905807E-1,-1.074584723E-1,2.143843099E-2
3.662873714E0,1.241032109E-1,-1.106542572E-1,1.717737690E-2
3.665361474E0,1.145158410E-1,-1.138500497E-1,1.398158539E-2
3.667849235E0,1.070589945E-1,-1.159805804E-1,9.720530361E-3
3.670336995E0,9.853688627E-2,-1.159805804E-1,6.524739787E-3
3.672824756E0,9.321057051E-2,-1.159805804E-1,3.328948980E-3
3.675312516E0,8.894951642E-2,-1.149153188E-1,1.331579551E-4
3.677800277E0,8.681898564E-2,-1.127847880E-1,-3.062632866E-3
3.680288037E0,8.362319320E-2,-1.095889956E-1,-5.193160381E-3
3.682775797E0,8.255793154E-2,-1.053279415E-1,-7.323687430E-3
3.685263558E0,8.362319320E-2,-1.010668874E-1,-8.388951421E-3
3.687751318E0,8.575372398E-2,-9.680583328E-2,-9.454214945E-3
3.690239079E0,8.788424730E-2,-9.147951752E-2,-9.454214945E-3
3.692726839E0,8.788424730E-2,-8.615319431E-2,-1.051947847E-2
3.695214599E0,9.001477808E-2,-7.976161689E-2,-9.454214945E-3
3.697702360E0,9.001477808E-2,-7.443529367E-2,-8.388951421E-3
3.700190120E0,9.001477808E-2,-6.910897791E-2,-6.258423906E-3
3.702677881E0,8.894951642E-2,-6.484792382E-2,-3.062632866E-3
3.705165641E0,8.894951642E-2,-6.058686972E-2,1.331579551E-4
3.707653402E0,8.681898564E-2,-5.739107728E-2,4.394212738E-3
3.710141162E0,8.575372398E-2,-5.419528857E-2,7.590003312E-3
3.712628922E0,8.255793154E-2,-5.206476152E-2,1.078579482E-2
3.715116683E0,8.042740822E-2,-5.099949613E-2,1.398158539E-2
3.717604443E0,7.723161578E-2,-5.099949613E-2,1.930790395E-2
3.720092204E0,7.403582335E-2,-4.993423447E-2,2.250369452E-2
3.722579964E0,7.084003091E-2,-5.099949613E-2,2.676474862E-2
3.725067724E0,6.764423847E-2,-5.099949613E-2,2.996053919E-2
3.727555485E0,6.551371515E-2,-5.099949613E-2,3.422159329E-2
3.730043245E0,6.125266105E-2,-5.099949613E-2,3.848264739E-2
3.732531006E0,5.805686861E-2,-5.099949613E-2,4.167843983E-2
3.735018766E0,5.592634156E-2,-4.993423447E-2,4.593949392E-2
3.737506527E0,5.273054913E-2,-4.886896908E-2,4.913528636E-2
3.739994287E0,4.953476042E-2,-4.780370742E-2,5.126581341E-2
3.742482047E0,4.633896798E-2,-4.567318037E-2,5.339634046E-2
3.744969808E0,4.207791388E-2,-4.460791498E-2,5.552686751E-2
3.747457568E0,3.994738683E-2,-4.354264960E-2,5.659212917E-2
3.749945329E0,3.675159439E-2,-4.247738793E-2,5.872265995E-2
3.752433089E0,3.249054030E-2,-4.247738793E-2,5.978792161E-2
3.754920849E0,2.929474972E-2,-4.247738793E-2,6.085318699E-2
3.757408610E0,2.396843210E-2,-4.354264960E-2,6.191844866E-2
3.759896370E0,2.077264152E-2,-4.460791498E-2,6.404897571E-2
3.762384131E0,1.651158556E-2,-4.567318037E-2,6.511423737E-2
3.764871891E0,1.225053146E-2,-4.780370742E-2,6.724476814E-2
3.767359652E0,6.924213842E-3,-4.993423447E-2,7.044056058E-2
3.769847412E0,2.663159044E-3,-5.313002318E-2,7.150582224E-2
3.772335172E0,-2.663159044E-3,-5.526055023E-2,7.363634557E-2
3.774822933E0,-7.989477366E-3,-5.739107728E-2,7.576687634E-2
3.777310693E0,-1.331579592E-2,-6.058686972E-2,7.789740711E-2
3.779798454E0,-1.757685095E-2,-6.378266215E-2,7.896266878E-2
3.782286214E0,-2.077264152E-2,-6.591318548E-2,7.896266878E-2
3.784773974E0,-2.503369562E-2,-6.804371625E-2,8.002793044E-2
3.787261735E0,-2.716422267E-2,-7.017423958E-2,7.896266878E-2
3.789749495E0,-2.929474972E-2,-7.230477035E-2,7.896266878E-2
3.792237256E0,-3.249054030E-2,-7.337003201E-2,7.896266878E-2
3.794725016E0,-3.355580568E-2,-7.656582445E-2,7.789740711E-2
3.797212777E0,-3.462106735E-2,-7.869634777E-2,7.789740711E-2
3.799700537E0,-3.568633273E-2,-8.082687855E-2,7.683213800E-2
3.802188297E0,-3.568633273E-2,-8.295740932E-2,7.683213800E-2
3.804676058E0,-3.568633273E-2,-8.508793265E-2,7.683213800E-2
3.807163818E0,-3.462106735E-2,-8.721846342E-2,7.683213800E-2
3.809651579E0,-3.249054030E-2,-8.934898674E-2,7.789740711E-2
3.812139339E0,-3.036001325E-2,-9.147951752E-2,7.896266878E-2
3.814627099E0,-2.929474972E-2,-9.361004084E-2,8.002793044E-2
3.817114860E0,-2.609895915E-2,-9.467530251E-2,8.109319210E-2
3.819602620E0,-2.396843210E-2,-9.680583328E-2,8.215846121E-2
3.822090381E0,-2.183790505E-2,-9.893636405E-2,8.428898454E-2
3.824578141E0,-1.970737800E-2,-1.010668874E-1,8.535424620E-2
3.827065902E0,-1.864211448E-2,-1.031974182E-1,8.641951531E-2
3.829553662E0,-1.651158556E-2,-1.053279415E-1,8.961530030E-2
3.832041422E0,-1.544632297E-2,-1.085237339E-1,9.068056941E-2
3.834529183E0,-1.544632297E-2,-1.106542572E-1,9.281109273E-2
3.837016943E0,-1.544632297E-2,-1.127847880E-1,9.600688517E-2
3.839504704E0,-1.651158556E-2,-1.149153188E-1,9.813741595E-2
3.841992464E0,-1.757685095E-2,-1.191763729E-1,1.002679393E-1
3.844480224E0,-1.864211448E-2,-1.223721579E-1,1.023984700E-1
3.846967985E0,-2.077264152E-2,-1.266332120E-1,1.045289934E-1
3.849455745E0,-2.290316857E-2,-1.308942735E-1,1.077247858E-1
3.851943506E0,-2.503369562E-2,-1.362205893E-1,1.109205782E-1
3.854431266E0,-2.822948620E-2,-1.415469050E-1,1.141163707E-1
3.856919027E0,-3.036001325E-2,-1.479384899E-1,1.173121557E-1
3.859406787E0,-3.462106735E-2,-1.532648057E-1,1.205079481E-1
3.861894547E0,-3.781685978E-2,-1.596563905E-1,1.226384789E-1
3.864382308E0,-4.207791388E-2,-1.660479754E-1,1.258342713E-1
3.866870068E0,-4.527370632E-2,-1.713742912E-1,1.279647946E-1
3.869357829E0,-4.740423337E-2,-1.767006069E-1,1.300953180E-1
3.871845589E0,-5.060002208E-2,-1.830921918E-1,1.322258562E-1
3.874333349E0,-5.273054913E-2,-1.894837767E-1,1.343563795E-1
3.876821110E0,-5.273054913E-2,-1.937448233E-1,1.375521719E-1
3.879308870E0,-5.273054913E-2,-1.969406158E-1,1.386174262E-1
3.881796631E0,-4.953476042E-2,-1.980058849E-1,1.407479644E-1
3.884284391E0,-4.527370632E-2,-1.990711391E-1,1.418132186E-1
3.886772152E0,-4.101264849E-2,-1.958753467E-1,1.428784877E-1
3.889259912E0,-3.462106735E-2,-1.916143000E-1,1.428784877E-1
3.891747672E0,-2.716422267E-2,-1.841574460E-1,1.428784877E-1
3.894235433E0,-1.757685095E-2,-1.745700836E-1,1.428784877E-1
3.896723193E0,-7.989477366E-3,-1.639174372E-1,1.418132186E-1
3.899210954E0,3.728422802E-3,-1.500690132E-1,1.407479644E-1
3.901698714E0,1.651158556E-2,-1.340900660E-1,1.396826953E-1
3.904186474E0,3.036001325E-2,-1.170458421E-1,1.386174262E-1
3.906674235E0,4.314317927E-2,-9.893636405E-2,1.364869028E-1
3.909161995E0,5.592634156E-2,-8.082687855E-2,1.354216337E-1
3.911649756E0,6.764423847E-2,-6.271740049E-2,1.343563795E-1
3.914137464E0,7.829687744E-2,-4.567318037E-2,1.322258562E-1
3.916625172E0,8.575372398E-2,-2.969422378E-2,1.311605871E-1
3.919112881E0,9.214530140E-2,-1.478053257E-2,1.290300637E-1
3.921600589E0,9.427583218E-2,-3.062632866E-3,1.279647946E-1
3.924088297E0,9.427583218E-2,6.524739787E-3,1.268995255E-1
3.926576006E0,9.108003974E-2,1.398158539E-2,1.258342713E-1
3.929063714E0,8.255793154E-2,1.930790395E-2,1.258342713E-1
3.931551422E0,7.190529257E-2,2.250369452E-2,1.247690022E-1
3.934039131E0,5.699160323E-2,2.356895804E-2,1.226384789E-1
3.936526839E0,3.994738683E-2,2.250369452E-2,1.215732098E-1
3.939014547E0,1.970737800E-2,1.930790395E-2,1.194426864E-1
3.941502256E0,-2.663159044E-3,1.611211337E-2,1.173121557E-1
3.943989964E0,-2.716422267E-2,1.078579482E-2,1.141163707E-1
3.946477672E0,-5.379581451E-2,5.459476262E-3,1.109205782E-1
3.948965381E0,-8.149266988E-2,-3.062632866E-3,1.066595241E-1
3.951453089E0,-1.102547869E-1,-1.265000552E-2,1.013332009E-1
3.953940797E0,-1.400821656E-1,-2.330264263E-2,9.600688517E-2
3.956428506E0,-1.699095517E-1,-3.502054140E-2,9.068056941E-2
3.958916214E0,-1.997369379E-1,-4.993423447E-2,8.322372288E-2
3.961403922E0,-2.295643091E-1,-6.591318548E-2,7.683213800E-2
3.963891631E0,-2.593916953E-1,-8.402267098E-2,6.831002980E-2
3.966379339E0,-2.892190814E-1,-1.021321490E-1,5.978792161E-2
3.968867047E0,-3.211769760E-1,-1.223721579E-1,5.020054802E-2
3.971354756E0,-3.531349003E-1,-1.415469050E-1,4.061317816E-2
3.973842464E0,-3.850927949E-1,-1.596563905E-1,2.889527567E-2
3.976330172E0,-4.159854650E-1,-1.756353378E-1,1.824264042E-2
3.978817881E0,-4.468781054E-1,-1.894837767E-1,8.655266836E-3
3.981305589E0,-4.745749533E-1,-2.022669315E-1,-3.062632866E-3
3.983793297E0,-5.012065172E-1,-2.118543088E-1,-1.371526904E-2
3.986281006E0,-5.235770941E-1,-2.193111479E-1,-2.330264263E-2
3.988768714E0,-5.427518487E-1,-2.246374637E-1,-3.182475269E-2
3.991256474E0,-5.587307811E-1,-2.278332561E-1,-4.141212255E-2
3.993744235E0,-5.704486966E-1,-2.278332561E-1,-4.886896908E-2
3.996231995E0,-5.779055357E-1,-2.257027328E-1,-5.313002318E-2
3.998719756E0,-5.811012983E-1,-2.203764170E-1,-5.632581562E-2
4.001207516E0,-5.789707899E-1,-2.129195631E-1,-5.739107728E-2
4.003695277E0,-5.725792050E-1,-2.033322006E-1,-5.739107728E-2
4.006183037E0,-5.619265437E-1,-1.926795542E-1,-5.419528857E-2
4.008670797E0,-5.459476113E-1,-1.798963994E-1,-4.993423447E-2
4.011159287E0,-5.267728567E-1,-1.660479754E-1,-4.354264960E-2
4.013647464E0,-5.022718310E-1,-1.532648057E-1,-3.502054140E-2
4.016135224E0,-4.735096991E-1,-1.415469050E-1,-2.543316968E-2
4.018622985E0,-4.404865205E-1,-1.298290044E-1,-1.265000552E-2
4.021110745E0,-4.042675495E-1,-1.202416345E-1,1.198421582E-3
4.023598454E0,-3.648527861E-1,-1.106542572E-1,1.717737690E-2
4.026086162E0,-3.233075142E-1,-1.031974182E-1,3.422159329E-2
4.028573870E0,-2.785664499E-1,-9.574057162E-2,5.339634046E-2
4.031061579E0,-2.306295782E-1,-9.041424841E-2,7.150582224E-2
4.033549287E0,-1.816274524E-1,-8.508793265E-2,9.174583107E-2
4.036036995E0,-1.326253265E-1,-8.082687855E-2,1.119858399E-1
4.038524704E0,-8.255793154E-2,-7.763108611E-2,1.322258562E-1
4.041012412E0,-3.249054030E-2,-7.656582445E-2,1.492700726E-1
4.043500120E0,1.544632297E-2,-7.656582445E-2,1.663142890E-1
4.045987829E0,6.018739566E-2,-7.869634777E-2,1.801627129E-1
4.048475537E0,1.027979404E-1,-8.189214021E-2,1.940111369E-1
4.050963245E0,1.432779580E-1,-8.615319431E-2,2.057290375E-1
4.053450954E0,1.784316599E-1,-9.041424841E-2,2.142511457E-1
4.055938662E0,2.093243003E-1,-9.787109494E-2,2.217079997E-1
4.058426370E0,2.348906398E-1,-1.053279415E-1,2.270343155E-1
4.060914079E0,2.561959028E-1,-1.149153188E-1,2.302301079E-1
4.063401787E0,2.721748650E-1,-1.245026886E-1,2.312953621E-1
4.065889495E0,2.838927507E-1,-1.362205893E-1,2.323606312E-1
4.068377204E0,2.902843356E-1,-1.479384899E-1,2.312953621E-1
4.070864912E0,2.924148738E-1,-1.596563905E-1,2.291648388E-1
4.073352620E0,2.902843356E-1,-1.713742912E-1,2.249037921E-1
4.075840329E0,2.828274965E-1,-1.820269227E-1,2.206427306E-1
4.078328037E0,2.711096108E-1,-1.926795542E-1,2.153164148E-1
4.080815745E0,2.561959028E-1,-2.022669315E-1,2.089248300E-1
4.083303454E0,2.380864173E-1,-2.118543088E-1,2.014679909E-1
4.085791162E0,2.189116776E-1,-2.193111479E-1,1.940111369E-1
4.088278870E0,1.965411454E-1,-2.267680019E-1,1.854890287E-1
4.090766579E0,1.731053442E-1,-2.320943177E-1,1.780321896E-1
4.093254287E0,1.486042738E-1,-2.363553643E-1,1.684448123E-1
4.095741995E0,1.251684725E-1,-2.395511568E-1,1.609879732E-1
4.098229704E0,1.038632020E-1,-2.406164259E-1,1.524658650E-1
4.100717464E0,8.362319320E-2,-2.395511568E-1,1.450090110E-1
4.103205224E0,6.444845349E-2,-2.384859025E-1,1.386174262E-1
4.105692985E0,4.846949503E-2,-2.352901101E-1,1.300953180E-1
4.108180745E0,3.568633273E-2,-2.310290486E-1,1.237037405E-1
4.110668506E0,2.609895915E-2,-2.267680019E-1,1.173121557E-1
4.113156266E0,1.864211448E-2,-2.214416862E-1,1.119858399E-1
4.115644027E0,1.544632297E-2,-2.182458937E-1,1.055942550E-1
4.118131787E0,1.544632297E-2,-2.150501013E-1,1.013332009E-1
4.120619547E0,1.651158556E-2,-2.118543088E-1,9.600688517E-2
4.123107308E0,2.077264152E-2,-2.086585164E-1,9.174583107E-2
4.125595068E0,2.822948620E-2,-2.065279931E-1,8.855003864E-2
4.128082829E0,3.675159439E-2,-2.054627240E-1,8.322372288E-2
4.130570589E0,4.740423337E-2,-2.043974549E-1,7.896266878E-2
4.133058349E0,5.805686861E-2,-2.033322006E-1,7.363634557E-2
4.135546110E0,7.190529257E-2,-2.022669315E-1,6.831002980E-2
4.138033870E0,8.468846232E-2,-2.012016773E-1,6.191844866E-2
4.140521631E0,9.853688627E-2,-2.012016773E-1,5.446160212E-2
4.143009391E0,1.134505793E-1,-2.022669315E-1,4.593949392E-2
4.145497152E0,1.272990108E-1,-2.022669315E-1,3.741738573E-2
4.147984912E0,1.400821656E-1,-2.033322006E-1,2.783001214E-2
4.150472672E0,1.528653353E-1,-2.043974549E-1,1.717737690E-2
4.152960433E0,1.624527127E-1,-2.065279931E-1,6.524739787E-3
4.155448193E0,1.720400751E-1,-2.086585164E-1,-6.258423906E-3
4.157935954E0,1.794969290E-1,-2.118543088E-1,-1.797632314E-2
4.160423714E0,1.858884990E-1,-2.150501013E-1,-3.075948730E-2
4.162911474E0,1.901495606E-1,-2.182458937E-1,-4.354264960E-2
4.165399235E0,1.933453530E-1,-2.214416862E-1,-5.419528857E-2
4.167886995E0,1.933453530E-1,-2.246374637E-1,-6.484792382E-2
4.170374756E0,1.922800839E-1,-2.278332561E-1,-7.443529367E-2
4.172862516E0,1.901495606E-1,-2.310290486E-1,-8.402267098E-2
4.175350277E0,1.858884990E-1,-2.352901101E-1,-9.041424841E-2
4.177838037E0,1.816274524E-1,-2.406164259E-1,-9.680583328E-2
4.180325797E0,1.763011366E-1,-2.459427416E-1,-1.021321490E-1
4.182813558E0,1.709748209E-1,-2.533995807E-1,-1.063932031E-1
4.185301318E0,1.656484902E-1,-2.608564198E-1,-1.085237339E-1
4.187789079E0,1.592569202E-1,-2.683132887E-1,-1.106542572E-1
4.190276839E0,1.528653353E-1,-2.747048736E-1,-1.106542572E-1
4.192764599E0,1.454084814E-1,-2.810964286E-1,-1.085237339E-1
4.195252360E0,1.379516423E-1,-2.864227593E-1,-1.063932031E-1
4.197740120E0,1.315600574E-1,-2.917490900E-1,-1.042626798E-1
4.200227881E0,1.251684725E-1,-2.949448824E-1,-1.000016257E-1
4.202715641E0,1.166463718E-1,-2.981406748E-1,-9.574057162E-2
4.205203402E0,1.081242561E-1,-3.013364673E-1,-9.254477918E-2
4.207691162E0,9.960214794E-2,-3.045322299E-1,-9.041424841E-2
4.210178922E0,9.001477808E-2,-3.066627681E-1,-8.721846342E-2
4.212666683E0,8.042740822E-2,-3.109238148E-1,-8.508793265E-2
4.215154443E0,7.190529257E-2,-3.151848912E-1,-8.295740932E-2
4.217642204E0,6.231792271E-2,-3.205111921E-1,-8.189214021E-2
4.220129964E0,5.273054913E-2,-3.258375227E-1,-8.082687855E-2
4.222617724E0,4.420844093E-2,-3.311638236E-1,-8.082687855E-2
4.225105485E0,3.675159439E-2,-3.364901543E-1,-8.082687855E-2
4.227593245E0,2.822948620E-2,-3.428817391E-1,-8.082687855E-2
4.230081006E0,2.290316857E-2,-3.492733240E-1,-8.082687855E-2
4.232568766E0,1.864211448E-2,-3.567301631E-1,-8.189214021E-2
4.235056527E0,1.544632297E-2,-3.631217480E-1,-8.082687855E-2
4.237544287E0,1.438105945E-2,-3.684480488E-1,-8.189214021E-2
4.240032047E0,1.544632297E-2,-3.716438413E-1,-8.189214021E-2
4.242519808E0,1.757685095E-2,-3.737743795E-1,-8.189214021E-2
4.245007568E0,2.183790505E-2,-3.737743795E-1,-8.082687855E-2
4.247495329E0,2.822948620E-2,-3.716438413E-1,-8.082687855E-2
4.249983089E0,3.675159439E-2,-3.673827946E-1,-8.082687855E-2
4.252470849E0,4.846949503E-2,-3.620564938E-1,-7.869634777E-2
4.254958610E0,6.231792271E-2,-3.535343707E-1,-7.763108611E-2
4.257446370E0,7.723161578E-2,-3.439469934E-1,-7.550056279E-2
4.259934131E0,9.321057051E-2,-3.322291076E-1,-7.337003201E-2
4.262421891E0,1.102547869E-1,-3.205111921E-1,-7.123950869E-2
4.264909652E0,1.283642650E-1,-3.087933064E-1,-6.910897791E-2
4.267397412E0,1.454084814E-1,-2.960101366E-1,-6.591318548E-2
4.269885172E0,1.624527127E-1,-2.832269669E-1,-6.378266215E-2
4.272372933E0,1.773663908E-1,-2.715090811E-1,-5.952160433E-2
4.274860693E0,1.933453530E-1,-2.619217038E-1,-5.526055023E-2
4.277348454E0,2.061285079E-1,-2.533995807E-1,-4.993423447E-2
4.279836214E0,2.178464085E-1,-2.470080107E-1,-4.567318037E-2
4.282323974E0,2.274337858E-1,-2.416816950E-1,-4.141212255E-2
4.284811735E0,2.359558940E-1,-2.363553643E-1,-3.715106845E-2
4.287299495E0,2.412822098E-1,-2.342248410E-1,-3.182475269E-2
4.289787256E0,2.455432713E-1,-2.310290486E-1,-2.649843320E-2
4.292275016E0,2.476737946E-1,-2.278332561E-1,-2.223737910E-2
4.294762777E0,2.487390637E-1,-2.246374637E-1,-1.691105962E-2
4.297250537E0,2.466085255E-1,-2.225069404E-1,-1.158474199E-2
4.299738297E0,2.434127480E-1,-2.182458937E-1,-6.258423906E-3
4.302226058E0,2.391516864E-1,-2.139848322E-1,1.331579551E-4
4.304713818E0,2.348906398E-1,-2.086585164E-1,6.524739787E-3
4.307201579E0,2.295643091E-1,-2.033322006E-1,1.398158539E-2
4.309689339E0,2.242379934E-1,-1.980058849E-1,2.037316747E-2
4.312177099E0,2.178464085E-1,-1.926795542E-1,2.676474862E-2
4.314664860E0,2.103895694E-1,-1.862879843E-1,3.422159329E-2
4.317152620E0,2.029327303E-1,-1.809616536E-1,4.061317816E-2
4.319640381E0,1.944106072E-1,-1.756353378E-1,4.807002097E-2
4.322128141E0,1.858884990E-1,-1.713742912E-1,5.446160212E-2
4.324615902E0,1.763011366E-1,-1.681784987E-1,6.191844866E-2
4.327103662E0,1.667137593E-1,-1.639174372E-1,6.831002980E-2
4.329591422E0,1.560611278E-1,-1.607216448E-1,7.363634557E-2
4.332079183E0,1.454084814E-1,-1.564605981E-1,7.789740711E-2
4.334566943E0,1.347558498E-1,-1.532648057E-1,8.322372288E-2
4.337054704E0,1.230379492E-1,-1.479384899E-1,8.641951531E-2
4.339542464E0,1.102547869E-1,-1.447426975E-1,8.855003864E-2
4.342030224E0,9.640636295E-2,-1.415469050E-1,9.068056941E-2
4.344517985E0,8.255793154E-2,-1.383511126E-1,9.068056941E-2
4.347005745E0,6.657897681E-2,-1.362205893E-1,9.068056941E-2
4.349493506E0,5.060002208E-2,-1.351553202E-1,9.068056941E-2
4.351981266E0,3.355580568E-2,-1.340900660E-1,8.961530030E-2
4.354469027E0,1.757685095E-2,-1.362205893E-1,8.855003864E-2
4.356956787E0,1.597895520E-3,-1.372858584E-1,8.855003864E-2
4.359444547E0,-1.438105945E-2,-1.404816359E-1,8.748477697E-2
4.361932308E0,-3.036001325E-2,-1.436774284E-1,8.641951531E-2
4.364420068E0,-4.527370632E-2,-1.468732208E-1,8.535424620E-2
4.366907829E0,-5.805686861E-2,-1.500690132E-1,8.535424620E-2
4.369395589E0,-6.870950758E-2,-1.532648057E-1,8.535424620E-2
4.371883297E0,-7.723161578E-2,-1.553953290E-1,8.748477697E-2
4.374371006E0,-8.255793154E-2,-1.564605981E-1,8.961530030E-2
4.376858714E0,-8.681898564E-2,-1.585911214E-1,9.387636185E-2
4.379346422E0,-8.788424730E-2,-1.575258672E-1,9.920267761E-2
4.381834131E0,-8.681898564E-2,-1.564605981E-1,1.045289934E-1
4.384321839E0,-8.362319320E-2,-1.532648057E-1,1.119858399E-1
4.386809547E0,-7.829687744E-2,-1.468732208E-1,1.194426864E-1
4.389297256E0,-6.977476925E-2,-1.404816359E-1,1.290300637E-1
4.391784964E0,-5.912213027E-2,-1.330247968E-1,1.386174262E-1
4.394272672E0,-4.633896798E-2,-1.255679578E-1,1.492700726E-1
4.396760381E0,-3.249054030E-2,-1.170458421E-1,1.599227041E-1
4.399248089E0,-1.651158556E-2,-1.095889956E-1,1.716406047E-1
4.401735797E0,5.326318205E-4,-1.010668874E-1,1.822932363E-1
4.404223506E0,1.757685095E-2,-9.361004084E-2,1.940111369E-1
4.406711214E0,3.568633273E-2,-8.508793265E-2,2.046637833E-1
4.409198922E0,5.273054913E-2,-7.550056279E-2,2.153164148E-1
4.411686631E0,6.977476925E-2,-6.591318548E-2,2.249037921E-1
4.414174339E0,8.362319320E-2,-5.632581562E-2,2.323606312E-1
4.416662047E0,9.640636295E-2,-4.780370742E-2,2.398174703E-1
4.419149756E0,1.059937328E-1,-3.928159550E-2,2.462090552E-1
4.421637464E0,1.145158410E-1,-3.182475269E-2,2.504701018E-1
4.424125172E0,1.198421568E-1,-2.756369673E-2,2.547311783E-1
4.426612881E0,1.241032109E-1,-2.330264263E-2,2.579269707E-1
4.429100589E0,1.251684725E-1,-2.117211558E-2,2.589922249E-1
4.431588297E0,1.230379492E-1,-2.010685205E-2,2.589922249E-1
4.434076006E0,1.187768951E-1,-2.010685205E-2,2.568616867E-1
4.436563714E0,1.123853177E-1,-2.117211558E-2,2.547311783E-1
4.439051422E0,1.049284711E-1,-2.330264263E-2,2.504701018E-1
4.441539131E0,9.427583218E-2,-2.543316968E-2,2.462090552E-1
4.444026839E0,8.362319320E-2,-2.862896025E-2,2.398174703E-1
4.446514547E0,7.084003091E-2,-3.182475269E-2,2.344911546E-1
4.449002256E0,5.805686861E-2,-3.608580679E-2,2.259690464E-1
4.451490016E0,4.420844093E-2,-4.247738793E-2,2.174469382E-1
4.453977777E0,3.142527863E-2,-4.886896908E-2,2.078595608E-1
4.456465537E0,1.864211448E-2,-5.526055023E-2,1.982721984E-1
4.458953297E0,6.924213842E-3,-6.378266215E-2,1.886848211E-1
4.461441058E0,-3.728422802E-3,-7.123950869E-2,1.780321896E-1
4.463928818E0,-1.225053146E-2,-7.869634777E-2,1.663142890E-1
4.466416579E0,-1.864211448E-2,-8.615319431E-2,1.556616426E-1
4.468904339E0,-2.396843210E-2,-9.467530251E-2,1.439437568E-1
4.471392099E0,-2.716422267E-2,-1.021321490E-1,1.311605871E-1
4.473879860E0,-2.716422267E-2,-1.095889956E-1,1.183774248E-1
4.476367620E0,-2.716422267E-2,-1.181111038E-1,1.055942550E-1
4.478855381E0,-2.503369562E-2,-1.266332120E-1,9.281109273E-2
4.481343141E0,-2.077264152E-2,-1.362205893E-1,8.109319210E-2
4.483830902E0,-1.651158556E-2,-1.458079666E-1,6.937529147E-2
4.486318662E0,-1.118526794E-2,-1.543300748E-1,5.765739456E-2
4.488806422E0,-4.793686327E-3,-1.639174372E-1,4.807002097E-2
4.491294183E0,1.597895520E-3,-1.735048145E-1,3.954791278E-2
4.493781943E0,6.924213842E-3,-1.820269227E-1,3.209106624E-2
4.496269704E0,1.331579592E-2,-1.905490309E-1,2.569948509E-2
4.498757464E0,1.864211448E-2,-1.980058849E-1,2.143843099E-2
4.501245224E0,2.396843210E-2,-2.065279931E-1,1.824264042E-2
4.503732985E0,2.929474972E-2,-2.139848322E-1,1.611211337E-2
4.506220745E0,3.355580568E-2,-2.203764170E-1,1.504684892E-2
4.508708506E0,3.675159439E-2,-2.278332561E-1,1.504684892E-2
4.511196266E0,3.888212144E-2,-2.352901101E-1,1.611211337E-2
4.513684027E0,4.207791388E-2,-2.416816950E-1,1.717737690E-2
4.516171787E0,4.314317927E-2,-2.459427416E-1,1.930790395E-2
4.518659547E0,4.420844093E-2,-2.502037883E-1,2.143843099E-2
4.521147308E0,4.420844093E-2,-2.523343265E-1,2.463422157E-2
4.523635068E0,4.420844093E-2,-2.523343265E-1,2.889527567E-2
4.526122829E0,4.420844093E-2,-2.512690723E-1,3.315633163E-2
4.528610589E0,4.314317927E-2,-2.491385341E-1,3.741738573E-2
4.531098349E0,4.207791388E-2,-2.470080107E-1,4.167843983E-2
4.533586110E0,4.101264849E-2,-2.448774725E-1,4.380896688E-2
4.536073870E0,3.994738683E-2,-2.427469492E-1,4.807002097E-2
4.538561631E0,3.994738683E-2,-2.427469492E-1,5.126581341E-2
4.541049391E0,3.994738683E-2,-2.427469492E-1,5.446160212E-2
4.543537152E0,4.101264849E-2,-2.438122183E-1,5.659212917E-2
4.546024912E0,4.207791388E-2,-2.459427416E-1,5.765739456E-2
4.548512672E0,4.527370632E-2,-2.480732650E-1,5.872265995E-2
4.551000433E0,4.846949503E-2,-2.523343265E-1,5.872265995E-2
4.553488193E0,5.379581451E-2,-2.565953732E-1,5.872265995E-2
4.555975954E0,5.912213027E-2,-2.608564198E-1,5.765739456E-2
4.558463714E0,6.551371515E-2,-2.640522122E-1,5.659212917E-2
4.560951474E0,7.190529257E-2,-2.683132887E-1,5.339634046E-2
4.563439235E0,8.042740822E-2,-2.704437971E-1,5.126581341E-2
4.565926995E0,9.001477808E-2,-2.715090811E-1,4.807002097E-2
4.568414756E0,1.006674170E-1,-2.715090811E-1,4.380896688E-2
4.570902516E0,1.102547869E-1,-2.715090811E-1,4.061317816E-2
4.573390277E0,1.219726875E-1,-2.704437971E-1,3.635212034E-2
4.575878037E0,1.326253265E-1,-2.693785429E-1,3.209106624E-2
4.578365797E0,1.432779580E-1,-2.672480047E-1,2.783001214E-2
4.580853558E0,1.549958587E-1,-2.640522122E-1,2.463422157E-2
4.583341318E0,1.645832360E-1,-2.608564198E-1,2.250369452E-2
4.585829079E0,1.741705984E-1,-2.555301189E-1,1.930790395E-2
4.588316839E0,1.826927215E-1,-2.512690723E-1,1.717737690E-2
4.590804599E0,1.901495606E-1,-2.470080107E-1,1.611211337E-2
4.593292360E0,1.965411454E-1,-2.427469492E-1,1.504684892E-2
4.595780120E0,2.008021921E-1,-2.374206334E-1,1.398158539E-2
4.598267881E0,2.029327303E-1,-2.310290486E-1,1.291632187E-2
4.600755641E0,2.039979845E-1,-2.246374637E-1,1.291632187E-2
4.603243402E0,2.029327303E-1,-2.182458937E-1,1.291632187E-2
4.605731162E0,2.008021921E-1,-2.107890397E-1,1.398158539E-2
4.608218922E0,1.965411454E-1,-2.033322006E-1,1.504684892E-2
4.610706683E0,1.890842915E-1,-1.958753467E-1,1.611211337E-2
4.613194443E0,1.816274524E-1,-1.873532385E-1,1.824264042E-2
4.615682204E0,1.709748209E-1,-1.809616536E-1,2.143843099E-2
4.618169964E0,1.592569202E-1,-1.745700836E-1,2.463422157E-2
4.620657724E0,1.464737505E-1,-1.692437679E-1,2.889527567E-2
4.623145485E0,1.336905807E-1,-1.671132296E-1,3.209106624E-2
4.625633245E0,1.187768951E-1,-1.671132296E-1,3.635212034E-2
4.628121006E0,1.049284711E-1,-1.692437679E-1,4.061317816E-2
4.630608766E0,9.001477808E-2,-1.724395454E-1,4.487423226E-2
4.633096527E0,7.510108501E-2,-1.777658761E-1,4.807002097E-2
4.635584287E0,6.018739566E-2,-1.820269227E-1,5.233107507E-2
4.638072047E0,4.527370632E-2,-1.884185076E-1,5.552686751E-2
4.640559808E0,3.142527863E-2,-1.926795542E-1,5.765739456E-2
4.643047568E0,1.757685095E-2,-1.980058849E-1,6.085318699E-2
4.645535329E0,5.858949851E-3,-2.022669315E-1,6.404897571E-2
4.648023089E0,-3.728422802E-3,-2.043974549E-1,6.724476814E-2
4.650510849E0,-1.012000442E-2,-2.065279931E-1,6.831002980E-2
4.652998610E0,-1.331579592E-2,-2.054627240E-1,6.937529147E-2
4.655486370E0,-1.544632297E-2,-2.012016773E-1,6.937529147E-2
4.657974131E0,-1.438105945E-2,-1.958753467E-1,6.831002980E-2
4.660461891E0,-1.118526794E-2,-1.873532385E-1,6.617950648E-2
4.662949652E0,-6.924213842E-3,-1.777658761E-1,6.404897571E-2
4.665437412E0,-1.597895520E-3,-1.660479754E-1,6.298371404E-2
4.667925172E0,5.858949851E-3,-1.553953290E-1,6.085318699E-2
4.670412933E0,1.438105945E-2,-1.436774284E-1,6.085318699E-2
4.672900693E0,2.396843210E-2,-1.319595277E-1,6.085318699E-2
4.675388454E0,3.355580568E-2,-1.213068962E-1,6.085318699E-2
4.677876214E0,4.314317927E-2,-1.095889956E-1,6.298371404E-2
4.680363974E0,5.166528746E-2,-9.893636405E-2,6.617950648E-2
4.682851735E0,6.018739566E-2,-8.721846342E-2,6.937529147E-2
4.685339495E0,6.870950758E-2,-7.656582445E-2,7.363634557E-2
4.687827256E0,7.510108501E-2,-6.591318548E-2,7.789740711E-2
4.690315016E0,8.042740822E-2,-5.526055023E-2,8.322372288E-2
4.692802777E0,8.575372398E-2,-4.460791498E-2,8.961530030E-2
4.695290537E0,8.894951642E-2,-3.395527974E-2,9.707214683E-2
4.697778297E0,9.214530140E-2,-2.436790615E-2,1.034637317E-1
4.700266058E0,9.321057051E-2,-1.584579609E-2,1.109205782E-1
4.702753818E0,9.321057051E-2,-8.388951421E-3,1.183774248E-1
4.705241579E0,9.108003974E-2,1.331579551E-4,1.268995255E-1
4.707729287E0,8.788424730E-2,9.720530361E-3,1.354216337E-1
4.710216995E0,8.468846232E-2,1.930790395E-2,1.439437568E-1
4.712704704E0,7.936213911E-2,2.783001214E-2,1.524658650E-1
4.715192412E0,7.403582335E-2,3.635212034E-2,1.631184965E-1
4.717680120E0,6.870950758E-2,4.487423226E-2,1.737711281E-1
4.720167829E0,6.444845349E-2,5.020054802E-2,1.865542978E-1
4.722655537E0,6.125266105E-2,5.446160212E-2,2.004027218E-1
4.725143245E0,5.912213027E-2,5.659212917E-2,2.153164148E-1
4.727630954E0,6.018739566E-2,5.765739456E-2,2.312953621E-1
4.730118662E0,6.338318437E-2,5.765739456E-2,2.462090552E-1
4.732606370E0,6.870950758E-2,5.765739456E-2,2.611227632E-1
4.735094079E0,7.723161578E-2,5.765739456E-2,2.771016955E-1
4.737581787E0,8.894951642E-2,5.765739456E-2,2.909501195E-1
4.740069495E0,1.038632020E-1,5.872265995E-2,3.037332892E-1
4.742557204E0,1.219726875E-1,5.872265995E-2,3.165164590E-1
4.745044912E0,1.443432271E-1,5.978792161E-2,3.271690905E-1
4.747532620E0,1.699095517E-1,6.191844866E-2,3.356912136E-1
4.750020329E0,1.976063997E-1,6.404897571E-2,3.420827985E-1
4.752508037E0,2.295643091E-1,6.831002980E-2,3.474090993E-1
4.754995745E0,2.615222335E-1,7.257108390E-2,3.506048918E-1
4.757483454E0,2.945453823E-1,7.789740711E-2,3.516701460E-1
4.759971162E0,3.296990991E-1,8.322372288E-2,3.506048918E-1
4.762458870E0,3.637875319E-1,8.961530030E-2,3.484743834E-1
4.764946579E0,3.978759646E-1,9.600688517E-2,3.442133069E-1
4.767434287E0,4.298338890E-1,1.023984700E-1,3.378217220E-1
4.769921995E0,4.607265294E-1,1.098553166E-1,3.303648829E-1
4.772409704E0,4.905539155E-1,1.162468940E-1,3.207775056E-1
4.774897412E0,5.171855092E-1,1.226384789E-1,3.090596199E-1
4.777386058E0,5.406212807E-1,1.290300637E-1,2.962764502E-1
4.779873974E0,5.587307811E-1,1.343563795E-1,2.802974880E-1
4.782361735E0,5.725792050E-1,1.396826953E-1,2.632532716E-1
4.784849443E0,5.811012983E-1,1.428784877E-1,2.440785319E-1
4.787337152E0,5.853623748E-1,1.460742801E-1,2.249037921E-1
4.789824860E0,5.832318664E-1,1.471395344E-1,2.057290375E-1
4.792312568E0,5.757750273E-1,1.471395344E-1,1.854890287E-1
4.794800277E0,5.629918575E-1,1.460742801E-1,1.652490199E-1
4.797287985E0,5.448823571E-1,1.428784877E-1,1.439437568E-1
4.799775693E0,5.246423483E-1,1.375521719E-1,1.247690022E-1
4.802263402E0,5.001412630E-1,1.300953180E-1,1.045289934E-1
4.804751110E0,4.735096991E-1,1.205079481E-1,8.748477697E-2
4.807238818E0,4.458128214E-1,1.098553166E-1,6.937529147E-2
4.809726527E0,4.159854650E-1,9.920267761E-2,5.446160212E-2
4.812214235E0,3.861580789E-1,8.855003864E-2,3.848264739E-2
4.814701943E0,3.573959470E-1,7.789740711E-2,2.356895804E-2
4.817189652E0,3.286338449E-1,6.831002980E-2,1.078579482E-2
4.819677360E0,3.020022511E-1,6.085318699E-2,-1.997369342E-3
4.822165068E0,2.775011659E-1,5.552686751E-2,-1.265000552E-2
4.824652777E0,2.540653646E-1,5.339634046E-2,-2.330264263E-2
4.827140485E0,2.348906398E-1,5.339634046E-2,-3.182475269E-2
4.829628193E0,2.157158852E-1,5.552686751E-2,-4.034686089E-2
4.832115902E0,1.997369379E-1,5.978792161E-2,-4.567318037E-2
4.834603610E0,1.848232448E-1,6.617950648E-2,-5.099949613E-2
4.837091318E0,1.699095517E-1,7.257108390E-2,-5.632581562E-2
4.839579027E0,1.560611278E-1,8.002793044E-2,-5.952160433E-2
4.842066735E0,1.443432271E-1,8.748477697E-2,-6.271740049E-2
4.844554443E0,1.326253265E-1,9.600688517E-2,-6.271740049E-2
4.847042152E0,1.209074259E-1,1.055942550E-1,-6.378266215E-2
4.849529860E0,1.113200486E-1,1.151816323E-1,-6.484792382E-2
4.852017568E0,1.006674170E-1,1.237037405E-1,-6.378266215E-2
4.854505277E0,9.214530140E-2,1.322258562E-1,-6.378266215E-2
4.856992985E0,8.255793154E-2,1.386174262E-1,-6.271740049E-2
4.859480693E0,7.510108501E-2,1.450090110E-1,-6.165213138E-2
4.861968402E0,6.870950758E-2,1.503353268E-1,-6.165213138E-2
4.864456110E0,6.338318437E-2,1.545963883E-1,-6.165213138E-2
4.866943870E0,5.805686861E-2,1.588574350E-1,-6.165213138E-2
4.869431631E0,5.379581451E-2,1.620532274E-1,-6.165213138E-2
4.871919391E0,4.953476042E-2,1.663142890E-1,-6.378266215E-2
4.874407152E0,4.633896798E-2,1.705753356E-1,-6.591318548E-2
4.876894912E0,4.420844093E-2,1.737711281E-1,-6.910897791E-2
4.879382672E0,4.314317927E-2,1.769669205E-1,-7.230477035E-2
4.881870433E0,4.420844093E-2,1.790974438E-1,-7.656582445E-2
4.884358193E0,4.633896798E-2,1.790974438E-1,-8.189214021E-2
4.886845954E0,5.060002208E-2,1.790974438E-1,-8.721846342E-2
4.889333714E0,5.486107618E-2,1.780321896E-1,-9.361004084E-2
4.891821474E0,6.125266105E-2,1.748363972E-1,-9.893636405E-2
4.894309235E0,6.870950758E-2,1.716406047E-1,-1.053279415E-1
4.896796995E0,7.723161578E-2,1.684448123E-1,-1.117195264E-1
4.899284756E0,8.575372398E-2,1.620532274E-1,-1.181111038E-1
4.901772516E0,9.640636295E-2,1.567269117E-1,-1.245026886E-1
4.904260277E0,1.070589945E-1,1.503353268E-1,-1.298290044E-1
4.906748037E0,1.187768951E-1,1.439437568E-1,-1.340900660E-1
4.909235797E0,1.304948032E-1,1.375521719E-1,-1.404816359E-1
4.911723558E0,1.432779580E-1,1.322258562E-1,-1.447426975E-1
4.914211318E0,1.581916511E-1,1.268995255E-1,-1.500690132E-1
4.916699079E0,1.731053442E-1,1.237037405E-1,-1.553953290E-1
4.919186839E0,1.890842915E-1,1.205079481E-1,-1.607216448E-1
4.921674599E0,2.061285079E-1,1.194426864E-1,-1.671132296E-1
4.924162360E0,2.221074700E-1,1.194426864E-1,-1.735048145E-1
4.926650120E0,2.391516864E-1,1.205079481E-1,-1.798963994E-1
4.929137881E0,2.530001104E-1,1.226384789E-1,-1.852227151E-1
4.931625641E0,2.657832801E-1,1.237037405E-1,-1.916143000E-1
4.934113402E0,2.743053734E-1,1.258342713E-1,-1.958753467E-1
4.936601162E0,2.817622423E-1,1.268995255E-1,-2.001364082E-1
4.939088922E0,2.828274965E-1,1.279647946E-1,-2.033322006E-1
4.941576683E0,2.828274965E-1,1.279647946E-1,-2.054627240E-1
4.944064443E0,2.764359117E-1,1.268995255E-1,-2.065279931E-1
4.946552204E0,2.668485343E-1,1.258342713E-1,-2.065279931E-1
4.949039964E0,2.551306486E-1,1.237037405E-1,-2.065279931E-1
4.951527724E0,2.402169555E-1,1.205079481E-1,-2.054627240E-1
4.954015485E0,2.210422009E-1,1.173121557E-1,-2.054627240E-1
4.956503245E0,2.008021921E-1,1.130511016E-1,-2.033322006E-1
4.958991006E0,1.773663908E-1,1.087900475E-1,-2.022669315E-1
4.961478766E0,1.528653353E-1,1.034637317E-1,-2.012016773E-1
