"Time (s)","Acceleration x (m/s^2)","Acceleration y (m/s^2)","Acceleration z (m/s^2)"
3.398620100E-2,9.439140320E0,7.152677774E-1,-3.693654776E0
3.644114900E-2,9.429563522E0,6.913257241E-1,-3.674500942E0
3.889870100E-2,9.424775124E0,6.913257241E-1,-3.655347347E0
4.135995100E-2,9.434351921E0,6.817489266E-1,-3.612251759E0
4.382583700E-2,9.415198326E0,6.817489266E-1,-3.617040157E0
4.629703400E-2,9.410409927E0,6.817489266E-1,-3.602674961E0
4.877396200E-2,9.410409927E0,6.865373254E-1,-3.578732967E0
5.125682600E-2,9.396044731E0,6.769605279E-1,-3.569156170E0
5.374620100E-2,9.362525940E0,6.817489266E-1,-3.569156170E0
5.623557600E-2,9.343372345E0,6.721721292E-1,-3.540425777E0
5.873047200E-2,9.338583946E0,6.578069329E-1,-3.511695385E0
6.123036800E-2,9.319430351E0,6.721721292E-1,-3.492541790E0
6.373458700E-2,9.285911560E0,6.578069329E-1,-3.454234600E0
6.624229500E-2,9.271546364E0,6.865373254E-1,-3.415927172E0
6.875255500E-2,9.233239174E0,7.009025216E-1,-3.372831583E0
7.126437800E-2,9.223662376E0,7.200561762E-1,-3.344101191E0
7.377672200E-2,9.180566788E0,7.344213724E-1,-3.315370798E0
7.627807600E-2,9.142259598E0,7.727286220E-1,-3.296217203E0
7.876583700E-2,9.108740807E0,7.966706157E-1,-3.272275209E0
8.125354500E-2,9.094375610E0,8.206126094E-1,-3.267486811E0
8.374125300E-2,9.099164009E0,8.493430614E-1,-3.253121614E0
8.622896200E-2,9.070432663E0,8.637082577E-1,-3.257910013E0
8.871667000E-2,9.060855865E0,8.541314602E-1,-3.272275209E0
9.120437800E-2,9.075222015E0,8.637082577E-1,-3.291428804E0
9.369271200E-2,9.060855865E0,8.780734539E-1,-3.339312792E0
9.618010700E-2,9.056067467E0,8.637082577E-1,-3.372831583E0
9.866750300E-2,9.036913872E0,8.493430614E-1,-3.411138773E0
1.011548990E-1,9.012971878E0,8.589198589E-1,-3.454234600E0
1.036422950E-1,8.993818283E0,8.493430614E-1,-3.487753391E0
1.061297430E-1,8.979453087E0,8.445546627E-1,-3.516483784E0
1.086172430E-1,8.974664688E0,8.397662640E-1,-3.516483784E0
1.111047950E-1,8.979453087E0,8.493430614E-1,-3.564367771E0
1.135923990E-1,8.979453087E0,8.445546627E-1,-3.602674961E0
1.160800550E-1,8.969876289E0,8.349778652E-1,-3.655347347E0
1.185677640E-1,8.969876289E0,8.158242106E-1,-3.693654776E0
1.210555240E-1,8.955511093E0,7.870938182E-1,-3.722385168E0
1.235433370E-1,8.969876289E0,7.535749674E-1,-3.755903959E0
1.260312010E-1,8.965087891E0,7.296329737E-1,-3.794211149E0
1.285191180E-1,8.969876289E0,6.865373254E-1,-3.822941542E0
1.310070870E-1,8.989029884E0,6.434416771E-1,-3.818153143E0
1.334951070E-1,9.017760277E0,6.051344872E-1,-3.808576345E0
1.359831280E-1,9.075222015E0,5.764040351E-1,-3.784634352E0
1.384711490E-1,9.113529205E0,5.476736426E-1,-3.779845953E0
1.409591700E-1,9.142259598E0,5.141547918E-1,-3.765480757E0
1.434471910E-1,9.233239174E0,4.710591733E-1,-3.736750364E0
1.459352120E-1,9.314641953E0,4.471171796E-1,-3.679289579E0
1.484230240E-1,9.391256332E0,4.231751561E-1,-3.645770550E0
1.509107840E-1,9.467870712E0,4.040215313E-1,-3.588309765E0
1.533985450E-1,9.558850288E0,3.944447339E-1,-3.521272182E0
1.558863050E-1,9.649829865E0,3.848679364E-1,-3.463811398E0
1.583740660E-1,9.712079048E0,3.513490856E-1,-3.430292368E0
1.608618260E-1,9.788693428E0,3.274070919E-1,-3.391985178E0
1.633495870E-1,9.841365814E0,3.130418658E-1,-3.363254786E0
1.658373470E-1,9.874884605E0,2.938882709E-1,-3.339312792E0
1.683251070E-1,9.913191795E0,2.843114436E-1,-3.315370798E0
1.708128680E-1,9.951498985E0,2.890998423E-1,-3.277063608E0
1.733006280E-1,9.975440979E0,2.651578486E-1,-3.243544817E0
1.757883890E-1,1.001374817E1,2.699462473E-1,-3.210026026E0
1.782761490E-1,1.000895977E1,2.651578486E-1,-3.190872431E0
1.807639090E-1,9.989806175E0,2.890998423E-1,-3.166930199E0
1.832516700E-1,9.970652580E0,2.938882709E-1,-3.157353401E0
1.857394300E-1,9.941922188E0,3.178302646E-1,-3.142988205E0
1.882271390E-1,9.874884605E0,3.369838893E-1,-3.114257812E0
1.907148470E-1,9.827000618E0,3.705027103E-1,-3.104681015E0
1.932025550E-1,9.779116631E0,4.040215313E-1,-3.095104218E0
1.956902640E-1,9.697713852E0,4.375403523E-1,-3.095104218E0
1.981779720E-1,9.597157478E0,4.471171796E-1,-3.099892616E0
2.006656800E-1,9.510966301E0,4.758476019E-1,-3.099892616E0
2.031533890E-1,9.429563522E0,4.902127981E-1,-3.090315819E0
2.056410970E-1,9.329007149E0,5.093663931E-1,-3.090315819E0
2.081288050E-1,9.214085579E0,5.333084464E-1,-3.099892616E0
2.106165140E-1,9.113529205E0,5.716156363E-1,-3.095104218E0
2.131042220E-1,9.012971878E0,6.099228859E-1,-3.071162224E0
2.155919300E-1,8.917203903E0,6.434416771E-1,-3.066373825E0
2.180796390E-1,8.831012726E0,6.913257241E-1,-3.056797028E0
2.205673470E-1,8.773551941E0,7.056909800E-1,-3.047220230E0
2.230550550E-1,8.711302757E0,7.056909800E-1,-3.037643433E0
2.255427640E-1,8.649053574E0,7.152677774E-1,-3.028066635E0
2.280304720E-1,8.601169586E0,7.344213724E-1,-3.018489838E0
2.305181800E-1,8.524555206E0,7.392097712E-1,-2.989759445E0
2.330058890E-1,8.481459618E0,7.631517649E-1,-2.927510023E0
2.354935970E-1,8.443152428E0,7.631517649E-1,-2.865260839E0
2.379813050E-1,8.438364029E0,7.823054194E-1,-2.822165251E0
2.404690140E-1,8.409633636E0,7.918822169E-1,-2.769492865E0
2.429567220E-1,8.376114845E0,8.206126094E-1,-2.721608877E0
2.454444300E-1,8.380903244E0,8.493430614E-1,-2.678513050E0
2.479321390E-1,8.395268440E0,8.637082577E-1,-2.649782658E0
2.504198990E-1,8.419210434E0,8.541314602E-1,-2.630629063E0
2.529076590E-1,8.443152428E0,8.684966564E-1,-2.587533474E0
2.553954200E-1,8.447940826E0,8.780734539E-1,-2.573168278E0
2.578831800E-1,8.476671219E0,8.876502514E-1,-2.587533474E0
2.603709410E-1,8.510190010E0,8.780734539E-1,-2.597110271E0
2.628587010E-1,8.538920403E0,8.637082577E-1,-2.568379879E0
2.653464620E-1,8.562862396E0,8.589198589E-1,-2.554014683E0
2.678342220E-1,8.586804390E0,8.589198589E-1,-2.530072689E0
2.703219820E-1,8.610746384E0,8.637082577E-1,-2.520495892E0
2.728097430E-1,8.663418770E0,8.493430614E-1,-2.515707493E0
2.752975030E-1,8.696937561E0,8.589198589E-1,-2.506130695E0
2.777852640E-1,8.725667953E0,8.637082577E-1,-2.510919094E0
2.802730240E-1,8.744821548E0,8.589198589E-1,-2.530072689E0
2.827607840E-1,8.749609947E0,8.493430614E-1,-2.530072689E0
2.852485450E-1,8.749609947E0,8.541314602E-1,-2.558803082E0
2.877363050E-1,8.778340340E0,8.541314602E-1,-2.558803082E0
2.902240660E-1,8.787917137E0,8.301894665E-1,-2.582745075E0
2.927118260E-1,8.783128738E0,8.206126094E-1,-2.635417461E0
2.951995870E-1,8.744821548E0,8.349778652E-1,-2.649782658E0
2.976873470E-1,8.730456352E0,8.158242106E-1,-2.673724651E0
3.001751070E-1,8.720879555E0,8.301894665E-1,-2.692878246E0
3.026628680E-1,8.706514359E0,8.397662640E-1,-2.716820478E0
3.051506280E-1,8.711302757E0,8.493430614E-1,-2.735974073E0
3.076383890E-1,8.735244751E0,8.541314602E-1,-2.779069662E0
3.101261490E-1,8.696937561E0,8.541314602E-1,-2.817376852E0
3.126139090E-1,8.663418770E0,8.445546627E-1,-2.860472441E0
3.151016700E-1,8.668207169E0,8.301894665E-1,-2.922721624E0
3.175894300E-1,8.663418770E0,8.158242106E-1,-2.932298422E0
3.200771910E-1,8.653841972E0,8.014590144E-1,-2.961029053E0
3.225649510E-1,8.658630371E0,7.870938182E-1,-2.994547844E0
3.250527120E-1,8.668207169E0,7.727286220E-1,-3.004124641E0
3.275404720E-1,8.687360764E0,7.487865686E-1,-3.008913040E0
3.300282320E-1,8.716091156E0,7.248445749E-1,-2.999336243E0
3.325159930E-1,8.730456352E0,6.961141229E-1,-2.975394249E0
3.350037530E-1,8.763975143E0,6.769605279E-1,-2.946663857E0
3.374915140E-1,8.802282333E0,6.578069329E-1,-2.922721624E0
3.399792740E-1,8.850166321E0,6.482301354E-1,-2.870049238E0
3.424670340E-1,8.893261909E0,6.290764809E-1,-2.846107244E0
3.449547950E-1,8.955511093E0,6.147112846E-1,-2.812588453E0
3.474425550E-1,9.032125473E0,5.811924338E-1,-2.788646460E0
3.499303160E-1,9.089587212E0,5.476736426E-1,-2.745550871E0
3.524180760E-1,9.170989990E0,5.333084464E-1,-2.712032080E0
3.549058370E-1,9.266757965E0,5.189431906E-1,-2.688089848E0
3.573935970E-1,9.348160744E0,5.045779943E-1,-2.635417461E0
3.598813570E-1,9.443928719E0,4.997895956E-1,-2.616263866E0
3.623691180E-1,9.534908295E0,5.093663931E-1,-2.582745075E0
3.648568780E-1,9.630676270E0,5.045779943E-1,-2.530072689E0
3.673446390E-1,9.736021042E0,5.237316489E-1,-2.496553898E0
3.698323990E-1,9.850942612E0,5.476736426E-1,-2.443881273E0
3.723201590E-1,9.951498985E0,5.764040351E-1,-2.400785685E0
3.748079200E-1,1.004726696E1,6.003460884E-1,-2.367266893E0
3.772956800E-1,1.010951710E1,6.482301354E-1,-2.367266893E0
3.797834410E-1,1.018613148E1,6.578069329E-1,-2.381632090E0
3.822712010E-1,1.025795746E1,6.865373254E-1,-2.395997286E0
3.847589620E-1,1.032978344E1,7.200561762E-1,-2.453458309E0
3.872467220E-1,1.037766743E1,7.392097712E-1,-2.515707493E0
3.897344820E-1,1.041597462E1,7.679402232E-1,-2.587533474E0
3.922222430E-1,1.044470501E1,8.062474132E-1,-2.668936253E0
3.947100030E-1,1.043033981E1,8.589198589E-1,-2.779069662E0
3.971977640E-1,1.039682102E1,9.163807034E-1,-2.903568029E0
3.996855240E-1,1.035851383E1,9.882067442E-1,-3.052008629E0
4.021732840E-1,1.031541824E1,1.055244446E0,-3.181295395E0
4.046610450E-1,1.027232265E1,1.112705231E0,-3.339312792E0
4.071488050E-1,1.018613148E1,1.179742932E0,-3.506906986E0
4.096365660E-1,1.009994030E1,1.232415318E0,-3.688866377E0
4.121243260E-1,1.003290176E1,1.280299306E0,-3.861248732E0
4.146120870E-1,9.917980194E0,1.323395014E0,-4.028842926E0
4.170998470E-1,9.807847023E0,1.371279001E0,-4.182071686E0
4.195876070E-1,9.697713852E0,1.428739905E0,-4.320935726E0
4.220753680E-1,9.587580681E0,1.476623893E0,-4.435857296E0
4.245631280E-1,9.491812706E0,1.510142684E0,-4.565144062E0
4.270516700E-1,9.376891136E0,1.553238392E0,-4.660912037E0
4.295397430E-1,9.271546364E0,1.567603588E0,-4.751891613E0
4.320275030E-1,9.151836395E0,1.601122379E0,-4.823718071E0
4.345152640E-1,9.027337074E0,1.634641171E0,-4.876390457E0
4.370030240E-1,8.926780701E0,1.639429569E0,-4.914697647E0
4.394907840E-1,8.864531517E0,1.649006367E0,-4.919486046E0
4.419785450E-1,8.802282333E0,1.668160081E0,-4.938639641E0
4.444663050E-1,8.754398346E0,1.677736878E0,-4.938639641E0
4.469540660E-1,8.696937561E0,1.668160081E0,-4.933851242E0
4.494418260E-1,8.668207169E0,1.682525277E0,-4.948216438E0
4.519295870E-1,8.672995567E0,1.677736878E0,-4.919486046E0
4.544173470E-1,8.677783966E0,1.649006367E0,-4.885967255E0
4.569051070E-1,8.672995567E0,1.615487576E0,-4.857236862E0
4.593928680E-1,8.672995567E0,1.572391987E0,-4.823718071E0
4.618806280E-1,8.668207169E0,1.567603588E0,-4.785410881E0
4.643683890E-1,8.682572365E0,1.538873196E0,-4.742314816E0
4.668561490E-1,8.682572365E0,1.505354285E0,-4.699219227E0
4.693439090E-1,8.701725960E0,1.452681899E0,-4.651335239E0
4.718316700E-1,8.711302757E0,1.419163108E0,-4.622604847E0
4.743194300E-1,8.740033150E0,1.400009394E0,-4.584297657E0
4.768071910E-1,8.778340340E0,1.376067400E0,-4.550778866E0
4.792949510E-1,8.797493935E0,1.352125406E0,-4.512471676E0
4.817827120E-1,8.807070732E0,1.332971811E0,-4.483741283E0
4.842704720E-1,8.845377922E0,1.328183413E0,-4.469376087E0
4.867582320E-1,8.854954720E0,1.313818216E0,-4.440645695E0
4.892459410E-1,8.864531517E0,1.294664621E0,-4.421492100E0
4.917336490E-1,8.864531517E0,1.270722508E0,-4.407126904E0
4.942213570E-1,8.850166321E0,1.241992116E0,-4.411915302E0
4.967090660E-1,8.850166321E0,1.203684926E0,-4.431068897E0
4.991967740E-1,8.807070732E0,1.160589218E0,-4.440645695E0
5.016844820E-1,8.787917137E0,1.127070427E0,-4.464587688E0
5.041721910E-1,8.749609947E0,1.083974838E0,-4.493318081E0
5.066598990E-1,8.701725960E0,1.031302333E0,-4.526836872E0
5.091476070E-1,8.649053574E0,9.834183455E-1,-4.550778866E0
5.116353160E-1,8.605957985E0,9.451110959E-1,-4.541202068E0
5.141230240E-1,8.538920403E0,8.924387097E-1,-4.531625271E0
5.166107320E-1,8.486248016E0,8.445546627E-1,-4.502894878E0
5.190984410E-1,8.467094421E0,7.870938182E-1,-4.469376087E0
5.215861490E-1,8.428787231E0,7.248445749E-1,-4.435857296E0
5.240738570E-1,8.400056839E0,6.530185342E-1,-4.383184910E0
5.265615660E-1,8.385691643E0,6.051344872E-1,-4.325724125E0
5.290492740E-1,8.371326447E0,5.620388389E-1,-4.282628059E0
5.315369820E-1,8.347384453E0,5.237316489E-1,-4.215590477E0
5.340246910E-1,8.352172852E0,4.854243994E-1,-4.172494888E0
5.365123990E-1,8.342596054E0,4.614823759E-1,-4.115034103E0
5.390001070E-1,8.371326447E0,4.375403523E-1,-4.062361717E0
5.414878160E-1,8.366538048E0,4.375403523E-1,-3.985747337E0
5.439755240E-1,8.376114845E0,4.423287511E-1,-3.933074951E0
5.464632320E-1,8.390480042E0,4.279635549E-1,-3.875613928E0
5.489509410E-1,8.414422035E0,4.088099301E-1,-3.794211149E0
5.514387010E-1,8.462306023E0,3.944447339E-1,-3.746327162E0
5.539264620E-1,8.495824814E0,3.657143116E-1,-3.688866377E0
5.564142220E-1,8.538920403E0,3.465606868E-1,-3.660135746E0
5.589019820E-1,8.586804390E0,2.986766696E-1,-3.597886562E0
5.613897430E-1,8.639476776E0,2.651578486E-1,-3.554790974E0
5.638775030E-1,8.677783966E0,2.268506140E-1,-3.535637379E0
5.663652640E-1,8.744821548E0,2.172738016E-1,-3.473388195E0
5.688530240E-1,8.797493935E0,2.076970041E-1,-3.435081005E0
5.713407840E-1,8.888473511E0,1.837549806E-1,-3.396773577E0
5.738285450E-1,8.950722694E0,1.741781682E-1,-3.358466387E0
5.763163050E-1,8.998606682E0,1.406593472E-1,-3.334524393E0
5.788040660E-1,9.041702271E0,1.119289324E-1,-3.305794001E0
5.812918260E-1,9.080010414E0,1.023521200E-1,-3.262698412E0
5.837795870E-1,9.108740807E0,7.841010392E-2,-3.219602823E0
5.862673470E-1,9.137471199E0,5.446808785E-2,-3.171718597E0
5.887551070E-1,9.175778389E0,3.531447425E-2,-3.128623009E0
5.912428680E-1,9.185355186E0,5.446808785E-2,-3.085527420E0
5.937315660E-1,9.204508781E0,7.841010392E-2,-3.032855034E0
5.962196390E-1,9.238027573E0,1.215057373E-1,-2.994547844E0
5.987073990E-1,9.257181168E0,1.310825497E-1,-2.970605850E0
6.011951590E-1,9.266757965E0,1.406593472E-1,-2.946663857E0
6.036829200E-1,9.261969566E0,1.598129570E-1,-2.922721624E0
6.061706800E-1,9.233239174E0,2.029085904E-1,-2.908356428E0
6.086584410E-1,9.194931984E0,2.124854028E-1,-2.908356428E0
6.111462010E-1,9.180566788E0,2.124854028E-1,-2.932298422E0
6.136339620E-1,9.170989990E0,2.460042238E-1,-2.956240654E0
6.161217220E-1,9.137471199E0,2.651578486E-1,-2.989759445E0
6.186094820E-1,9.089587212E0,2.890998423E-1,-3.004124641E0
6.210972430E-1,9.051279068E0,3.130418658E-1,-3.032855034E0
6.235850030E-1,9.046490669E0,3.513490856E-1,-3.066373825E0
6.260727640E-1,9.056067467E0,3.848679364E-1,-3.104681015E0
6.285605240E-1,9.051279068E0,4.088099301E-1,-3.152565002E0
6.310482320E-1,9.056067467E0,4.423287511E-1,-3.190872431E0
6.335359410E-1,9.060855865E0,4.519055784E-1,-3.257910013E0
6.360236490E-1,9.099164009E0,4.375403523E-1,-3.344101191E0
6.385113570E-1,9.123106003E0,4.183867574E-1,-3.435081005E0
6.409990660E-1,9.166201591E0,4.040215313E-1,-3.540425777E0
6.434867740E-1,9.185355186E0,3.992331326E-1,-3.621828556E0
6.459744820E-1,9.223662376E0,3.848679364E-1,-3.679289579E0
6.484621910E-1,9.266757965E0,3.657143116E-1,-3.746327162E0
6.509498990E-1,9.319430351E0,3.561375141E-1,-3.818153143E0
6.534376070E-1,9.381679535E0,3.465606868E-1,-3.866037130E0
6.559253160E-1,9.439140320E0,3.321954906E-1,-3.942651749E0
6.584130240E-1,9.506177902E0,3.274070919E-1,-4.009689331E0
6.609007320E-1,9.573215485E0,2.890998423E-1,-4.052784920E0
6.633884410E-1,9.635464668E0,2.460042238E-1,-4.095880508E0
6.658761490E-1,9.702502251E0,1.837549806E-1,-4.067150116E0
6.683638570E-1,9.769539833E0,1.406593472E-1,-4.043208122E0
6.708515660E-1,9.841365814E0,1.071405262E-1,-3.995324135E0
6.733392740E-1,9.917980194E0,5.925649032E-2,-3.957016945E0
6.758269820E-1,1.001853657E1,2.573766746E-2,-3.952228546E0
6.783146910E-1,1.011909389E1,3.052607179E-2,-3.947440147E0
6.808023990E-1,1.021965027E1,6.584054790E-3,-3.933074951E0
6.832901070E-1,1.032499504E1,6.584054790E-3,-3.952228546E0
6.857778160E-1,1.044949341E1,-2.693476900E-2,-3.947440147E0
6.882655240E-1,1.057399178E1,-4.129998013E-2,-3.928286552E0
6.907532320E-1,1.070327854E1,-4.608838260E-2,-3.889979124E0
6.932409930E-1,1.082777691E1,-3.651157767E-2,-3.856460333E0
6.957287530E-1,1.095706367E1,-5.087678507E-2,-3.875613928E0
6.982165140E-1,1.109592819E1,-7.003039867E-2,-3.909132719E0
7.007042740E-1,1.123958015E1,-7.003039867E-2,-3.937863350E0
7.031920340E-1,1.138323212E1,-7.960720360E-2,-4.033631325E0
7.056797950E-1,1.150294209E1,-9.397241473E-2,-4.134187698E0
7.081675550E-1,1.161307526E1,-1.131260321E-1,-4.301782131E0
7.106553160E-1,1.173757362E1,-1.274912357E-1,-4.502894878E0
7.131430760E-1,1.182376480E1,-1.418564469E-1,-4.727949619E0
7.156308370E-1,1.186207199E1,-1.753752679E-1,-5.034407616E0
7.181185970E-1,1.184291840E1,-2.136825025E-1,-5.302558422E0
7.206063570E-1,1.182376480E1,-2.519897223E-1,-5.580285549E0
7.230941180E-1,1.177588081E1,-2.902969420E-1,-5.848436356E0
7.255818780E-1,1.170884323E1,-3.286041915E-1,-6.107009888E0
7.280696390E-1,1.160349846E1,-3.621230125E-1,-6.394314289E0
7.305573990E-1,1.149815369E1,-3.669114113E-1,-6.667253017E0
7.330451590E-1,1.140717411E1,-3.716998100E-1,-6.897096634E0
7.355329200E-1,1.133534813E1,-3.573346138E-1,-7.131728172E0
7.380206800E-1,1.123958015E1,-3.046621680E-1,-7.356783390E0
7.405084410E-1,1.113902378E1,-2.759317458E-1,-7.591414928E0
7.429962010E-1,1.102888966E1,-2.759317458E-1,-7.883507729E0
7.454839620E-1,1.094269848E1,-3.190273643E-1,-8.151658058E0
7.479717220E-1,1.088523769E1,-3.908534348E-1,-8.376712799E0
7.504594820E-1,1.085171890E1,-4.578910768E-1,-8.544307709E0
7.529472430E-1,1.084214211E1,-5.345055461E-1,-8.625710487E0
7.554350030E-1,1.087087250E1,-6.063315868E-1,-8.616133690E0
7.579227640E-1,1.088044930E1,-6.685808301E-1,-8.558672905E0
7.604105240E-1,1.092354488E1,-7.116764784E-1,-8.448538780E0
7.628982840E-1,1.097621727E1,-7.595604658E-1,-8.290521622E0
7.653860450E-1,1.101931286E1,-8.218097091E-1,-8.060678482E0
7.678738050E-1,1.108635139E1,-8.792705536E-1,-7.797316551E0
7.703615660E-1,1.112465858E1,-9.367313981E-1,-7.457339764E0
7.728493260E-1,1.114381218E1,-1.003769040E0,-7.098209381E0
7.753370870E-1,1.112465858E1,-1.066018343E0,-6.686406612E0
7.778248470E-1,1.107677460E1,-1.123479128E0,-6.236296654E0
7.803126070E-1,1.102410126E1,-1.152209520E0,-5.762245178E0
7.828003680E-1,1.091396809E1,-1.176151633E0,-5.259462357E0
7.852881280E-1,1.077510452E1,-1.185728431E0,-4.751891613E0
7.877758890E-1,1.059314537E1,-1.171363235E0,-4.249109268E0
7.902636490E-1,1.041597462E1,-1.142632723E0,-3.755903959E0
7.927514090E-1,1.016697788E1,-1.113902330E0,-3.248333216E0
7.952391700E-1,9.884461403E0,-1.051653147E0,-2.759916067E0
7.977269300E-1,9.616311073E0,-9.941922426E-1,-2.290652514E0
8.002146910E-1,9.348160744E0,-9.175778031E-1,-1.835754156E0
8.027024510E-1,9.060855865E0,-8.265981078E-1,-1.423951507E0
8.051902120E-1,8.797493935E0,-7.451952696E-1,-1.002571940E0
8.076779720E-1,8.538920403E0,-6.781576276E-1,-5.811924338E-1
8.101657320E-1,8.275558472E0,-5.871779919E-1,-1.885433793E-1
8.126534930E-1,8.007407188E0,-4.961982965E-1,2.136825025E-1
8.151412530E-1,7.801506042E0,-4.100070298E-1,5.823895931E-1
8.176290140E-1,7.629123688E0,-3.142389655E-1,9.175778031E-1
8.201167740E-1,7.442376137E0,-2.280477136E-1,1.219247222E0
8.226045340E-1,7.279570103E0,-1.753752679E-1,1.468244195E0
8.250922950E-1,7.116764545E0,-1.370680481E-1,1.645415068E0
8.275800550E-1,6.997054577E0,-1.227028370E-1,1.784278870E0
8.300678160E-1,6.839036942E0,-1.131260321E-1,1.937507749E0
8.325555760E-1,6.642712593E0,-6.524199992E-2,2.047641039E0
8.350433370E-1,6.494272232E0,1.795651275E-3,2.047641039E0
8.375310970E-1,6.317101002E0,8.798690885E-2,2.306214809E0
8.400188570E-1,6.178237438E0,1.837549806E-1,2.469020605E0
8.425066180E-1,6.106411457E0,2.651578486E-1,2.492962599E0
8.449943780E-1,6.063315868E0,3.130418658E-1,2.564788580E0
8.474821390E-1,6.029797077E0,3.226186931E-1,2.564788580E0
8.499698990E-1,6.034585476E0,3.034650683E-1,2.492962599E0
8.524576590E-1,6.034585476E0,2.699462473E-1,2.449866772E0
8.549454200E-1,6.034585476E0,2.220622003E-1,2.421136379E0
8.574331800E-1,6.044162273E0,1.933317930E-1,2.382829189E0
8.599209410E-1,6.053739071E0,1.885433793E-1,2.330156803E0
8.624087010E-1,6.044162273E0,1.837549806E-1,2.282272816E0
8.648964620E-1,6.058527470E0,1.693897694E-1,2.248754025E0
8.673842220E-1,6.072892666E0,1.837549806E-1,2.229600430E0
8.698719820E-1,6.101623058E0,1.933317930E-1,2.248754025E0
8.723597430E-1,6.154295444E0,1.885433793E-1,2.253542423E0
8.748475030E-1,6.211756229E0,1.885433793E-1,2.234388828E0
8.773352640E-1,6.254851818E0,1.693897694E-1,2.167351007E0
8.798230240E-1,6.360196590E0,1.310825497E-1,2.090736628E0
8.823107840E-1,6.446388245E0,7.362170517E-2,2.009333849E0
8.847985450E-1,6.508637428E0,6.584054790E-3,1.894412041E0
8.872863050E-1,6.575675011E0,-6.524199992E-2,1.774701953E0
8.897740660E-1,6.613982201E0,-1.083376259E-1,1.654991984E0
8.922618260E-1,6.637924194E0,-1.418564469E-1,1.525704980E0
8.947495870E-1,6.657077789E0,-1.753752679E-1,1.449090600E0
8.972373470E-1,6.671442986E0,-1.705868691E-1,1.329380512E0
8.997251070E-1,6.681019783E0,-1.993172914E-1,1.190516829E0
9.022128680E-1,6.695384979E0,-2.424129248E-1,1.042076349E0
9.047006280E-1,6.714538574E0,-2.711433470E-1,8.744821548E-1
9.071883890E-1,6.709750175E0,-3.286041915E-1,7.164648771E-1
9.096761490E-1,6.709750175E0,-3.956418335E-1,5.680243373E-1
9.121639620E-1,6.685808182E0,-4.387374520E-1,4.195838571E-1
9.146517740E-1,6.657077789E0,-4.722562730E-1,2.902969420E-1
9.171395870E-1,6.623558998E0,-4.914098978E-1,1.657984704E-1
9.196273990E-1,6.585251808E0,-5.105634928E-1,3.651157767E-2
9.221152120E-1,6.542156219E0,-5.105634928E-1,-1.119289324E-1
9.246030240E-1,6.508637428E0,-5.297171474E-1,-2.699462473E-1
9.270908370E-1,6.465541840E0,-5.345055461E-1,-3.992331326E-1
9.295786490E-1,6.432023048E0,-5.392939448E-1,-5.764040351E-1
9.320664620E-1,6.393715858E0,-5.536591411E-1,-7.487865686E-1
9.345542740E-1,6.379350662E0,-5.680243373E-1,-9.690531492E-1
9.370420870E-1,6.374562263E0,-5.776011348E-1,-1.174954534E0
9.395298990E-1,6.369773388E0,-6.015431881E-1,-1.409586191E0
9.420177120E-1,6.374562263E0,-6.206967831E-1,-1.668160081E0
9.445055240E-1,6.384139061E0,-6.542156339E-1,-1.902791858E0
9.469937010E-1,6.403292656E0,-6.925228238E-1,-2.118269920E0
9.494816180E-1,6.398504257E0,-7.212532759E-1,-2.328959703E0
9.519693780E-1,6.393715858E0,-7.499836683E-1,-2.530072689E0
9.544571390E-1,6.379350662E0,-7.882909179E-1,-2.697666883E0
9.569448990E-1,6.384139061E0,-8.122329116E-1,-2.865260839E0
9.594326590E-1,6.369773388E0,-8.409633636E-1,-3.018489838E0
9.619204200E-1,6.321889400E0,-8.265981078E-1,-3.114257812E0
9.644081800E-1,6.317101002E0,-8.218097091E-1,-3.181295395E0
9.668959410E-1,6.321889400E0,-8.026561141E-1,-3.205237627E0
9.693837010E-1,6.283582211E0,-8.122329116E-1,-3.190872431E0
9.718714620E-1,6.250063419E0,-8.265981078E-1,-3.162141800E0
9.743592220E-1,6.221333027E0,-8.409633636E-1,-3.138199806E0
9.768469820E-1,6.178237438E0,-8.601169586E-1,-3.080739021E0
9.793347430E-1,6.120776653E0,-8.649053574E-1,-3.013701439E0
9.818225030E-1,6.082469463E0,-8.409633636E-1,-2.932298422E0
9.843102640E-1,6.044162273E0,-8.265981078E-1,-2.846107244E0
9.867981280E-1,5.996278286E0,-8.170213103E-1,-2.774281263E0
9.892857840E-1,5.957971096E0,-7.978677154E-1,-2.683301449E0
9.917734410E-1,5.929240704E0,-7.787141204E-1,-2.601898670E0
9.942610970E-1,5.905298710E0,-7.547720671E-1,-2.510919094E0
9.967487530E-1,5.866991043E0,-7.451952696E-1,-2.391208887E0
9.992364090E-1,5.804741859E0,-7.068880796E-1,-2.257133722E0
1.001724066E0,5.766434669E0,-6.685808301E-1,-2.161365509E0
1.004211722E0,5.708973885E0,-6.398503780E-1,-2.089539528E0
1.006699378E0,5.670666695E0,-5.967547894E-1,-1.984194636E0
1.009187034E0,5.632359505E0,-5.345055461E-1,-1.902791858E0
1.011674691E0,5.579687119E0,-4.914098978E-1,-1.811812162E0
1.014162347E0,5.541379929E0,-4.483142793E-1,-1.754351258E0
1.016650003E0,5.507861137E0,-3.956418335E-1,-1.720832467E0
1.019137659E0,5.483919144E0,-3.429693878E-1,-1.672948480E0
1.021625368E0,5.445611954E0,-2.807201445E-1,-1.629852772E0
1.024113128E0,5.388150692E0,-2.376245260E-1,-1.581968784E0
1.026600941E0,5.325901508E0,-1.993172914E-1,-1.572391987E0
1.029088753E0,5.278017521E0,-1.753752679E-1,-1.558026791E0
1.031576566E0,5.230133533E0,-1.562216580E-1,-1.567603588E0
1.034064378E0,5.182249546E0,-1.418564469E-1,-1.591545582E0
1.036552191E0,5.143942356E0,-1.131260321E-1,-1.615487576E0
1.039040003E0,5.134365559E0,-9.876082093E-2,-1.625064373E0
1.041527816E0,5.134365559E0,-7.481880486E-2,-1.663371682E0
1.044015628E0,5.191826344E0,-6.524199992E-2,-1.692102075E0
1.046503441E0,5.249287128E0,-5.566519126E-2,-1.735197663E0
1.048991253E0,5.335478306E0,-5.566519126E-2,-1.802235365E0
1.051479066E0,5.445611954E0,-8.918401599E-2,-1.888426542E0
1.053966878E0,5.531803131E0,-1.274912357E-1,-1.979406238E0
1.056454691E0,5.641936302E0,-1.849520802E-1,-2.060809135E0
1.058942503E0,5.737704277E0,-2.184709013E-1,-2.089539528E0
1.061430316E0,5.838260651E0,-2.759317458E-1,-2.123058319E0
1.063918128E0,5.929240704E0,-3.477577865E-1,-2.180519104E0
1.066405941E0,5.996278286E0,-4.004302323E-1,-2.228403330E0
1.068893753E0,6.087257862E0,-4.531026781E-1,-2.242768526E0
1.071381566E0,6.206967831E0,-5.057750940E-1,-2.247556925E0
1.073869378E0,6.326677799E0,-5.297171474E-1,-2.242768526E0
1.076357191E0,6.422446251E0,-5.776011348E-1,-2.233191729E0
1.078845003E0,6.537367821E0,-6.015431881E-1,-2.218826532E0
1.081332816E0,6.633135796E0,-6.398503780E-1,-2.137423515E0
1.083820628E0,6.700173378E0,-6.637924314E-1,-2.046443939E0
1.086308441E0,6.791152954E0,-6.781576276E-1,-1.950675845E0
1.088796253E0,6.862978935E0,-6.733692288E-1,-1.850119352E0
1.091284014E0,6.930016994E0,-6.829460263E-1,-1.749562860E0
1.093772712E0,6.949170589E0,-6.973112226E-1,-1.668160081E0
1.096259534E0,6.953958988E0,-7.116764784E-1,-1.577180386E0
1.098746357E0,6.973112583E0,-7.404068708E-1,-1.500565886E0
1.101233232E0,6.992266178E0,-7.643488646E-1,-1.438316703E0
1.103720212E0,7.044938564E0,-8.170213103E-1,-1.390432596E0
1.106207295E0,7.102399349E0,-8.409633636E-1,-1.352125406E0
1.108694534E0,7.150283337E0,-8.696937561E-1,-1.356913805E0
1.111181930E0,7.217320919E0,-9.032126069E-1,-1.347337008E0
1.113669482E0,7.260416508E0,-9.463081956E-1,-1.352125406E0
1.116157191E0,7.317877293E0,-9.798270464E-1,-1.376067400E0
1.118645055E0,7.351396084E0,-1.027711034E0,-1.376067400E0
1.121133076E0,7.389703751E0,-1.080383539E0,-1.376067400E0
1.123621201E0,7.399280548E0,-1.104325533E0,-1.395220995E0
1.126109430E0,7.408857346E0,-1.128267527E0,-1.409586191E0
1.128597764E0,7.428010941E0,-1.156997919E0,-1.452681899E0
1.131086149E0,7.447164536E0,-1.204882026E0,-1.524507880E0
1.133574587E0,7.485471725E0,-1.281496406E0,-1.620275974E0
1.136063024E0,7.528567314E0,-1.367687702E0,-1.735197663E0
1.138551462E0,7.590816498E0,-1.425148606E0,-1.850119352E0
1.141039274E0,7.686584473E0,-1.535281897E0,-1.984194636E0
1.143527034E0,7.763198853E0,-1.616684675E0,-2.118269920E0
1.146014795E0,7.854178905E0,-1.698087573E0,-2.281075716E0
1.148502555E0,7.959523678E0,-1.760336757E0,-2.453458309E0
1.150990316E0,8.040925980E0,-1.827374458E0,-2.630629063E0
1.153478076E0,8.103176117E0,-1.894412041E0,-2.817376852E0
1.155965837E0,8.208520889E0,-1.956661344E0,-3.008913040E0
1.158453597E0,8.294712067E0,-2.018910646E0,-3.214814425E0
1.160941357E0,8.395268440E0,-2.095525026E0,-3.401561975E0
1.163429118E0,8.519766808E0,-2.181716204E0,-3.550002575E0
1.165916878E0,8.644265175E0,-2.258330822E0,-3.741538763E0
1.168404639E0,8.768763542E0,-2.339733601E0,-3.909132719E0
1.170892399E0,8.883685112E0,-2.430713177E0,-4.057573318E0
1.173380159E0,9.012971878E0,-2.531269789E0,-4.210802078E0
1.175867920E0,9.108740807E0,-2.627037764E0,-4.354454517E0
1.178355680E0,9.180566788E0,-2.718017578E0,-4.450222492E0
1.180843441E0,9.266757965E0,-2.794631958E0,-4.517260075E0
1.183331201E0,9.333795547E0,-2.861669540E0,-4.569932461E0
1.185818962E0,9.410409927E0,-2.923918724E0,-4.574720860E0
1.188306722E0,9.463082314E0,-2.962226152E0,-4.560355663E0
1.190794482E0,9.544485092E0,-3.000533342E0,-4.522048473E0
1.193282243E0,9.649829865E0,-3.057994127E0,-4.483741283E0
1.195770003E0,9.783905029E0,-3.110666513E0,-4.421492100E0
1.198257764E0,9.913191795E0,-3.172915697E0,-4.359242916E0
1.200745524E0,1.006163311E1,-3.244741917E0,-4.277839661E0
1.203233284E0,1.018134308E1,-3.316567898E0,-4.201225281E0
1.205721045E0,1.028189945E1,-3.383605480E0,-4.100668907E0
1.208208805E0,1.040160942E1,-3.397970676E0,-3.985747337E0
1.210696566E0,1.047822380E1,-3.407547474E0,-3.861248732E0
1.213184326E0,1.051653099E1,-3.388393879E0,-3.736750364E0
1.215672087E0,1.053568459E1,-3.350086689E0,-3.607463360E0
1.218159847E0,1.055483818E1,-3.311779499E0,-3.468599796E0
1.220647607E0,1.055483818E1,-3.259107113E0,-3.358466387E0
1.223135368E0,1.057399178E1,-3.230376720E0,-3.277063608E0
1.225623128E0,1.058835697E1,-3.225588322E0,-3.200449228E0
1.228110889E0,1.060751057E1,-3.187281132E0,-3.104681015E0
1.230598649E0,1.063624096E1,-3.139396906E0,-3.047220230E0
1.233086409E0,1.066497135E1,-3.101089716E0,-2.994547844E0
1.235574170E0,1.068412495E1,-3.048417330E0,-2.965817451E0
1.238061930E0,1.068412495E1,-3.000533342E0,-2.937086821E0
1.240549691E0,1.066497135E1,-2.952649355E0,-2.917933226E0
1.243037451E0,1.063624096E1,-2.899976730E0,-2.903568029E0
1.245525212E0,1.061229897E1,-2.852092743E0,-2.884414434E0
1.248012972E0,1.058835697E1,-2.775478363E0,-2.893991232E0
1.250500732E0,1.055004978E1,-2.718017578E0,-2.903568029E0
1.252988493E0,1.051174259E1,-2.641402960E0,-2.922721624E0
1.255476253E0,1.046864700E1,-2.550423384E0,-2.965817451E0
1.257964014E0,1.041118622E1,-2.507327795E0,-2.989759445E0
1.260451774E0,1.036809063E1,-2.454655409E0,-3.008913040E0
1.262939534E0,1.029147625E1,-2.406771183E0,-3.047220230E0
1.265427295E0,1.022443867E1,-2.354098797E0,-3.085527420E0
1.267915055E0,1.014303589E1,-2.320580006E0,-3.095104218E0
1.270402816E0,1.005205631E1,-2.291849613E0,-3.138199806E0
1.272890576E0,9.975440979E0,-2.248754025E0,-3.162141800E0
1.275378337E0,9.898826599E0,-2.224812031E0,-3.181295395E0
1.277866097E0,9.841365814E0,-2.176927805E0,-3.219602823E0
1.280353857E0,9.779116631E0,-2.148197412E0,-3.224391222E0
1.282841618E0,9.736021042E0,-2.133832216E0,-3.253121614E0
1.285329378E0,9.664195061E0,-2.129043818E0,-3.262698412E0
1.287817139E0,9.621099472E0,-2.143409014E0,-3.262698412E0
1.290304899E0,9.601945877E0,-2.129043818E0,-3.243544817E0
1.292792659E0,9.606734276E0,-2.109890223E0,-3.210026026E0
1.295280420E0,9.601945877E0,-2.100313425E0,-3.162141800E0
1.297768180E0,9.592369080E0,-2.081159830E0,-3.099892616E0
1.300255941E0,9.597157478E0,-2.062006235E0,-3.042431831E0
1.302743701E0,9.587580681E0,-2.038064241E0,-3.008913040E0
1.305231462E0,9.621099472E0,-2.018910646E0,-2.961029053E0
1.307719222E0,9.640253067E0,-1.990180135E0,-2.946663857E0
1.310206982E0,9.707290649E0,-1.966238141E0,-2.927510023E0
1.312694743E0,9.788693428E0,-1.966238141E0,-2.898779631E0
1.315182503E0,9.841365814E0,-1.966238141E0,-2.865260839E0
1.317670264E0,9.908403397E0,-1.985391736E0,-2.850895643E0
1.320158024E0,9.989806175E0,-1.999756932E0,-2.841318846E0
1.322645784E0,1.005205631E1,-2.052429438E0,-2.826953650E0
1.325133545E0,1.012388229E1,-2.071583033E0,-2.764704466E0
1.327621305E0,1.019091988E1,-2.090736628E0,-2.678513050E0
1.330109066E0,1.024838066E1,-2.081159830E0,-2.616263866E0
1.332596826E0,1.026274586E1,-2.066794634E0,-2.539649487E0
1.335084587E0,1.027711105E1,-2.057217836E0,-2.477400303E0
1.337572347E0,1.030584145E1,-2.038064241E0,-2.395997286E0
1.340060107E0,1.031541824E1,-2.023699045E0,-2.333748102E0
1.342547868E0,1.031541824E1,-2.028487444E0,-2.333748102E0
1.345035628E0,1.031062984E1,-2.038064241E0,-2.328959703E0
1.347523389E0,1.030584145E1,-2.033275843E0,-2.309806108E0
1.350011149E0,1.028668785E1,-2.062006235E0,-2.328959703E0
1.352498909E0,1.026753426E1,-2.076371431E0,-2.314594507E0
1.354986670E0,1.021486187E1,-2.047641039E0,-2.290652514E0
1.357474430E0,1.016697788E1,-2.038064241E0,-2.242768526E0
1.359962191E0,1.009515190E1,-2.023699045E0,-2.204461098E0
1.362449951E0,1.004726696E1,-2.004545450E0,-2.170942307E0
1.364937712E0,1.000417137E1,-1.985391736E0,-2.166153908E0
1.367425472E0,9.956287384E0,-1.971026540E0,-2.156577110E0
1.369913232E0,9.927556992E0,-1.947084546E0,-2.199672699E0
1.372400993E0,9.884461403E0,-1.927930951E0,-2.252345324E0
1.374888753E0,9.855731010E0,-1.923142552E0,-2.305017710E0
1.377376514E0,9.827000618E0,-1.918354154E0,-2.357690096E0
1.379864274E0,9.807847023E0,-1.884835243E0,-2.372055292E0
1.382352034E0,9.759963036E0,-1.860893250E0,-2.405574083E0
1.384839795E0,9.678560257E0,-1.832162857E0,-2.453458309E0
1.387327555E0,9.640253067E0,-1.798644066E0,-2.534861088E0
1.389815316E0,9.616311073E0,-1.774701953E0,-2.611475468E0
1.392303076E0,9.611522675E0,-1.745971560E0,-2.712032080E0
1.394790837E0,9.611522675E0,-1.726817966E0,-2.826953650E0
1.397278597E0,9.587580681E0,-1.712452769E0,-2.984971046E0
1.399766357E0,9.578003883E0,-1.707664371E0,-3.114257812E0
1.402254118E0,9.558850288E0,-1.688510776E0,-3.248333216E0
1.404741878E0,9.534908295E0,-1.669357181E0,-3.363254786E0
1.407229639E0,9.515754700E0,-1.654991984E0,-3.492541790E0
1.409717399E0,9.506177902E0,-1.654991984E0,-3.631405354E0
1.412205159E0,9.534908295E0,-1.654991984E0,-3.760692358E0
1.414692920E0,9.539696693E0,-1.669357181E0,-3.875613928E0
1.417180680E0,9.587580681E0,-1.693299174E0,-3.985747337E0
1.419668441E0,9.625887871E0,-1.731606364E0,-4.081515312E0
1.422156201E0,9.673771858E0,-1.765125155E0,-4.172494888E0
1.424643962E0,9.726444244E0,-1.808220863E0,-4.249109268E0
1.427131722E0,9.779116631E0,-1.884835243E0,-4.292205334E0
1.429619482E0,9.831789017E0,-1.942296147E0,-4.320935726E0
1.432107243E0,9.870096207E0,-1.985391736E0,-4.320935726E0
1.434595003E0,9.937133789E0,-2.033275843E0,-4.258686066E0
1.437082764E0,9.961075783E0,-2.066794634E0,-4.191648483E0
1.439570524E0,9.961075783E0,-2.129043818E0,-4.115034103E0
1.442058284E0,9.994594574E0,-2.191293001E0,-4.019266129E0
1.444546045E0,1.001374817E1,-2.248754025E0,-3.913921118E0
1.447033805E0,1.006642151E1,-2.320580006E0,-3.822941542E0
1.449521566E0,1.011430550E1,-2.368463993E0,-3.722385168E0
1.452009326E0,1.016697788E1,-2.421136379E0,-3.645770550E0
1.454497087E0,1.021007347E1,-2.449866772E0,-3.540425777E0
1.456984847E0,1.024838066E1,-2.488174200E0,-3.444657803E0
1.459472607E0,1.026274586E1,-2.507327795E0,-3.339312792E0
1.461960368E0,1.027711105E1,-2.540846586E0,-3.233968019E0
1.464448128E0,1.028189945E1,-2.560000181E0,-3.162141800E0
1.466935889E0,1.025795746E1,-2.564788580E0,-3.090315819E0
1.469423649E0,1.022922707E1,-2.574365377E0,-3.061585426E0
1.471911409E0,1.018613148E1,-2.569576979E0,-3.028066635E0
1.474399170E0,1.014782429E1,-2.550423384E0,-3.013701439E0
1.476886930E0,1.009036350E1,-2.540846586E0,-2.975394249E0
1.479374691E0,1.003769016E1,-2.540846586E0,-2.937086821E0
1.481862451E0,9.985017776E0,-2.531269789E0,-2.922721624E0
1.484350212E0,9.927556992E0,-2.512116194E0,-2.884414434E0
1.486837972E0,9.841365814E0,-2.483385801E0,-2.879626036E0
1.489325732E0,9.783905029E0,-2.449866772E0,-2.865260839E0
1.491813493E0,9.716867447E0,-2.425924778E0,-2.836530447E0
1.494301253E0,9.659406662E0,-2.392405987E0,-2.841318846E0
1.496789014E0,9.616311073E0,-2.358887196E0,-2.850895643E0
1.499276774E0,9.563638687E0,-2.354098797E0,-2.855684042E0
1.501764534E0,9.496601105E0,-2.358887196E0,-2.831742048E0
1.504252295E0,9.429563522E0,-2.344521999E0,-2.812588453E0
1.506740055E0,9.381679535E0,-2.354098797E0,-2.807800055E0
1.509227816E0,9.338583946E0,-2.354098797E0,-2.793434858E0
1.511715576E0,9.309853554E0,-2.363675594E0,-2.774281263E0
1.514203337E0,9.276334763E0,-2.358887196E0,-2.759916067E0
1.516691097E0,9.271546364E0,-2.349310398E0,-2.745550871E0
1.519178857E0,9.271546364E0,-2.354098797E0,-2.735974073E0
1.521666618E0,9.314641953E0,-2.387617588E0,-2.735974073E0
1.524154378E0,9.352949142E0,-2.392405987E0,-2.716820478E0
1.526642139E0,9.434351921E0,-2.416347980E0,-2.721608877E0
1.529129899E0,9.525331497E0,-2.464232206E0,-2.735974073E0
1.531617659E0,9.601945877E0,-2.516904593E0,-2.759916067E0
1.534105420E0,9.683348656E0,-2.574365377E0,-2.755127668E0
1.536593180E0,9.740809441E0,-2.631826162E0,-2.759916067E0
1.539080941E0,9.836577415E0,-2.660556555E0,-2.750339270E0
1.541568701E0,9.908403397E0,-2.689286947E0,-2.726397276E0
1.544056462E0,9.985017776E0,-2.703652382E0,-2.712032080E0
1.546544222E0,1.007120991E1,-2.708440781E0,-2.673724651E0
1.549031982E0,1.013345909E1,-2.722805977E0,-2.635417461E0
1.551519743E0,1.016697788E1,-2.713229179E0,-2.601898670E0
1.554007503E0,1.021965027E1,-2.694075346E0,-2.582745075E0
1.556495264E0,1.025316906E1,-2.698863983E0,-2.568379879E0
1.558983024E0,1.024359226E1,-2.713229179E0,-2.563591480E0
1.561470784E0,1.023880386E1,-2.698863983E0,-2.554014683E0
1.563958545E0,1.022443867E1,-2.679710150E0,-2.554014683E0
1.566446305E0,1.019570827E1,-2.641402960E0,-2.558803082E0
1.568934066E0,1.018134308E1,-2.603095770E0,-2.577956676E0
1.571421826E0,1.015261269E1,-2.560000181E0,-2.630629063E0
1.573909587E0,1.010951710E1,-2.516904593E0,-2.678513050E0
1.576397347E0,1.008078671E1,-2.464232206E0,-2.731185675E0
1.578885107E0,1.003769016E1,-2.435501575E0,-2.779069662E0
1.581372868E0,9.975440979E0,-2.406771183E0,-2.836530447E0
1.583860628E0,9.927556992E0,-2.387617588E0,-2.893991232E0
1.586348389E0,9.874884605E0,-2.368463993E0,-2.965817451E0
1.588836149E0,9.803058624E0,-2.325368404E0,-3.047220230E0
1.591323909E0,9.740809441E0,-2.301426411E0,-3.123834610E0
1.593812347E0,9.683348656E0,-2.263119221E0,-3.195660830E0
1.596300003E0,9.630676270E0,-2.248754025E0,-3.281852007E0
1.598787659E0,9.587580681E0,-2.224812031E0,-3.372831583E0
1.601275316E0,9.534908295E0,-2.200869799E0,-3.449446201E0
1.603762972E0,9.510966301E0,-2.181716204E0,-3.497330189E0
1.606250628E0,9.477447510E0,-2.157774210E0,-3.588309765E0
1.608738284E0,9.443928719E0,-2.143409014E0,-3.645770550E0
1.611225941E0,9.405621529E0,-2.109890223E0,-3.684077978E0
1.613713597E0,9.372102737E0,-2.100313425E0,-3.717596769E0
1.616201253E0,9.352949142E0,-2.071583033E0,-3.789422750E0
1.618688909E0,9.352949142E0,-2.071583033E0,-3.846883535E0
1.621176566E0,9.343372345E0,-2.062006235E0,-3.913921118E0
1.623664222E0,9.357737541E0,-2.085948229E0,-3.952228546E0
1.626151930E0,9.410409927E0,-2.100313425E0,-4.014477730E0
1.628639691E0,9.463082314E0,-2.124255419E0,-4.052784920E0
1.631127503E0,9.520543098E0,-2.157774210E0,-4.100668907E0
1.633615316E0,9.587580681E0,-2.172139406E0,-4.153341293E0
1.636103128E0,9.683348656E0,-2.176927805E0,-4.201225281E0
1.638590941E0,9.755174637E0,-2.215235233E0,-4.244320869E0
1.641078753E0,9.841365814E0,-2.224812031E0,-4.268262863E0
1.643566566E0,9.913191795E0,-2.234388828E0,-4.273051262E0
1.646054378E0,9.989806175E0,-2.248754025E0,-4.287416458E0
1.648542191E0,1.005684471E1,-2.248754025E0,-4.287416458E0
1.651030003E0,1.011430550E1,-2.248754025E0,-4.325724125E0
1.653517816E0,1.018613148E1,-2.243965626E0,-4.354454517E0
1.656005628E0,1.026274586E1,-2.234388828E0,-4.387973309E0
1.658493441E0,1.035372543E1,-2.234388828E0,-4.426280499E0
1.660981253E0,1.043033981E1,-2.248754025E0,-4.459799290E0
1.663469066E0,1.047822380E1,-2.258330822E0,-4.478952885E0
1.665956878E0,1.052131939E1,-2.272696018E0,-4.502894878E0
1.668444691E0,1.055004978E1,-2.272696018E0,-4.517260075E0
1.670932503E0,1.056920338E1,-2.248754025E0,-4.478952885E0
1.673420316E0,1.058356857E1,-2.234388828E0,-4.440645695E0
1.675908128E0,1.060751057E1,-2.205658197E0,-4.407126904E0
1.678395941E0,1.061229897E1,-2.176927805E0,-4.373608112E0
1.680883753E0,1.059314537E1,-2.152985811E0,-4.335300922E0
1.683371566E0,1.055004978E1,-2.138620615E0,-4.306570530E0
1.685859378E0,1.051174259E1,-2.119467020E0,-4.277839661E0
1.688347191E0,1.043991661E1,-2.090736628E0,-4.249109268E0
1.690835003E0,1.037766743E1,-2.066794634E0,-4.196436882E0
1.693322816E0,1.031541824E1,-2.052429438E0,-4.172494888E0
1.695810628E0,1.026274586E1,-2.038064241E0,-4.167706490E0
1.698298389E0,1.020528507E1,-2.052429438E0,-4.172494888E0
1.700786149E0,1.015261269E1,-2.052429438E0,-4.201225281E0
1.703273909E0,1.008557510E1,-2.028487444E0,-4.191648483E0
1.705761670E0,1.005205631E1,-2.033275843E0,-4.153341293E0
1.708249430E0,1.000895977E1,-2.042852640E0,-4.134187698E0
1.710737191E0,9.965864182E0,-2.023699045E0,-4.124610901E0
1.713224951E0,9.913191795E0,-2.014122248E0,-4.129399300E0
1.715712712E0,9.865307808E0,-1.999756932E0,-4.138976097E0
1.718200472E0,9.827000618E0,-1.999756932E0,-4.158129692E0
1.720688232E0,9.769539833E0,-1.994968534E0,-4.201225281E0
1.723175993E0,9.697713852E0,-2.004545450E0,-4.234744072E0
1.725663753E0,9.630676270E0,-2.014122248E0,-4.273051262E0
1.728151514E0,9.563638687E0,-1.990180135E0,-4.296993732E0
1.730639274E0,9.477447510E0,-1.971026540E0,-4.325724125E0
1.733127034E0,9.396044731E0,-1.971026540E0,-4.330512524E0
1.735614795E0,9.329007149E0,-1.971026540E0,-4.335300922E0
1.738102555E0,9.252392769E0,-1.975814939E0,-4.340089321E0
1.740590316E0,9.170989990E0,-1.990180135E0,-4.330512524E0
1.743078076E0,9.113529205E0,-2.014122248E0,-4.306570530E0
1.745565837E0,9.070432663E0,-2.023699045E0,-4.282628059E0
1.748053597E0,9.060855865E0,-2.023699045E0,-4.282628059E0
1.750541357E0,9.060855865E0,-2.038064241E0,-4.273051262E0
1.753029118E0,9.065644264E0,-2.081159830E0,-4.234744072E0
1.755516878E0,9.080010414E0,-2.109890223E0,-4.206013680E0
1.758004639E0,9.132682800E0,-2.138620615E0,-4.124610901E0
1.760492399E0,9.175778389E0,-2.162562609E0,-4.043208122E0
1.762980159E0,9.209297180E0,-2.200869799E0,-3.966593742E0
1.765467920E0,9.252392769E0,-2.229600430E0,-3.866037130E0
1.767955680E0,9.309853554E0,-2.253542423E0,-3.789422750E0
1.770443441E0,9.367314339E0,-2.277484417E0,-3.688866377E0
1.772931201E0,9.419986725E0,-2.315791607E0,-3.626616955E0
1.775418962E0,9.443928719E0,-2.339733601E0,-3.554790974E0
1.777906722E0,9.439140320E0,-2.378040791E0,-3.502118587E0
1.780394482E0,9.419986725E0,-2.406771183E0,-3.411138773E0
1.782882243E0,9.391256332E0,-2.411559582E0,-3.310582399E0
1.785370003E0,9.338583946E0,-2.416347980E0,-3.200449228E0
1.787857764E0,9.309853554E0,-2.411559582E0,-3.095104218E0
1.790345524E0,9.290699959E0,-2.387617588E0,-3.042431831E0
1.792833284E0,9.266757965E0,-2.378040791E0,-2.999336243E0
1.795321045E0,9.233239174E0,-2.382829189E0,-2.980182648E0
1.797808805E0,9.199720383E0,-2.378040791E0,-2.961029053E0
1.800296566E0,9.156624794E0,-2.401982784E0,-2.965817451E0
1.802784326E0,9.127894402E0,-2.440289974E0,-2.965817451E0
1.805272087E0,9.099164009E0,-2.492962599E0,-2.970605850E0
1.807759847E0,9.070432663E0,-2.521692991E0,-2.984971046E0
1.810247607E0,9.060855865E0,-2.564788580E0,-2.980182648E0
1.812735368E0,9.056067467E0,-2.593518972E0,-2.989759445E0
1.815223128E0,9.046490669E0,-2.627037764E0,-2.994547844E0
1.817710889E0,9.027337074E0,-2.646191359E0,-3.037643433E0
1.820198649E0,9.027337074E0,-2.679710150E0,-3.032855034E0
1.822686409E0,9.060855865E0,-2.722805977E0,-3.066373825E0
1.825174170E0,9.080010414E0,-2.775478363E0,-3.075950623E0
1.827661930E0,9.123106003E0,-2.828150749E0,-3.090315819E0
1.830149691E0,9.180566788E0,-2.895188332E0,-3.090315819E0
1.832637451E0,9.233239174E0,-2.952649355E0,-3.066373825E0
1.835125212E0,9.305065155E0,-3.005321741E0,-3.047220230E0
1.837612972E0,9.352949142E0,-3.034052134E0,-3.023278236E0
1.840100732E0,9.400833130E0,-3.067570925E0,-2.984971046E0
1.842588493E0,9.434351921E0,-3.077147722E0,-2.951452255E0
1.845076253E0,9.443928719E0,-3.081936121E0,-2.913144827E0
1.847564014E0,9.453505516E0,-3.072359324E0,-2.884414434E0
1.850051774E0,9.496601105E0,-3.067570925E0,-2.874837637E0
1.852539534E0,9.510966301E0,-3.081936121E0,-2.831742048E0
1.855027295E0,9.534908295E0,-3.072359324E0,-2.793434858E0
1.857515055E0,9.544485092E0,-3.062782526E0,-2.740762472E0
1.860002816E0,9.539696693E0,-3.034052134E0,-2.692878246E0
1.862490576E0,9.544485092E0,-3.024475336E0,-2.649782658E0
1.864978337E0,9.563638687E0,-2.995744944E0,-2.606687069E0
1.867466097E0,9.573215485E0,-2.967014551E0,-2.558803082E0
1.869953857E0,9.568427086E0,-2.928707123E0,-2.530072689E0
1.872441618E0,9.573215485E0,-2.871246338E0,-2.467823505E0
1.874929378E0,9.558850288E0,-2.808997154E0,-2.443881273E0
1.877417139E0,9.573215485E0,-2.756324768E0,-2.415150881E0
1.879904899E0,9.582792282E0,-2.732382774E0,-2.419939280E0
1.882392659E0,9.597157478E0,-2.698863983E0,-2.410362482E0
1.884880420E0,9.625887871E0,-2.670133352E0,-2.395997286E0
1.887368180E0,9.621099472E0,-2.622249365E0,-2.391208887E0
1.889855941E0,9.616311073E0,-2.583942175E0,-2.391208887E0
1.892343701E0,9.587580681E0,-2.536058187E0,-2.338536501E0
1.894831462E0,9.534908295E0,-2.488174200E0,-2.300229311E0
1.897319222E0,9.482235909E0,-2.430713177E0,-2.228403330E0
1.899806982E0,9.439140320E0,-2.363675594E0,-2.161365509E0
1.902294743E0,9.405621529E0,-2.272696018E0,-2.118269920E0
1.904782503E0,9.376891136E0,-2.200869799E0,-2.094327927E0
1.907270264E0,9.352949142E0,-2.148197412E0,-2.075174332E0
1.909758024E0,9.348160744E0,-2.109890223E0,-2.094327927E0
1.912245784E0,9.343372345E0,-2.081159830E0,-2.099116325E0
1.914733545E0,9.329007149E0,-2.071583033E0,-2.132635117E0
1.917221305E0,9.324218750E0,-2.076371431E0,-2.151788712E0
1.919709066E0,9.319430351E0,-2.057217836E0,-2.170942307E0
1.922196826E0,9.324218750E0,-2.023699045E0,-2.204461098E0
1.924684587E0,9.314641953E0,-2.023699045E0,-2.252345324E0
1.927172347E0,9.295488358E0,-1.971026540E0,-2.309806108E0
1.929660107E0,9.295488358E0,-1.927930951E0,-2.362478495E0
1.932147868E0,9.333795547E0,-1.889623642E0,-2.434304476E0
1.934635628E0,9.357737541E0,-1.836951256E0,-2.510919094E0
1.937123389E0,9.405621529E0,-1.822586060E0,-2.592321873E0
1.939611149E0,9.472659111E0,-1.808220863E0,-2.697666883E0
1.942098909E0,9.506177902E0,-1.798644066E0,-2.803011656E0
1.944586670E0,9.520543098E0,-1.793855667E0,-2.927510023E0
1.947074430E0,9.554061890E0,-1.760336757E0,-3.032855034E0
1.949562191E0,9.582792282E0,-1.741183162E0,-3.138199806E0
1.952049951E0,9.616311073E0,-1.698087573E0,-3.291428804E0
1.954537712E0,9.635464668E0,-1.654991984E0,-3.415927172E0
1.957025472E0,9.673771858E0,-1.631049871E0,-3.554790974E0
1.959513232E0,9.697713852E0,-1.611896276E0,-3.669712543E0
1.962000993E0,9.755174637E0,-1.616684675E0,-3.784634352E0
1.964488753E0,9.803058624E0,-1.631049871E0,-3.899555922E0
1.966976514E0,9.855731010E0,-1.640626669E0,-3.980958939E0
1.969464274E0,9.884461403E0,-1.664568782E0,-4.057573318E0
1.971952034E0,9.917980194E0,-1.678933978E0,-4.115034103E0
1.974439795E0,9.956287384E0,-1.688510776E0,-4.167706490E0
1.976927555E0,9.970652580E0,-1.688510776E0,-4.191648483E0
1.979415316E0,1.000895977E1,-1.702875972E0,-4.210802078E0
1.981903076E0,1.003769016E1,-1.702875972E0,-4.234744072E0
1.984390837E0,1.006163311E1,-1.726817966E0,-4.239532471E0
1.986878597E0,1.009036350E1,-1.769913554E0,-4.249109268E0
1.989366357E0,1.005684471E1,-1.817797661E0,-4.253897667E0
1.991854118E0,1.003769016E1,-1.889623642E0,-4.215590477E0
1.994341878E0,1.001853657E1,-1.932719350E0,-4.182071686E0
1.996829639E0,1.000417137E1,-1.975814939E0,-4.124610901E0
1.999317399E0,9.985017776E0,-1.994968534E0,-4.081515312E0
2.001805159E0,9.975440979E0,-2.023699045E0,-4.000112534E0
2.004292920E0,9.961075783E0,-2.033275843E0,-3.937863350E0
2.006780680E0,9.932345390E0,-2.052429438E0,-3.904344320E0
2.009268441E0,9.937133789E0,-2.085948229E0,-3.861248732E0
2.011756201E0,9.932345390E0,-2.105101824E0,-3.832518339E0
2.014243962E0,9.941922188E0,-2.138620615E0,-3.794211149E0
2.016731722E0,9.961075783E0,-2.176927805E0,-3.755903959E0
2.019219482E0,9.970652580E0,-2.220023632E0,-3.712808371E0
2.021707243E0,1.000417137E1,-2.248754025E0,-3.679289579E0
2.024195003E0,9.999382973E0,-2.277484417E0,-3.631405354E0
2.026682764E0,1.001374817E1,-2.296638012E0,-3.583521366E0
2.029170524E0,1.006642151E1,-2.334945202E0,-3.554790974E0
2.031658284E0,1.009036350E1,-2.354098797E0,-3.526060581E0
2.034146045E0,1.013345909E1,-2.392405987E0,-3.535637379E0
2.036633805E0,1.017176628E1,-2.421136379E0,-3.545214176E0
2.039121566E0,1.022922707E1,-2.445078373E0,-3.559579372E0
2.041609326E0,1.029626465E1,-2.478597403E0,-3.602674961E0
2.044097087E0,1.032499504E1,-2.531269789E0,-3.631405354E0
2.046584847E0,1.036809063E1,-2.574365377E0,-3.660135746E0
2.049072607E0,1.039203262E1,-2.598307371E0,-3.684077978E0
2.051560368E0,1.043512821E1,-2.598307371E0,-3.708019972E0
2.054048128E0,1.046864700E1,-2.583942175E0,-3.751115561E0
2.056535889E0,1.049737740E1,-2.579153776E0,-3.779845953E0
2.059023649E0,1.053089619E1,-2.593518972E0,-3.837306738E0
2.061511409E0,1.055004978E1,-2.588730574E0,-3.889979124E0
2.063999170E0,1.057878017E1,-2.617460966E0,-3.947440147E0
2.066486930E0,1.060751057E1,-2.650979757E0,-3.957016945E0
2.068974691E0,1.065060616E1,-2.646191359E0,-3.980958939E0
2.071462451E0,1.066018295E1,-2.655768156E0,-4.014477730E0
2.073950212E0,1.066497135E1,-2.650979757E0,-4.000112534E0
2.076437972E0,1.066018295E1,-2.641402960E0,-3.971382141E0
2.078925732E0,1.066018295E1,-2.617460966E0,-3.937863350E0
2.081413493E0,1.066497135E1,-2.612672567E0,-3.866037130E0
2.083901253E0,1.066497135E1,-2.603095770E0,-3.822941542E0
2.086389014E0,1.066018295E1,-2.627037764E0,-3.789422750E0
2.088876774E0,1.065060616E1,-2.631826162E0,-3.760692358E0
2.091364534E0,1.063145256E1,-2.646191359E0,-3.708019972E0
2.093852295E0,1.060751057E1,-2.655768156E0,-3.650558949E0
2.096340055E0,1.058356857E1,-2.650979757E0,-3.569156170E0
2.098827816E0,1.056920338E1,-2.636614561E0,-3.492541790E0
2.101315576E0,1.057399178E1,-2.631826162E0,-3.425503969E0
2.103803337E0,1.057878017E1,-2.603095770E0,-3.344101191E0
2.106291097E0,1.055962658E1,-2.607884169E0,-3.277063608E0
2.108778857E0,1.054526138E1,-2.612672567E0,-3.210026026E0
2.111266618E0,1.052131939E1,-2.636614561E0,-3.152565002E0
2.113754378E0,1.048780060E1,-2.627037764E0,-3.075950623E0
2.116242139E0,1.047343540E1,-2.593518972E0,-3.018489838E0
2.118729899E0,1.047343540E1,-2.603095770E0,-2.946663857E0
2.121217659E0,1.047343540E1,-2.617460966E0,-2.927510023E0
2.123705420E0,1.046864700E1,-2.598307371E0,-2.860472441E0
2.126193180E0,1.048780060E1,-2.579153776E0,-2.841318846E0
2.128680941E0,1.052610779E1,-2.579153776E0,-2.826953650E0
2.131168701E0,1.055483818E1,-2.569576979E0,-2.822165251E0
2.133656462E0,1.058356857E1,-2.569576979E0,-2.826953650E0
2.136144222E0,1.061708736E1,-2.579153776E0,-2.831742048E0
2.138631982E0,1.064581776E1,-2.579153776E0,-2.841318846E0
2.141119743E0,1.067933655E1,-2.550423384E0,-2.870049238E0
2.143607503E0,1.072243214E1,-2.560000181E0,-2.917933226E0
2.146095264E0,1.076073933E1,-2.579153776E0,-2.941875219E0
2.148583024E0,1.081820011E1,-2.574365377E0,-2.994547844E0
2.151070784E0,1.086129570E1,-2.560000181E0,-3.066373825E0
2.153558545E0,1.095227528E1,-2.550423384E0,-3.142988205E0
2.156046305E0,1.100973606E1,-2.550423384E0,-3.243544817E0
2.158534066E0,1.106719780E1,-2.550423384E0,-3.358466387E0
2.161021826E0,1.111987019E1,-2.550423384E0,-3.449446201E0
2.163509587E0,1.116296577E1,-2.560000181E0,-3.540425777E0
2.165997347E0,1.123000336E1,-2.569576979E0,-3.621828556E0
2.168485107E0,1.130182934E1,-2.569576979E0,-3.712808371E0
2.170972868E0,1.136886692E1,-2.598307371E0,-3.803787947E0
2.173460628E0,1.143590450E1,-2.588730574E0,-3.889979124E0
2.175948389E0,1.149815369E1,-2.593518972E0,-3.952228546E0
2.178436149E0,1.154124928E1,-2.569576979E0,-4.024054527E0
2.180923909E0,1.160349846E1,-2.569576979E0,-4.071938515E0
2.183411670E0,1.163222885E1,-2.550423384E0,-4.105457306E0
2.185899430E0,1.165617085E1,-2.550423384E0,-4.105457306E0
2.188387191E0,1.167532444E1,-2.560000181E0,-4.091092110E0
2.190874951E0,1.170405483E1,-2.555211782E0,-4.081515312E0
2.193362712E0,1.169926643E1,-2.536058187E0,-4.057573318E0
2.195850472E0,1.170884323E1,-2.507327795E0,-4.004900932E0
2.198338232E0,1.173757362E1,-2.473809004E0,-3.976170540E0
2.200825993E0,1.175193882E1,-2.459443808E0,-3.937863350E0
2.203313753E0,1.176630402E1,-2.421136379E0,-3.885190725E0
2.205801514E0,1.174236202E1,-2.401982784E0,-3.846883535E0
2.208289274E0,1.172799683E1,-2.373252392E0,-3.822941542E0
2.210777087E0,1.171842003E1,-2.358887196E0,-3.794211149E0
2.213264899E0,1.170884323E1,-2.311003208E0,-3.746327162E0
2.215752712E0,1.169447803E1,-2.287061214E0,-3.703231573E0
2.218240524E0,1.168490124E1,-2.234388828E0,-3.636193752E0
2.220728337E0,1.166095924E1,-2.196081400E0,-3.550002575E0
2.223216149E0,1.165138245E1,-2.162562609E0,-3.468599796E0
2.225703962E0,1.166574764E1,-2.124255419E0,-3.382408381E0
2.228191774E0,1.164659405E1,-2.076371431E0,-3.310582399E0
2.230679587E0,1.168968964E1,-2.033275843E0,-3.248333216E0
2.233167399E0,1.171842003E1,-1.985391736E0,-3.176506996E0
2.235655212E0,1.174236202E1,-1.966238141E0,-3.138199806E0
2.238143024E0,1.176151562E1,-1.975814939E0,-3.085527420E0
2.240630837E0,1.180939960E1,-1.971026540E0,-3.028066635E0
2.243118649E0,1.186686039E1,-1.971026540E0,-3.008913040E0
2.245606462E0,1.190516758E1,-1.980603337E0,-2.984971046E0
2.248094274E0,1.194826317E1,-1.990180135E0,-2.989759445E0
2.250582087E0,1.200093555E1,-1.985391736E0,-2.989759445E0
2.253069899E0,1.204882050E1,-1.985391736E0,-2.984971046E0
2.255557712E0,1.210149288E1,-1.999756932E0,-3.028066635E0
2.258045524E0,1.216853046E1,-2.018910646E0,-3.075950623E0
2.260533337E0,1.222120285E1,-2.052429438E0,-3.138199806E0
2.263021149E0,1.232175922E1,-2.081159830E0,-3.214814425E0
2.265508962E0,1.240795040E1,-2.119467020E0,-3.291428804E0
2.267996774E0,1.246062279E1,-2.162562609E0,-3.382408381E0
2.270484587E0,1.252766037E1,-2.186504602E0,-3.478176594E0
2.272972399E0,1.258512115E1,-2.205658197E0,-3.588309765E0
2.275460212E0,1.264737034E1,-2.234388828E0,-3.684077978E0
2.277948024E0,1.270004272E1,-2.258330822E0,-3.784634352E0
2.280435784E0,1.275750351E1,-2.267907619E0,-3.904344320E0
2.282923545E0,1.280538750E1,-2.296638012E0,-4.009689331E0
2.285411305E0,1.285327148E1,-2.325368404E0,-4.115034103E0
2.287899066E0,1.288679028E1,-2.358887196E0,-4.225167274E0
2.290386826E0,1.289636707E1,-2.392405987E0,-4.320935726E0
2.292874587E0,1.291073227E1,-2.401982784E0,-4.392761707E0
2.295362347E0,1.292509747E1,-2.406771183E0,-4.474164486E0
2.297850107E0,1.292509747E1,-2.416347980E0,-4.569932461E0
2.300337868E0,1.292509747E1,-2.425924778E0,-4.627393246E0
2.302825628E0,1.290594387E1,-2.440289974E0,-4.689642429E0
2.305313389E0,1.285327148E1,-2.440289974E0,-4.718372822E0
2.307801149E0,1.281496429E1,-2.421136379E0,-4.737526417E0
2.310288909E0,1.277665710E1,-2.411559582E0,-4.756680012E0
2.312776670E0,1.273356152E1,-2.392405987E0,-4.761468410E0
2.315264430E0,1.268567753E1,-2.363675594E0,-4.775833607E0
2.317752191E0,1.260906315E1,-2.344521999E0,-4.775833607E0
2.320239951E0,1.253723717E1,-2.325368404E0,-4.771045208E0
2.322727712E0,1.245104599E1,-2.296638012E0,-4.756680012E0
2.325215472E0,1.236964321E1,-2.258330822E0,-4.713584423E0
2.327703232E0,1.229302883E1,-2.234388828E0,-4.680065632E0
2.330190993E0,1.217810726E1,-2.200869799E0,-4.603451252E0
2.332678753E0,1.208712769E1,-2.167351007E0,-4.512471676E0
2.335166514E0,1.197699356E1,-2.124255419E0,-4.431068897E0
2.337654274E0,1.186207199E1,-2.076371431E0,-4.354454517E0
2.340142034E0,1.177109241E1,-2.038064241E0,-4.249109268E0
2.342629795E0,1.164659405E1,-1.999756932E0,-4.158129692E0
2.345117555E0,1.156040287E1,-1.966238141E0,-4.057573318E0
2.347605316E0,1.148857689E1,-1.951872945E0,-3.995324135E0
2.350093076E0,1.140717411E1,-1.927930951E0,-3.904344320E0
2.352580837E0,1.133055973E1,-1.899200439E0,-3.827729940E0
2.355068597E0,1.125873375E1,-1.851316452E0,-3.746327162E0
2.357556357E0,1.117254257E1,-1.832162857E0,-3.660135746E0
2.360044118E0,1.112465858E1,-1.789067268E0,-3.593098164E0
2.362531878E0,1.110550499E1,-1.779490471E0,-3.516483784E0
2.365019639E0,1.106240940E1,-1.750759959E0,-3.454234600E0
2.367507399E0,1.104804420E1,-1.750759959E0,-3.396773577E0
2.369995159E0,1.101452446E1,-1.750759959E0,-3.334524393E0
2.372482920E0,1.099537086E1,-1.741183162E0,-3.281852007E0
2.374970680E0,1.098579407E1,-1.722029567E0,-3.233968019E0
2.377458441E0,1.097142887E1,-1.722029567E0,-3.200449228E0
2.379946201E0,1.094748688E1,-1.698087573E0,-3.176506996E0
2.382433962E0,1.094269848E1,-1.678933978E0,-3.152565002E0
2.384921722E0,1.095227528E1,-1.640626669E0,-3.133411407E0
2.387409482E0,1.093312168E1,-1.626261473E0,-3.123834610E0
2.389897243E0,1.092354488E1,-1.602319479E0,-3.123834610E0
2.392385003E0,1.090917969E1,-1.568800688E0,-3.104681015E0
2.394872764E0,1.089481449E1,-1.544858694E0,-3.085527420E0
2.397360524E0,1.086129570E1,-1.535281897E0,-3.075950623E0
2.399848284E0,1.081341171E1,-1.511339784E0,-3.090315819E0
2.402336045E0,1.077510452E1,-1.492186189E0,-3.099892616E0
2.404823805E0,1.074158573E1,-1.477820992E0,-3.109469414E0
2.407311566E0,1.069370174E1,-1.477820992E0,-3.099892616E0
2.409799326E0,1.064581776E1,-1.468244195E0,-3.119046211E0
2.412287087E0,1.058835697E1,-1.458667397E0,-3.133411407E0
2.414774847E0,1.053089619E1,-1.458667397E0,-3.152565002E0
2.417262607E0,1.047822380E1,-1.468244195E0,-3.142988205E0
2.419750368E0,1.043033981E1,-1.458667397E0,-3.157353401E0
2.422238128E0,1.037287903E1,-1.429937005E0,-3.162141800E0
2.424725889E0,1.031541824E1,-1.415571809E0,-3.166930199E0
2.427213649E0,1.025316906E1,-1.420360208E0,-3.195660830E0
2.429701409E0,1.020528507E1,-1.444302201E0,-3.205237627E0
2.432189170E0,1.016218948E1,-1.415571809E0,-3.214814425E0
2.434676930E0,1.012388229E1,-1.410783410E0,-3.229179621E0
2.437164691E0,1.004726696E1,-1.415571809E0,-3.210026026E0
2.439652451E0,1.001374817E1,-1.396418095E0,-3.205237627E0
2.442140212E0,9.956287384E0,-1.382052898E0,-3.205237627E0
2.444627972E0,9.932345390E0,-1.367687702E0,-3.186083794E0
2.447115732E0,9.922768593E0,-1.353322506E0,-3.171718597E0
2.449603493E0,9.922768593E0,-1.358110905E0,-3.157353401E0
2.452091253E0,9.922768593E0,-1.362899303E0,-3.123834610E0
2.454579014E0,9.917980194E0,-1.377264500E0,-3.099892616E0
2.457066774E0,9.917980194E0,-1.377264500E0,-3.090315819E0
2.459554534E0,9.894038200E0,-1.372476101E0,-3.042431831E0
2.462042295E0,9.898826599E0,-1.386841297E0,-3.013701439E0
2.464530055E0,9.908403397E0,-1.382052898E0,-2.975394249E0
2.467017816E0,9.922768593E0,-1.386841297E0,-2.951452255E0
2.469505576E0,9.937133789E0,-1.410783410E0,-2.927510023E0
2.471993337E0,9.937133789E0,-1.425148606E0,-2.917933226E0
2.474481097E0,9.941922188E0,-1.453878999E0,-2.932298422E0
2.476968857E0,9.956287384E0,-1.477820992E0,-2.932298422E0
2.479456618E0,9.970652580E0,-1.516128182E0,-2.970605850E0
2.481944378E0,9.965864182E0,-1.544858694E0,-2.989759445E0
2.484432139E0,9.989806175E0,-1.587954283E0,-2.994547844E0
2.486919899E0,9.989806175E0,-1.626261473E0,-2.984971046E0
2.489407659E0,1.000417137E1,-1.659780383E0,-2.984971046E0
2.491895420E0,1.001853657E1,-1.688510776E0,-2.961029053E0
2.494383180E0,1.001853657E1,-1.693299174E0,-2.941875219E0
2.496870941E0,9.989806175E0,-1.717241168E0,-2.927510023E0
2.499358701E0,9.985017776E0,-1.722029567E0,-2.917933226E0
2.501846462E0,9.946710587E0,-1.726817966E0,-2.884414434E0
2.504334222E0,9.932345390E0,-1.750759959E0,-2.836530447E0
2.506821982E0,9.894038200E0,-1.769913554E0,-2.793434858E0
2.509309743E0,9.855731010E0,-1.784278870E0,-2.735974073E0
2.511797503E0,9.807847023E0,-1.808220863E0,-2.692878246E0
2.514285264E0,9.779116631E0,-1.832162857E0,-2.649782658E0
2.516773024E0,9.740809441E0,-1.836951256E0,-2.587533474E0
2.519260784E0,9.707290649E0,-1.856104851E0,-2.525284290E0
2.521748545E0,9.640253067E0,-1.851316452E0,-2.501342297E0
2.524236305E0,9.582792282E0,-1.856104851E0,-2.458246708E0
2.526724066E0,9.534908295E0,-1.817797661E0,-2.391208887E0
2.529211826E0,9.467870712E0,-1.774701953E0,-2.348113298E0
2.531699587E0,9.415198326E0,-1.755548358E0,-2.309806108E0
2.534187347E0,9.381679535E0,-1.736394763E0,-2.261922121E0
2.536675107E0,9.362525940E0,-1.726817966E0,-2.242768526E0
2.539162868E0,9.314641953E0,-1.712452769E0,-2.214038134E0
2.541650628E0,9.285911560E0,-1.698087573E0,-2.209249735E0
2.544138389E0,9.228450775E0,-1.693299174E0,-2.209249735E0
2.546626149E0,9.194931984E0,-1.693299174E0,-2.194884300E0
2.549113909E0,9.166201591E0,-1.683722377E0,-2.180519104E0
2.551601670E0,9.127894402E0,-1.659780383E0,-2.175730705E0
2.554089430E0,9.089587212E0,-1.650203466E0,-2.190095901E0
2.556577191E0,9.060855865E0,-1.631049871E0,-2.190095901E0
2.559064951E0,9.022548676E0,-1.616684675E0,-2.199672699E0
2.561552712E0,8.993818283E0,-1.611896276E0,-2.194884300E0
2.564040472E0,8.979453087E0,-1.607107878E0,-2.199672699E0
2.566528232E0,8.969876289E0,-1.602319479E0,-2.237980127E0
2.569015993E0,8.950722694E0,-1.592742682E0,-2.266710520E0
2.571503753E0,8.950722694E0,-1.573589087E0,-2.281075716E0
2.573991514E0,8.945934296E0,-1.564012289E0,-2.324171305E0
2.576479274E0,8.941145897E0,-1.559223890E0,-2.343324900E0
2.578967034E0,8.960299492E0,-1.564012289E0,-2.357690096E0
2.581454795E0,8.945934296E0,-1.535281897E0,-2.381632090E0
2.583942555E0,8.931569099E0,-1.530493379E0,-2.395997286E0
2.586430316E0,8.921992302E0,-1.525704980E0,-2.429516077E0
2.588918076E0,8.917203903E0,-1.516128182E0,-2.434304476E0
2.591405837E0,8.893261909E0,-1.496974587E0,-2.391208887E0
2.593893597E0,8.864531517E0,-1.477820992E0,-2.367266893E0
2.596381357E0,8.831012726E0,-1.449090600E0,-2.324171305E0
2.598869118E0,8.821435928E0,-1.434725404E0,-2.281075716E0
2.601356878E0,8.826224327E0,-1.401206493E0,-2.261922121E0
2.603844639E0,8.807070732E0,-1.382052898E0,-2.233191729E0
2.606332399E0,8.802282333E0,-1.367687702E0,-2.209249735E0
2.608820159E0,8.792705536E0,-1.338957310E0,-2.204461098E0
2.611307920E0,8.768763542E0,-1.319803715E0,-2.204461098E0
2.613795680E0,8.749609947E0,-1.300650120E0,-2.228403330E0
2.616283441E0,8.716091156E0,-1.267131209E0,-2.247556925E0
2.618771201E0,8.677783966E0,-1.233612418E0,-2.271498919E0
2.621258962E0,8.634688377E0,-1.185728431E0,-2.324171305E0
2.623746722E0,8.601169586E0,-1.156997919E0,-2.367266893E0
2.626234482E0,8.582015991E0,-1.142632723E0,-2.429516077E0
2.628722243E0,8.562862396E0,-1.104325533E0,-2.496553898E0
2.631210003E0,8.538920403E0,-1.070806742E0,-2.554014683E0
2.633697764E0,8.524555206E0,-1.051653147E0,-2.611475468E0
2.636185524E0,8.495824814E0,-1.037287831E0,-2.683301449E0
2.638673284E0,8.452729225E0,-1.003769040E0,-2.740762472E0
2.641161045E0,8.414422035E0,-9.750386477E-1,-2.788646460E0
2.643648805E0,8.356961250E0,-9.606734514E-1,-2.826953650E0
2.646136566E0,8.347384453E0,-9.319429994E-1,-2.865260839E0
2.648624326E0,8.323442459E0,-8.936358094E-1,-2.903568029E0
2.651112087E0,8.299500465E0,-8.744821548E-1,-2.941875219E0
2.653599847E0,8.261193275E0,-8.553285599E-1,-2.961029053E0
2.656087607E0,8.232462883E0,-8.409633636E-1,-3.028066635E0
2.658575368E0,8.203732491E0,-8.361749649E-1,-3.056797028E0
2.661063128E0,8.184578896E0,-8.409633636E-1,-3.085527420E0
2.663550889E0,8.155848503E0,-8.553285599E-1,-3.114257812E0
2.666038649E0,8.122329712E0,-8.553285599E-1,-3.123834610E0
2.668526409E0,8.141483307E0,-8.744821548E-1,-3.114257812E0
2.671014170E0,8.117541313E0,-8.984242082E-1,-3.114257812E0
2.673501930E0,8.093599319E0,-8.936358094E-1,-3.104681015E0
2.675989691E0,8.088809967E0,-9.080010056E-1,-3.071162224E0
2.678477451E0,8.098387718E0,-9.223662019E-1,-3.047220230E0
2.680965264E0,8.131906509E0,-9.367313981E-1,-3.013701439E0
2.683453076E0,8.165425301E0,-9.271546006E-1,-2.970605850E0
2.685940889E0,8.175002098E0,-9.271546006E-1,-2.937086821E0
2.688428701E0,8.160636902E0,-9.415197968E-1,-2.870049238E0
2.690916514E0,8.136694908E0,-9.510966539E-1,-2.769492865E0
2.693404326E0,8.122329712E0,-9.319429994E-1,-2.664147854E0
2.695892139E0,8.107964516E0,-8.984242082E-1,-2.558803082E0
2.698379951E0,8.050502777E0,-8.744821548E-1,-2.458246708E0
2.700867764E0,8.031349182E0,-8.601169586E-1,-2.362478495E0
2.703355576E0,8.007407188E0,-8.457517624E-1,-2.295440912E0
2.705843389E0,7.978677273E0,-8.265981078E-1,-2.218826532E0
2.708331201E0,7.940370083E0,-8.122329116E-1,-2.156577110E0
2.710819014E0,7.897274494E0,-8.122329116E-1,-2.113481522E0
2.713306826E0,7.849390507E0,-8.122329116E-1,-2.075174332E0
2.715794639E0,7.815871239E0,-8.218097091E-1,-2.032078743E0
2.718282451E0,7.767987251E0,-8.170213103E-1,-1.979406238E0
2.720770264E0,7.724891663E0,-8.122329116E-1,-1.969829440E0
2.723258076E0,7.686584473E0,-8.170213103E-1,-1.974617839E0
2.725745889E0,7.643488884E0,-8.026561141E-1,-1.969829440E0
2.728233701E0,7.600393295E0,-7.978677154E-1,-1.974617839E0
2.730721514E0,7.586028099E0,-8.026561141E-1,-1.993771434E0
2.733209326E0,7.542932510E0,-8.026561141E-1,-2.017713547E0
2.735697139E0,7.523778915E0,-7.930793166E-1,-2.027290344E0
2.738184951E0,7.471106529E0,-7.978677154E-1,-2.060809135E0
2.740672764E0,7.451952934E0,-8.122329116E-1,-2.079962730E0
2.743160576E0,7.423222542E0,-7.978677154E-1,-2.118269920E0
2.745648389E0,7.418434143E0,-8.170213103E-1,-2.156577110E0
2.748136201E0,7.413645744E0,-8.122329116E-1,-2.166153908E0
2.750624014E0,7.370550156E0,-8.074445128E-1,-2.194884300E0
2.753111774E0,7.341819286E0,-7.930793166E-1,-2.218826532E0
2.755599534E0,7.346607685E0,-7.787141204E-1,-2.237980127E0
2.758087295E0,7.337030888E0,-7.691373229E-1,-2.237980127E0
2.760575055E0,7.346607685E0,-7.547720671E-1,-2.252345324E0
2.763062816E0,7.356184959E0,-7.499836683E-1,-2.237980127E0
2.765550576E0,7.346607685E0,-7.356184721E-1,-2.237980127E0
2.768038337E0,7.365761757E0,-7.499836683E-1,-2.233191729E0
2.770526097E0,7.356184959E0,-7.547720671E-1,-2.204461098E0
2.773013857E0,7.346607685E0,-7.451952696E-1,-2.170942307E0
2.775501618E0,7.332242489E0,-7.499836683E-1,-2.108693123E0
2.777989378E0,7.298723698E0,-7.308300734E-1,-2.056020737E0
2.780477139E0,7.308300495E0,-7.212532759E-1,-2.012925148E0
2.782964899E0,7.308300495E0,-7.451952696E-1,-1.974617839E0
2.785452659E0,7.308300495E0,-7.404068708E-1,-1.950675845E0
2.787940420E0,7.298723698E0,-7.404068708E-1,-1.921945453E0
2.790428180E0,7.317877293E0,-7.260416746E-1,-1.883638144E0
2.792915941E0,7.356184959E0,-7.212532759E-1,-1.869272947E0
2.795403701E0,7.351396084E0,-7.116764784E-1,-1.883638144E0
2.797891462E0,7.346607685E0,-6.925228238E-1,-1.864484549E0
2.800379222E0,7.351396084E0,-7.068880796E-1,-1.854907751E0
2.802866982E0,7.341819286E0,-7.212532759E-1,-1.850119352E0
2.805354743E0,7.308300495E0,-7.356184721E-1,-1.835754156E0
2.807842503E0,7.284358501E0,-7.356184721E-1,-1.830965757E0
2.810330264E0,7.260416508E0,-7.404068708E-1,-1.845330954E0
2.812818024E0,7.255628109E0,-7.308300734E-1,-1.883638144E0
2.815305784E0,7.226897717E0,-7.308300734E-1,-1.898003340E0
2.817793545E0,7.217320919E0,-7.260416746E-1,-1.917157054E0
2.820281305E0,7.183802128E0,-6.877344251E-1,-1.931522250E0
2.822769066E0,7.164648533E0,-6.637924314E-1,-1.960252643E0
2.825256826E0,7.145494938E0,-6.590040326E-1,-2.003348351E0
2.827744587E0,7.131129742E0,-6.446388364E-1,-2.012925148E0
2.830232347E0,7.111976147E0,-6.446388364E-1,-2.065597534E0
2.832720107E0,7.126341343E0,-6.733692288E-1,-2.099116325E0
2.835207868E0,7.135918140E0,-6.733692288E-1,-2.137423515E0
2.837695628E0,7.116764545E0,-6.925228238E-1,-2.199672699E0
2.840183389E0,7.121552944E0,-7.212532759E-1,-2.237980127E0
2.842671149E0,7.121552944E0,-7.499836683E-1,-2.252345324E0
2.845158909E0,7.131129742E0,-7.451952696E-1,-2.295440912E0
2.847646670E0,7.140706539E0,-7.499836683E-1,-2.300229311E0
2.850134430E0,7.145494938E0,-7.499836683E-1,-2.314594507E0
2.852622191E0,7.155071735E0,-7.451952696E-1,-2.328959703E0
2.855109951E0,7.174225330E0,-7.308300734E-1,-2.348113298E0
2.857597712E0,7.202955723E0,-7.499836683E-1,-2.381632090E0
2.860085472E0,7.236474514E0,-7.691373229E-1,-2.372055292E0
2.862573232E0,7.260416508E0,-8.026561141E-1,-2.372055292E0
2.865060993E0,7.274781704E0,-8.170213103E-1,-2.367266893E0
2.867548753E0,7.313088894E0,-8.409633636E-1,-2.376843691E0
2.870036514E0,7.356184959E0,-8.553285599E-1,-2.386420488E0
2.872524274E0,7.375338554E0,-8.649053574E-1,-2.405574083E0
2.875012034E0,7.413645744E0,-8.505401611E-1,-2.434304476E0
2.877499795E0,7.428010941E0,-8.649053574E-1,-2.453458309E0
2.879987555E0,7.442376137E0,-8.505401611E-1,-2.477400303E0
2.882475316E0,7.451952934E0,-8.744821548E-1,-2.501342297E0
2.884963076E0,7.475894928E0,-8.696937561E-1,-2.534861088E0
2.887450837E0,7.504625320E0,-8.649053574E-1,-2.554014683E0
2.889938597E0,7.533355713E0,-8.888474107E-1,-2.558803082E0
2.892426357E0,7.571662903E0,-8.936358094E-1,-2.577956676E0
2.894914118E0,7.571662903E0,-8.840589523E-1,-2.573168278E0
2.897401878E0,7.566874504E0,-8.601169586E-1,-2.573168278E0
2.899889639E0,7.542932510E0,-8.265981078E-1,-2.544437885E0
2.902377399E0,7.499836922E0,-7.930793166E-1,-2.520495892E0
2.904865159E0,7.437587738E0,-7.835025191E-1,-2.506130695E0
2.907352920E0,7.384915352E0,-7.643488646E-1,-2.477400303E0
2.909840680E0,7.356184959E0,-7.356184721E-1,-2.463035107E0
2.912328441E0,7.322665691E0,-7.212532759E-1,-2.415150881E0
2.914816201E0,7.274781704E0,-7.260416746E-1,-2.386420488E0
2.917303962E0,7.226897717E0,-7.164648771E-1,-2.352901697E0
2.919791722E0,7.193378925E0,-6.829460263E-1,-2.314594507E0
2.922279482E0,7.150283337E0,-6.542156339E-1,-2.261922121E0
2.924767243E0,7.107187748E0,-6.350619793E-1,-2.190095901E0
2.927255003E0,7.078457355E0,-5.919663906E-1,-2.132635117E0
2.929742764E0,7.054515362E0,-5.632359385E-1,-2.070385933E0
2.932230524E0,7.044938564E0,-5.488707423E-1,-2.008136749E0
2.934718284E0,7.040150166E0,-5.297171474E-1,-1.960252643E0
2.937206045E0,7.049726963E0,-5.105634928E-1,-1.912368655E0
2.939693805E0,7.064092159E0,-4.914098978E-1,-1.864484549E0
2.942181566E0,7.083245754E0,-4.961982965E-1,-1.854907751E0
2.944669326E0,7.073668957E0,-4.961982965E-1,-1.826177359E0
2.947157087E0,7.073668957E0,-4.914098978E-1,-1.835754156E0
2.949644847E0,7.073668957E0,-4.866214991E-1,-1.802235365E0
2.952132607E0,7.083245754E0,-4.674678743E-1,-1.802235365E0
2.954620368E0,7.092822552E0,-4.531026781E-1,-1.787870169E0
2.957108128E0,7.116764545E0,-4.531026781E-1,-1.783081770E0
2.959595889E0,7.121552944E0,-4.435258508E-1,-1.787870169E0
2.962083649E0,7.126341343E0,-4.770447016E-1,-1.821388960E0
2.964571409E0,7.164648533E0,-4.866214991E-1,-1.854907751E0
2.967059170E0,7.202955723E0,-5.009866953E-1,-1.907580256E0
2.969546930E0,7.236474514E0,-5.345055461E-1,-1.998559833E0
2.972034691E0,7.265204906E0,-5.584475398E-1,-2.060809135E0
2.974522451E0,7.298723698E0,-5.776011348E-1,-2.151788712E0
2.977010212E0,7.322665691E0,-5.919663906E-1,-2.214038134E0
2.979497972E0,7.351396084E0,-5.919663906E-1,-2.309806108E0
2.981985732E0,7.365761757E0,-5.919663906E-1,-2.386420488E0
2.984473493E0,7.380126953E0,-5.919663906E-1,-2.463035107E0
2.986961357E0,7.404068947E0,-6.063315868E-1,-2.530072689E0
2.989449222E0,7.428010941E0,-6.302735806E-1,-2.601898670E0
2.991937087E0,7.442376137E0,-6.254851818E-1,-2.659359455E0
2.994424951E0,7.456741333E0,-6.350619793E-1,-2.702455282E0
2.996912816E0,7.451952934E0,-6.590040326E-1,-2.764704466E0
2.999400680E0,7.432799339E0,-6.733692288E-1,-2.807800055E0
3.001888545E0,7.432799339E0,-6.829460263E-1,-2.831742048E0
3.004376409E0,7.423222542E0,-6.877344251E-1,-2.836530447E0
3.006864274E0,7.413645744E0,-7.020996213E-1,-2.850895643E0
3.009352034E0,7.423222542E0,-7.020996213E-1,-2.846107244E0
3.011839795E0,7.413645744E0,-6.973112226E-1,-2.860472441E0
3.014327555E0,7.375338554E0,-6.829460263E-1,-2.874837637E0
3.016815316E0,7.346607685E0,-6.877344251E-1,-2.846107244E0
3.019303076E0,7.341819286E0,-6.925228238E-1,-2.812588453E0
3.021790837E0,7.322665691E0,-6.877344251E-1,-2.774281263E0
3.024278597E0,7.308300495E0,-6.973112226E-1,-2.755127668E0
3.026766774E0,7.284358501E0,-6.781576276E-1,-2.721608877E0
3.029254222E0,7.236474514E0,-6.637924314E-1,-2.692878246E0
3.031741670E0,7.217320919E0,-6.542156339E-1,-2.630629063E0
3.034229118E0,7.179013729E0,-6.446388364E-1,-2.563591480E0
3.036716566E0,7.145494938E0,-6.542156339E-1,-2.477400303E0
3.039204066E0,7.131129742E0,-6.350619793E-1,-2.381632090E0
3.041691618E0,7.107187748E0,-6.159083843E-1,-2.314594507E0
3.044179222E0,7.078457355E0,-6.206967831E-1,-2.233191729E0
3.046666878E0,7.064092159E0,-6.063315868E-1,-2.132635117E0
3.049154587E0,7.040150166E0,-5.776011348E-1,-2.036867142E0
3.051642347E0,7.030573368E0,-5.776011348E-1,-1.969829440E0
3.054130159E0,7.040150166E0,-5.680243373E-1,-1.854907751E0
3.056618024E0,7.025784969E0,-5.632359385E-1,-1.768716455E0
3.059105941E0,6.997054577E0,-5.488707423E-1,-1.682525277E0
3.061593909E0,6.992266178E0,-5.153518915E-1,-1.591545582E0
3.064081878E0,6.977900982E0,-5.057750940E-1,-1.500565886E0
3.066569847E0,6.958747387E0,-5.105634928E-1,-1.423951507E0
3.069057816E0,6.953958988E0,-4.914098978E-1,-1.352125406E0
3.071545784E0,6.958747387E0,-4.961982965E-1,-1.289876223E0
3.074033753E0,6.963535786E0,-5.057750940E-1,-1.270722508E0
3.076521722E0,6.977900982E0,-5.153518915E-1,-1.251568913E0
3.079009639E0,7.011419773E0,-5.440823436E-1,-1.213261724E0
3.081497399E0,7.044938564E0,-5.440823436E-1,-1.213261724E0
3.083985159E0,7.097610950E0,-5.488707423E-1,-1.198896527E0
3.086472920E0,7.145494938E0,-5.536591411E-1,-1.165377736E0
3.088960680E0,7.174225330E0,-5.728127360E-1,-1.131858826E0
3.091448441E0,7.207744122E0,-5.871779919E-1,-1.103128433E0
3.093936201E0,7.279570103E0,-6.063315868E-1,-1.050456047E0
3.096423962E0,7.346607685E0,-6.111199856E-1,-1.031302333E0
3.098911722E0,7.447164536E0,-6.446388364E-1,-1.031302333E0
3.101399482E0,7.528567314E0,-6.781576276E-1,-1.040879130E0
3.103887243E0,7.633912086E0,-7.164648771E-1,-1.064821243E0
3.106375003E0,7.748833656E0,-7.499836683E-1,-1.103128433E0
3.108862764E0,7.854178905E0,-7.643488646E-1,-1.146224022E0
3.111350524E0,7.964312077E0,-8.074445128E-1,-1.160589218E0
3.113838284E0,8.064867973E0,-8.265981078E-1,-1.194108129E0
3.116326045E0,8.175002098E0,-8.361749649E-1,-1.222838521E0
3.118813805E0,8.309077263E0,-8.361749649E-1,-1.246780515E0
3.121301566E0,8.419210434E0,-8.218097091E-1,-1.285087705E0
3.123789326E0,8.519766808E0,-8.170213103E-1,-1.332971811E0
3.126277087E0,8.577227592E0,-7.835025191E-1,-1.376067400E0
3.128764847E0,8.677783966E0,-7.691373229E-1,-1.423951507E0
3.131252607E0,8.744821548E0,-7.643488646E-1,-1.476623893E0
3.133740368E0,8.811859131E0,-7.595604658E-1,-1.534084797E0
3.136228128E0,8.874108315E0,-7.643488646E-1,-1.591545582E0
3.138715889E0,8.931569099E0,-7.643488646E-1,-1.663371682E0
3.141203649E0,9.027337074E0,-7.356184721E-1,-1.744774461E0
3.143691409E0,9.070432663E0,-7.356184721E-1,-1.835754156E0
3.146179170E0,9.108740807E0,-7.116764784E-1,-1.921945453E0
3.148666930E0,9.161413193E0,-6.781576276E-1,-1.998559833E0
3.151154691E0,9.228450775E0,-6.733692288E-1,-2.065597534E0
3.153642451E0,9.281123161E0,-6.733692288E-1,-2.123058319E0
3.156130212E0,9.348160744E0,-6.829460263E-1,-2.204461098E0
3.158617972E0,9.415198326E0,-6.781576276E-1,-2.281075716E0
3.161105732E0,9.487024307E0,-6.829460263E-1,-2.352901697E0
3.163593493E0,9.573215485E0,-6.781576276E-1,-2.424727678E0
3.166081253E0,9.659406662E0,-6.877344251E-1,-2.482188702E0
3.168569014E0,9.731232643E0,-7.116764784E-1,-2.515707493E0
3.171056774E0,9.807847023E0,-7.404068708E-1,-2.563591480E0
3.173544534E0,9.874884605E0,-7.691373229E-1,-2.606687069E0
3.176032295E0,9.951498985E0,-7.930793166E-1,-2.649782658E0
3.178520055E0,1.001853657E1,-8.505401611E-1,-2.702455282E0
3.181007816E0,1.008557510E1,-9.080010056E-1,-2.774281263E0
3.183495576E0,1.015740108E1,-9.367313981E-1,-2.803011656E0
3.185983337E0,1.025316906E1,-9.989806414E-1,-2.860472441E0
3.188471097E0,1.034893703E1,-1.066018343E0,-2.927510023E0
3.190958857E0,1.045907021E1,-1.118690729E0,-2.994547844E0
3.193446618E0,1.055004978E1,-1.161786318E0,-3.061585426E0
3.195934378E0,1.065060616E1,-1.224035621E0,-3.133411407E0
3.198422139E0,1.075116253E1,-1.271919608E0,-3.205237627E0
3.200909899E0,1.085650730E1,-1.334168911E0,-3.281852007E0
3.203397659E0,1.097621727E1,-1.396418095E0,-3.382408381E0
3.205885420E0,1.112465858E1,-1.444302201E0,-3.459022999E0
3.208373180E0,1.126352215E1,-1.477820992E0,-3.540425777E0
3.210860941E0,1.141196251E1,-1.511339784E0,-3.602674961E0
3.213348701E0,1.156040287E1,-1.516128182E0,-3.655347347E0
3.215836462E0,1.168968964E1,-1.501762986E0,-3.698443174E0
3.218324222E0,1.180939960E1,-1.473032594E0,-3.708019972E0
3.220811982E0,1.190995598E1,-1.449090600E0,-3.684077978E0
3.223299743E0,1.198178196E1,-1.420360208E0,-3.664924145E0
3.225787503E0,1.204882050E1,-1.382052898E0,-3.669712543E0
3.228275264E0,1.212543488E1,-1.353322506E0,-3.664924145E0
3.230763024E0,1.219726086E1,-1.305438519E0,-3.669712543E0
3.233250784E0,1.227387524E1,-1.247977614E0,-3.650558949E0
3.235738545E0,1.232175922E1,-1.195305228E0,-3.645770550E0
3.238226305E0,1.235048962E1,-1.137844324E0,-3.645770550E0
3.240714066E0,1.236964321E1,-1.089960337E0,-3.650558949E0
3.243201826E0,1.235527802E1,-1.018134236E0,-3.655347347E0
3.245689587E0,1.233612442E1,-9.510966539E-1,-3.640982151E0
3.248177347E0,1.228824043E1,-8.792705536E-1,-3.645770550E0
3.250665107E0,1.224514484E1,-8.218097091E-1,-3.621828556E0
3.253152868E0,1.219247246E1,-7.499836683E-1,-3.607463360E0
3.255640628E0,1.211585808E1,-6.637924314E-1,-3.602674961E0
3.258128389E0,1.201530170E1,-6.302735806E-1,-3.569156170E0
3.260616149E0,1.192910957E1,-5.536591411E-1,-3.535637379E0
3.263103909E0,1.181897640E1,-4.770447016E-1,-3.454234600E0
3.265591670E0,1.168968964E1,-4.052186310E-1,-3.401561975E0
3.268079430E0,1.157955647E1,-3.286041915E-1,-3.348889589E0
3.270567191E0,1.147421169E1,-2.567781210E-1,-3.291428804E0
3.273054951E0,1.134971333E1,-2.041056901E-1,-3.233968019E0
3.275542712E0,1.120127296E1,-1.274912357E-1,-3.162141800E0
3.278030472E0,1.105762100E1,-5.566519126E-2,-3.090315819E0
3.280518232E0,1.091875648E1,2.094926499E-2,-3.004124641E0
3.283005993E0,1.079425812E1,8.798690885E-2,-2.903568029E0
3.285493753E0,1.064581776E1,1.550245583E-1,-2.841318846E0
3.287981514E0,1.051174259E1,2.124854028E-1,-2.755127668E0
3.290469274E0,1.036330223E1,2.507926226E-1,-2.683301449E0
3.292957034E0,1.021486187E1,2.699462473E-1,-2.611475468E0
3.295444795E0,1.004247856E1,2.938882709E-1,-2.563591480E0
3.297932555E0,9.898826599E0,3.082534671E-1,-2.525284290E0
3.300420316E0,9.740809441E0,3.226186931E-1,-2.482188702E0
3.302908076E0,9.621099472E0,3.274070919E-1,-2.448669672E0
3.305395837E0,9.482235909E0,3.226186931E-1,-2.419939280E0
3.307883597E0,9.352949142E0,2.986766696E-1,-2.381632090E0
3.310371357E0,9.233239174E0,2.843114436E-1,-2.343324900E0
3.312859118E0,9.113529205E0,2.603694201E-1,-2.309806108E0
3.315346878E0,9.027337074E0,2.364274114E-1,-2.261922121E0
3.317834639E0,8.950722694E0,2.220622003E-1,-2.247556925E0
3.320322399E0,8.864531517E0,1.789665818E-1,-2.233191729E0
3.322810159E0,8.802282333E0,1.406593472E-1,-2.204461098E0
3.325297920E0,8.730456352E0,9.756372124E-2,-2.204461098E0
3.327785680E0,8.687360764E0,5.446808785E-2,-2.185307503E0
3.330273441E0,8.634688377E0,1.795651275E-3,-2.180519104E0
3.332761201E0,8.586804390E0,-3.172317147E-2,-2.175730705E0
3.335248962E0,8.548497200E0,-7.960720360E-2,-2.161365509E0
3.337736722E0,8.495824814E0,-1.179144308E-1,-2.142211914E0
3.340224482E0,8.476671219E0,-1.705868691E-1,-2.132635117E0
3.342712243E0,8.462306023E0,-2.280477136E-1,-2.118269920E0
3.345200003E0,8.443152428E0,-2.759317458E-1,-2.099116325E0
3.347687764E0,8.419210434E0,-3.286041915E-1,-2.113481522E0
3.350175524E0,8.400056839E0,-3.860650361E-1,-2.089539528E0
3.352663284E0,8.404845238E0,-4.243722558E-1,-2.075174332E0
3.355151045E0,8.390480042E0,-4.626794755E-1,-2.065597534E0
3.357638805E0,8.385691643E0,-5.153518915E-1,-2.065597534E0
3.360126566E0,8.371326447E0,-5.488707423E-1,-2.060809135E0
3.362614326E0,8.356961250E0,-5.728127360E-1,-2.051232338E0
3.365102087E0,8.352172852E0,-5.967547894E-1,-2.036867142E0
3.367589847E0,8.347384453E0,-6.398503780E-1,-2.003348351E0
3.370077607E0,8.333019257E0,-6.877344251E-1,-1.998559833E0
3.372565368E0,8.328230858E0,-7.308300734E-1,-1.965041041E0
3.375053128E0,8.356961250E0,-7.643488646E-1,-1.950675845E0
3.377540889E0,8.366538048E0,-8.026561141E-1,-1.945887446E0
3.380028649E0,8.366538048E0,-8.218097091E-1,-1.907580256E0
3.382516409E0,8.361749649E0,-8.696937561E-1,-1.898003340E0
3.385004170E0,8.385691643E0,-9.223662019E-1,-1.864484549E0
3.387491982E0,8.380903244E0,-9.510966539E-1,-1.850119352E0
3.389979795E0,8.371326447E0,-9.654618502E-1,-1.830965757E0
3.392467607E0,8.376114845E0,-1.008557439E0,-1.787870169E0
3.394955420E0,8.366538048E0,-1.042076349E0,-1.749562860E0
3.397443232E0,8.376114845E0,-1.056441545E0,-1.706467271E0
3.399931045E0,8.385691643E0,-1.066018343E0,-1.687313676E0
3.402418857E0,8.404845238E0,-1.089960337E0,-1.687313676E0
3.404906670E0,8.409633636E0,-1.094748735E0,-1.658583283E0
3.407394482E0,8.423998833E0,-1.113902330E0,-1.649006367E0
3.409882295E0,8.419210434E0,-1.123479128E0,-1.653794765E0
3.412370107E0,8.438364029E0,-1.133055925E0,-1.625064373E0
3.414857920E0,8.467094421E0,-1.152209520E0,-1.610699177E0
3.417345732E0,8.495824814E0,-1.156997919E0,-1.620275974E0
3.419833545E0,8.519766808E0,-1.166574836E0,-1.620275974E0
3.422321357E0,8.558073997E0,-1.166574836E0,-1.605910778E0
3.424809170E0,8.582015991E0,-1.161786318E0,-1.620275974E0
3.427296982E0,8.615534782E0,-1.161786318E0,-1.629852772E0
3.429784795E0,8.663418770E0,-1.152209520E0,-1.639429569E0
3.432272607E0,8.706514359E0,-1.142632723E0,-1.668160081E0
3.434760420E0,8.744821548E0,-1.133055925E0,-1.663371682E0
3.437248232E0,8.807070732E0,-1.123479128E0,-1.668160081E0
3.439736045E0,8.854954720E0,-1.109113932E0,-1.668160081E0
3.442223857E0,8.931569099E0,-1.099537134E0,-1.653794765E0
3.444711670E0,8.989029884E0,-1.089960337E0,-1.677736878E0
3.447199482E0,9.056067467E0,-1.056441545E0,-1.701678872E0
3.449687295E0,9.108740807E0,-1.051653147E0,-1.739986062E0
3.452175107E0,9.175778389E0,-1.027711034E0,-1.759139657E0
3.454662920E0,9.238027573E0,-1.018134236E0,-1.787870169E0
3.457150732E0,9.305065155E0,-1.018134236E0,-1.835754156E0
3.459638545E0,9.357737541E0,-1.032499433E0,-1.869272947E0
3.462126357E0,9.405621529E0,-1.022922635E0,-1.888426542E0
3.464614118E0,9.458293915E0,-1.018134236E0,-1.907580256E0
3.467101878E0,9.510966301E0,-9.941922426E-1,-1.936310649E0
3.469589639E0,9.558850288E0,-9.606734514E-1,-1.950675845E0
3.472077399E0,9.601945877E0,-9.271546006E-1,-1.941099048E0
3.474565159E0,9.645041466E0,-9.175778031E-1,-1.955464244E0
3.477052920E0,9.664195061E0,-9.127894044E-1,-1.960252643E0
3.479540680E0,9.688137054E0,-9.080010056E-1,-1.979406238E0
3.482028441E0,9.726444244E0,-8.936358094E-1,-1.988983035E0
3.484516201E0,9.750386238E0,-8.840589523E-1,-1.979406238E0
3.487003962E0,9.779116631E0,-8.457517624E-1,-1.969829440E0
3.489491722E0,9.783905029E0,-8.313865662E-1,-1.988983035E0
3.491979482E0,9.788693428E0,-7.978677154E-1,-1.998559833E0
3.494467243E0,9.750386238E0,-7.835025191E-1,-1.998559833E0
3.496955003E0,9.755174637E0,-7.451952696E-1,-1.988983035E0
3.499442764E0,9.759963036E0,-7.308300734E-1,-2.012925148E0
3.501930524E0,9.740809441E0,-7.020996213E-1,-2.012925148E0
3.504418284E0,9.731232643E0,-6.781576276E-1,-2.012925148E0
3.506906045E0,9.716867447E0,-6.494272351E-1,-2.022501945E0
3.509393805E0,9.707290649E0,-6.254851818E-1,-2.032078743E0
3.511881566E0,9.683348656E0,-5.919663906E-1,-2.056020737E0
3.514369326E0,9.654618263E0,-5.823895931E-1,-2.056020737E0
3.516857087E0,9.649829865E0,-5.680243373E-1,-2.036867142E0
3.519344847E0,9.625887871E0,-5.249287486E-1,-2.032078743E0
3.521832607E0,9.597157478E0,-5.009866953E-1,-2.041655540E0
3.524320368E0,9.587580681E0,-4.866214991E-1,-2.051232338E0
3.526808128E0,9.578003883E0,-4.578910768E-1,-2.051232338E0
3.529295889E0,9.558850288E0,-4.387374520E-1,-2.056020737E0
3.531783649E0,9.549273491E0,-4.243722558E-1,-2.051232338E0
3.534271409E0,9.539696693E0,-4.100070298E-1,-2.065597534E0
3.536759170E0,9.549273491E0,-3.908534348E-1,-2.084751129E0
3.539246930E0,9.563638687E0,-3.956418335E-1,-2.113481522E0
3.541734691E0,9.558850288E0,-4.004302323E-1,-2.137423515E0
3.544222451E0,9.573215485E0,-4.052186310E-1,-2.190095901E0
3.546710212E0,9.597157478E0,-4.100070298E-1,-2.237980127E0
3.549197972E0,9.616311073E0,-4.147954583E-1,-2.271498919E0
3.551685732E0,9.649829865E0,-4.339490533E-1,-2.300229311E0
3.554173493E0,9.683348656E0,-4.291606545E-1,-2.352901697E0
3.556661253E0,9.697713852E0,-4.483142793E-1,-2.391208887E0
3.559149014E0,9.726444244E0,-4.531026781E-1,-2.434304476E0
3.561636774E0,9.740809441E0,-4.578910768E-1,-2.477400303E0
3.564124534E0,9.736021042E0,-4.531026781E-1,-2.486977100E0
3.566612295E0,9.731232643E0,-4.483142793E-1,-2.501342297E0
3.569100055E0,9.726444244E0,-4.626794755E-1,-2.534861088E0
3.571587816E0,9.702502251E0,-4.626794755E-1,-2.549226284E0
3.574075576E0,9.692925453E0,-4.866214991E-1,-2.563591480E0
3.576563337E0,9.659406662E0,-4.626794755E-1,-2.573168278E0
3.579051097E0,9.635464668E0,-4.531026781E-1,-2.611475468E0
3.581538857E0,9.601945877E0,-4.483142793E-1,-2.601898670E0
3.584026618E0,9.592369080E0,-4.291606545E-1,-2.621052265E0
3.586514378E0,9.573215485E0,-4.339490533E-1,-2.621052265E0
3.589002139E0,9.558850288E0,-4.243722558E-1,-2.635417461E0
3.591489899E0,9.558850288E0,-4.291606545E-1,-2.659359455E0
3.593977659E0,9.578003883E0,-4.195838571E-1,-2.697666883E0
3.596465420E0,9.616311073E0,-4.147954583E-1,-2.731185675E0
3.598953180E0,9.625887871E0,-4.387374520E-1,-2.759916067E0
3.601440941E0,9.659406662E0,-4.339490533E-1,-2.779069662E0
3.603928701E0,9.688137054E0,-4.291606545E-1,-2.783858061E0
3.606416462E0,9.697713852E0,-4.243722558E-1,-2.793434858E0
3.608904222E0,9.721655846E0,-4.147954583E-1,-2.793434858E0
3.611391982E0,9.712079048E0,-4.147954583E-1,-2.788646460E0
3.613879743E0,9.702502251E0,-4.052186310E-1,-2.779069662E0
3.616367503E0,9.697713852E0,-3.764882088E-1,-2.745550871E0
3.618855264E0,9.702502251E0,-3.669114113E-1,-2.731185675E0
3.621343024E0,9.697713852E0,-3.477577865E-1,-2.702455282E0
3.623830784E0,9.678560257E0,-3.381809890E-1,-2.692878246E0
3.626318545E0,9.668983459E0,-3.238157928E-1,-2.664147854E0
3.628806305E0,9.668983459E0,-3.142389655E-1,-2.664147854E0
3.631294066E0,9.659406662E0,-3.142389655E-1,-2.644994259E0
3.633781826E0,9.645041466E0,-3.046621680E-1,-2.616263866E0
3.636269587E0,9.611522675E0,-3.190273643E-1,-2.616263866E0
3.638757347E0,9.573215485E0,-3.429693878E-1,-2.597110271E0
3.641245107E0,9.554061890E0,-3.286041915E-1,-2.573168278E0
3.643732868E0,9.530119896E0,-3.286041915E-1,-2.563591480E0
3.646220628E0,9.530119896E0,-3.333925903E-1,-2.592321873E0
3.648708389E0,9.525331497E0,-3.333925903E-1,-2.601898670E0
3.651196149E0,9.506177902E0,-3.238157928E-1,-2.606687069E0
3.653683909E0,9.487024307E0,-3.381809890E-1,-2.601898670E0
3.656171670E0,9.477447510E0,-3.621230125E-1,-2.597110271E0
3.658659430E0,9.467870712E0,-3.573346138E-1,-2.597110271E0
3.661147191E0,9.458293915E0,-3.621230125E-1,-2.582745075E0
3.663634951E0,9.458293915E0,-3.621230125E-1,-2.563591480E0
3.666122712E0,9.439140320E0,-3.764882088E-1,-2.534861088E0
3.668610472E0,9.419986725E0,-3.956418335E-1,-2.510919094E0
3.671098232E0,9.405621529E0,-4.004302323E-1,-2.510919094E0
3.673585993E0,9.410409927E0,-4.004302323E-1,-2.467823505E0
3.676073753E0,9.429563522E0,-4.195838571E-1,-2.443881273E0
3.678561514E0,9.419986725E0,-4.243722558E-1,-2.410362482E0
3.681049274E0,9.400833130E0,-4.387374520E-1,-2.381632090E0
3.683537034E0,9.410409927E0,-4.578910768E-1,-2.328959703E0
3.686024795E0,9.415198326E0,-4.674678743E-1,-2.276287317E0
3.688512555E0,9.419986725E0,-4.866214991E-1,-2.257133722E0
3.691000316E0,9.434351921E0,-4.914098978E-1,-2.209249735E0
3.693488076E0,9.424775124E0,-5.009866953E-1,-2.170942307E0
3.695975837E0,9.443928719E0,-5.009866953E-1,-2.118269920E0
3.698463597E0,9.443928719E0,-5.105634928E-1,-2.075174332E0
3.700951357E0,9.443928719E0,-5.249287486E-1,-2.041655540E0
3.703439118E0,9.443928719E0,-5.345055461E-1,-2.027290344E0
3.705926878E0,9.443928719E0,-5.440823436E-1,-1.993771434E0
3.708414639E0,9.434351921E0,-5.632359385E-1,-1.984194636E0
3.710902399E0,9.415198326E0,-5.728127360E-1,-1.965041041E0
3.713390159E0,9.405621529E0,-5.776011348E-1,-1.931522250E0
3.715877920E0,9.396044731E0,-6.111199856E-1,-1.883638144E0
3.718365680E0,9.400833130E0,-6.254851818E-1,-1.874061346E0
3.720853441E0,9.400833130E0,-6.254851818E-1,-1.854907751E0
3.723341201E0,9.424775124E0,-6.542156339E-1,-1.854907751E0
3.725828962E0,9.434351921E0,-6.829460263E-1,-1.850119352E0
3.728316722E0,9.429563522E0,-6.829460263E-1,-1.869272947E0
3.730804482E0,9.405621529E0,-7.068880796E-1,-1.869272947E0
3.733292243E0,9.396044731E0,-6.925228238E-1,-1.878849745E0
3.735780055E0,9.400833130E0,-7.116764784E-1,-1.869272947E0
3.738267868E0,9.424775124E0,-7.164648771E-1,-1.854907751E0
3.740755680E0,9.443928719E0,-7.308300734E-1,-1.869272947E0
3.743243493E0,9.443928719E0,-7.308300734E-1,-1.869272947E0
3.745731305E0,9.467870712E0,-7.356184721E-1,-1.883638144E0
3.748219118E0,9.487024307E0,-7.356184721E-1,-1.893214941E0
3.750706930E0,9.496601105E0,-7.547720671E-1,-1.917157054E0
3.753194743E0,9.487024307E0,-7.691373229E-1,-1.917157054E0
3.755682555E0,9.477447510E0,-7.787141204E-1,-1.926733851E0
3.758170368E0,9.477447510E0,-7.787141204E-1,-1.917157054E0
3.760658180E0,9.467870712E0,-7.882909179E-1,-1.931522250E0
3.763145993E0,9.467870712E0,-7.595604658E-1,-1.941099048E0
3.765633805E0,9.453505516E0,-7.595604658E-1,-1.931522250E0
3.768121618E0,9.463082314E0,-7.739257216E-1,-1.936310649E0
3.770609430E0,9.467870712E0,-7.691373229E-1,-1.950675845E0
3.773097243E0,9.472659111E0,-7.451952696E-1,-1.955464244E0
3.775585055E0,9.482235909E0,-7.404068708E-1,-1.955464244E0
3.778072868E0,9.458293915E0,-7.404068708E-1,-1.950675845E0
3.780560680E0,9.453505516E0,-7.212532759E-1,-1.931522250E0
3.783048493E0,9.463082314E0,-7.164648771E-1,-1.941099048E0
3.785536305E0,9.443928719E0,-6.925228238E-1,-1.917157054E0
3.788024118E0,9.443928719E0,-6.925228238E-1,-1.931522250E0
3.790511930E0,9.443928719E0,-6.637924314E-1,-1.926733851E0
3.792999743E0,9.448717117E0,-6.733692288E-1,-1.917157054E0
3.795487555E0,9.467870712E0,-6.542156339E-1,-1.912368655E0
3.797975368E0,9.496601105E0,-6.398503780E-1,-1.917157054E0
3.800463180E0,9.496601105E0,-6.494272351E-1,-1.931522250E0
3.802950993E0,9.520543098E0,-6.542156339E-1,-1.921945453E0
3.805438805E0,9.549273491E0,-6.494272351E-1,-1.941099048E0
3.807926618E0,9.573215485E0,-6.494272351E-1,-1.945887446E0
3.810414430E0,9.587580681E0,-6.637924314E-1,-1.950675845E0
3.812902243E0,9.616311073E0,-6.446388364E-1,-1.950675845E0
3.815390003E0,9.621099472E0,-6.302735806E-1,-1.965041041E0
3.817877764E0,9.625887871E0,-6.159083843E-1,-1.993771434E0
3.820365524E0,9.640253067E0,-6.063315868E-1,-2.008136749E0
3.822853284E0,9.635464668E0,-5.967547894E-1,-2.022501945E0
3.825341045E0,9.649829865E0,-6.015431881E-1,-2.036867142E0
3.827828805E0,9.654618263E0,-5.919663906E-1,-2.036867142E0
3.830316566E0,9.645041466E0,-5.919663906E-1,-2.060809135E0
3.832804326E0,9.625887871E0,-5.967547894E-1,-2.089539528E0
3.835292087E0,9.621099472E0,-5.919663906E-1,-2.137423515E0
3.837779847E0,9.611522675E0,-5.871779919E-1,-2.156577110E0
3.840267607E0,9.606734276E0,-5.776011348E-1,-2.185307503E0
3.842755368E0,9.616311073E0,-5.488707423E-1,-2.223614931E0
3.845243128E0,9.597157478E0,-5.297171474E-1,-2.261922121E0
3.847730889E0,9.573215485E0,-5.297171474E-1,-2.285864115E0
3.850218649E0,9.563638687E0,-5.153518915E-1,-2.295440912E0
3.852706409E0,9.558850288E0,-5.105634928E-1,-2.328959703E0
3.855194170E0,9.554061890E0,-5.297171474E-1,-2.343324900E0
3.857681930E0,9.558850288E0,-5.345055461E-1,-2.357690096E0
3.860169691E0,9.558850288E0,-5.440823436E-1,-2.367266893E0
3.862657451E0,9.549273491E0,-5.392939448E-1,-2.381632090E0
3.865145212E0,9.549273491E0,-5.345055461E-1,-2.405574083E0
3.867632972E0,9.539696693E0,-5.488707423E-1,-2.429516077E0
3.870120732E0,9.554061890E0,-5.297171474E-1,-2.410362482E0
3.872608493E0,9.539696693E0,-5.392939448E-1,-2.415150881E0
3.875096253E0,9.539696693E0,-5.297171474E-1,-2.391208887E0
3.877584014E0,9.563638687E0,-5.345055461E-1,-2.415150881E0
3.880071774E0,9.573215485E0,-5.345055461E-1,-2.410362482E0
3.882559534E0,9.582792282E0,-5.345055461E-1,-2.400785685E0
3.885047295E0,9.592369080E0,-5.584475398E-1,-2.405574083E0
3.887535055E0,9.606734276E0,-5.536591411E-1,-2.410362482E0
3.890022816E0,9.611522675E0,-5.584475398E-1,-2.395997286E0
3.892510576E0,9.625887871E0,-5.680243373E-1,-2.405574083E0
3.894998337E0,9.635464668E0,-5.632359385E-1,-2.395997286E0
3.897486097E0,9.630676270E0,-5.536591411E-1,-2.395997286E0
3.899973857E0,9.659406662E0,-5.632359385E-1,-2.415150881E0
3.902461618E0,9.659406662E0,-5.919663906E-1,-2.381632090E0
3.904949378E0,9.673771858E0,-5.776011348E-1,-2.362478495E0
3.907437139E0,9.678560257E0,-5.728127360E-1,-2.372055292E0
3.909924899E0,9.692925453E0,-5.632359385E-1,-2.372055292E0
3.912412659E0,9.683348656E0,-5.584475398E-1,-2.381632090E0
3.914900420E0,9.683348656E0,-5.680243373E-1,-2.362478495E0
3.917388180E0,9.716867447E0,-5.632359385E-1,-2.367266893E0
3.919875941E0,9.731232643E0,-5.488707423E-1,-2.367266893E0
3.922363701E0,9.745597839E0,-5.488707423E-1,-2.338536501E0
3.924851462E0,9.750386238E0,-5.632359385E-1,-2.338536501E0
3.927339222E0,9.755174637E0,-5.536591411E-1,-2.309806108E0
3.929826982E0,9.779116631E0,-5.584475398E-1,-2.300229311E0
3.932314743E0,9.803058624E0,-5.536591411E-1,-2.319382906E0
3.934802503E0,9.807847023E0,-5.345055461E-1,-2.328959703E0
3.937290264E0,9.783905029E0,-5.249287486E-1,-2.324171305E0
3.939778024E0,9.769539833E0,-5.201402903E-1,-2.305017710E0
3.942265784E0,9.740809441E0,-5.105634928E-1,-2.276287317E0
3.944753545E0,9.731232643E0,-4.818331003E-1,-2.295440912E0
3.947241305E0,9.712079048E0,-4.626794755E-1,-2.247556925E0
3.949729066E0,9.692925453E0,-4.674678743E-1,-2.233191729E0
3.952216826E0,9.678560257E0,-4.531026781E-1,-2.218826532E0
3.954704587E0,9.673771858E0,-4.435258508E-1,-2.204461098E0
3.957192347E0,9.678560257E0,-4.435258508E-1,-2.175730705E0
3.959680107E0,9.659406662E0,-4.291606545E-1,-2.175730705E0
3.962167868E0,9.668983459E0,-4.100070298E-1,-2.180519104E0
3.964655628E0,9.659406662E0,-4.100070298E-1,-2.180519104E0
3.967143389E0,9.659406662E0,-3.860650361E-1,-2.151788712E0
3.969631149E0,9.654618263E0,-3.669114113E-1,-2.123058319E0
3.972118909E0,9.645041466E0,-3.621230125E-1,-2.084751129E0
3.974606670E0,9.635464668E0,-3.286041915E-1,-2.079962730E0
3.977094430E0,9.645041466E0,-3.238157928E-1,-2.041655540E0
3.979582191E0,9.640253067E0,-3.142389655E-1,-2.012925148E0
3.982069951E0,9.673771858E0,-3.142389655E-1,-1.993771434E0
3.984557712E0,9.692925453E0,-3.046621680E-1,-1.969829440E0
3.987045472E0,9.688137054E0,-2.998737693E-1,-1.965041041E0
3.989533232E0,9.697713852E0,-3.094505668E-1,-1.950675845E0
3.992020993E0,9.702502251E0,-3.046621680E-1,-1.955464244E0
3.994508753E0,9.731232643E0,-2.902969420E-1,-1.950675845E0
3.996996514E0,9.750386238E0,-2.998737693E-1,-1.945887446E0
3.999484274E0,9.788693428E0,-2.998737693E-1,-1.965041041E0
4.001972034E0,9.798270226E0,-3.381809890E-1,-1.955464244E0
4.004459795E0,9.798270226E0,-3.477577865E-1,-1.936310649E0
4.006948024E0,9.798270226E0,-3.716998100E-1,-1.936310649E0
4.009436253E0,9.817423820E0,-3.621230125E-1,-1.926733851E0
4.011924066E0,9.817423820E0,-3.908534348E-1,-1.926733851E0
4.014411826E0,9.807847023E0,-3.860650361E-1,-1.921945453E0
4.016899587E0,9.817423820E0,-3.956418335E-1,-1.917157054E0
4.019387347E0,9.807847023E0,-3.764882088E-1,-1.921945453E0
4.021875107E0,9.827000618E0,-3.812766075E-1,-1.941099048E0
4.024362868E0,9.817423820E0,-3.956418335E-1,-1.950675845E0
4.026850628E0,9.822212219E0,-4.195838571E-1,-1.960252643E0
4.029338389E0,9.817423820E0,-4.387374520E-1,-1.974617839E0
4.031826149E0,9.831789017E0,-4.578910768E-1,-2.003348351E0
4.034313909E0,9.827000618E0,-4.914098978E-1,-2.036867142E0
4.036801670E0,9.812635422E0,-5.057750940E-1,-2.046443939E0
4.039289430E0,9.779116631E0,-5.201402903E-1,-2.036867142E0
4.041777191E0,9.774328232E0,-5.249287486E-1,-2.027290344E0
4.044264951E0,9.755174637E0,-5.297171474E-1,-2.003348351E0
4.046753389E0,9.745597839E0,-5.201402903E-1,-1.988983035E0
4.049240680E0,9.755174637E0,-5.009866953E-1,-2.008136749E0
4.051727972E0,9.769539833E0,-5.392939448E-1,-2.008136749E0
4.054215264E0,9.759963036E0,-5.680243373E-1,-1.993771434E0
4.056702607E0,9.759963036E0,-5.728127360E-1,-1.984194636E0
4.059190003E0,9.750386238E0,-5.871779919E-1,-2.003348351E0
4.061677451E0,9.745597839E0,-5.967547894E-1,-2.008136749E0
4.064164951E0,9.750386238E0,-6.302735806E-1,-1.993771434E0
4.066652555E0,9.755174637E0,-6.398503780E-1,-1.988983035E0
4.069140264E0,9.764751434E0,-6.398503780E-1,-1.988983035E0
4.071628076E0,9.764751434E0,-6.398503780E-1,-1.993771434E0
4.074115941E0,9.755174637E0,-6.350619793E-1,-1.998559833E0
4.076603857E0,9.750386238E0,-6.542156339E-1,-2.022501945E0
4.079091826E0,9.736021042E0,-6.542156339E-1,-2.032078743E0
4.081579847E0,9.726444244E0,-6.685808301E-1,-2.036867142E0
4.084067920E0,9.702502251E0,-6.781576276E-1,-2.027290344E0
4.086556045E0,9.683348656E0,-6.733692288E-1,-2.046443939E0
4.089044170E0,9.664195061E0,-6.733692288E-1,-2.065597534E0
4.091532295E0,9.654618263E0,-6.733692288E-1,-2.070385933E0
4.094020420E0,9.649829865E0,-6.542156339E-1,-2.060809135E0
4.096508389E0,9.630676270E0,-6.446388364E-1,-2.056020737E0
4.098996149E0,9.601945877E0,-6.398503780E-1,-2.041655540E0
4.101483909E0,9.544485092E0,-6.350619793E-1,-2.036867142E0
4.103971670E0,9.520543098E0,-6.206967831E-1,-2.022501945E0
4.106459430E0,9.506177902E0,-5.919663906E-1,-2.012925148E0
4.108947191E0,9.482235909E0,-5.776011348E-1,-1.969829440E0
4.111434951E0,9.463082314E0,-5.632359385E-1,-1.950675845E0
4.113922712E0,9.463082314E0,-5.536591411E-1,-1.945887446E0
4.116410472E0,9.429563522E0,-5.488707423E-1,-1.926733851E0
4.118898232E0,9.405621529E0,-5.392939448E-1,-1.902791858E0
4.121385993E0,9.381679535E0,-5.392939448E-1,-1.907580256E0
4.123873753E0,9.362525940E0,-5.392939448E-1,-1.907580256E0
4.126361514E0,9.338583946E0,-5.201402903E-1,-1.926733851E0
4.128849274E0,9.319430351E0,-5.297171474E-1,-1.921945453E0
4.131337034E0,9.314641953E0,-5.009866953E-1,-1.936310649E0
4.133824795E0,9.300276756E0,-4.866214991E-1,-1.945887446E0
4.136312555E0,9.290699959E0,-4.818331003E-1,-1.993771434E0
4.138800316E0,9.285911560E0,-4.674678743E-1,-2.003348351E0
4.141288076E0,9.271546364E0,-4.770447016E-1,-2.046443939E0
4.143775837E0,9.266757965E0,-4.531026781E-1,-2.089539528E0
4.146263597E0,9.257181168E0,-4.339490533E-1,-2.137423515E0
4.148751357E0,9.261969566E0,-4.387374520E-1,-2.194884300E0
4.151239118E0,9.261969566E0,-4.243722558E-1,-2.252345324E0
4.153726878E0,9.238027573E0,-4.100070298E-1,-2.309806108E0
4.156214639E0,9.238027573E0,-3.956418335E-1,-2.338536501E0
4.158702399E0,9.233239174E0,-4.052186310E-1,-2.381632090E0
4.161190159E0,9.204508781E0,-3.956418335E-1,-2.410362482E0
4.163677920E0,9.194931984E0,-3.860650361E-1,-2.453458309E0
4.166165680E0,9.180566788E0,-3.669114113E-1,-2.472611904E0
4.168653441E0,9.170989990E0,-3.477577865E-1,-2.477400303E0
4.171141201E0,9.166201591E0,-3.381809890E-1,-2.501342297E0
4.173628962E0,9.166201591E0,-3.238157928E-1,-2.506130695E0
4.176116722E0,9.147047997E0,-2.998737693E-1,-2.515707493E0
4.178604482E0,9.142259598E0,-2.902969420E-1,-2.515707493E0
4.181092243E0,9.147047997E0,-2.759317458E-1,-2.525284290E0
4.183580003E0,9.127894402E0,-2.615665495E-1,-2.530072689E0
4.186067764E0,9.113529205E0,-2.519897223E-1,-2.534861088E0
4.188555524E0,9.118317604E0,-2.424129248E-1,-2.534861088E0
4.191043284E0,9.127894402E0,-2.472013235E-1,-2.563591480E0
4.193531045E0,9.113529205E0,-2.519897223E-1,-2.558803082E0
4.196018805E0,9.094375610E0,-2.615665495E-1,-2.601898670E0
4.198506566E0,9.051279068E0,-2.663549483E-1,-2.621052265E0
4.200994326E0,9.027337074E0,-2.567781210E-1,-2.644994259E0
4.203482087E0,8.984241486E0,-2.424129248E-1,-2.649782658E0
4.205969847E0,8.941145897E0,-2.472013235E-1,-2.640205860E0
4.208457607E0,8.898050308E0,-2.424129248E-1,-2.635417461E0
4.210945368E0,8.850166321E0,-2.424129248E-1,-2.635417461E0
4.213433128E0,8.797493935E0,-2.376245260E-1,-2.621052265E0
4.215920889E0,8.749609947E0,-2.567781210E-1,-2.611475468E0
4.218408649E0,8.692149162E0,-2.567781210E-1,-2.597110271E0
4.220896409E0,8.620323181E0,-2.567781210E-1,-2.601898670E0
4.223384170E0,8.596381187E0,-2.519897223E-1,-2.592321873E0
4.225871930E0,8.543708801E0,-2.663549483E-1,-2.582745075E0
4.228359691E0,8.495824814E0,-2.759317458E-1,-2.549226284E0
4.230847451E0,8.467094421E0,-2.950853705E-1,-2.515707493E0
4.233335212E0,8.447940826E0,-3.429693878E-1,-2.482188702E0
4.235822972E0,8.433575630E0,-3.525462151E-1,-2.429516077E0
4.238310732E0,8.419210434E0,-3.669114113E-1,-2.376843691E0
4.240798493E0,8.380903244E0,-3.956418335E-1,-2.333748102E0
4.243286253E0,8.380903244E0,-4.052186310E-1,-2.261922121E0
4.245774014E0,8.376114845E0,-4.004302323E-1,-2.190095901E0
4.248261774E0,8.371326447E0,-3.908534348E-1,-2.118269920E0
4.250749534E0,8.371326447E0,-4.339490533E-1,-2.060809135E0
4.253237295E0,8.371326447E0,-4.626794755E-1,-2.008136749E0
4.255725055E0,8.385691643E0,-4.818331003E-1,-1.960252643E0
4.258212816E0,8.385691643E0,-5.153518915E-1,-1.888426542E0
4.260700576E0,8.352172852E0,-5.536591411E-1,-1.854907751E0
4.263188337E0,8.328230858E0,-5.728127360E-1,-1.797446966E0
4.265676097E0,8.299500465E0,-6.015431881E-1,-1.749562860E0
4.268163857E0,8.265981674E0,-6.111199856E-1,-1.663371682E0
4.270651618E0,8.237251282E0,-6.159083843E-1,-1.591545582E0
4.273139378E0,8.198944092E0,-6.159083843E-1,-1.500565886E0
4.275627139E0,8.155848503E0,-5.967547894E-1,-1.404797792E0
4.278114899E0,8.131906509E0,-5.967547894E-1,-1.318606615E0
4.280602659E0,8.088809967E0,-6.111199856E-1,-1.227626920E0
4.283090420E0,8.031349182E0,-6.159083843E-1,-1.127070427E0
4.285578180E0,7.945158482E0,-6.063315868E-1,-1.026513934E0
4.288065941E0,7.873332500E0,-6.111199856E-1,-9.355342984E-1
4.290553701E0,7.763198853E0,-6.302735806E-1,-8.254010081E-1
4.293041462E0,7.677007675E0,-6.254851818E-1,-7.344213724E-1
4.295529222E0,7.590816498E0,-6.015431881E-1,-6.338648796E-1
4.298016982E0,7.514202118E0,-5.967547894E-1,-5.476736426E-1
4.300504743E0,7.423222542E0,-6.159083843E-1,-4.566939771E-1
4.302992503E0,7.327454090E0,-6.063315868E-1,-3.609259129E-1
4.305480264E0,7.212532520E0,-5.967547894E-1,-2.843114436E-1
4.307968024E0,7.097610950E0,-5.776011348E-1,-2.172738016E-1
4.310455784E0,7.006631374E0,-5.776011348E-1,-1.358709484E-1
4.312943545E0,6.915651798E0,-5.967547894E-1,-8.798690885E-2
4.315431305E0,6.810306549E0,-5.919663906E-1,-5.925649032E-2
4.317919066E0,6.748057365E0,-5.871779919E-1,-5.925649032E-2
4.320406826E0,6.671442986E0,-6.015431881E-1,-9.756372124E-2
4.322894587E0,6.590040207E0,-6.111199856E-1,-1.358709484E-1
4.325382347E0,6.494272232E0,-6.302735806E-1,-1.741781682E-1
4.327870107E0,6.432023048E0,-6.302735806E-1,-2.268506140E-1
4.330357920E0,6.403292656E0,-6.063315868E-1,-3.274070919E-1
4.332845732E0,6.388927460E0,-5.919663906E-1,-4.423287511E-1
4.335333545E0,6.393715858E0,-5.919663906E-1,-5.572504401E-1
4.337821357E0,6.403292656E0,-5.728127360E-1,-6.961141229E-1
4.340309170E0,6.432023048E0,-5.488707423E-1,-8.397662640E-1
4.342796982E0,6.470330238E0,-5.249287486E-1,-9.882067442E-1
4.345284795E0,6.508637428E0,-4.961982965E-1,-1.131858826E0
4.347772607E0,6.580463409E0,-5.009866953E-1,-1.313818216E0
4.350260420E0,6.580463409E0,-5.345055461E-1,-1.534084797E0
4.352748232E0,6.537367821E0,-5.728127360E-1,-1.716044068E0
4.355236045E0,6.532579422E0,-5.776011348E-1,-1.874061346E0
4.357723857E0,6.551733017E0,-5.440823436E-1,-2.022501945E0
4.360211670E0,6.575675011E0,-5.009866953E-1,-2.166153908E0
4.362699482E0,6.594828606E0,-4.387374520E-1,-2.309806108E0
4.365187295E0,6.604405403E0,-4.004302323E-1,-2.424727678E0
4.367675107E0,6.618770599E0,-3.716998100E-1,-2.554014683E0
4.370162920E0,6.604405403E0,-3.860650361E-1,-2.683301449E0
4.372650732E0,6.585251808E0,-4.147954583E-1,-2.793434858E0
4.375138545E0,6.551733017E0,-4.243722558E-1,-2.913144827E0
4.377626357E0,6.523002625E0,-4.291606545E-1,-3.018489838E0
4.380114170E0,6.489483833E0,-4.435258508E-1,-3.080739021E0
4.382601982E0,6.470330238E0,-4.770447016E-1,-3.119046211E0
4.385089795E0,6.422446251E0,-4.866214991E-1,-3.138199806E0
4.387577607E0,6.408081055E0,-5.057750940E-1,-3.171718597E0
4.390065420E0,6.379350662E0,-5.297171474E-1,-3.195660830E0
4.392553232E0,6.350619793E0,-5.488707423E-1,-3.190872431E0
4.395041045E0,6.336254597E0,-5.488707423E-1,-3.162141800E0
4.397528857E0,6.317101002E0,-5.632359385E-1,-3.138199806E0
4.400016670E0,6.336254597E0,-5.632359385E-1,-3.099892616E0
4.402504482E0,6.374562263E0,-5.728127360E-1,-3.028066635E0
4.404992295E0,6.441599846E0,-5.871779919E-1,-2.961029053E0
4.407480107E0,6.503849030E0,-6.111199856E-1,-2.884414434E0
4.409967920E0,6.570886612E0,-6.398503780E-1,-2.826953650E0
4.412455680E0,6.647500992E0,-6.637924314E-1,-2.764704466E0
4.414943441E0,6.728903770E0,-6.877344251E-1,-2.678513050E0
4.417431201E0,6.805518150E0,-7.068880796E-1,-2.587533474E0
4.419918962E0,6.891709805E0,-7.308300734E-1,-2.477400303E0
4.422406722E0,6.992266178E0,-7.356184721E-1,-2.352901697E0
4.424894482E0,7.092822552E0,-7.308300734E-1,-2.223614931E0
4.427382243E0,7.222109318E0,-7.212532759E-1,-2.094327927E0
4.429870003E0,7.317877293E0,-7.164648771E-1,-1.984194636E0
4.432357764E0,7.404068947E0,-7.164648771E-1,-1.893214941E0
4.434845524E0,7.509413719E0,-7.116764784E-1,-1.816600561E0
4.437333284E0,7.600393295E0,-7.260416746E-1,-1.759139657E0
4.439821045E0,7.677007675E0,-7.212532759E-1,-1.706467271E0
4.442308805E0,7.772775650E0,-7.404068708E-1,-1.682525277E0
4.444796566E0,7.835024834E0,-7.308300734E-1,-1.663371682E0
4.447284326E0,7.902062893E0,-7.499836683E-1,-1.663371682E0
4.449772087E0,7.954735279E0,-7.404068708E-1,-1.668160081E0
4.452259847E0,8.002618790E0,-7.308300734E-1,-1.687313676E0
4.454747607E0,8.055291176E0,-7.116764784E-1,-1.725620866E0
4.457235368E0,8.084021568E0,-6.973112226E-1,-1.787870169E0
4.459723128E0,8.122329712E0,-6.925228238E-1,-1.883638144E0
4.462210889E0,8.131906509E0,-6.877344251E-1,-1.950675845E0
4.464698649E0,8.112752914E0,-6.829460263E-1,-2.032078743E0
4.467186409E0,8.112752914E0,-6.685808301E-1,-2.127846718E0
4.469674170E0,8.103176117E0,-6.877344251E-1,-2.247556925E0
4.472161930E0,8.103176117E0,-6.781576276E-1,-2.348113298E0
4.474649691E0,8.107964516E0,-6.590040326E-1,-2.463035107E0
4.477137451E0,8.117541313E0,-6.302735806E-1,-2.587533474E0
4.479625212E0,8.079233170E0,-6.015431881E-1,-2.697666883E0
4.482112972E0,8.055291176E0,-5.776011348E-1,-2.803011656E0
4.484600732E0,8.026560783E0,-5.536591411E-1,-2.913144827E0
4.487088493E0,8.016983986E0,-5.536591411E-1,-2.994547844E0
4.489576253E0,8.002618790E0,-5.488707423E-1,-3.080739021E0
4.492064014E0,8.002618790E0,-5.392939448E-1,-3.157353401E0
4.494551774E0,8.021772385E0,-5.201402903E-1,-3.248333216E0
4.497039534E0,8.031349182E0,-5.153518915E-1,-3.339312792E0
4.499527295E0,8.021772385E0,-5.009866953E-1,-3.420715570E0
4.502015055E0,8.026560783E0,-4.818331003E-1,-3.502118587E0
4.504502816E0,8.040925980E0,-4.818331003E-1,-3.564367771E0
4.506990576E0,8.060079575E0,-4.818331003E-1,-3.664924145E0
4.509478337E0,8.098387718E0,-5.105634928E-1,-3.736750364E0
4.511966097E0,8.117541313E0,-5.201402903E-1,-3.779845953E0
4.514453857E0,8.151060104E0,-5.153518915E-1,-3.832518339E0
4.516941618E0,8.203732491E0,-5.249287486E-1,-3.861248732E0
4.519429378E0,8.232462883E0,-5.345055461E-1,-3.870825529E0
4.521917139E0,8.270770073E0,-5.153518915E-1,-3.875613928E0
4.524404899E0,8.304288864E0,-5.105634928E-1,-3.861248732E0
4.526892659E0,8.356961250E0,-5.105634928E-1,-3.837306738E0
4.529380420E0,8.409633636E0,-5.153518915E-1,-3.798999548E0
4.531868180E0,8.438364029E0,-5.297171474E-1,-3.770269156E0
4.534355941E0,8.443152428E0,-5.440823436E-1,-3.741538763E0
4.536843701E0,8.486248016E0,-5.632359385E-1,-3.708019972E0
4.539331462E0,8.510190010E0,-5.823895931E-1,-3.698443174E0
4.541819222E0,8.543708801E0,-5.871779919E-1,-3.688866377E0
4.544306982E0,8.567650795E0,-5.919663906E-1,-3.655347347E0
4.546794743E0,8.558073997E0,-6.015431881E-1,-3.636193752E0
4.549282503E0,8.572439194E0,-5.871779919E-1,-3.593098164E0
4.551770264E0,8.582015991E0,-5.919663906E-1,-3.545214176E0
4.554258024E0,8.577227592E0,-5.776011348E-1,-3.511695385E0
4.556745784E0,8.577227592E0,-5.823895931E-1,-3.487753391E0
4.559233545E0,8.567650795E0,-6.063315868E-1,-3.473388195E0
4.561721305E0,8.567650795E0,-6.254851818E-1,-3.459022999E0
4.564209066E0,8.567650795E0,-6.254851818E-1,-3.449446201E0
4.566696826E0,8.558073997E0,-6.446388364E-1,-3.439869404E0
4.569184587E0,8.538920403E0,-6.781576276E-1,-3.459022999E0
4.571672347E0,8.553285599E0,-7.164648771E-1,-3.459022999E0
4.574160107E0,8.543708801E0,-7.404068708E-1,-3.478176594E0
4.576647868E0,8.524555206E0,-7.691373229E-1,-3.482964993E0
4.579135628E0,8.510190010E0,-8.218097091E-1,-3.492541790E0
4.581623389E0,8.514978409E0,-8.457517624E-1,-3.487753391E0
4.584111149E0,8.505401611E0,-8.888474107E-1,-3.459022999E0
4.586598909E0,8.476671219E0,-9.223662019E-1,-3.415927172E0
4.589086670E0,8.438364029E0,-9.558850527E-1,-3.348889589E0
4.591574430E0,8.404845238E0,-9.750386477E-1,-3.296217203E0
4.594062191E0,8.385691643E0,-1.003769040E0,-3.248333216E0
4.596549951E0,8.366538048E0,-1.027711034E0,-3.152565002E0
4.599037712E0,8.342596054E0,-1.061229944E0,-3.090315819E0
4.601525472E0,8.318654060E0,-1.070806742E0,-3.008913040E0
4.604013232E0,8.342596054E0,-1.104325533E0,-2.927510023E0
4.606500993E0,8.352172852E0,-1.137844324E0,-2.826953650E0
4.608988753E0,8.380903244E0,-1.147421122E0,-2.740762472E0
4.611476514E0,8.400056839E0,-1.161786318E0,-2.664147854E0
4.613964274E0,8.447940826E0,-1.185728431E0,-2.582745075E0
4.616452034E0,8.505401611E0,-1.195305228E0,-2.506130695E0
4.618939795E0,8.548497200E0,-1.209670424E0,-2.424727678E0
4.621427555E0,8.601169586E0,-1.233612418E0,-2.362478495E0
4.623915316E0,8.634688377E0,-1.243189216E0,-2.290652514E0
4.626403076E0,8.663418770E0,-1.262342811E0,-2.247556925E0
4.628890889E0,8.711302757E0,-1.267131209E0,-2.194884300E0
4.631378701E0,8.749609947E0,-1.271919608E0,-2.194884300E0
4.633866514E0,8.792705536E0,-1.276708007E0,-2.175730705E0
4.636354326E0,8.831012726E0,-1.291073322E0,-2.170942307E0
4.638842139E0,8.869319916E0,-1.291073322E0,-2.180519104E0
4.641329951E0,8.893261909E0,-1.300650120E0,-2.209249735E0
4.643817764E0,8.898050308E0,-1.305438519E0,-2.285864115E0
4.646305576E0,8.902838707E0,-1.315015316E0,-2.328959703E0
4.648793389E0,8.878896713E0,-1.324592113E0,-2.415150881E0
4.651281201E0,8.888473511E0,-1.329380512E0,-2.496553898E0
4.653769014E0,8.883685112E0,-1.329380512E0,-2.568379879E0
4.656256826E0,8.869319916E0,-1.310226917E0,-2.692878246E0
4.658744639E0,8.850166321E0,-1.305438519E0,-2.798223257E0
4.661232451E0,8.840589523E0,-1.286284804E0,-2.884414434E0
4.663720264E0,8.826224327E0,-1.252766013E0,-2.989759445E0
4.666208076E0,8.835801125E0,-1.233612418E0,-3.085527420E0
4.668695889E0,8.831012726E0,-1.224035621E0,-3.162141800E0
4.671183701E0,8.807070732E0,-1.219247222E0,-3.229179621E0
4.673671514E0,8.802282333E0,-1.209670424E0,-3.286640406E0
4.676159326E0,8.797493935E0,-1.190516829E0,-3.348889589E0
4.678647139E0,8.802282333E0,-1.180940032E0,-3.387196779E0
4.681134951E0,8.802282333E0,-1.176151633E0,-3.425503969E0
4.683622764E0,8.787917137E0,-1.195305228E0,-3.463811398E0
4.686110576E0,8.778340340E0,-1.176151633E0,-3.506906986E0
4.688598389E0,8.807070732E0,-1.200093627E0,-3.521272182E0
4.691086201E0,8.821435928E0,-1.214458823E0,-3.535637379E0
4.693574014E0,8.831012726E0,-1.200093627E0,-3.526060581E0
4.696061826E0,8.835801125E0,-1.209670424E0,-3.511695385E0
4.698549639E0,8.864531517E0,-1.224035621E0,-3.502118587E0
4.701037451E0,8.893261909E0,-1.219247222E0,-3.506906986E0
4.703525264E0,8.912415504E0,-1.209670424E0,-3.497330189E0
4.706013076E0,8.931569099E0,-1.219247222E0,-3.482964993E0
4.708500889E0,8.965087891E0,-1.224035621E0,-3.444657803E0
4.710988701E0,8.979453087E0,-1.238400817E0,-3.415927172E0
4.713476514E0,8.989029884E0,-1.243189216E0,-3.391985178E0
4.715964274E0,8.998606682E0,-1.252766013E0,-3.348889589E0
4.718452034E0,9.032125473E0,-1.224035621E0,-3.305794001E0
4.720939795E0,9.056067467E0,-1.200093627E0,-3.257910013E0
4.723427555E0,9.084798813E0,-1.209670424E0,-3.233968019E0
4.725915316E0,9.108740807E0,-1.209670424E0,-3.224391222E0
4.728403076E0,9.132682800E0,-1.200093627E0,-3.190872431E0
4.730890837E0,9.151836395E0,-1.200093627E0,-3.147776604E0
4.733378597E0,9.175778389E0,-1.176151633E0,-3.128623009E0
4.735866357E0,9.199720383E0,-1.176151633E0,-3.109469414E0
4.738354118E0,9.218873978E0,-1.171363235E0,-3.085527420E0
4.740841878E0,9.257181168E0,-1.147421122E0,-3.075950623E0
4.743329639E0,9.290699959E0,-1.137844324E0,-3.080739021E0
4.745817399E0,9.319430351E0,-1.128267527E0,-3.104681015E0
4.748305159E0,9.338583946E0,-1.123479128E0,-3.123834610E0
4.750792920E0,9.357737541E0,-1.113902330E0,-3.152565002E0
4.753280680E0,9.386467934E0,-1.118690729E0,-3.214814425E0
4.755768441E0,9.400833130E0,-1.118690729E0,-3.286640406E0
4.758256201E0,9.424775124E0,-1.109113932E0,-3.353677988E0
4.760743962E0,9.429563522E0,-1.109113932E0,-3.415927172E0
4.763231722E0,9.410409927E0,-1.118690729E0,-3.478176594E0
4.765719482E0,9.419986725E0,-1.104325533E0,-3.540425777E0
4.768207243E0,9.419986725E0,-1.089960337E0,-3.607463360E0
4.770695003E0,9.400833130E0,-1.075595140E0,-3.669712543E0
4.773182764E0,9.362525940E0,-1.051653147E0,-3.727173567E0
4.775670524E0,9.348160744E0,-1.046864748E0,-3.784634352E0
4.778158284E0,9.319430351E0,-1.042076349E0,-3.861248732E0
4.780646045E0,9.281123161E0,-1.046864748E0,-3.923498154E0
4.783133805E0,9.261969566E0,-1.051653147E0,-3.971382141E0
4.785621566E0,9.261969566E0,-1.051653147E0,-4.019266129E0
4.788109326E0,9.261969566E0,-1.051653147E0,-4.076726913E0
4.790597087E0,9.271546364E0,-1.051653147E0,-4.143764496E0
4.793084847E0,9.324218750E0,-1.056441545E0,-4.201225281E0
4.795572607E0,9.367314339E0,-1.051653147E0,-4.249109268E0
4.798060368E0,9.391256332E0,-1.046864748E0,-4.306570530E0
4.800548128E0,9.396044731E0,-1.046864748E0,-4.330512524E0
4.803035889E0,9.434351921E0,-1.056441545E0,-4.349666119E0
4.805523649E0,9.487024307E0,-1.085171938E0,-4.383184910E0
4.808011409E0,9.549273491E0,-1.089960337E0,-4.383184910E0
4.810499170E0,9.592369080E0,-1.109113932E0,-4.402338505E0
4.812986930E0,9.645041466E0,-1.152209520E0,-4.402338505E0
4.815474691E0,9.712079048E0,-1.156997919E0,-4.416703701E0
4.817962451E0,9.745597839E0,-1.152209520E0,-4.426280499E0
4.820450212E0,9.793481827E0,-1.152209520E0,-4.407126904E0
4.822937972E0,9.827000618E0,-1.156997919E0,-4.378396511E0
4.825425732E0,9.841365814E0,-1.152209520E0,-4.335300922E0
4.827913493E0,9.841365814E0,-1.156997919E0,-4.311358929E0
4.830401253E0,9.850942612E0,-1.161786318E0,-4.263474464E0
4.832889014E0,9.850942612E0,-1.156997919E0,-4.229955673E0
4.835376774E0,9.850942612E0,-1.152209520E0,-4.177283287E0
4.837864534E0,9.831789017E0,-1.133055925E0,-4.134187698E0
4.840352295E0,9.817423820E0,-1.109113932E0,-4.091092110E0
4.842840055E0,9.769539833E0,-1.099537134E0,-4.062361717E0
4.845327816E0,9.740809441E0,-1.080383539E0,-4.067150116E0
4.847815576E0,9.736021042E0,-1.056441545E0,-4.081515312E0
4.850303337E0,9.697713852E0,-1.046864748E0,-4.071938515E0
4.852791097E0,9.659406662E0,-1.056441545E0,-4.052784920E0
4.855278857E0,9.625887871E0,-1.051653147E0,-4.043208122E0
4.857766618E0,9.601945877E0,-1.066018343E0,-4.057573318E0
4.860254378E0,9.554061890E0,-1.080383539E0,-4.038419724E0
4.862742139E0,9.530119896E0,-1.089960337E0,-4.000112534E0
4.865229899E0,9.510966301E0,-1.104325533E0,-3.961805344E0
4.867717659E0,9.477447510E0,-1.113902330E0,-3.952228546E0
4.870205420E0,9.424775124E0,-1.109113932E0,-3.933074951E0
4.872693180E0,9.429563522E0,-1.104325533E0,-3.923498154E0
4.875180941E0,9.415198326E0,-1.109113932E0,-3.885190725E0
4.877668701E0,9.400833130E0,-1.113902330E0,-3.856460333E0
4.880156462E0,9.400833130E0,-1.109113932E0,-3.837306738E0
4.882644222E0,9.386467934E0,-1.123479128E0,-3.789422750E0
4.885131982E0,9.396044731E0,-1.147421122E0,-3.760692358E0
4.887619743E0,9.429563522E0,-1.156997919E0,-3.717596769E0
4.890107503E0,9.472659111E0,-1.176151633E0,-3.679289579E0
4.892595264E0,9.496601105E0,-1.219247222E0,-3.674500942E0
4.895083024E0,9.534908295E0,-1.257554412E0,-3.650558949E0
4.897570784E0,9.563638687E0,-1.310226917E0,-3.640982151E0
4.900058545E0,9.587580681E0,-1.324592113E0,-3.617040157E0
4.902546305E0,9.597157478E0,-1.353322506E0,-3.564367771E0
4.905034066E0,9.592369080E0,-1.382052898E0,-3.502118587E0
4.907521826E0,9.601945877E0,-1.405994892E0,-3.454234600E0
4.910009587E0,9.625887871E0,-1.420360208E0,-3.377619982E0
4.912497347E0,9.659406662E0,-1.434725404E0,-3.324947596E0
4.914985107E0,9.678560257E0,-1.458667397E0,-3.267486811E0
4.917472868E0,9.707290649E0,-1.482609391E0,-3.243544817E0
4.919960628E0,9.702502251E0,-1.492186189E0,-3.229179621E0
4.922448389E0,9.707290649E0,-1.511339784E0,-3.210026026E0
4.924936149E0,9.750386238E0,-1.530493379E0,-3.205237627E0
4.927423962E0,9.759963036E0,-1.540070295E0,-3.210026026E0
4.929911774E0,9.779116631E0,-1.564012289E0,-3.205237627E0
4.932399587E0,9.783905029E0,-1.554435492E0,-3.214814425E0
4.934887399E0,9.793481827E0,-1.554435492E0,-3.224391222E0
4.937375212E0,9.779116631E0,-1.549647093E0,-3.224391222E0
4.939863024E0,9.783905029E0,-1.544858694E0,-3.205237627E0
4.942350837E0,9.783905029E0,-1.525704980E0,-3.200449228E0
4.944838649E0,9.783905029E0,-1.530493379E0,-3.214814425E0
4.947326462E0,9.783905029E0,-1.511339784E0,-3.253121614E0
4.949814274E0,9.793481827E0,-1.516128182E0,-3.257910013E0
4.952302087E0,9.788693428E0,-1.511339784E0,-3.267486811E0
4.954789899E0,9.783905029E0,-1.520916581E0,-3.281852007E0
4.957277712E0,9.769539833E0,-1.520916581E0,-3.296217203E0
4.959765524E0,9.759963036E0,-1.501762986E0,-3.305794001E0
4.962253337E0,9.745597839E0,-1.496974587E0,-3.301005602E0
4.964741149E0,9.745597839E0,-1.463455796E0,-3.286640406E0
4.967228962E0,9.721655846E0,-1.449090600E0,-3.277063608E0
4.969716774E0,9.736021042E0,-1.434725404E0,-3.257910013E0
4.972204587E0,9.726444244E0,-1.429937005E0,-3.238756418E0
4.974692399E0,9.740809441E0,-1.425148606E0,-3.248333216E0
4.977180212E0,9.779116631E0,-1.420360208E0,-3.248333216E0
4.979668024E0,9.803058624E0,-1.429937005E0,-3.238756418E0
4.982155837E0,9.841365814E0,-1.425148606E0,-3.257910013E0
4.984643649E0,9.865307808E0,-1.429937005E0,-3.291428804E0
4.987131462E0,9.884461403E0,-1.439513803E0,-3.315370798E0
4.989619274E0,9.874884605E0,-1.425148606E0,-3.372831583E0
4.992107087E0,9.855731010E0,-1.425148606E0,-3.420715570E0
4.994594899E0,9.841365814E0,-1.410783410E0,-3.463811398E0
4.997082712E0,9.850942612E0,-1.382052898E0,-3.506906986E0
4.999570524E0,9.889249802E0,-1.382052898E0,-3.578732967E0
5.002058337E0,9.903614998E0,-1.362899303E0,-3.655347347E0
5.004546149E0,9.908403397E0,-1.343745708E0,-3.736750364E0
5.007033962E0,9.927556992E0,-1.319803715E0,-3.842095137E0
5.009521774E0,9.937133789E0,-1.300650120E0,-3.937863350E0
5.012009587E0,9.932345390E0,-1.295861721E0,-4.028842926E0
5.014497347E0,9.941922188E0,-1.286284804E0,-4.086303711E0
5.016985107E0,9.932345390E0,-1.281496406E0,-4.167706490E0
5.019472868E0,9.941922188E0,-1.267131209E0,-4.220378876E0
5.021960628E0,9.932345390E0,-1.247977614E0,-4.277839661E0
5.024448389E0,9.946710587E0,-1.238400817E0,-4.349666119E0
5.026936149E0,9.941922188E0,-1.233612418E0,-4.435857296E0
5.029423909E0,9.932345390E0,-1.233612418E0,-4.502894878E0
5.031911670E0,9.946710587E0,-1.228824019E0,-4.579509258E0
5.034399430E0,9.956287384E0,-1.233612418E0,-4.641758442E0
5.036887191E0,9.946710587E0,-1.238400817E0,-4.694430828E0
5.039374951E0,9.956287384E0,-1.243189216E0,-4.751891613E0
5.041862712E0,9.970652580E0,-1.252766013E0,-4.794987679E0
5.044350472E0,9.970652580E0,-1.276708007E0,-4.847660065E0
5.046838232E0,9.980229378E0,-1.291073322E0,-4.890755653E0
5.049325993E0,9.994594574E0,-1.329380512E0,-4.933851242E0
5.051813753E0,1.000895977E1,-1.353322506E0,-4.972158432E0
5.054301514E0,1.004247856E1,-1.391629696E0,-4.986523628E0
5.056789274E0,1.005205631E1,-1.420360208E0,-5.000888824E0
5.059277034E0,1.007120991E1,-1.444302201E0,-5.020042419E0
5.061764795E0,1.010472870E1,-1.444302201E0,-5.024830818E0
5.064252555E0,1.015261269E1,-1.473032594E0,-5.015254021E0
5.066740316E0,1.017655468E1,-1.473032594E0,-5.015254021E0
5.069228076E0,1.021486187E1,-1.487397790E0,-5.024830818E0
5.071715837E0,1.024359226E1,-1.496974587E0,-5.015254021E0
5.074203597E0,1.027232265E1,-1.516128182E0,-5.005677223E0
5.076691357E0,1.029147625E1,-1.511339784E0,-4.981735229E0
5.079179118E0,1.031541824E1,-1.492186189E0,-4.953004837E0
5.081666878E0,1.031541824E1,-1.482609391E0,-4.929062843E0
5.084154639E0,1.032020664E1,-1.482609391E0,-4.900332451E0
5.086642399E0,1.032020664E1,-1.477820992E0,-4.862025261E0
5.089130159E0,1.032499504E1,-1.473032594E0,-4.833294868E0
5.091617920E0,1.031062984E1,-1.473032594E0,-4.794987679E0
5.094105680E0,1.029626465E1,-1.458667397E0,-4.775833607E0
5.096593441E0,1.029147625E1,-1.425148606E0,-4.742314816E0
5.099081201E0,1.027711105E1,-1.415571809E0,-4.727949619E0
5.101568962E0,1.026753426E1,-1.415571809E0,-4.708796024E0
5.104056722E0,1.023880386E1,-1.425148606E0,-4.656123638E0
5.106544482E0,1.018134308E1,-1.420360208E0,-4.598662853E0
5.109032243E0,1.015261269E1,-1.396418095E0,-4.522048473E0
5.111520003E0,1.010951710E1,-1.358110905E0,-4.435857296E0
5.114007764E0,1.009036350E1,-1.348534107E0,-4.349666119E0
5.116495524E0,1.007599831E1,-1.310226917E0,-4.282628059E0
5.118983284E0,1.004726696E1,-1.295861721E0,-4.229955673E0
5.121471045E0,1.003290176E1,-1.262342811E0,-4.191648483E0
