"Time (s)","Gyroscope x (rad/s)","Gyroscope y (rad/s)","Gyroscope z (rad/s)"
5.374620100E-2,-1.763011366E-1,-6.804371625E-2,6.298371404E-2
5.623557600E-2,-1.720400751E-1,-6.804371625E-2,5.872265995E-2
5.873047200E-2,-1.656484902E-1,-6.591318548E-2,5.552686751E-2
6.123036800E-2,-1.592569202E-1,-6.378266215E-2,5.233107507E-2
6.373458700E-2,-1.507348120E-1,-6.058686972E-2,4.807002097E-2
6.624229500E-2,-1.411474347E-1,-5.845634267E-2,4.487423226E-2
6.875255500E-2,-1.304948032E-1,-5.632581562E-2,4.167843983E-2
7.126437800E-2,-1.177116334E-1,-5.313002318E-2,3.954791278E-2
7.377672200E-2,-1.038632020E-1,-4.993423447E-2,3.741738573E-2
7.627807600E-2,-8.681898564E-2,-4.460791498E-2,3.635212034E-2
7.876583700E-2,-6.870950758E-2,-4.034686089E-2,3.528685868E-2
8.125354500E-2,-4.846949503E-2,-3.502054140E-2,3.528685868E-2
8.374125300E-2,-2.609895915E-2,-2.969422378E-2,3.635212034E-2
8.622896200E-2,-3.728422802E-3,-2.330264263E-2,3.848264739E-2
8.871667000E-2,1.970737800E-2,-1.691105962E-2,4.167843983E-2
9.120437800E-2,4.314317927E-2,-1.051947847E-2,4.380896688E-2
9.369271200E-2,6.657897681E-2,-1.997369342E-3,4.593949392E-2
9.618010700E-2,8.894951642E-2,6.524739787E-3,4.913528636E-2
9.866750300E-2,1.102547869E-1,1.398158539E-2,5.339634046E-2
1.011548990E-1,1.304948032E-1,2.250369452E-2,5.446160212E-2
1.036422950E-1,1.475390196E-1,3.102580272E-2,5.872265995E-2
1.061297430E-1,1.624527127E-1,3.954791278E-2,6.191844866E-2
1.086172430E-1,1.752358675E-1,4.807002097E-2,6.617950648E-2
1.111047950E-1,1.848232448E-1,5.446160212E-2,6.937529147E-2
1.135923990E-1,1.922800839E-1,5.978792161E-2,7.257108390E-2
1.160800550E-1,1.965411454E-1,6.404897571E-2,7.470161468E-2
1.185677640E-1,1.976063997E-1,6.724476814E-2,7.789740711E-2
1.210555240E-1,1.954758763E-1,6.937529147E-2,8.109319210E-2
1.235433370E-1,1.890842915E-1,7.044056058E-2,8.322372288E-2
1.260312010E-1,1.805621833E-1,7.044056058E-2,8.535424620E-2
1.285191180E-1,1.677790284E-1,7.044056058E-2,8.748477697E-2
1.310070870E-1,1.528653353E-1,6.831002980E-2,8.961530030E-2
1.334951070E-1,1.347558498E-1,6.511423737E-2,9.281109273E-2
1.359831280E-1,1.155811027E-1,5.978792161E-2,9.387636185E-2
1.384711490E-1,9.321057051E-2,5.339634046E-2,9.600688517E-2
1.409591700E-1,6.977476925E-2,4.593949392E-2,9.707214683E-2
1.434471910E-1,4.740423337E-2,3.741738573E-2,9.813741595E-2
1.459352120E-1,2.503369562E-2,2.889527567E-2,9.920267761E-2
1.484230240E-1,1.597895520E-3,1.930790395E-2,9.920267761E-2
1.509107840E-1,-1.864211448E-2,9.720530361E-3,9.920267761E-2
1.533985450E-1,-3.888212144E-2,1.198421582E-3,9.707214683E-2
1.558863050E-1,-5.592634156E-2,-7.323687430E-3,9.494162351E-2
1.583740660E-1,-7.190529257E-2,-1.478053257E-2,9.068056941E-2
1.608618260E-1,-8.468846232E-2,-2.223737910E-2,8.535424620E-2
1.633495870E-1,-9.534109384E-2,-2.862896025E-2,8.002793044E-2
1.658373470E-1,-1.027979404E-1,-3.395527974E-2,7.363634557E-2
1.683251070E-1,-1.081242561E-1,-3.715106845E-2,6.511423737E-2
1.708128680E-1,-1.102547869E-1,-3.928159550E-2,5.659212917E-2
1.733006280E-1,-1.113200486E-1,-3.928159550E-2,4.700475931E-2
1.757883890E-1,-1.091895252E-1,-3.821633384E-2,3.741738573E-2
1.782761490E-1,-1.049284711E-1,-3.608580679E-2,2.569948509E-2
1.807639090E-1,-9.960214794E-2,-3.289001435E-2,1.398158539E-2
1.832516700E-1,-9.321057051E-2,-2.756369673E-2,2.263685223E-3
1.857394300E-1,-8.468846232E-2,-2.117211558E-2,-1.051947847E-2
1.882271390E-1,-7.510108501E-2,-1.478053257E-2,-2.223737910E-2
1.907148470E-1,-6.551371515E-2,-8.388951421E-3,-3.395527974E-2
1.932025550E-1,-5.486107618E-2,1.331579551E-4,-4.673844203E-2
1.956902640E-1,-4.314317927E-2,8.655266836E-3,-5.845634267E-2
1.981779720E-1,-3.355580568E-2,1.824264042E-2,-6.910897791E-2
2.006656800E-1,-2.396843210E-2,2.676474862E-2,-8.082687855E-2
2.031533890E-1,-1.651158556E-2,3.528685868E-2,-9.254477918E-2
2.056410970E-1,-1.012000442E-2,4.380896688E-2,-1.010668874E-1
2.081288050E-1,-4.793686327E-3,5.020054802E-2,-1.095889956E-1
2.106165140E-1,-1.597895520E-3,5.659212917E-2,-1.170458421E-1
2.131042220E-1,-5.326318205E-4,6.191844866E-2,-1.234374270E-1
2.155919300E-1,-1.597895520E-3,6.724476814E-2,-1.266332120E-1
2.180796390E-1,-4.793686327E-3,7.044056058E-2,-1.298290044E-1
2.205673470E-1,-1.012000442E-2,7.257108390E-2,-1.308942735E-1
2.230550550E-1,-1.864211448E-2,7.470161468E-2,-1.298290044E-1
2.255427640E-1,-2.822948620E-2,7.363634557E-2,-1.287637353E-1
2.280304720E-1,-3.994738683E-2,7.257108390E-2,-1.255679578E-1
2.305181800E-1,-5.379581451E-2,6.937529147E-2,-1.223721579E-1
2.330058890E-1,-6.977476925E-2,6.404897571E-2,-1.181111038E-1
2.354935970E-1,-8.575372398E-2,5.765739456E-2,-1.117195264E-1
2.379813050E-1,-1.027979404E-1,4.913528636E-2,-1.053279415E-1
2.404690140E-1,-1.209074259E-1,3.954791278E-2,-9.787109494E-2
2.429567220E-1,-1.368863732E-1,2.996053919E-2,-8.934898674E-2
2.454444300E-1,-1.518000662E-1,1.930790395E-2,-8.082687855E-2
2.479321390E-1,-1.667137593E-1,8.655266836E-3,-7.230477035E-2
2.504198990E-1,-1.784316599E-1,-1.997369342E-3,-6.378266215E-2
2.529076590E-1,-1.880190372E-1,-1.051947847E-2,-5.313002318E-2
2.553954200E-1,-1.965411454E-1,-1.904158667E-2,-4.247738793E-2
2.578831800E-1,-2.018674612E-1,-2.543316968E-2,-3.289001435E-2
2.603709410E-1,-2.061285079E-1,-3.075948730E-2,-2.223737910E-2
2.628587010E-1,-2.071937770E-1,-3.289001435E-2,-1.265000552E-2
2.653464620E-1,-2.061285079E-1,-3.395527974E-2,-3.062632866E-3
2.678342220E-1,-2.018674612E-1,-3.289001435E-2,5.459476262E-3
2.703219820E-1,-1.965411454E-1,-2.969422378E-2,1.398158539E-2
2.728097430E-1,-1.890842915E-1,-2.436790615E-2,2.037316747E-2
2.752975030E-1,-1.794969290E-1,-1.904158667E-2,2.676474862E-2
2.777852640E-1,-1.677790284E-1,-1.158474199E-2,3.209106624E-2
2.802730240E-1,-1.560611278E-1,-4.127896391E-3,3.741738573E-2
2.827607840E-1,-1.432779580E-1,4.394212738E-3,4.274370521E-2
2.852485450E-1,-1.315600574E-1,1.291632187E-2,4.593949392E-2
2.877363050E-1,-1.187768951E-1,2.143843099E-2,4.913528636E-2
2.902240660E-1,-1.070589945E-1,2.996053919E-2,5.126581341E-2
2.927118260E-1,-9.640636295E-2,3.741738573E-2,5.233107507E-2
2.951995870E-1,-8.575372398E-2,4.380896688E-2,5.339634046E-2
2.976873470E-1,-7.829687744E-2,5.020054802E-2,5.446160212E-2
3.001751070E-1,-7.190529257E-2,5.552686751E-2,5.552686751E-2
3.026628680E-1,-6.870950758E-2,5.872265995E-2,5.659212917E-2
3.051506280E-1,-6.444845349E-2,6.085318699E-2,5.659212917E-2
3.076383890E-1,-6.444845349E-2,6.298371404E-2,5.659212917E-2
3.101261490E-1,-6.551371515E-2,6.404897571E-2,5.659212917E-2
3.126139090E-1,-6.977476925E-2,6.404897571E-2,5.659212917E-2
3.151016700E-1,-7.616634667E-2,6.404897571E-2,5.552686751E-2
3.175894300E-1,-8.468846232E-2,6.298371404E-2,5.659212917E-2
3.200771910E-1,-9.534109384E-2,6.191844866E-2,5.659212917E-2
3.225649510E-1,-1.081242561E-1,6.085318699E-2,5.659212917E-2
3.250527120E-1,-1.241032109E-1,5.872265995E-2,5.659212917E-2
3.275404720E-1,-1.400821656E-1,5.446160212E-2,5.552686751E-2
3.300282320E-1,-1.592569202E-1,5.020054802E-2,5.659212917E-2
3.325159930E-1,-1.794969290E-1,4.487423226E-2,5.765739456E-2
3.350037530E-1,-1.997369379E-1,3.848264739E-2,5.765739456E-2
3.374915140E-1,-2.199769467E-1,2.996053919E-2,5.872265995E-2
3.399792740E-1,-2.412822098E-1,2.037316747E-2,5.872265995E-2
3.424670340E-1,-2.625874877E-1,9.720530361E-3,5.872265995E-2
3.449547950E-1,-2.828274965E-1,-3.062632866E-3,5.978792161E-2
3.474425550E-1,-3.009369671E-1,-1.584579609E-2,5.978792161E-2
3.499303160E-1,-3.169159293E-1,-3.075948730E-2,5.978792161E-2
3.524180760E-1,-3.307643533E-1,-4.567318037E-2,6.191844866E-2
3.549058370E-1,-3.414169848E-1,-6.058686972E-2,6.191844866E-2
3.573935970E-1,-3.488738537E-1,-7.443529367E-2,6.191844866E-2
3.598813570E-1,-3.531349003E-1,-8.934898674E-2,6.298371404E-2
3.623691180E-1,-3.531349003E-1,-1.031974182E-1,6.191844866E-2
3.648568780E-1,-3.488738537E-1,-1.149153188E-1,5.978792161E-2
3.673446390E-1,-3.392864764E-1,-1.255679578E-1,5.765739456E-2
3.698323990E-1,-3.254380524E-1,-1.351553202E-1,5.552686751E-2
3.723201590E-1,-3.062632978E-1,-1.426121742E-1,5.339634046E-2
3.748079200E-1,-2.817622423E-1,-1.500690132E-1,4.913528636E-2
3.772956800E-1,-2.530001104E-1,-1.564605981E-1,4.487423226E-2
3.797834410E-1,-2.199769467E-1,-1.617869139E-1,4.061317816E-2
3.822712010E-1,-1.826927215E-1,-1.660479754E-1,3.422159329E-2
3.847589620E-1,-1.411474347E-1,-1.692437679E-1,2.783001214E-2
3.872467220E-1,-9.853688627E-2,-1.713742912E-1,2.037316747E-2
3.897344820E-1,-5.166528746E-2,-1.724395454E-1,1.291632187E-2
3.922222430E-1,-3.728422802E-3,-1.724395454E-1,3.328948980E-3
3.947100030E-1,4.527370632E-2,-1.713742912E-1,-6.258423906E-3
3.971977640E-1,9.534109384E-2,-1.681784987E-1,-1.691105962E-2
3.996855240E-1,1.443432271E-1,-1.628521830E-1,-2.649843320E-2
4.021732840E-1,1.922800839E-1,-1.564605981E-1,-3.715106845E-2
4.046610450E-1,2.380864173E-1,-1.490037590E-1,-4.673844203E-2
4.071488050E-1,2.806969583E-1,-1.415469050E-1,-5.632581562E-2
4.096365660E-1,3.190464675E-1,-1.330247968E-1,-6.484792382E-2
4.121243260E-1,3.531349003E-1,-1.234374270E-1,-7.337003201E-2
4.146120870E-1,3.818970025E-1,-1.149153188E-1,-8.082687855E-2
4.170998470E-1,4.053328037E-1,-1.063932031E-1,-8.721846342E-2
4.195876070E-1,4.223770201E-1,-9.893636405E-2,-9.254477918E-2
4.220753680E-1,4.340949357E-1,-9.147951752E-2,-9.574057162E-2
4.245631280E-1,4.404865205E-1,-8.615319431E-2,-9.787109494E-2
4.270516700E-1,4.394212663E-1,-8.295740932E-2,-9.893636405E-2
4.295397430E-1,4.330296814E-1,-8.295740932E-2,-9.787109494E-2
4.320275030E-1,4.213117659E-1,-8.402267098E-2,-9.574057162E-2
4.345152640E-1,4.053328037E-1,-8.721846342E-2,-9.147951752E-2
4.370030240E-1,3.861580789E-1,-9.254477918E-2,-8.615319431E-2
4.394907840E-1,3.627222776E-1,-1.000016257E-1,-7.869634777E-2
4.419785450E-1,3.360906839E-1,-1.095889956E-1,-7.123950869E-2
4.444663050E-1,3.083938360E-1,-1.213068962E-1,-6.271740049E-2
4.469540660E-1,2.796317041E-1,-1.340900660E-1,-5.206476152E-2
4.494418260E-1,2.498043180E-1,-1.468732208E-1,-4.141212255E-2
4.519295870E-1,2.210422009E-1,-1.596563905E-1,-2.969422378E-2
4.544173470E-1,1.922800839E-1,-1.735048145E-1,-1.691105962E-2
4.569051070E-1,1.645832360E-1,-1.862879843E-1,-5.193160381E-3
4.593928680E-1,1.390169114E-1,-2.001364082E-1,6.524739787E-3
4.618806280E-1,1.155811027E-1,-2.097237855E-1,1.824264042E-2
4.643683890E-1,9.534109384E-2,-2.193111479E-1,2.889527567E-2
4.668561490E-1,7.723161578E-2,-2.257027328E-1,3.954791278E-2
4.693439090E-1,6.338318437E-2,-2.310290486E-1,4.807002097E-2
4.718316700E-1,5.379581451E-2,-2.342248410E-1,5.659212917E-2
4.743194300E-1,4.953476042E-2,-2.352901101E-1,6.511423737E-2
4.768071910E-1,4.846949503E-2,-2.320943177E-1,7.150582224E-2
4.792949510E-1,5.166528746E-2,-2.267680019E-1,7.789740711E-2
4.817827120E-1,5.912213027E-2,-2.193111479E-1,8.322372288E-2
4.842704720E-1,7.084003091E-2,-2.097237855E-1,8.855003864E-2
4.867582320E-1,8.575372398E-2,-1.980058849E-1,9.174583107E-2
4.892459410E-1,1.038632020E-1,-1.830921918E-1,9.387636185E-2
4.917336490E-1,1.241032109E-1,-1.660479754E-1,9.494162351E-2
4.942213570E-1,1.454084814E-1,-1.468732208E-1,9.387636185E-2
4.967090660E-1,1.667137593E-1,-1.266332120E-1,9.174583107E-2
4.991967740E-1,1.890842915E-1,-1.042626798E-1,8.855003864E-2
5.016844820E-1,2.114548385E-1,-8.189214021E-2,8.535424620E-2
5.041721910E-1,2.316948473E-1,-5.845634267E-2,8.002793044E-2
5.066598990E-1,2.508696020E-1,-3.608580679E-2,7.363634557E-2
5.091476070E-1,2.679138184E-1,-1.371526904E-2,6.831002980E-2
5.116353160E-1,2.817622423E-1,7.590003312E-3,6.191844866E-2
5.141230240E-1,2.924148738E-1,2.676474862E-2,5.659212917E-2
5.166107320E-1,2.998717129E-1,4.487423226E-2,5.233107507E-2
5.190984410E-1,3.041327596E-1,5.978792161E-2,4.700475931E-2
5.215861490E-1,3.062632978E-1,7.257108390E-2,4.274370521E-2
5.240738570E-1,3.030675054E-1,8.322372288E-2,3.741738573E-2
5.265615660E-1,2.988064587E-1,9.068056941E-2,3.315633163E-2
5.290492740E-1,2.913496196E-1,9.600688517E-2,2.783001214E-2
5.315369820E-1,2.817622423E-1,9.813741595E-2,2.356895804E-2
5.340246910E-1,2.711096108E-1,9.813741595E-2,1.824264042E-2
5.365123990E-1,2.593916953E-1,9.600688517E-2,1.291632187E-2
5.390001070E-1,2.466085255E-1,9.281109273E-2,9.720530361E-3
5.414878160E-1,2.327601016E-1,8.748477697E-2,6.524739787E-3
5.439755240E-1,2.189116776E-1,8.215846121E-2,4.394212738E-3
5.464632320E-1,2.050632536E-1,7.576687634E-2,2.263685223E-3
5.489509410E-1,1.933453530E-1,6.831002980E-2,1.198421582E-3
5.514387010E-1,1.805621833E-1,6.298371404E-2,-9.321057005E-4
5.539264620E-1,1.709748209E-1,5.552686751E-2,-1.997369342E-3
5.564142220E-1,1.613874435E-1,5.020054802E-2,-1.997369342E-3
5.589019820E-1,1.539305896E-1,4.380896688E-2,-9.321057005E-4
5.613897430E-1,1.486042738E-1,3.635212034E-2,-9.321057005E-4
5.638775030E-1,1.454084814E-1,3.209106624E-2,-1.997369342E-3
5.663652640E-1,1.443432271E-1,2.783001214E-2,-1.997369342E-3
5.688530240E-1,1.432779580E-1,2.356895804E-2,-1.997369342E-3
5.713407840E-1,1.454084814E-1,2.143843099E-2,-3.062632866E-3
5.738285450E-1,1.496695429E-1,2.143843099E-2,-4.127896391E-3
5.763163050E-1,1.560611278E-1,2.143843099E-2,-6.258423906E-3
5.788040660E-1,1.624527127E-1,2.356895804E-2,-8.388951421E-3
5.812918260E-1,1.709748209E-1,2.569948509E-2,-1.051947847E-2
5.837795870E-1,1.816274524E-1,2.889527567E-2,-1.371526904E-2
5.862673470E-1,1.933453530E-1,3.209106624E-2,-1.797632314E-2
5.887551070E-1,2.050632536E-1,3.635212034E-2,-2.223737910E-2
5.912428680E-1,2.199769467E-1,4.061317816E-2,-2.649843320E-2
5.937315660E-1,2.348906398E-1,4.487423226E-2,-2.969422378E-2
5.962196390E-1,2.530001104E-1,4.807002097E-2,-3.395527974E-2
5.987073990E-1,2.721748650E-1,5.233107507E-2,-3.715106845E-2
6.011951590E-1,2.913496196E-1,5.552686751E-2,-4.034686089E-2
6.036829200E-1,3.137201369E-1,5.872265995E-2,-4.354264960E-2
6.061706800E-1,3.360906839E-1,6.298371404E-2,-4.567318037E-2
6.086584410E-1,3.595264852E-1,6.724476814E-2,-4.780370742E-2
6.111462010E-1,3.829622865E-1,7.150582224E-2,-4.886896908E-2
6.136339620E-1,4.063980877E-1,7.683213800E-2,-4.780370742E-2
6.161217220E-1,4.308991432E-1,8.215846121E-2,-4.780370742E-2
6.186094820E-1,4.554001987E-1,8.855003864E-2,-4.460791498E-2
6.210972430E-1,4.788360000E-1,9.387636185E-2,-4.141212255E-2
6.235850030E-1,5.012065172E-1,1.002679393E-1,-3.608580679E-2
6.260727640E-1,5.235770941E-1,1.066595241E-1,-3.075948730E-2
6.285605240E-1,5.459476113E-1,1.130511016E-1,-2.223737910E-2
6.310482320E-1,5.672528744E-1,1.183774248E-1,-1.371526904E-2
6.335359410E-1,5.874928832E-1,1.215732098E-1,-4.127896391E-3
6.360236490E-1,6.056023836E-1,1.258342713E-1,6.524739787E-3
6.385113570E-1,6.226465702E-1,1.300953180E-1,1.717737690E-2
6.409990660E-1,6.364950538E-1,1.332911104E-1,2.889527567E-2
6.434867740E-1,6.482129097E-1,1.343563795E-1,3.848264739E-2
6.459744820E-1,6.567350626E-1,1.354216337E-1,4.913528636E-2
6.484621910E-1,6.620613337E-1,1.354216337E-1,6.085318699E-2
6.509498990E-1,6.652571559E-1,1.332911104E-1,7.150582224E-2
6.534376070E-1,6.663224101E-1,1.311605871E-1,8.215846121E-2
6.559253160E-1,6.652571559E-1,1.268995255E-1,9.387636185E-2
6.584130240E-1,6.620613337E-1,1.226384789E-1,1.055942550E-1
6.609007320E-1,6.567350626E-1,1.183774248E-1,1.183774248E-1
6.633884410E-1,6.524739861E-1,1.141163707E-1,1.300953180E-1
6.658761490E-1,6.471476555E-1,1.087900475E-1,1.418132186E-1
6.683638570E-1,6.418213248E-1,1.055942550E-1,1.535311192E-1
6.708515660E-1,6.386255622E-1,1.002679393E-1,1.652490199E-1
6.733392740E-1,6.364950538E-1,9.494162351E-2,1.748363972E-1
6.758269820E-1,6.375603080E-1,8.855003864E-2,1.865542978E-1
6.783146910E-1,6.407560706E-1,8.109319210E-2,1.982721984E-1
6.808023990E-1,6.492781639E-1,7.470161468E-2,2.099900991E-1
6.832901070E-1,6.599308252E-1,7.044056058E-2,2.227732539E-1
6.857778160E-1,6.769750714E-1,6.831002980E-2,2.344911546E-1
6.882655240E-1,6.993455887E-1,6.937529147E-2,2.483395934E-1
6.907532320E-1,7.270424366E-1,7.363634557E-2,2.611227632E-1
6.932409930E-1,7.600656152E-1,8.002793044E-2,2.739059031E-1
6.957287530E-1,7.994803786E-1,8.961530030E-2,2.877543271E-1
6.982165140E-1,8.452867270E-1,1.013332009E-1,3.005374968E-1
7.007042740E-1,8.964193463E-1,1.151816323E-1,3.133206666E-1
7.031920340E-1,9.528783560E-1,1.311605871E-1,3.250385821E-1
7.056797950E-1,1.014663577E0,1.503353268E-1,3.378217220E-1
7.081675550E-1,1.079644680E0,1.705753356E-1,3.495396376E-1
7.106553160E-1,1.147821546E0,1.940111369E-1,3.591270149E-1
7.131430760E-1,1.217063665E0,2.185122073E-1,3.676491082E-1
7.156308370E-1,1.287371159E0,2.472743243E-1,3.761712313E-1
7.181185970E-1,1.356613278E0,2.781669796E-1,3.836280704E-1
7.206063570E-1,1.421594381E0,3.133206666E-1,3.900196552E-1
7.230941180E-1,1.483379602E0,3.495396376E-1,3.953459561E-1
7.255818780E-1,1.538773298E0,3.889544010E-1,3.996070325E-1
7.280696390E-1,1.588840723E0,4.262386262E-1,4.038680792E-1
7.305573990E-1,1.630385995E0,4.645881057E-1,4.081291258E-1
7.330451590E-1,1.663409233E0,5.018723607E-1,4.134554565E-1
7.355329200E-1,1.685779691E0,5.348954797E-1,4.187817574E-1
7.380206800E-1,1.696432352E0,5.625923872E-1,4.251733422E-1
7.405084410E-1,1.693236589E0,5.828323960E-1,4.326302111E-1
7.429962010E-1,1.676192284E0,5.977460742E-1,4.400870502E-1
7.454839620E-1,1.643169165E0,6.041376591E-1,4.486091435E-1
7.479717220E-1,1.594166994E0,6.041376591E-1,4.571312666E-1
7.504594820E-1,1.528120637E0,5.977460742E-1,4.667186439E-1
7.529472430E-1,1.447160602E0,5.849629045E-1,4.741754830E-1
7.554350030E-1,1.352352142E0,5.668534040E-1,4.805670679E-1
7.579227640E-1,1.246891141E0,5.455481410E-1,4.858933687E-1
7.604105240E-1,1.132907867E0,5.210470557E-1,4.890891612E-1
7.628982840E-1,1.013598323E0,4.954807460E-1,4.901544452E-1
7.653860450E-1,8.921582699E-1,4.699144363E-1,4.890891612E-1
7.678738050E-1,7.696529627E-1,4.475438893E-1,4.837628603E-1
7.703615660E-1,6.492781639E-1,4.273038805E-1,4.763059914E-1
7.728493260E-1,5.331644416E-1,4.113249183E-1,4.656533599E-1
7.753370870E-1,4.234423041E-1,4.017375410E-1,4.518049359E-1
7.778248470E-1,3.222422600E-1,3.974764943E-1,4.336954653E-1
7.803126070E-1,2.306295782E-1,3.974764943E-1,4.134554565E-1
7.828003680E-1,1.496695429E-1,4.028028250E-1,3.932154477E-1
7.852881280E-1,7.936213911E-2,4.102596641E-1,3.708449006E-1
7.877758890E-1,2.183790505E-2,4.219775498E-1,3.474090993E-1
7.902636490E-1,-2.290316857E-2,4.368912578E-1,3.239732981E-1
7.927514090E-1,-5.486107618E-2,4.550007284E-1,3.016027808E-1
7.952391700E-1,-7.403582335E-2,4.763059914E-1,2.813627720E-1
7.977269300E-1,-8.149266988E-2,4.997417927E-1,2.632532716E-1
8.002146910E-1,-7.723161578E-2,5.242428780E-1,2.462090552E-1
8.027024510E-1,-6.338318437E-2,5.508744717E-1,2.323606312E-1
8.051902120E-1,-3.675159439E-2,5.785713196E-1,2.217079997E-1
8.076779720E-1,-1.597895520E-3,6.073334217E-1,2.142511457E-1
8.101657320E-1,4.101264849E-2,6.371608377E-1,2.110553533E-1
8.126534930E-1,9.214530140E-2,6.648576856E-1,2.099900991E-1
8.151412530E-1,1.518000662E-1,6.914892793E-1,2.110553533E-1
8.176290140E-1,2.157158852E-1,7.159903049E-1,2.163816839E-1
8.201167740E-1,2.838927507E-1,7.372955680E-1,2.227732539E-1
8.226045340E-1,3.552654386E-1,7.575356364E-1,2.323606312E-1
8.250922950E-1,4.266380966E-1,7.756450772E-1,2.430132627E-1
8.275800550E-1,5.001412630E-1,7.894935012E-1,2.557964325E-1
8.300678160E-1,5.693834424E-1,8.001461625E-1,2.675143182E-1
8.325555760E-1,6.364950538E-1,8.044071794E-1,2.792322338E-1
8.350433370E-1,7.004108429E-1,8.054724932E-1,2.941459119E-1
8.375310970E-1,7.568697929E-1,8.033419251E-1,3.090596199E-1
8.400188570E-1,8.090677261E-1,7.926893234E-1,3.271690905E-1
8.425066180E-1,8.538088202E-1,7.777756453E-1,3.463438451E-1
8.449943780E-1,8.932235837E-1,7.564703226E-1,3.655185997E-1
8.474821390E-1,9.273120165E-1,7.309040427E-1,3.857586086E-1
8.499698990E-1,9.539436102E-1,7.021418810E-1,4.059986174E-1
8.524576590E-1,9.752488732E-1,6.691187024E-1,4.251733422E-1
8.549454200E-1,9.901625514E-1,6.350302696E-1,4.422175586E-1
8.574331800E-1,9.965541363E-1,5.966808200E-1,4.592617750E-1
8.599209410E-1,9.986846447E-1,5.572660565E-1,4.741754830E-1
8.624087010E-1,9.944236279E-1,5.167860389E-1,4.869586527E-1
8.648964620E-1,9.859014750E-1,4.752407372E-1,4.986765385E-1
8.673842220E-1,9.731183648E-1,4.315649271E-1,5.103944540E-1
8.698719820E-1,9.582046270E-1,3.889544010E-1,5.210470557E-1
8.723597430E-1,9.411604404E-1,3.452785909E-1,5.316997170E-1
8.748475030E-1,9.230509400E-1,3.005374968E-1,5.402218103E-1
8.773352640E-1,9.049414396E-1,2.557964325E-1,5.487439036E-1
8.798230240E-1,8.868319988E-1,2.110553533E-1,5.562008023E-1
8.823107840E-1,8.697877526E-1,1.684448123E-1,5.615270734E-1
8.847985450E-1,8.548740745E-1,1.268995255E-1,5.657881498E-1
8.872863050E-1,8.410256505E-1,8.961530030E-2,5.668534040E-1
8.897740660E-1,8.293077350E-1,5.446160212E-2,5.668534040E-1
8.922618260E-1,8.175898194E-1,2.250369452E-2,5.657881498E-1
8.947495870E-1,8.080024719E-1,-5.193160381E-3,5.625923872E-1
8.972373470E-1,7.994803786E-1,-3.182475269E-2,5.572660565E-1
8.997251070E-1,7.930887938E-1,-5.526055023E-2,5.519397259E-1
9.022128680E-1,7.877624631E-1,-7.656582445E-2,5.455481410E-1
9.047006280E-1,7.835013866E-1,-9.467530251E-2,5.380913019E-1
9.071883890E-1,7.792403698E-1,-1.106542572E-1,5.306344628E-1
9.096761490E-1,7.749792933E-1,-1.245026886E-1,5.221123695E-1
9.121639620E-1,7.696529627E-1,-1.362205893E-1,5.125249624E-1
9.146517740E-1,7.653919458E-1,-1.468732208E-1,5.018723607E-1
9.171395870E-1,7.590003610E-1,-1.564605981E-1,4.922849536E-1
9.196273990E-1,7.526087761E-1,-1.671132296E-1,4.816323221E-1
9.221152120E-1,7.430213690E-1,-1.777658761E-1,4.720449448E-1
9.246030240E-1,7.334340215E-1,-1.884185076E-1,4.624575675E-1
9.270908370E-1,7.238466144E-1,-2.001364082E-1,4.528702199E-1
9.295786490E-1,7.121287584E-1,-2.118543088E-1,4.454133511E-1
9.320664620E-1,7.004108429E-1,-2.246374637E-1,4.379565120E-1
9.345542740E-1,6.865624189E-1,-2.374206334E-1,4.326302111E-1
9.370420870E-1,6.716487408E-1,-2.502037883E-1,4.273038805E-1
9.395298990E-1,6.546044946E-1,-2.608564198E-1,4.230428338E-1
9.420177120E-1,6.364950538E-1,-2.693785429E-1,4.198470414E-1
9.445055240E-1,6.173202991E-1,-2.757701278E-1,4.155859649E-1
9.469937010E-1,5.960150361E-1,-2.800311744E-1,4.113249183E-1
9.494816180E-1,5.736444592E-1,-2.810964286E-1,4.081291258E-1
9.519693780E-1,5.512739420E-1,-2.779006660E-1,4.028028250E-1
9.544571390E-1,5.257076025E-1,-2.715090811E-1,3.974764943E-1
9.569448990E-1,4.990760088E-1,-2.619217038E-1,3.921501637E-1
9.594326590E-1,4.703139067E-1,-2.502037883E-1,3.846933246E-1
9.619204200E-1,4.404865205E-1,-2.342248410E-1,3.783017397E-1
9.644081800E-1,4.063980877E-1,-2.161153555E-1,3.708449006E-1
9.668959410E-1,3.712443709E-1,-1.980058849E-1,3.612575233E-1
9.693837010E-1,3.318296373E-1,-1.767006069E-1,3.527354300E-1
9.718714620E-1,2.913496196E-1,-1.575258672E-1,3.431480527E-1
9.743592220E-1,2.487390637E-1,-1.394163817E-1,3.324954212E-1
9.768469820E-1,2.029327303E-1,-1.245026886E-1,3.207775056E-1
9.793347430E-1,1.560611278E-1,-1.117195264E-1,3.069290817E-1
9.818225030E-1,1.091895252E-1,-1.021321490E-1,2.962764502E-1
9.843102640E-1,6.125266105E-2,-9.574057162E-2,2.834932804E-1
9.867981280E-1,1.331579592E-2,-9.147951752E-2,2.728406489E-1
9.892857840E-1,-3.249054030E-2,-8.934898674E-2,2.611227632E-1
9.917734410E-1,-7.723161578E-2,-8.934898674E-2,2.504701018E-1
9.942610970E-1,-1.187768951E-1,-8.828372508E-2,2.408827394E-1
9.967487530E-1,-1.571263820E-1,-8.828372508E-2,2.312953621E-1
9.992364090E-1,-1.922800839E-1,-8.721846342E-2,2.217079997E-1
1.001724066E0,-2.221074700E-1,-8.508793265E-2,2.131858915E-1
1.004211722E0,-2.487390637E-1,-8.189214021E-2,2.046637833E-1
1.006699378E0,-2.700443268E-1,-7.656582445E-2,1.972069293E-1
1.009187034E0,-2.849580348E-1,-7.017423958E-2,1.897500902E-1
1.011674691E0,-2.956106663E-1,-6.271740049E-2,1.844237745E-1
1.014162347E0,-3.030675054E-1,-5.206476152E-2,1.790974438E-1
1.016650003E0,-3.051980436E-1,-4.034686089E-2,1.759016514E-1
1.019137659E0,-3.030675054E-1,-2.649843320E-2,1.737711281E-1
1.021625368E0,-2.966759205E-1,-1.158474199E-2,1.727058738E-1
1.024113128E0,-2.902843356E-1,4.394212738E-3,1.737711281E-1
1.026600941E0,-2.817622423E-1,2.037316747E-2,1.748363972E-1
1.029088753E0,-2.721748650E-1,3.422159329E-2,1.780321896E-1
1.031576566E0,-2.636527419E-1,4.700475931E-2,1.822932363E-1
1.034064378E0,-2.561959028E-1,5.659212917E-2,1.886848211E-1
1.036552191E0,-2.498043180E-1,6.404897571E-2,1.961416751E-1
1.039040003E0,-2.455432713E-1,6.831002980E-2,2.046637833E-1
1.041527816E0,-2.434127480E-1,6.937529147E-2,2.142511457E-1
1.044015628E0,-2.423474789E-1,6.724476814E-2,2.249037921E-1
1.046503441E0,-2.434127480E-1,6.298371404E-2,2.355564237E-1
1.048991253E0,-2.466085255E-1,5.552686751E-2,2.472743243E-1
1.051479066E0,-2.508696020E-1,4.807002097E-2,2.579269707E-1
1.053966878E0,-2.583264410E-1,4.061317816E-2,2.685796022E-1
1.056454691E0,-2.679138184E-1,3.209106624E-2,2.792322338E-1
1.058942503E0,-2.785664499E-1,2.569948509E-2,2.877543271E-1
1.061430316E0,-2.913496196E-1,1.930790395E-2,2.952111959E-1
1.063918128E0,-3.051980436E-1,1.398158539E-2,3.016027808E-1
1.066405941E0,-3.201117218E-1,9.720530361E-3,3.058638275E-1
1.068893753E0,-3.360906839E-1,5.459476262E-3,3.101248741E-1
1.071381566E0,-3.531349003E-1,3.328948980E-3,3.143859208E-1
1.073869378E0,-3.701791167E-1,1.198421582E-3,3.165164590E-1
1.076357191E0,-3.872233331E-1,1.331579551E-4,3.197122514E-1
1.078845003E0,-4.032022953E-1,-1.997369342E-3,3.197122514E-1
1.081332816E0,-4.202465117E-1,-3.062632866E-3,3.207775056E-1
1.083820628E0,-4.351601899E-1,-6.258423906E-3,3.218427896E-1
1.086308441E0,-4.490086138E-1,-9.454214945E-3,3.229080439E-1
1.088796253E0,-4.585959911E-1,-1.371526904E-2,3.239732981E-1
1.091284014E0,-4.660528302E-1,-1.904158667E-2,3.250385821E-1
1.093772712E0,-4.703139067E-1,-2.543316968E-2,3.250385821E-1
1.096259534E0,-4.703139067E-1,-3.075948730E-2,3.271690905E-1
1.098746357E0,-4.660528302E-1,-3.821633384E-2,3.292996287E-1
1.101233232E0,-4.575307369E-1,-4.354264960E-2,3.324954212E-1
1.103720212E0,-4.458128214E-1,-4.886896908E-2,3.346259296E-1
1.106207295E0,-4.308991432E-1,-5.313002318E-2,3.378217220E-1
1.108694534E0,-4.117243886E-1,-5.845634267E-2,3.410175145E-1
1.111181930E0,-3.893538713E-1,-6.271740049E-2,3.442133069E-1
1.113669482E0,-3.627222776E-1,-6.484792382E-2,3.474090993E-1
1.116157191E0,-3.350254297E-1,-6.697845459E-2,3.516701460E-1
1.118645055E0,-3.030675054E-1,-6.697845459E-2,3.559312224E-1
1.121133076E0,-2.711096108E-1,-6.697845459E-2,3.612575233E-1
1.123621201E0,-2.359558940E-1,-6.697845459E-2,3.665838540E-1
1.126109430E0,-2.008021921E-1,-6.697845459E-2,3.729754388E-1
1.128597764E0,-1.635179669E-1,-6.697845459E-2,3.793670237E-1
1.131086149E0,-1.262337416E-1,-6.804371625E-2,3.868238628E-1
1.133574587E0,-8.894951642E-2,-7.017423958E-2,3.953459561E-1
1.136063024E0,-5.273054913E-2,-7.230477035E-2,4.049333334E-1
1.138551462E0,-1.651158556E-2,-7.656582445E-2,4.145207107E-1
1.141039274E0,1.757685095E-2,-7.976161689E-2,4.251733422E-1
1.143527034E0,4.953476042E-2,-8.402267098E-2,4.347607195E-1
1.146014795E0,7.936213911E-2,-8.828372508E-2,4.432828426E-1
1.148502555E0,1.049284711E-1,-9.361004084E-2,4.528702199E-1
1.150990316E0,1.283642650E-1,-9.893636405E-2,4.613923132E-1
1.153478076E0,1.464737505E-1,-1.042626798E-1,4.688491523E-1
1.155965837E0,1.603221744E-1,-1.074584723E-1,4.763059914E-1
1.158453597E0,1.709748209E-1,-1.106542572E-1,4.816323221E-1
1.160941357E0,1.784316599E-1,-1.127847880E-1,4.880239069E-1
1.163429118E0,1.816274524E-1,-1.127847880E-1,4.933502376E-1
1.165916878E0,1.805621833E-1,-1.106542572E-1,4.976112843E-1
1.168404639E0,1.763011366E-1,-1.074584723E-1,5.008070469E-1
1.170892399E0,1.677790284E-1,-1.021321490E-1,5.029376149E-1
1.173380159E0,1.560611278E-1,-9.467530251E-2,5.029376149E-1
1.175867920E0,1.390169114E-1,-8.615319431E-2,5.018723607E-1
1.178355680E0,1.166463718E-1,-7.763108611E-2,4.986765385E-1
1.180843441E0,9.108003974E-2,-6.804371625E-2,4.944154918E-1
1.183331201E0,6.018739566E-2,-5.952160433E-2,4.880239069E-1
1.185818962E0,2.609895915E-2,-5.313002318E-2,4.816323221E-1
1.188306722E0,-1.012000442E-2,-4.673844203E-2,4.752407372E-1
1.190794482E0,-4.740423337E-2,-4.247738793E-2,4.677838981E-1
1.193282243E0,-8.575372398E-2,-3.715106845E-2,4.603270590E-1
1.195770003E0,-1.230379492E-1,-3.182475269E-2,4.528702199E-1
1.198257764E0,-1.592569202E-1,-2.649843320E-2,4.443480968E-1
1.200745524E0,-1.954758763E-1,-2.010685205E-2,4.336954653E-1
1.203233284E0,-2.295643091E-1,-1.478053257E-2,4.219775498E-1
1.205721045E0,-2.625874877E-1,-9.454214945E-3,4.081291258E-1
1.208208805E0,-2.924148738E-1,-5.193160381E-3,3.932154477E-1
1.210696566E0,-3.201117218E-1,1.198421582E-3,3.751059473E-1
1.213184326E0,-3.456780612E-1,5.459476262E-3,3.559312224E-1
1.215672087E0,-3.680485785E-1,8.655266836E-3,3.346259296E-1
1.218159847E0,-3.882885873E-1,1.185105834E-2,3.143859208E-1
1.220647607E0,-4.032022953E-1,1.291632187E-2,2.930806577E-1
1.223135368E0,-4.170507193E-1,1.291632187E-2,2.717753947E-1
1.225623128E0,-4.266380966E-1,1.185105834E-2,2.504701018E-1
1.228110889E0,-4.340949357E-1,9.720530361E-3,2.302301079E-1
1.230598649E0,-4.372907281E-1,6.524739787E-3,2.110553533E-1
1.233086409E0,-4.383559823E-1,3.328948980E-3,1.908153445E-1
1.235574170E0,-4.372907281E-1,1.198421582E-3,1.716406047E-1
1.238061930E0,-4.351601899E-1,-1.997369342E-3,1.524658650E-1
1.240549691E0,-4.298338890E-1,-5.193160381E-3,1.322258562E-1
1.243037451E0,-4.245075583E-1,-7.323687430E-3,1.141163707E-1
1.245525212E0,-4.170507193E-1,-9.454214945E-3,9.494162351E-2
1.248012972E0,-4.074633420E-1,-1.158474199E-2,7.683213800E-2
1.250500732E0,-3.978759646E-1,-1.158474199E-2,6.085318699E-2
1.252988493E0,-3.872233331E-1,-1.051947847E-2,4.487423226E-2
1.255476253E0,-3.755054474E-1,-7.323687430E-3,3.102580272E-2
1.257964014E0,-3.637875319E-1,-4.127896391E-3,1.930790395E-2
1.260451774E0,-3.520696461E-1,1.331579551E-4,8.655266836E-3
1.262939534E0,-3.403517306E-1,6.524739787E-3,-9.321057005E-4
1.265427295E0,-3.307643533E-1,1.185105834E-2,-7.323687430E-3
1.267915055E0,-3.201117218E-1,1.824264042E-2,-1.371526904E-2
1.270402816E0,-3.105243444E-1,2.356895804E-2,-1.691105962E-2
1.272890576E0,-3.030675054E-1,2.996053919E-2,-1.904158667E-2
1.275378337E0,-2.956106663E-1,3.528685868E-2,-1.904158667E-2
1.277866097E0,-2.881538272E-1,4.061317816E-2,-1.797632314E-2
1.280353857E0,-2.838927507E-1,4.593949392E-2,-1.478053257E-2
1.282841618E0,-2.796317041E-1,4.913528636E-2,-1.051947847E-2
1.285329378E0,-2.775011659E-1,5.233107507E-2,-5.193160381E-3
1.287817139E0,-2.764359117E-1,5.552686751E-2,2.263685223E-3
1.290304899E0,-2.753706574E-1,5.872265995E-2,1.078579482E-2
1.292792659E0,-2.753706574E-1,6.191844866E-2,1.930790395E-2
1.295280420E0,-2.743053734E-1,6.511423737E-2,2.783001214E-2
1.297768180E0,-2.743053734E-1,6.724476814E-2,3.741738573E-2
1.300255941E0,-2.743053734E-1,7.044056058E-2,4.700475931E-2
1.302743701E0,-2.743053734E-1,7.150582224E-2,5.659212917E-2
1.305231462E0,-2.732401192E-1,7.257108390E-2,6.724476814E-2
1.307719222E0,-2.732401192E-1,7.257108390E-2,7.683213800E-2
1.310206982E0,-2.732401192E-1,7.150582224E-2,8.855003864E-2
1.312694743E0,-2.732401192E-1,6.937529147E-2,9.920267761E-2
1.315182503E0,-2.743053734E-1,6.831002980E-2,1.098553166E-1
1.317670264E0,-2.753706574E-1,6.617950648E-2,1.183774248E-1
1.320158024E0,-2.775011659E-1,6.404897571E-2,1.258342713E-1
1.322645784E0,-2.817622423E-1,6.191844866E-2,1.311605871E-1
1.325133545E0,-2.870885432E-1,5.872265995E-2,1.364869028E-1
1.327621305E0,-2.934801280E-1,5.552686751E-2,1.375521719E-1
1.330109066E0,-3.020022511E-1,5.126581341E-2,1.375521719E-1
1.332596826E0,-3.083938360E-1,4.487423226E-2,1.354216337E-1
1.335084587E0,-3.169159293E-1,3.635212034E-2,1.322258562E-1
1.337572347E0,-3.254380524E-1,2.676474862E-2,1.279647946E-1
1.340060107E0,-3.318296373E-1,1.611211337E-2,1.215732098E-1
1.342547868E0,-3.382211924E-1,4.394212738E-3,1.141163707E-1
1.345035628E0,-3.456780612E-1,-8.388951421E-3,1.066595241E-1
1.347523389E0,-3.510043621E-1,-2.117211558E-2,9.707214683E-2
1.350011149E0,-3.573959470E-1,-3.395527974E-2,8.748477697E-2
1.352498909E0,-3.627222776E-1,-4.567318037E-2,7.683213800E-2
1.354986670E0,-3.669833243E-1,-5.845634267E-2,6.617950648E-2
1.357474430E0,-3.712443709E-1,-7.017423958E-2,5.552686751E-2
1.359962191E0,-3.733749092E-1,-8.189214021E-2,4.593949392E-2
1.362449951E0,-3.723096550E-1,-9.467530251E-2,3.741738573E-2
1.364937712E0,-3.701791167E-1,-1.074584723E-1,2.996053919E-2
1.367425472E0,-3.648527861E-1,-1.191763729E-1,2.356895804E-2
1.369913232E0,-3.563306928E-1,-1.298290044E-1,1.717737690E-2
1.372400993E0,-3.467433155E-1,-1.383511126E-1,1.398158539E-2
1.374888753E0,-3.328948915E-1,-1.458079666E-1,1.185105834E-2
1.377376514E0,-3.158506751E-1,-1.500690132E-1,9.720530361E-3
1.379864274E0,-2.966759205E-1,-1.521995366E-1,1.078579482E-2
1.382352034E0,-2.743053734E-1,-1.521995366E-1,1.185105834E-2
1.384839795E0,-2.498043180E-1,-1.511342824E-1,1.504684892E-2
1.387327555E0,-2.221074700E-1,-1.490037590E-1,1.930790395E-2
1.389815316E0,-1.933453530E-1,-1.458079666E-1,2.676474862E-2
1.392303076E0,-1.635179669E-1,-1.404816359E-1,3.422159329E-2
1.394790837E0,-1.326253265E-1,-1.340900660E-1,4.380896688E-2
1.397278597E0,-1.017326787E-1,-1.287637353E-1,5.446160212E-2
1.399766357E0,-7.297056168E-2,-1.202416345E-1,6.511423737E-2
1.402254118E0,-4.633896798E-2,-1.106542572E-1,7.683213800E-2
1.404741878E0,-2.077264152E-2,-1.000016257E-1,8.961530030E-2
1.407229639E0,5.326318205E-4,-8.721846342E-2,1.034637317E-1
1.409717399E0,1.864211448E-2,-7.550056279E-2,1.173121557E-1
1.412205159E0,3.249054030E-2,-6.165213138E-2,1.311605871E-1
1.414692920E0,4.314317927E-2,-4.780370742E-2,1.439437568E-1
1.417180680E0,4.846949503E-2,-3.289001435E-2,1.577921808E-1
1.419668441E0,4.953476042E-2,-1.691105962E-2,1.695100814E-1
1.422156201E0,4.527370632E-2,-1.997369342E-3,1.790974438E-1
1.424643962E0,3.568633273E-2,1.291632187E-2,1.876195520E-1
1.427131722E0,1.970737800E-2,2.676474862E-2,1.940111369E-1
1.429619482E0,-5.326318205E-4,3.848264739E-2,2.004027218E-1
1.432107243E0,-2.716422267E-2,4.700475931E-2,2.046637833E-1
1.434595003E0,-5.805686861E-2,5.446160212E-2,2.067943066E-1
1.437082764E0,-9.427583218E-2,5.765739456E-2,2.078595608E-1
1.439570524E0,-1.315600574E-1,5.872265995E-2,2.067943066E-1
1.442058284E0,-1.720400751E-1,5.552686751E-2,2.046637833E-1
1.444546045E0,-2.135853618E-1,4.913528636E-2,2.025332451E-1
1.447033805E0,-2.551306486E-1,3.954791278E-2,1.982721984E-1
1.449521566E0,-2.966759205E-1,2.569948509E-2,1.929458827E-1
1.452009326E0,-3.371559381E-1,1.078579482E-2,1.865542978E-1
1.454497087E0,-3.744401634E-1,-7.323687430E-3,1.790974438E-1
1.456984847E0,-4.085285962E-1,-2.436790615E-2,1.705753356E-1
1.459472607E0,-4.383559823E-1,-4.034686089E-2,1.620532274E-1
1.461960368E0,-4.649875760E-1,-5.632581562E-2,1.524658650E-1
1.464448128E0,-4.852275848E-1,-7.017423958E-2,1.428784877E-1
1.466935889E0,-5.012065172E-1,-8.295740932E-2,1.322258562E-1
1.469423649E0,-5.118591785E-1,-9.361004084E-2,1.226384789E-1
1.471911409E0,-5.171855092E-1,-1.010668874E-1,1.130511016E-1
1.474399170E0,-5.182507634E-1,-1.053279415E-1,1.045289934E-1
1.476886930E0,-5.129244328E-1,-1.053279415E-1,9.813741595E-2
1.479374691E0,-5.033370852E-1,-1.021321490E-1,9.068056941E-2
1.481862451E0,-4.894886315E-1,-9.574057162E-2,8.535424620E-2
1.484350212E0,-4.713791609E-1,-8.615319431E-2,8.109319210E-2
1.486837972E0,-4.490086138E-1,-7.443529367E-2,7.789740711E-2
1.489325732E0,-4.245075583E-1,-6.058686972E-2,7.576687634E-2
1.491813493E0,-3.968107104E-1,-4.354264960E-2,7.576687634E-2
1.494301253E0,-3.680485785E-1,-2.543316968E-2,7.683213800E-2
1.496789014E0,-3.371559381E-1,-4.127896391E-3,8.002793044E-2
1.499276774E0,-3.062632978E-1,1.717737690E-2,8.428898454E-2
1.501764534E0,-2.753706574E-1,3.848264739E-2,8.855003864E-2
1.504252295E0,-2.444780022E-1,5.978792161E-2,9.494162351E-2
1.506740055E0,-2.146506310E-1,8.002793044E-2,1.013332009E-1
1.509227816E0,-1.869537681E-1,9.813741595E-2,1.098553166E-1
1.511715576E0,-1.613874435E-1,1.130511016E-1,1.173121557E-1
1.514203337E0,-1.390169114E-1,1.247690022E-1,1.268995255E-1
1.516691097E0,-1.198421568E-1,1.332911104E-1,1.364869028E-1
1.519178857E0,-1.038632020E-1,1.386174262E-1,1.450090110E-1
1.521666618E0,-9.001477808E-2,1.396826953E-1,1.545963883E-1
1.524154378E0,-8.042740822E-2,1.386174262E-1,1.641837656E-1
1.526642139E0,-7.297056168E-2,1.343563795E-1,1.727058738E-1
1.529129899E0,-6.977476925E-2,1.268995255E-1,1.790974438E-1
1.531617659E0,-6.764423847E-2,1.183774248E-1,1.844237745E-1
1.534105420E0,-6.764423847E-2,1.077247858E-1,1.886848211E-1
1.536593180E0,-6.977476925E-2,9.707214683E-2,1.897500902E-1
1.539080941E0,-7.510108501E-2,8.428898454E-2,1.886848211E-1
1.541568701E0,-8.149266988E-2,7.044056058E-2,1.844237745E-1
1.544056462E0,-8.788424730E-2,5.552686751E-2,1.790974438E-1
1.546544222E0,-9.534109384E-2,3.848264739E-2,1.716406047E-1
1.549031982E0,-1.027979404E-1,2.143843099E-2,1.620532274E-1
1.551519743E0,-1.113200486E-1,3.328948980E-3,1.503353268E-1
1.554007503E0,-1.187768951E-1,-1.691105962E-2,1.386174262E-1
1.556495264E0,-1.262337416E-1,-3.715106845E-2,1.258342713E-1
1.558983024E0,-1.336905807E-1,-6.058686972E-2,1.130511016E-1
1.561470784E0,-1.400821656E-1,-8.508793265E-2,9.813741595E-2
1.563958545E0,-1.454084814E-1,-1.106542572E-1,8.215846121E-2
1.566446305E0,-1.496695429E-1,-1.351553202E-1,6.724476814E-2
1.568934066E0,-1.528653353E-1,-1.607216448E-1,5.233107507E-2
1.571421826E0,-1.528653353E-1,-1.862879843E-1,3.848264739E-2
1.573909587E0,-1.507348120E-1,-2.086585164E-1,2.463422157E-2
1.576397347E0,-1.454084814E-1,-2.310290486E-1,1.185105834E-2
1.578885107E0,-1.379516423E-1,-2.491385341E-1,-9.321057005E-4
1.581372868E0,-1.283642650E-1,-2.629869580E-1,-1.051947847E-2
1.583860628E0,-1.166463718E-1,-2.747048736E-1,-2.010685205E-2
1.586348389E0,-1.027979404E-1,-2.821617126E-1,-2.756369673E-2
1.588836149E0,-8.681898564E-2,-2.853575051E-1,-3.395527974E-2
1.591323909E0,-6.870950758E-2,-2.842922211E-1,-3.928159550E-2
1.593812347E0,-4.953476042E-2,-2.810964286E-1,-4.460791498E-2
1.596300003E0,-3.036001325E-2,-2.747048736E-1,-4.780370742E-2
1.598787659E0,-1.012000442E-2,-2.661827505E-1,-4.993423447E-2
1.601275316E0,1.012000442E-2,-2.555301189E-1,-4.993423447E-2
1.603762972E0,2.929474972E-2,-2.438122183E-1,-4.886896908E-2
1.606250628E0,4.846949503E-2,-2.288985252E-1,-4.673844203E-2
1.608738284E0,6.764423847E-2,-2.139848322E-1,-4.354264960E-2
1.611225941E0,8.681898564E-2,-1.980058849E-1,-3.928159550E-2
1.613713597E0,1.049284711E-1,-1.820269227E-1,-3.395527974E-2
1.616201253E0,1.219726875E-1,-1.671132296E-1,-2.756369673E-2
1.618688909E0,1.379516423E-1,-1.532648057E-1,-1.904158667E-2
1.621176566E0,1.518000662E-1,-1.404816359E-1,-1.051947847E-2
1.623664222E0,1.645832360E-1,-1.287637353E-1,-1.997369342E-3
1.626151930E0,1.763011366E-1,-1.181111038E-1,8.655266836E-3
1.628639691E0,1.869537681E-1,-1.074584723E-1,1.930790395E-2
1.631127503E0,1.944106072E-1,-9.893636405E-2,2.889527567E-2
1.633615316E0,2.018674612E-1,-9.041424841E-2,3.848264739E-2
1.636103128E0,2.082590461E-1,-8.295740932E-2,4.700475931E-2
1.638590941E0,2.125200927E-1,-7.550056279E-2,5.446160212E-2
1.641078753E0,2.146506310E-1,-6.910897791E-2,6.085318699E-2
1.643566566E0,2.157158852E-1,-6.271740049E-2,6.511423737E-2
1.646054378E0,2.167811543E-1,-5.845634267E-2,6.831002980E-2
1.648542191E0,2.146506310E-1,-5.632581562E-2,6.937529147E-2
1.651030003E0,2.103895694E-1,-5.632581562E-2,7.044056058E-2
1.653517816E0,2.039979845E-1,-5.845634267E-2,7.044056058E-2
1.656005628E0,1.965411454E-1,-6.165213138E-2,6.937529147E-2
1.658493441E0,1.869537681E-1,-6.697845459E-2,6.724476814E-2
1.660981253E0,1.741705984E-1,-7.443529367E-2,6.511423737E-2
1.663469066E0,1.581916511E-1,-8.295740932E-2,6.085318699E-2
1.665956878E0,1.411474347E-1,-9.147951752E-2,5.552686751E-2
1.668444691E0,1.219726875E-1,-1.000016257E-1,5.020054802E-2
1.670932503E0,1.017326787E-1,-1.095889956E-1,4.167843983E-2
1.673420316E0,8.042740822E-2,-1.181111038E-1,3.422159329E-2
1.675908128E0,5.912213027E-2,-1.266332120E-1,2.463422157E-2
1.678395941E0,3.781685978E-2,-1.340900660E-1,1.504684892E-2
1.680883753E0,1.864211448E-2,-1.426121742E-1,4.394212738E-3
1.683371566E0,-5.326318205E-4,-1.490037590E-1,-5.193160381E-3
1.685859378E0,-1.757685095E-2,-1.543300748E-1,-1.478053257E-2
1.688347191E0,-3.249054030E-2,-1.596563905E-1,-2.330264263E-2
1.690835003E0,-4.420844093E-2,-1.639174372E-1,-3.182475269E-2
1.693322816E0,-5.379581451E-2,-1.649827063E-1,-3.821633384E-2
1.695810628E0,-6.018739566E-2,-1.649827063E-1,-4.460791498E-2
1.698298389E0,-6.551371515E-2,-1.639174372E-1,-4.886896908E-2
1.700786149E0,-6.657897681E-2,-1.607216448E-1,-5.206476152E-2
1.703273909E0,-6.444845349E-2,-1.553953290E-1,-5.526055023E-2
1.705761670E0,-5.912213027E-2,-1.479384899E-1,-5.845634267E-2
1.708249430E0,-5.060002208E-2,-1.383511126E-1,-5.845634267E-2
1.710737191E0,-3.994738683E-2,-1.266332120E-1,-5.845634267E-2
1.713224951E0,-2.609895915E-2,-1.127847880E-1,-5.739107728E-2
1.715712712E0,-1.012000442E-2,-9.574057162E-2,-5.419528857E-2
1.718200472E0,9.054740891E-3,-7.763108611E-2,-5.313002318E-2
1.720688232E0,2.929474972E-2,-5.632581562E-2,-4.993423447E-2
1.723175993E0,5.060002208E-2,-3.182475269E-2,-4.673844203E-2
1.725663753E0,7.297056168E-2,-6.258423906E-3,-4.354264960E-2
1.728151514E0,9.321057051E-2,2.037316747E-2,-3.928159550E-2
1.730639274E0,1.123853177E-1,4.700475931E-2,-3.395527974E-2
1.733127034E0,1.272990108E-1,7.257108390E-2,-2.862896025E-2
1.735614795E0,1.400821656E-1,9.494162351E-2,-2.330264263E-2
1.738102555E0,1.486042738E-1,1.151816323E-1,-1.584579609E-2
1.740590316E0,1.528653353E-1,1.332911104E-1,-9.454214945E-3
1.743078076E0,1.549958587E-1,1.460742801E-1,-1.997369342E-3
1.745565837E0,1.518000662E-1,1.567269117E-1,5.459476262E-3
1.748053597E0,1.464737505E-1,1.641837656E-1,1.291632187E-2
1.750541357E0,1.358211190E-1,1.684448123E-1,2.037316747E-2
1.753029118E0,1.219726875E-1,1.695100814E-1,2.783001214E-2
1.755516878E0,1.059937328E-1,1.673795432E-1,3.528685868E-2
1.758004639E0,8.894951642E-2,1.652490199E-1,4.167843983E-2
1.760492399E0,6.977476925E-2,1.609879732E-1,4.700475931E-2
1.762980159E0,5.166528746E-2,1.556616426E-1,5.126581341E-2
1.765467920E0,3.355580568E-2,1.503353268E-1,5.446160212E-2
1.767955680E0,1.651158556E-2,1.450090110E-1,5.765739456E-2
1.770443441E0,1.597895520E-3,1.396826953E-1,5.978792161E-2
1.772931201E0,-1.118526794E-2,1.354216337E-1,5.978792161E-2
1.775418962E0,-2.183790505E-2,1.311605871E-1,5.978792161E-2
1.777906722E0,-3.249054030E-2,1.279647946E-1,5.872265995E-2
1.780394482E0,-3.888212144E-2,1.237037405E-1,5.552686751E-2
1.782882243E0,-4.420844093E-2,1.215732098E-1,5.339634046E-2
1.785370003E0,-4.740423337E-2,1.194426864E-1,5.020054802E-2
1.787857764E0,-4.740423337E-2,1.173121557E-1,4.807002097E-2
1.790345524E0,-4.527370632E-2,1.141163707E-1,4.700475931E-2
1.792833284E0,-3.994738683E-2,1.109205782E-1,4.700475931E-2
1.795321045E0,-3.249054030E-2,1.098553166E-1,4.807002097E-2
1.797808805E0,-2.183790505E-2,1.087900475E-1,4.913528636E-2
1.800296566E0,-1.012000442E-2,1.098553166E-1,5.020054802E-2
1.802784326E0,3.728422802E-3,1.119858399E-1,5.339634046E-2
1.805272087E0,1.757685095E-2,1.162468940E-1,5.765739456E-2
1.807759847E0,3.249054030E-2,1.226384789E-1,6.191844866E-2
1.810247607E0,4.846949503E-2,1.300953180E-1,6.511423737E-2
1.812735368E0,6.551371515E-2,1.386174262E-1,6.831002980E-2
1.815223128E0,8.042740822E-2,1.471395344E-1,7.257108390E-2
1.817710889E0,9.534109384E-2,1.556616426E-1,7.576687634E-2
1.820198649E0,1.081242561E-1,1.652490199E-1,7.896266878E-2
1.822686409E0,1.198421568E-1,1.748363972E-1,8.109319210E-2
1.825174170E0,1.294295341E-1,1.844237745E-1,8.322372288E-2
1.827661930E0,1.368863732E-1,1.940111369E-1,8.322372288E-2
1.830149691E0,1.422126889E-1,2.035985142E-1,8.322372288E-2
1.832637451E0,1.454084814E-1,2.142511457E-1,8.002793044E-2
1.835125212E0,1.464737505E-1,2.227732539E-1,7.683213800E-2
1.837612972E0,1.454084814E-1,2.312953621E-1,7.150582224E-2
1.840100732E0,1.432779580E-1,2.366216928E-1,6.511423737E-2
1.842588493E0,1.379516423E-1,2.398174703E-1,5.659212917E-2
1.845076253E0,1.315600574E-1,2.408827394E-1,4.593949392E-2
1.847564014E0,1.219726875E-1,2.398174703E-1,3.422159329E-2
1.850051774E0,1.102547869E-1,2.376869470E-1,2.250369452E-2
1.852539534E0,9.640636295E-2,2.334259003E-1,8.655266836E-3
1.855027295E0,8.149266988E-2,2.270343155E-1,-5.193160381E-3
1.857515055E0,6.338318437E-2,2.174469382E-1,-2.010685205E-2
1.860002816E0,4.527370632E-2,2.067943066E-1,-3.502054140E-2
1.862490576E0,2.609895915E-2,1.940111369E-1,-4.993423447E-2
1.864978337E0,6.924213842E-3,1.801627129E-1,-6.378266215E-2
1.867466097E0,-1.331579592E-2,1.641837656E-1,-7.763108611E-2
1.869953857E0,-3.142527863E-2,1.471395344E-1,-9.147951752E-2
1.872441618E0,-4.953476042E-2,1.300953180E-1,-1.053279415E-1
1.874929378E0,-6.551371515E-2,1.141163707E-1,-1.181111038E-1
1.877417139E0,-7.936213911E-2,9.813741595E-2,-1.298290044E-1
1.879904899E0,-9.321057051E-2,8.322372288E-2,-1.404816359E-1
1.882392659E0,-1.038632020E-1,7.044056058E-2,-1.500690132E-1
1.884880420E0,-1.134505793E-1,5.765739456E-2,-1.596563905E-1
1.887368180E0,-1.219726875E-1,4.700475931E-2,-1.681784987E-1
1.889855941E0,-1.272990108E-1,3.848264739E-2,-1.767006069E-1
1.892343701E0,-1.304948032E-1,3.102580272E-2,-1.841574460E-1
1.894831462E0,-1.326253265E-1,2.676474862E-2,-1.894837767E-1
1.897319222E0,-1.315600574E-1,2.356895804E-2,-1.937448233E-1
1.899806982E0,-1.272990108E-1,1.930790395E-2,-1.969406158E-1
1.902294743E0,-1.198421568E-1,1.824264042E-2,-1.990711391E-1
1.904782503E0,-1.091895252E-1,1.717737690E-2,-1.990711391E-1
1.907270264E0,-9.640636295E-2,1.717737690E-2,-1.980058849E-1
1.909758024E0,-8.042740822E-2,1.717737690E-2,-1.958753467E-1
1.912245784E0,-6.338318437E-2,1.824264042E-2,-1.916143000E-1
1.914733545E0,-4.420844093E-2,1.930790395E-2,-1.873532385E-1
1.917221305E0,-2.609895915E-2,2.037316747E-2,-1.830921918E-1
1.919709066E0,-5.858949851E-3,2.143843099E-2,-1.777658761E-1
1.922196826E0,1.331579592E-2,2.143843099E-2,-1.724395454E-1
1.924684587E0,3.355580568E-2,2.143843099E-2,-1.671132296E-1
1.927172347E0,5.273054913E-2,2.143843099E-2,-1.617869139E-1
1.929660107E0,7.190529257E-2,2.143843099E-2,-1.564605981E-1
1.932147868E0,9.108003974E-2,2.143843099E-2,-1.511342824E-1
1.934635628E0,1.091895252E-1,2.143843099E-2,-1.447426975E-1
1.937123389E0,1.272990108E-1,2.250369452E-2,-1.394163817E-1
1.939611149E0,1.454084814E-1,2.356895804E-2,-1.351553202E-1
1.942098909E0,1.613874435E-1,2.676474862E-2,-1.308942735E-1
1.944586670E0,1.763011366E-1,2.889527567E-2,-1.276984811E-1
1.947074430E0,1.901495606E-1,3.315633163E-2,-1.255679578E-1
1.949562191E0,2.008021921E-1,3.741738573E-2,-1.223721579E-1
1.952049951E0,2.093243003E-1,4.061317816E-2,-1.202416345E-1
1.954537712E0,2.146506310E-1,4.274370521E-2,-1.170458421E-1
1.957025472E0,2.167811543E-1,4.487423226E-2,-1.138500497E-1
1.959513232E0,2.146506310E-1,4.593949392E-2,-1.117195264E-1
1.962000993E0,2.082590461E-1,4.700475931E-2,-1.074584723E-1
1.964488753E0,1.986716688E-1,4.593949392E-2,-1.053279415E-1
1.966976514E0,1.837579757E-1,4.380896688E-2,-1.031974182E-1
1.969464274E0,1.656484902E-1,4.167843983E-2,-1.021321490E-1
1.971952034E0,1.432779580E-1,3.635212034E-2,-1.021321490E-1
1.974439795E0,1.187768951E-1,3.102580272E-2,-1.010668874E-1
1.976927555E0,9.108003974E-2,2.463422157E-2,-1.021321490E-1
1.979415316E0,6.231792271E-2,1.824264042E-2,-1.031974182E-1
1.981903076E0,3.142527863E-2,1.185105834E-2,-1.042626798E-1
1.984390837E0,1.597895520E-3,4.394212738E-3,-1.053279415E-1
1.986878597E0,-2.929474972E-2,-1.997369342E-3,-1.063932031E-1
1.989366357E0,-6.125266105E-2,-8.388951421E-3,-1.085237339E-1
1.991854118E0,-9.214530140E-2,-1.478053257E-2,-1.106542572E-1
1.994341878E0,-1.230379492E-1,-2.117211558E-2,-1.138500497E-1
1.996829639E0,-1.518000662E-1,-2.756369673E-2,-1.159805804E-1
1.999317399E0,-1.784316599E-1,-3.395527974E-2,-1.181111038E-1
2.001805159E0,-2.029327303E-1,-3.928159550E-2,-1.202416345E-1
2.004292920E0,-2.242379934E-1,-4.354264960E-2,-1.213068962E-1
2.006780680E0,-2.423474789E-1,-4.780370742E-2,-1.213068962E-1
2.009268441E0,-2.572611570E-1,-5.099949613E-2,-1.213068962E-1
2.011756201E0,-2.689790726E-1,-5.313002318E-2,-1.202416345E-1
2.014243962E0,-2.764359117E-1,-5.206476152E-2,-1.170458421E-1
2.016731722E0,-2.785664499E-1,-4.993423447E-2,-1.149153188E-1
2.019219482E0,-2.785664499E-1,-4.460791498E-2,-1.117195264E-1
2.021707243E0,-2.743053734E-1,-3.715106845E-2,-1.074584723E-1
2.024195003E0,-2.657832801E-1,-2.756369673E-2,-1.031974182E-1
2.026682764E0,-2.551306486E-1,-1.584579609E-2,-9.893636405E-2
2.029170524E0,-2.412822098E-1,-3.062632866E-3,-9.467530251E-2
2.031658284E0,-2.242379934E-1,1.078579482E-2,-8.934898674E-2
2.034146045E0,-2.061285079E-1,2.463422157E-2,-8.295740932E-2
2.036633805E0,-1.858884990E-1,3.848264739E-2,-7.763108611E-2
2.039121566E0,-1.656484902E-1,5.233107507E-2,-7.230477035E-2
2.041609326E0,-1.475390196E-1,6.511423737E-2,-6.804371625E-2
2.044097087E0,-1.304948032E-1,7.789740711E-2,-6.378266215E-2
2.046584847E0,-1.155811027E-1,8.748477697E-2,-6.165213138E-2
2.049072607E0,-1.027979404E-1,9.707214683E-2,-5.952160433E-2
2.051560368E0,-9.108003974E-2,1.045289934E-1,-5.845634267E-2
2.054048128E0,-8.362319320E-2,1.109205782E-1,-5.739107728E-2
2.056535889E0,-7.829687744E-2,1.151816323E-1,-5.739107728E-2
2.059023649E0,-7.616634667E-2,1.183774248E-1,-5.845634267E-2
2.061511409E0,-7.723161578E-2,1.194426864E-1,-5.952160433E-2
2.063999170E0,-8.255793154E-2,1.205079481E-1,-6.165213138E-2
2.066486930E0,-9.001477808E-2,1.194426864E-1,-6.378266215E-2
2.068974691E0,-1.006674170E-1,1.162468940E-1,-6.697845459E-2
2.071462451E0,-1.155811027E-1,1.119858399E-1,-7.017423958E-2
2.073950212E0,-1.315600574E-1,1.066595241E-1,-7.443529367E-2
2.076437972E0,-1.486042738E-1,1.023984700E-1,-7.869634777E-2
2.078925732E0,-1.667137593E-1,9.600688517E-2,-8.402267098E-2
2.081413493E0,-1.848232448E-1,9.068056941E-2,-8.828372508E-2
2.083901253E0,-2.018674612E-1,8.428898454E-2,-9.361004084E-2
2.086389014E0,-2.178464085E-1,8.002793044E-2,-9.787109494E-2
2.088876774E0,-2.327601016E-1,7.576687634E-2,-1.021321490E-1
2.091364534E0,-2.466085255E-1,7.150582224E-2,-1.074584723E-1
2.093852295E0,-2.583264410E-1,6.831002980E-2,-1.117195264E-1
2.096340055E0,-2.689790726E-1,6.511423737E-2,-1.159805804E-1
2.098827816E0,-2.785664499E-1,6.191844866E-2,-1.202416345E-1
2.101315576E0,-2.849580348E-1,5.659212917E-2,-1.234374270E-1
2.103803337E0,-2.902843356E-1,5.233107507E-2,-1.255679578E-1
2.106291097E0,-2.934801280E-1,4.700475931E-2,-1.276984811E-1
2.108778857E0,-2.945453823E-1,4.061317816E-2,-1.287637353E-1
2.111266618E0,-2.913496196E-1,3.315633163E-2,-1.298290044E-1
2.113754378E0,-2.870885432E-1,2.676474862E-2,-1.287637353E-1
2.116242139E0,-2.796317041E-1,1.930790395E-2,-1.276984811E-1
2.118729899E0,-2.689790726E-1,1.291632187E-2,-1.266332120E-1
2.121217659E0,-2.540653646E-1,7.590003312E-3,-1.234374270E-1
2.123705420E0,-2.348906398E-1,4.394212738E-3,-1.213068962E-1
2.126193180E0,-2.125200927E-1,2.263685223E-3,-1.159805804E-1
2.128680941E0,-1.880190372E-1,1.198421582E-3,-1.117195264E-1
2.131168701E0,-1.603221744E-1,2.263685223E-3,-1.042626798E-1
2.133656462E0,-1.304948032E-1,4.394212738E-3,-9.893636405E-2
2.136144222E0,-9.960214794E-2,8.655266836E-3,-9.147951752E-2
2.138631982E0,-6.764423847E-2,1.291632187E-2,-8.402267098E-2
2.141119743E0,-3.462106735E-2,1.824264042E-2,-7.656582445E-2
2.143607503E0,-3.728422802E-3,2.356895804E-2,-6.910897791E-2
2.146095264E0,2.716422267E-2,2.783001214E-2,-6.165213138E-2
2.148583024E0,5.592634156E-2,3.209106624E-2,-5.632581562E-2
2.151070784E0,8.255793154E-2,3.528685868E-2,-5.099949613E-2
2.153558545E0,1.070589945E-1,3.741738573E-2,-4.567318037E-2
2.156046305E0,1.294295341E-1,3.954791278E-2,-4.141212255E-2
2.158534066E0,1.475390196E-1,4.061317816E-2,-3.928159550E-2
2.161021826E0,1.624527127E-1,4.274370521E-2,-3.715106845E-2
2.163509587E0,1.741705984E-1,4.380896688E-2,-3.608580679E-2
2.165997347E0,1.816274524E-1,4.487423226E-2,-3.715106845E-2
2.168485107E0,1.869537681E-1,4.593949392E-2,-3.821633384E-2
2.170972868E0,1.880190372E-1,4.700475931E-2,-4.034686089E-2
2.173460628E0,1.858884990E-1,4.700475931E-2,-4.567318037E-2
2.175948389E0,1.805621833E-1,4.807002097E-2,-5.206476152E-2
2.178436149E0,1.699095517E-1,4.807002097E-2,-5.845634267E-2
2.180923909E0,1.571263820E-1,4.913528636E-2,-6.804371625E-2
2.183411670E0,1.400821656E-1,4.807002097E-2,-7.656582445E-2
2.185899430E0,1.187768951E-1,4.807002097E-2,-8.721846342E-2
2.188387191E0,9.640636295E-2,4.593949392E-2,-9.893636405E-2
2.190874951E0,6.977476925E-2,4.274370521E-2,-1.106542572E-1
2.193362712E0,4.207791388E-2,3.741738573E-2,-1.213068962E-1
2.195850472E0,1.331579592E-2,2.996053919E-2,-1.319595277E-1
2.198338232E0,-1.544632297E-2,2.250369452E-2,-1.415469050E-1
2.200825993E0,-4.527370632E-2,1.291632187E-2,-1.521995366E-1
2.203313753E0,-7.403582335E-2,3.328948980E-3,-1.617869139E-1
2.205801514E0,-1.027979404E-1,-6.258423906E-3,-1.713742912E-1
2.208289274E0,-1.294295341E-1,-1.584579609E-2,-1.809616536E-1
2.210777087E0,-1.549958587E-1,-2.436790615E-2,-1.884185076E-1
2.213264899E0,-1.773663908E-1,-3.182475269E-2,-1.958753467E-1
2.215752712E0,-1.986716688E-1,-3.928159550E-2,-2.001364082E-1
2.218240524E0,-2.167811543E-1,-4.567318037E-2,-2.033322006E-1
2.220728337E0,-2.306295782E-1,-5.099949613E-2,-2.054627240E-1
2.223216149E0,-2.412822098E-1,-5.526055023E-2,-2.054627240E-1
2.225703962E0,-2.487390637E-1,-5.952160433E-2,-2.043974549E-1
2.228191774E0,-2.508696020E-1,-6.165213138E-2,-2.001364082E-1
2.230679587E0,-2.498043180E-1,-6.271740049E-2,-1.948100924E-1
2.233167399E0,-2.434127480E-1,-6.271740049E-2,-1.884185076E-1
2.235655212E0,-2.327601016E-1,-6.271740049E-2,-1.798963994E-1
2.238143024E0,-2.189116776E-1,-6.165213138E-2,-1.713742912E-1
2.240630837E0,-2.008021921E-1,-5.952160433E-2,-1.607216448E-1
2.243118649E0,-1.805621833E-1,-5.632581562E-2,-1.490037590E-1
2.245606462E0,-1.581916511E-1,-5.419528857E-2,-1.372858584E-1
2.248094274E0,-1.347558498E-1,-5.099949613E-2,-1.245026886E-1
2.250582087E0,-1.091895252E-1,-4.993423447E-2,-1.117195264E-1
2.253069899E0,-8.149266988E-2,-4.886896908E-2,-9.787109494E-2
2.255557712E0,-5.273054913E-2,-4.993423447E-2,-8.508793265E-2
2.258045524E0,-2.290316857E-2,-4.993423447E-2,-7.123950869E-2
2.260533337E0,5.858949851E-3,-4.993423447E-2,-5.739107728E-2
2.263021149E0,3.568633273E-2,-4.993423447E-2,-4.460791498E-2
2.265508962E0,6.338318437E-2,-5.099949613E-2,-3.289001435E-2
2.267996774E0,9.001477808E-2,-5.206476152E-2,-2.117211558E-2
2.270484587E0,1.145158410E-1,-5.313002318E-2,-1.158474199E-2
2.272972399E0,1.390169114E-1,-5.313002318E-2,-3.062632866E-3
2.275460212E0,1.592569202E-1,-5.526055023E-2,5.459476262E-3
2.277948024E0,1.773663908E-1,-5.632581562E-2,1.185105834E-2
2.280435784E0,1.933453530E-1,-5.845634267E-2,1.717737690E-2
2.282923545E0,2.071937770E-1,-5.952160433E-2,2.250369452E-2
2.285411305E0,2.178464085E-1,-6.058686972E-2,2.463422157E-2
2.287899066E0,2.253032625E-1,-6.271740049E-2,2.676474862E-2
2.290386826E0,2.316948473E-1,-6.378266215E-2,2.783001214E-2
2.292874587E0,2.348906398E-1,-6.271740049E-2,2.676474862E-2
2.295362347E0,2.370211631E-1,-6.271740049E-2,2.463422157E-2
2.297850107E0,2.359558940E-1,-6.165213138E-2,2.143843099E-2
2.300337868E0,2.327601016E-1,-5.952160433E-2,1.611211337E-2
2.302825628E0,2.284990549E-1,-5.526055023E-2,1.078579482E-2
2.305313389E0,2.210422009E-1,-5.099949613E-2,3.328948980E-3
2.307801149E0,2.125200927E-1,-4.460791498E-2,-5.193160381E-3
2.310288909E0,2.029327303E-1,-3.821633384E-2,-1.478053257E-2
2.312776670E0,1.912148297E-1,-3.289001435E-2,-2.436790615E-2
2.315264430E0,1.763011366E-1,-2.862896025E-2,-3.395527974E-2
2.317752191E0,1.592569202E-1,-2.543316968E-2,-4.460791498E-2
2.320239951E0,1.411474347E-1,-2.330264263E-2,-5.526055023E-2
2.322727712E0,1.198421568E-1,-2.223737910E-2,-6.484792382E-2
2.325215472E0,9.853688627E-2,-2.117211558E-2,-7.443529367E-2
2.327703232E0,7.723161578E-2,-2.117211558E-2,-8.508793265E-2
2.330190993E0,5.486107618E-2,-2.117211558E-2,-9.361004084E-2
2.332678753E0,3.249054030E-2,-2.010685205E-2,-1.021321490E-1
2.335166514E0,1.012000442E-2,-1.904158667E-2,-1.106542572E-1
2.337654274E0,-1.012000442E-2,-1.797632314E-2,-1.170458421E-1
2.340142034E0,-2.929474972E-2,-1.691105962E-2,-1.234374270E-1
2.342629795E0,-4.527370632E-2,-1.478053257E-2,-1.287637353E-1
2.345117555E0,-6.125266105E-2,-1.158474199E-2,-1.330247968E-1
2.347605316E0,-7.510108501E-2,-9.454214945E-3,-1.362205893E-1
2.350093076E0,-8.681898564E-2,-6.258423906E-3,-1.383511126E-1
2.352580837E0,-9.747162461E-2,-5.193160381E-3,-1.394163817E-1
2.355068597E0,-1.070589945E-1,-4.127896391E-3,-1.394163817E-1
2.357556357E0,-1.134505793E-1,-3.062632866E-3,-1.383511126E-1
2.360044118E0,-1.198421568E-1,-1.997369342E-3,-1.372858584E-1
2.362531878E0,-1.230379492E-1,1.331579551E-4,-1.351553202E-1
2.365019639E0,-1.241032109E-1,2.263685223E-3,-1.330247968E-1
2.367507399E0,-1.241032109E-1,4.394212738E-3,-1.298290044E-1
2.369995159E0,-1.219726875E-1,8.655266836E-3,-1.276984811E-1
2.372482920E0,-1.187768951E-1,1.078579482E-2,-1.255679578E-1
2.374970680E0,-1.145158410E-1,1.291632187E-2,-1.234374270E-1
2.377458441E0,-1.091895252E-1,1.504684892E-2,-1.202416345E-1
2.379946201E0,-1.027979404E-1,1.611211337E-2,-1.170458421E-1
2.382433962E0,-9.640636295E-2,1.824264042E-2,-1.149153188E-1
2.384921722E0,-8.894951642E-2,1.930790395E-2,-1.117195264E-1
2.387409482E0,-8.149266988E-2,2.250369452E-2,-1.085237339E-1
2.389897243E0,-7.190529257E-2,2.569948509E-2,-1.074584723E-1
2.392385003E0,-6.231792271E-2,2.996053919E-2,-1.053279415E-1
2.394872764E0,-5.273054913E-2,3.528685868E-2,-1.031974182E-1
2.397360524E0,-4.314317927E-2,3.954791278E-2,-1.021321490E-1
2.399848284E0,-3.249054030E-2,4.487423226E-2,-1.010668874E-1
2.402336045E0,-2.077264152E-2,5.020054802E-2,-1.000016257E-1
2.404823805E0,-1.012000442E-2,5.552686751E-2,-9.893636405E-2
2.407311566E0,5.326318205E-4,6.085318699E-2,-1.000016257E-1
2.409799326E0,9.054740891E-3,6.724476814E-2,-9.787109494E-2
2.412287087E0,1.757685095E-2,7.257108390E-2,-9.787109494E-2
2.414774847E0,2.503369562E-2,7.683213800E-2,-9.574057162E-2
2.417262607E0,3.036001325E-2,8.109319210E-2,-9.574057162E-2
2.419750368E0,3.568633273E-2,8.428898454E-2,-9.467530251E-2
2.422238128E0,3.888212144E-2,8.748477697E-2,-9.467530251E-2
2.424725889E0,4.101264849E-2,8.961530030E-2,-9.254477918E-2
2.427213649E0,4.101264849E-2,8.961530030E-2,-9.147951752E-2
2.429701409E0,3.994738683E-2,8.961530030E-2,-9.041424841E-2
2.432189170E0,3.675159439E-2,8.855003864E-2,-8.721846342E-2
2.434676930E0,3.249054030E-2,8.535424620E-2,-8.508793265E-2
2.437164691E0,2.716422267E-2,8.215846121E-2,-8.295740932E-2
2.439652451E0,2.077264152E-2,7.896266878E-2,-7.976161689E-2
2.442140212E0,1.225053146E-2,7.576687634E-2,-7.656582445E-2
2.444627972E0,4.793686327E-3,7.257108390E-2,-7.337003201E-2
2.447115732E0,-2.663159044E-3,7.044056058E-2,-6.910897791E-2
2.449603493E0,-1.118526794E-2,6.831002980E-2,-6.484792382E-2
2.452091253E0,-1.757685095E-2,6.831002980E-2,-5.952160433E-2
2.454579014E0,-2.396843210E-2,6.831002980E-2,-5.526055023E-2
2.457066774E0,-3.036001325E-2,6.937529147E-2,-4.993423447E-2
2.459554534E0,-3.568633273E-2,6.937529147E-2,-4.460791498E-2
2.462042295E0,-3.994738683E-2,7.044056058E-2,-3.928159550E-2
2.464530055E0,-4.207791388E-2,7.150582224E-2,-3.395527974E-2
2.467017816E0,-4.527370632E-2,7.257108390E-2,-2.969422378E-2
2.469505576E0,-4.633896798E-2,7.470161468E-2,-2.436790615E-2
2.471993337E0,-4.740423337E-2,7.470161468E-2,-1.904158667E-2
2.474481097E0,-4.846949503E-2,7.576687634E-2,-1.478053257E-2
2.476968857E0,-5.060002208E-2,7.789740711E-2,-1.051947847E-2
2.479456618E0,-5.273054913E-2,7.896266878E-2,-7.323687430E-3
2.481944378E0,-5.486107618E-2,8.002793044E-2,-5.193160381E-3
2.484432139E0,-5.805686861E-2,8.215846121E-2,-3.062632866E-3
2.486919899E0,-6.338318437E-2,8.428898454E-2,-1.997369342E-3
2.489407659E0,-6.977476925E-2,8.641951531E-2,-1.997369342E-3
2.491895420E0,-7.723161578E-2,8.641951531E-2,-3.062632866E-3
2.494383180E0,-8.575372398E-2,8.641951531E-2,-5.193160381E-3
2.496870941E0,-9.427583218E-2,8.641951531E-2,-7.323687430E-3
2.499358701E0,-1.049284711E-1,8.428898454E-2,-1.051947847E-2
2.501846462E0,-1.166463718E-1,8.322372288E-2,-1.371526904E-2
2.504334222E0,-1.283642650E-1,8.109319210E-2,-1.797632314E-2
2.506821982E0,-1.400821656E-1,7.896266878E-2,-2.330264263E-2
2.509309743E0,-1.496695429E-1,7.683213800E-2,-2.756369673E-2
2.511797503E0,-1.592569202E-1,7.470161468E-2,-3.289001435E-2
2.514285264E0,-1.667137593E-1,7.470161468E-2,-3.821633384E-2
2.516773024E0,-1.731053442E-1,7.363634557E-2,-4.354264960E-2
2.519260784E0,-1.784316599E-1,7.257108390E-2,-4.886896908E-2
2.521748545E0,-1.837579757E-1,7.257108390E-2,-5.419528857E-2
2.524236305E0,-1.858884990E-1,7.150582224E-2,-6.058686972E-2
2.526724066E0,-1.890842915E-1,7.044056058E-2,-6.591318548E-2
2.529211826E0,-1.912148297E-1,6.831002980E-2,-7.123950869E-2
2.531699587E0,-1.922800839E-1,6.724476814E-2,-7.550056279E-2
2.534187347E0,-1.944106072E-1,6.404897571E-2,-7.869634777E-2
2.536675107E0,-1.944106072E-1,6.085318699E-2,-8.189214021E-2
2.539162868E0,-1.944106072E-1,5.552686751E-2,-8.402267098E-2
2.541650628E0,-1.944106072E-1,5.020054802E-2,-8.615319431E-2
2.544138389E0,-1.944106072E-1,4.380896688E-2,-8.828372508E-2
2.546626149E0,-1.944106072E-1,3.741738573E-2,-8.934898674E-2
2.549113909E0,-1.933453530E-1,3.102580272E-2,-9.147951752E-2
2.551601670E0,-1.933453530E-1,2.463422157E-2,-9.254477918E-2
2.554089430E0,-1.933453530E-1,1.824264042E-2,-9.361004084E-2
2.556577191E0,-1.922800839E-1,1.291632187E-2,-9.467530251E-2
2.559064951E0,-1.922800839E-1,6.524739787E-3,-9.574057162E-2
2.561552712E0,-1.933453530E-1,1.198421582E-3,-9.680583328E-2
2.564040472E0,-1.933453530E-1,-4.127896391E-3,-9.680583328E-2
2.566528232E0,-1.933453530E-1,-8.388951421E-3,-9.787109494E-2
2.569015993E0,-1.944106072E-1,-1.265000552E-2,-9.787109494E-2
2.571503753E0,-1.954758763E-1,-1.584579609E-2,-9.893636405E-2
2.573991514E0,-1.965411454E-1,-1.904158667E-2,-1.000016257E-1
2.576479274E0,-1.986716688E-1,-2.223737910E-2,-1.010668874E-1
2.578967034E0,-2.018674612E-1,-2.330264263E-2,-1.021321490E-1
2.581454795E0,-2.050632536E-1,-2.436790615E-2,-1.042626798E-1
2.583942555E0,-2.082590461E-1,-2.436790615E-2,-1.063932031E-1
2.586430316E0,-2.125200927E-1,-2.543316968E-2,-1.085237339E-1
2.588918076E0,-2.167811543E-1,-2.543316968E-2,-1.117195264E-1
2.591405837E0,-2.199769467E-1,-2.436790615E-2,-1.138500497E-1
2.593893597E0,-2.221074700E-1,-2.436790615E-2,-1.159805804E-1
2.596381357E0,-2.242379934E-1,-2.543316968E-2,-1.170458421E-1
2.598869118E0,-2.242379934E-1,-2.756369673E-2,-1.181111038E-1
2.601356878E0,-2.231727391E-1,-2.969422378E-2,-1.181111038E-1
2.603844639E0,-2.189116776E-1,-3.075948730E-2,-1.191763729E-1
2.606332399E0,-2.135853618E-1,-3.289001435E-2,-1.191763729E-1
2.608820159E0,-2.061285079E-1,-3.502054140E-2,-1.202416345E-1
2.611307920E0,-1.976063997E-1,-3.502054140E-2,-1.213068962E-1
2.613795680E0,-1.858884990E-1,-3.502054140E-2,-1.223721579E-1
2.616283441E0,-1.741705984E-1,-3.502054140E-2,-1.223721579E-1
2.618771201E0,-1.613874435E-1,-3.395527974E-2,-1.234374270E-1
2.621258962E0,-1.464737505E-1,-3.289001435E-2,-1.234374270E-1
2.623746722E0,-1.315600574E-1,-3.075948730E-2,-1.223721579E-1
2.626234482E0,-1.177116334E-1,-2.862896025E-2,-1.213068962E-1
2.628722243E0,-1.017326787E-1,-2.543316968E-2,-1.191763729E-1
2.631210003E0,-8.681898564E-2,-2.117211558E-2,-1.170458421E-1
2.633697764E0,-7.297056168E-2,-1.584579609E-2,-1.159805804E-1
2.636185524E0,-5.912213027E-2,-9.454214945E-3,-1.138500497E-1
2.638673284E0,-4.527370632E-2,-1.997369342E-3,-1.117195264E-1
2.641161045E0,-3.249054030E-2,6.524739787E-3,-1.085237339E-1
2.643648805E0,-2.183790505E-2,1.611211337E-2,-1.053279415E-1
2.646136566E0,-1.331579592E-2,2.463422157E-2,-1.021321490E-1
2.648624326E0,-3.728422802E-3,3.315633163E-2,-9.893636405E-2
2.651112087E0,2.663159044E-3,4.274370521E-2,-9.680583328E-2
2.653599847E0,6.924213842E-3,5.233107507E-2,-9.254477918E-2
2.656087607E0,1.012000442E-2,6.085318699E-2,-8.934898674E-2
2.658575368E0,1.012000442E-2,6.831002980E-2,-8.615319431E-2
2.661063128E0,6.924213842E-3,7.576687634E-2,-8.402267098E-2
2.663550889E0,5.326318205E-4,8.322372288E-2,-8.082687855E-2
2.666038649E0,-7.989477366E-3,8.855003864E-2,-7.976161689E-2
2.668526409E0,-1.970737800E-2,9.281109273E-2,-7.869634777E-2
2.671014170E0,-3.462106735E-2,9.494162351E-2,-7.869634777E-2
2.673501930E0,-5.166528746E-2,9.600688517E-2,-7.869634777E-2
2.675989691E0,-7.190529257E-2,9.600688517E-2,-7.976161689E-2
2.678477451E0,-9.214530140E-2,9.387636185E-2,-8.189214021E-2
2.680965264E0,-1.155811027E-1,9.174583107E-2,-8.402267098E-2
2.683453076E0,-1.400821656E-1,8.855003864E-2,-8.934898674E-2
2.685940889E0,-1.645832360E-1,8.535424620E-2,-9.361004084E-2
2.688428701E0,-1.890842915E-1,8.215846121E-2,-9.893636405E-2
2.690916514E0,-2.135853618E-1,8.002793044E-2,-1.053279415E-1
2.693404326E0,-2.380864173E-1,7.576687634E-2,-1.117195264E-1
2.695892139E0,-2.593916953E-1,7.150582224E-2,-1.170458421E-1
2.698379951E0,-2.785664499E-1,6.724476814E-2,-1.234374270E-1
2.700867764E0,-2.945453823E-1,6.298371404E-2,-1.287637353E-1
2.703355576E0,-3.073285520E-1,5.872265995E-2,-1.340900660E-1
2.705843389E0,-3.169159293E-1,5.339634046E-2,-1.383511126E-1
2.708331201E0,-3.233075142E-1,4.913528636E-2,-1.415469050E-1
2.710819014E0,-3.254380524E-1,4.700475931E-2,-1.447426975E-1
2.713306826E0,-3.243727684E-1,4.487423226E-2,-1.458079666E-1
2.715794639E0,-3.190464675E-1,4.380896688E-2,-1.468732208E-1
2.718282451E0,-3.105243444E-1,4.593949392E-2,-1.468732208E-1
2.720770264E0,-2.988064587E-1,4.807002097E-2,-1.468732208E-1
2.723258076E0,-2.860232890E-1,5.233107507E-2,-1.468732208E-1
2.725745889E0,-2.711096108E-1,5.765739456E-2,-1.468732208E-1
2.728233701E0,-2.540653646E-1,6.298371404E-2,-1.458079666E-1
2.730721514E0,-2.370211631E-1,6.937529147E-2,-1.458079666E-1
2.733209326E0,-2.189116776E-1,7.576687634E-2,-1.447426975E-1
2.735697139E0,-2.018674612E-1,8.215846121E-2,-1.436774284E-1
2.738184951E0,-1.858884990E-1,8.961530030E-2,-1.415469050E-1
2.740672764E0,-1.699095517E-1,9.707214683E-2,-1.404816359E-1
2.743160576E0,-1.571263820E-1,1.045289934E-1,-1.394163817E-1
2.745648389E0,-1.454084814E-1,1.109205782E-1,-1.383511126E-1
2.748136201E0,-1.347558498E-1,1.162468940E-1,-1.383511126E-1
2.750624014E0,-1.272990108E-1,1.226384789E-1,-1.383511126E-1
2.753111774E0,-1.209074259E-1,1.279647946E-1,-1.383511126E-1
2.755599534E0,-1.155811027E-1,1.332911104E-1,-1.372858584E-1
2.758087295E0,-1.123853177E-1,1.375521719E-1,-1.372858584E-1
2.760575055E0,-1.113200486E-1,1.428784877E-1,-1.362205893E-1
2.763062816E0,-1.102547869E-1,1.471395344E-1,-1.362205893E-1
2.765550576E0,-1.123853177E-1,1.514005959E-1,-1.351553202E-1
2.768038337E0,-1.145158410E-1,1.556616426E-1,-1.340900660E-1
2.770526097E0,-1.177116334E-1,1.588574350E-1,-1.340900660E-1
2.773013857E0,-1.219726875E-1,1.620532274E-1,-1.340900660E-1
2.775501618E0,-1.262337416E-1,1.631184965E-1,-1.351553202E-1
2.777989378E0,-1.315600574E-1,1.641837656E-1,-1.362205893E-1
2.780477139E0,-1.368863732E-1,1.609879732E-1,-1.362205893E-1
2.782964899E0,-1.411474347E-1,1.567269117E-1,-1.372858584E-1
2.785452659E0,-1.454084814E-1,1.503353268E-1,-1.372858584E-1
2.787940420E0,-1.486042738E-1,1.428784877E-1,-1.372858584E-1
2.790428180E0,-1.507348120E-1,1.332911104E-1,-1.372858584E-1
2.792915941E0,-1.518000662E-1,1.226384789E-1,-1.372858584E-1
2.795403701E0,-1.528653353E-1,1.141163707E-1,-1.372858584E-1
2.797891462E0,-1.518000662E-1,1.045289934E-1,-1.372858584E-1
2.800379222E0,-1.496695429E-1,9.600688517E-2,-1.383511126E-1
2.802866982E0,-1.464737505E-1,8.855003864E-2,-1.383511126E-1
2.805354743E0,-1.400821656E-1,8.215846121E-2,-1.394163817E-1
2.807842503E0,-1.336905807E-1,7.576687634E-2,-1.404816359E-1
2.810330264E0,-1.251684725E-1,6.937529147E-2,-1.415469050E-1
2.812818024E0,-1.155811027E-1,6.511423737E-2,-1.436774284E-1
2.815305784E0,-1.049284711E-1,6.085318699E-2,-1.436774284E-1
2.817793545E0,-9.427583218E-2,5.659212917E-2,-1.447426975E-1
2.820281305E0,-8.255793154E-2,5.339634046E-2,-1.436774284E-1
2.822769066E0,-7.084003091E-2,5.020054802E-2,-1.415469050E-1
2.825256826E0,-5.912213027E-2,4.807002097E-2,-1.394163817E-1
2.827744587E0,-4.633896798E-2,4.700475931E-2,-1.362205893E-1
2.830232347E0,-3.355580568E-2,4.593949392E-2,-1.319595277E-1
2.832720107E0,-2.290316857E-2,4.593949392E-2,-1.276984811E-1
2.835207868E0,-1.118526794E-2,4.593949392E-2,-1.245026886E-1
2.837695628E0,-5.326318205E-4,4.807002097E-2,-1.202416345E-1
2.840183389E0,9.054740891E-3,5.020054802E-2,-1.159805804E-1
2.842671149E0,1.757685095E-2,5.233107507E-2,-1.127847880E-1
2.845158909E0,2.503369562E-2,5.552686751E-2,-1.085237339E-1
2.847646670E0,3.142527863E-2,5.872265995E-2,-1.053279415E-1
2.850134430E0,3.675159439E-2,6.085318699E-2,-1.021321490E-1
2.852622191E0,4.101264849E-2,6.404897571E-2,-1.000016257E-1
2.855109951E0,4.420844093E-2,6.724476814E-2,-9.787109494E-2
2.857597712E0,4.740423337E-2,6.937529147E-2,-9.467530251E-2
2.860085472E0,4.846949503E-2,7.257108390E-2,-9.254477918E-2
2.862573232E0,4.953476042E-2,7.257108390E-2,-9.041424841E-2
2.865060993E0,4.953476042E-2,7.257108390E-2,-9.041424841E-2
2.867548753E0,4.846949503E-2,7.150582224E-2,-8.934898674E-2
2.870036514E0,4.740423337E-2,7.044056058E-2,-8.934898674E-2
2.872524274E0,4.527370632E-2,6.937529147E-2,-9.041424841E-2
2.875012034E0,4.314317927E-2,6.831002980E-2,-9.147951752E-2
2.877499795E0,3.994738683E-2,6.724476814E-2,-9.361004084E-2
2.879987555E0,3.568633273E-2,6.724476814E-2,-9.680583328E-2
2.882475316E0,3.142527863E-2,6.724476814E-2,-1.010668874E-1
2.884963076E0,2.716422267E-2,6.724476814E-2,-1.053279415E-1
2.887450837E0,2.290316857E-2,7.044056058E-2,-1.095889956E-1
2.889938597E0,1.864211448E-2,7.363634557E-2,-1.159805804E-1
2.892426357E0,1.331579592E-2,7.789740711E-2,-1.213068962E-1
2.894914118E0,7.989477366E-3,8.215846121E-2,-1.287637353E-1
2.897401878E0,5.326318205E-4,8.748477697E-2,-1.362205893E-1
2.899889639E0,-6.924213842E-3,9.174583107E-2,-1.436774284E-1
2.902377399E0,-1.544632297E-2,9.494162351E-2,-1.521995366E-1
2.904865159E0,-2.503369562E-2,9.707214683E-2,-1.596563905E-1
2.907352920E0,-3.568633273E-2,9.707214683E-2,-1.671132296E-1
2.909840680E0,-4.846949503E-2,9.494162351E-2,-1.735048145E-1
2.912328441E0,-6.125266105E-2,9.068056941E-2,-1.788311303E-1
2.914816201E0,-7.616634667E-2,8.428898454E-2,-1.841574460E-1
2.917303962E0,-9.108003974E-2,7.683213800E-2,-1.884185076E-1
2.919791722E0,-1.059937328E-1,6.831002980E-2,-1.916143000E-1
2.922279482E0,-1.219726875E-1,5.872265995E-2,-1.948100924E-1
2.924767243E0,-1.368863732E-1,4.807002097E-2,-1.958753467E-1
2.927255003E0,-1.496695429E-1,3.741738573E-2,-1.958753467E-1
2.929742764E0,-1.613874435E-1,2.783001214E-2,-1.948100924E-1
2.932230524E0,-1.688442826E-1,1.824264042E-2,-1.916143000E-1
2.934718284E0,-1.741705984E-1,8.655266836E-3,-1.884185076E-1
2.937206045E0,-1.763011366E-1,1.198421582E-3,-1.820269227E-1
2.939693805E0,-1.731053442E-1,-5.193160381E-3,-1.756353378E-1
2.942181566E0,-1.667137593E-1,-9.454214945E-3,-1.681784987E-1
2.944669326E0,-1.560611278E-1,-1.158474199E-2,-1.607216448E-1
2.947157087E0,-1.432779580E-1,-1.158474199E-2,-1.521995366E-1
2.949644847E0,-1.283642650E-1,-1.051947847E-2,-1.436774284E-1
2.952132607E0,-1.102547869E-1,-8.388951421E-3,-1.330247968E-1
2.954620368E0,-8.894951642E-2,-3.062632866E-3,-1.223721579E-1
2.957108128E0,-6.444845349E-2,1.198421582E-3,-1.117195264E-1
2.959595889E0,-3.888212144E-2,6.524739787E-3,-1.000016257E-1
2.962083649E0,-1.118526794E-2,1.291632187E-2,-8.828372508E-2
2.964571409E0,1.757685095E-2,1.930790395E-2,-7.550056279E-2
2.967059170E0,4.740423337E-2,2.676474862E-2,-6.378266215E-2
2.969546930E0,7.723161578E-2,3.528685868E-2,-5.313002318E-2
2.972034691E0,1.059937328E-1,4.380896688E-2,-4.247738793E-2
2.974522451E0,1.347558498E-1,5.446160212E-2,-3.289001435E-2
2.977010212E0,1.613874435E-1,6.617950648E-2,-2.436790615E-2
2.979497972E0,1.858884990E-1,7.896266878E-2,-1.797632314E-2
2.981985732E0,2.082590461E-1,9.174583107E-2,-1.265000552E-2
2.984473493E0,2.295643091E-1,1.066595241E-1,-8.388951421E-3
2.986961357E0,2.455432713E-1,1.205079481E-1,-5.193160381E-3
2.989449222E0,2.583264410E-1,1.332911104E-1,-3.062632866E-3
2.991937087E0,2.679138184E-1,1.460742801E-1,-9.321057005E-4
2.994424951E0,2.732401192E-1,1.577921808E-1,-1.997369342E-3
2.996912816E0,2.743053734E-1,1.673795432E-1,-4.127896391E-3
2.999400680E0,2.700443268E-1,1.769669205E-1,-7.323687430E-3
3.001888545E0,2.625874877E-1,1.844237745E-1,-1.051947847E-2
3.004376409E0,2.508696020E-1,1.897500902E-1,-1.584579609E-2
3.006864274E0,2.348906398E-1,1.929458827E-1,-2.117211558E-2
3.009352034E0,2.146506310E-1,1.950764060E-1,-2.756369673E-2
3.011839795E0,1.912148297E-1,1.929458827E-1,-3.502054140E-2
3.014327555E0,1.656484902E-1,1.908153445E-1,-4.247738793E-2
3.016815316E0,1.358211190E-1,1.854890287E-1,-5.099949613E-2
3.019303076E0,1.049284711E-1,1.790974438E-1,-5.952160433E-2
3.021790837E0,7.190529257E-2,1.716406047E-1,-6.910897791E-2
3.024278597E0,3.888212144E-2,1.620532274E-1,-7.763108611E-2
3.026766774E0,5.858949851E-3,1.535311192E-1,-8.615319431E-2
3.029254222E0,-2.609895915E-2,1.450090110E-1,-9.467530251E-2
3.031741670E0,-5.912213027E-2,1.364869028E-1,-1.021321490E-1
3.034229118E0,-9.001477808E-2,1.300953180E-1,-1.095889956E-1
3.036716566E0,-1.187768951E-1,1.237037405E-1,-1.159805804E-1
3.039204066E0,-1.443432271E-1,1.183774248E-1,-1.234374270E-1
3.041691618E0,-1.688442826E-1,1.151816323E-1,-1.298290044E-1
3.044179222E0,-1.890842915E-1,1.119858399E-1,-1.351553202E-1
3.046666878E0,-2.061285079E-1,1.109205782E-1,-1.383511126E-1
3.049154587E0,-2.199769467E-1,1.098553166E-1,-1.415469050E-1
3.051642347E0,-2.306295782E-1,1.109205782E-1,-1.436774284E-1
3.054130159E0,-2.380864173E-1,1.119858399E-1,-1.447426975E-1
3.056618024E0,-2.423474789E-1,1.141163707E-1,-1.458079666E-1
3.059105941E0,-2.434127480E-1,1.173121557E-1,-1.468732208E-1
3.061593909E0,-2.423474789E-1,1.215732098E-1,-1.468732208E-1
3.064081878E0,-2.370211631E-1,1.258342713E-1,-1.458079666E-1
3.066569847E0,-2.295643091E-1,1.300953180E-1,-1.447426975E-1
3.069057816E0,-2.199769467E-1,1.354216337E-1,-1.415469050E-1
3.071545784E0,-2.082590461E-1,1.407479644E-1,-1.383511126E-1
3.074033753E0,-1.944106072E-1,1.450090110E-1,-1.351553202E-1
3.076521722E0,-1.794969290E-1,1.514005959E-1,-1.298290044E-1
3.079009639E0,-1.635179669E-1,1.577921808E-1,-1.255679578E-1
3.081497399E0,-1.475390196E-1,1.652490199E-1,-1.213068962E-1
3.083985159E0,-1.304948032E-1,1.748363972E-1,-1.170458421E-1
3.086472920E0,-1.134505793E-1,1.833585054E-1,-1.127847880E-1
3.088960680E0,-9.640636295E-2,1.897500902E-1,-1.085237339E-1
3.091448441E0,-8.042740822E-2,1.961416751E-1,-1.042626798E-1
3.093936201E0,-6.551371515E-2,2.004027218E-1,-1.000016257E-1
3.096423962E0,-5.060002208E-2,2.025332451E-1,-9.574057162E-2
3.098911722E0,-3.781685978E-2,2.025332451E-1,-9.147951752E-2
3.101399482E0,-2.609895915E-2,2.004027218E-1,-8.934898674E-2
3.103887243E0,-1.651158556E-2,1.950764060E-1,-8.828372508E-2
3.106375003E0,-9.054740891E-3,1.886848211E-1,-8.828372508E-2
3.108862764E0,-3.728422802E-3,1.812279820E-1,-9.041424841E-2
3.111350524E0,-5.326318205E-4,1.705753356E-1,-9.254477918E-2
3.113838284E0,1.597895520E-3,1.599227041E-1,-9.680583328E-2
3.116326045E0,2.663159044E-3,1.471395344E-1,-1.021321490E-1
3.118813805E0,2.663159044E-3,1.332911104E-1,-1.074584723E-1
3.121301566E0,2.663159044E-3,1.183774248E-1,-1.138500497E-1
3.123789326E0,1.597895520E-3,1.034637317E-1,-1.202416345E-1
3.126277087E0,5.326318205E-4,8.855003864E-2,-1.276984811E-1
3.128764847E0,5.326318205E-4,7.470161468E-2,-1.340900660E-1
3.131252607E0,5.326318205E-4,5.978792161E-2,-1.404816359E-1
3.133740368E0,2.663159044E-3,4.593949392E-2,-1.468732208E-1
3.136228128E0,3.728422802E-3,3.209106624E-2,-1.521995366E-1
3.138715889E0,5.858949851E-3,1.930790395E-2,-1.575258672E-1
3.141203649E0,1.012000442E-2,7.590003312E-3,-1.617869139E-1
3.143691409E0,1.225053146E-2,-3.062632866E-3,-1.660479754E-1
3.146179170E0,1.544632297E-2,-1.265000552E-2,-1.681784987E-1
3.148666930E0,1.757685095E-2,-2.223737910E-2,-1.703090221E-1
3.151154691E0,2.077264152E-2,-2.862896025E-2,-1.692437679E-1
3.153642451E0,2.396843210E-2,-3.608580679E-2,-1.671132296E-1
3.156130212E0,2.609895915E-2,-4.247738793E-2,-1.628521830E-1
3.158617972E0,3.036001325E-2,-4.673844203E-2,-1.575258672E-1
3.161105732E0,3.462106735E-2,-5.099949613E-2,-1.500690132E-1
3.163593493E0,3.888212144E-2,-5.313002318E-2,-1.426121742E-1
3.166081253E0,4.420844093E-2,-5.419528857E-2,-1.340900660E-1
3.168569014E0,5.060002208E-2,-5.526055023E-2,-1.234374270E-1
3.171056774E0,5.592634156E-2,-5.419528857E-2,-1.138500497E-1
3.173544534E0,6.231792271E-2,-5.419528857E-2,-1.031974182E-1
3.176032295E0,6.977476925E-2,-5.419528857E-2,-9.254477918E-2
3.178520055E0,7.616634667E-2,-5.419528857E-2,-7.976161689E-2
3.181007816E0,8.575372398E-2,-5.419528857E-2,-6.804371625E-2
3.183495576E0,9.640636295E-2,-5.419528857E-2,-5.739107728E-2
3.185983337E0,1.091895252E-1,-5.206476152E-2,-4.673844203E-2
3.188471097E0,1.241032109E-1,-4.993423447E-2,-3.715106845E-2
3.190958857E0,1.400821656E-1,-4.567318037E-2,-2.969422378E-2
3.193446618E0,1.571263820E-1,-3.928159550E-2,-2.223737910E-2
3.195934378E0,1.752358675E-1,-3.182475269E-2,-1.691105962E-2
3.198422139E0,1.954758763E-1,-2.117211558E-2,-1.478053257E-2
3.200909899E0,2.146506310E-1,-9.454214945E-3,-1.265000552E-2
3.203397659E0,2.338253707E-1,3.328948980E-3,-1.265000552E-2
3.205885420E0,2.530001104E-1,1.824264042E-2,-1.478053257E-2
3.208373180E0,2.711096108E-1,3.315633163E-2,-1.797632314E-2
3.210860941E0,2.881538272E-1,5.020054802E-2,-2.330264263E-2
3.213348701E0,3.030675054E-1,6.724476814E-2,-3.075948730E-2
3.215836462E0,3.158506751E-1,8.428898454E-2,-3.928159550E-2
3.218324222E0,3.265033066E-1,1.002679393E-1,-4.886896908E-2
3.220811982E0,3.339601457E-1,1.130511016E-1,-5.952160433E-2
3.223299743E0,3.382211924E-1,1.247690022E-1,-7.230477035E-2
3.225787503E0,3.392864764E-1,1.332911104E-1,-8.508793265E-2
3.228275264E0,3.382211924E-1,1.386174262E-1,-9.893636405E-2
3.230763024E0,3.339601457E-1,1.407479644E-1,-1.127847880E-1
3.233250784E0,3.275685608E-1,1.396826953E-1,-1.276984811E-1
3.235738545E0,3.179811835E-1,1.364869028E-1,-1.426121742E-1
3.238226305E0,3.051980436E-1,1.311605871E-1,-1.564605981E-1
3.240714066E0,2.902843356E-1,1.226384789E-1,-1.713742912E-1
3.243201826E0,2.732401192E-1,1.130511016E-1,-1.862879843E-1
3.245689587E0,2.551306486E-1,1.023984700E-1,-1.990711391E-1
3.248177347E0,2.348906398E-1,9.174583107E-2,-2.118543088E-1
3.250665107E0,2.135853618E-1,8.002793044E-2,-2.235722095E-1
3.253152868E0,1.901495606E-1,6.831002980E-2,-2.342248410E-1
3.255640628E0,1.677790284E-1,5.765739456E-2,-2.438122183E-1
3.258128389E0,1.443432271E-1,4.700475931E-2,-2.512690723E-1
3.260616149E0,1.209074259E-1,3.848264739E-2,-2.587259114E-1
3.263103909E0,9.960214794E-2,3.209106624E-2,-2.651174963E-1
3.265591670E0,7.829687744E-2,2.676474862E-2,-2.693785429E-1
3.268079430E0,5.805686861E-2,2.143843099E-2,-2.725743353E-1
3.270567191E0,3.994738683E-2,1.824264042E-2,-2.736395895E-1
3.273054951E0,2.290316857E-2,1.398158539E-2,-2.725743353E-1
3.275542712E0,6.924213842E-3,1.078579482E-2,-2.704437971E-1
3.278030472E0,-7.989477366E-3,8.655266836E-3,-2.661827505E-1
3.280518232E0,-2.077264152E-2,7.590003312E-3,-2.597911656E-1
3.283005993E0,-3.249054030E-2,6.524739787E-3,-2.502037883E-1
3.285493753E0,-4.314317927E-2,5.459476262E-3,-2.395511568E-1
3.287981514E0,-5.166528746E-2,4.394212738E-3,-2.278332561E-1
3.290469274E0,-5.912213027E-2,4.394212738E-3,-2.129195631E-1
3.292957034E0,-6.338318437E-2,4.394212738E-3,-1.980058849E-1
3.295444795E0,-6.764423847E-2,5.459476262E-3,-1.798963994E-1
3.297932555E0,-6.870950758E-2,6.524739787E-3,-1.607216448E-1
3.300420316E0,-6.764423847E-2,8.655266836E-3,-1.394163817E-1
3.302908076E0,-6.551371515E-2,1.185105834E-2,-1.170458421E-1
3.305395837E0,-6.231792271E-2,1.611211337E-2,-9.361004084E-2
3.307883597E0,-5.805686861E-2,2.250369452E-2,-7.017423958E-2
3.310371357E0,-5.166528746E-2,2.996053919E-2,-4.567318037E-2
3.312859118E0,-4.527370632E-2,3.954791278E-2,-2.010685205E-2
3.315346878E0,-3.675159439E-2,4.913528636E-2,3.328948980E-3
3.317834639E0,-2.822948620E-2,6.085318699E-2,2.783001214E-2
3.320322399E0,-1.864211448E-2,7.150582224E-2,5.233107507E-2
3.322810159E0,-7.989477366E-3,8.322372288E-2,7.363634557E-2
3.325297920E0,1.597895520E-3,9.494162351E-2,9.494162351E-2
3.327785680E0,1.118526794E-2,1.066595241E-1,1.151816323E-1
3.330273441E0,1.970737800E-2,1.183774248E-1,1.343563795E-1
3.332761201E0,2.716422267E-2,1.279647946E-1,1.514005959E-1
3.335248962E0,3.249054030E-2,1.375521719E-1,1.663142890E-1
3.337736722E0,3.675159439E-2,1.450090110E-1,1.790974438E-1
3.340224482E0,3.781685978E-2,1.524658650E-1,1.908153445E-1
3.342712243E0,3.888212144E-2,1.577921808E-1,2.004027218E-1
3.345200003E0,3.675159439E-2,1.620532274E-1,2.078595608E-1
3.347687764E0,3.355580568E-2,1.641837656E-1,2.142511457E-1
3.350175524E0,2.716422267E-2,1.652490199E-1,2.185122073E-1
3.352663284E0,2.077264152E-2,1.641837656E-1,2.195774615E-1
3.355151045E0,1.118526794E-2,1.620532274E-1,2.195774615E-1
3.357638805E0,5.326318205E-4,1.577921808E-1,2.185122073E-1
3.360126566E0,-1.225053146E-2,1.535311192E-1,2.153164148E-1
3.362614326E0,-2.503369562E-2,1.471395344E-1,2.121206224E-1
3.365102087E0,-3.781685978E-2,1.418132186E-1,2.078595608E-1
3.367589847E0,-5.166528746E-2,1.354216337E-1,2.025332451E-1
3.370077607E0,-6.657897681E-2,1.290300637E-1,1.950764060E-1
3.372565368E0,-8.042740822E-2,1.237037405E-1,1.886848211E-1
3.375053128E0,-9.427583218E-2,1.173121557E-1,1.801627129E-1
3.377540889E0,-1.070589945E-1,1.119858399E-1,1.727058738E-1
3.380028649E0,-1.198421568E-1,1.066595241E-1,1.631184965E-1
3.382516409E0,-1.326253265E-1,1.013332009E-1,1.535311192E-1
3.385004170E0,-1.432779580E-1,9.600688517E-2,1.439437568E-1
3.387491982E0,-1.528653353E-1,9.281109273E-2,1.343563795E-1
3.389979795E0,-1.613874435E-1,8.855003864E-2,1.237037405E-1
3.392467607E0,-1.688442826E-1,8.428898454E-2,1.141163707E-1
3.394955420E0,-1.752358675E-1,8.002793044E-2,1.034637317E-1
3.397443232E0,-1.805621833E-1,7.470161468E-2,9.281109273E-2
3.399931045E0,-1.837579757E-1,6.937529147E-2,8.215846121E-2
3.402418857E0,-1.869537681E-1,6.404897571E-2,7.150582224E-2
3.404906670E0,-1.890842915E-1,5.872265995E-2,6.085318699E-2
3.407394482E0,-1.890842915E-1,5.339634046E-2,5.020054802E-2
3.409882295E0,-1.890842915E-1,4.807002097E-2,4.167843983E-2
3.412370107E0,-1.858884990E-1,4.380896688E-2,3.315633163E-2
3.414857920E0,-1.816274524E-1,3.848264739E-2,2.463422157E-2
3.417345732E0,-1.763011366E-1,3.528685868E-2,1.611211337E-2
3.419833545E0,-1.688442826E-1,3.209106624E-2,7.590003312E-3
3.422321357E0,-1.592569202E-1,3.102580272E-2,1.198421582E-3
3.424809170E0,-1.475390196E-1,3.102580272E-2,-5.193160381E-3
3.427296982E0,-1.347558498E-1,3.209106624E-2,-1.051947847E-2
3.429784795E0,-1.209074259E-1,3.528685868E-2,-1.584579609E-2
3.432272607E0,-1.049284711E-1,3.848264739E-2,-2.010685205E-2
3.434760420E0,-9.001477808E-2,4.380896688E-2,-2.436790615E-2
3.437248232E0,-7.297056168E-2,4.913528636E-2,-2.756369673E-2
3.439736045E0,-5.592634156E-2,5.552686751E-2,-2.969422378E-2
3.442223857E0,-3.888212144E-2,5.978792161E-2,-3.289001435E-2
3.444711670E0,-2.183790505E-2,6.404897571E-2,-3.502054140E-2
3.447199482E0,-5.858949851E-3,6.724476814E-2,-3.608580679E-2
3.449687295E0,1.012000442E-2,6.937529147E-2,-3.821633384E-2
3.452175107E0,2.396843210E-2,7.150582224E-2,-3.928159550E-2
3.454662920E0,3.675159439E-2,7.257108390E-2,-4.141212255E-2
3.457150732E0,4.740423337E-2,7.257108390E-2,-4.354264960E-2
3.459638545E0,5.699160323E-2,7.150582224E-2,-4.567318037E-2
3.462126357E0,6.444845349E-2,6.937529147E-2,-4.886896908E-2
3.464614118E0,6.977476925E-2,6.511423737E-2,-5.313002318E-2
3.467101878E0,7.190529257E-2,6.085318699E-2,-5.526055023E-2
3.469589639E0,7.403582335E-2,5.552686751E-2,-5.952160433E-2
3.472077399E0,7.403582335E-2,4.913528636E-2,-6.378266215E-2
3.474565159E0,7.297056168E-2,4.167843983E-2,-6.910897791E-2
3.477052920E0,7.084003091E-2,3.422159329E-2,-7.337003201E-2
3.479540680E0,6.764423847E-2,2.676474862E-2,-7.869634777E-2
3.482028441E0,6.444845349E-2,1.824264042E-2,-8.295740932E-2
3.484516201E0,6.125266105E-2,9.720530361E-3,-8.721846342E-2
3.487003962E0,5.699160323E-2,1.198421582E-3,-9.147951752E-2
3.489491722E0,5.273054913E-2,-7.323687430E-3,-9.574057162E-2
3.491979482E0,4.953476042E-2,-1.691105962E-2,-1.000016257E-1
3.494467243E0,4.527370632E-2,-2.436790615E-2,-1.031974182E-1
3.496955003E0,4.314317927E-2,-3.182475269E-2,-1.063932031E-1
3.499442764E0,4.207791388E-2,-3.821633384E-2,-1.095889956E-1
3.501930524E0,3.994738683E-2,-4.354264960E-2,-1.106542572E-1
3.504418284E0,3.994738683E-2,-4.993423447E-2,-1.117195264E-1
3.506906045E0,4.101264849E-2,-5.419528857E-2,-1.117195264E-1
3.509393805E0,4.314317927E-2,-5.845634267E-2,-1.117195264E-1
3.511881566E0,4.633896798E-2,-6.165213138E-2,-1.095889956E-1
3.514369326E0,4.953476042E-2,-6.378266215E-2,-1.074584723E-1
3.516857087E0,5.379581451E-2,-6.697845459E-2,-1.042626798E-1
3.519344847E0,5.699160323E-2,-7.017423958E-2,-1.000016257E-1
3.521832607E0,6.231792271E-2,-7.230477035E-2,-9.680583328E-2
3.524320368E0,6.657897681E-2,-7.550056279E-2,-9.254477918E-2
3.526808128E0,7.190529257E-2,-7.763108611E-2,-8.828372508E-2
3.529295889E0,7.723161578E-2,-7.976161689E-2,-8.295740932E-2
3.531783649E0,8.362319320E-2,-8.295740932E-2,-7.763108611E-2
3.534271409E0,8.894951642E-2,-8.615319431E-2,-7.123950869E-2
3.536759170E0,9.534109384E-2,-8.828372508E-2,-6.591318548E-2
3.539246930E0,1.017326787E-1,-9.254477918E-2,-5.952160433E-2
3.541734691E0,1.102547869E-1,-9.467530251E-2,-5.313002318E-2
3.544222451E0,1.166463718E-1,-9.574057162E-2,-4.673844203E-2
3.546710212E0,1.251684725E-1,-9.574057162E-2,-4.141212255E-2
3.549197972E0,1.326253265E-1,-9.254477918E-2,-3.608580679E-2
3.551685732E0,1.411474347E-1,-8.934898674E-2,-3.182475269E-2
3.554173493E0,1.507348120E-1,-8.295740932E-2,-2.756369673E-2
3.556661253E0,1.592569202E-1,-7.656582445E-2,-2.543316968E-2
3.559149014E0,1.688442826E-1,-6.697845459E-2,-2.330264263E-2
3.561636774E0,1.773663908E-1,-5.632581562E-2,-2.330264263E-2
3.564124534E0,1.858884990E-1,-4.460791498E-2,-2.330264263E-2
3.566612295E0,1.933453530E-1,-3.289001435E-2,-2.330264263E-2
3.569100055E0,1.986716688E-1,-2.117211558E-2,-2.436790615E-2
3.571587816E0,2.029327303E-1,-1.158474199E-2,-2.543316968E-2
3.574075576E0,2.071937770E-1,-3.062632866E-3,-2.649843320E-2
3.576563337E0,2.071937770E-1,2.263685223E-3,-2.862896025E-2
3.579051097E0,2.071937770E-1,6.524739787E-3,-2.969422378E-2
3.581538857E0,2.050632536E-1,8.655266836E-3,-3.075948730E-2
3.584026618E0,2.018674612E-1,8.655266836E-3,-3.182475269E-2
3.586514378E0,1.965411454E-1,6.524739787E-3,-3.289001435E-2
3.589002139E0,1.901495606E-1,4.394212738E-3,-3.289001435E-2
3.591489899E0,1.816274524E-1,1.331579551E-4,-3.395527974E-2
3.593977659E0,1.720400751E-1,-5.193160381E-3,-3.395527974E-2
3.596465420E0,1.613874435E-1,-1.158474199E-2,-3.502054140E-2
3.598953180E0,1.507348120E-1,-1.584579609E-2,-3.502054140E-2
3.601440941E0,1.400821656E-1,-1.904158667E-2,-3.608580679E-2
3.603928701E0,1.294295341E-1,-2.223737910E-2,-3.821633384E-2
3.606416462E0,1.187768951E-1,-2.330264263E-2,-3.928159550E-2
3.608904222E0,1.081242561E-1,-2.330264263E-2,-4.034686089E-2
3.611391982E0,9.747162461E-2,-2.223737910E-2,-4.247738793E-2
3.613879743E0,8.788424730E-2,-2.117211558E-2,-4.354264960E-2
3.616367503E0,7.936213911E-2,-1.797632314E-2,-4.460791498E-2
3.618855264E0,7.190529257E-2,-1.478053257E-2,-4.567318037E-2
3.621343024E0,6.551371515E-2,-1.158474199E-2,-4.673844203E-2
3.623830784E0,6.018739566E-2,-7.323687430E-3,-4.780370742E-2
3.626318545E0,5.486107618E-2,-3.062632866E-3,-4.780370742E-2
3.628806305E0,4.953476042E-2,1.198421582E-3,-4.673844203E-2
3.631294066E0,4.420844093E-2,5.459476262E-3,-4.673844203E-2
3.633781826E0,3.994738683E-2,8.655266836E-3,-4.567318037E-2
3.636269587E0,3.462106735E-2,1.185105834E-2,-4.460791498E-2
3.638757347E0,2.929474972E-2,1.398158539E-2,-4.247738793E-2
3.641245107E0,2.396843210E-2,1.611211337E-2,-4.034686089E-2
3.643732868E0,1.864211448E-2,1.717737690E-2,-3.928159550E-2
3.646220628E0,1.225053146E-2,1.717737690E-2,-3.715106845E-2
3.648708389E0,5.858949851E-3,1.824264042E-2,-3.395527974E-2
3.651196149E0,-5.326318205E-4,1.717737690E-2,-3.182475269E-2
3.653683909E0,-6.924213842E-3,1.824264042E-2,-2.969422378E-2
3.656171670E0,-1.331579592E-2,1.930790395E-2,-2.649843320E-2
3.658659430E0,-1.970737800E-2,2.143843099E-2,-2.436790615E-2
3.661147191E0,-2.609895915E-2,2.356895804E-2,-2.223737910E-2
3.663634951E0,-3.249054030E-2,2.676474862E-2,-1.797632314E-2
3.666122712E0,-3.781685978E-2,3.102580272E-2,-1.584579609E-2
3.668610472E0,-4.314317927E-2,3.528685868E-2,-1.265000552E-2
3.671098232E0,-4.846949503E-2,3.954791278E-2,-1.051947847E-2
3.673585993E0,-5.379581451E-2,4.380896688E-2,-7.323687430E-3
3.676073753E0,-5.805686861E-2,4.807002097E-2,-4.127896391E-3
3.678561514E0,-6.231792271E-2,5.233107507E-2,-9.321057005E-4
3.681049274E0,-6.764423847E-2,5.552686751E-2,2.263685223E-3
3.683537034E0,-7.084003091E-2,5.978792161E-2,5.459476262E-3
3.686024795E0,-7.403582335E-2,6.298371404E-2,7.590003312E-3
3.688512555E0,-7.723161578E-2,6.511423737E-2,9.720530361E-3
3.691000316E0,-8.042740822E-2,6.724476814E-2,1.185105834E-2
3.693488076E0,-8.149266988E-2,6.937529147E-2,1.398158539E-2
3.695975837E0,-8.255793154E-2,7.044056058E-2,1.504684892E-2
3.698463597E0,-8.362319320E-2,7.150582224E-2,1.611211337E-2
3.700951357E0,-8.362319320E-2,7.257108390E-2,1.717737690E-2
3.703439118E0,-8.255793154E-2,7.150582224E-2,1.824264042E-2
3.705926878E0,-8.149266988E-2,7.150582224E-2,1.824264042E-2
3.708414639E0,-7.936213911E-2,7.044056058E-2,1.824264042E-2
3.710902399E0,-7.723161578E-2,6.937529147E-2,1.824264042E-2
3.713390159E0,-7.403582335E-2,6.831002980E-2,1.824264042E-2
3.715877920E0,-6.977476925E-2,6.724476814E-2,1.824264042E-2
3.718365680E0,-6.657897681E-2,6.617950648E-2,1.824264042E-2
3.720853441E0,-6.231792271E-2,6.404897571E-2,1.824264042E-2
3.723341201E0,-5.699160323E-2,6.298371404E-2,1.824264042E-2
3.725828962E0,-5.166528746E-2,6.191844866E-2,1.824264042E-2
3.728316722E0,-4.633896798E-2,6.085318699E-2,1.717737690E-2
3.730804482E0,-4.101264849E-2,5.872265995E-2,1.504684892E-2
3.733292243E0,-3.568633273E-2,5.659212917E-2,1.504684892E-2
3.735780055E0,-3.142527863E-2,5.552686751E-2,1.398158539E-2
3.738267868E0,-2.609895915E-2,5.446160212E-2,1.185105834E-2
3.740755680E0,-2.077264152E-2,5.233107507E-2,1.078579482E-2
3.743243493E0,-1.651158556E-2,5.233107507E-2,9.720530361E-3
3.745731305E0,-1.225053146E-2,5.020054802E-2,8.655266836E-3
3.748219118E0,-7.989477366E-3,4.807002097E-2,6.524739787E-3
3.750706930E0,-4.793686327E-3,4.700475931E-2,4.394212738E-3
3.753194743E0,-2.663159044E-3,4.380896688E-2,2.263685223E-3
3.755682555E0,-5.326318205E-4,4.167843983E-2,1.331579551E-4
3.758170368E0,5.326318205E-4,3.954791278E-2,-3.062632866E-3
3.760658180E0,1.597895520E-3,3.635212034E-2,-5.193160381E-3
3.763145993E0,1.597895520E-3,3.315633163E-2,-7.323687430E-3
3.765633805E0,1.597895520E-3,2.889527567E-2,-9.454214945E-3
3.768121618E0,5.326318205E-4,2.463422157E-2,-1.158474199E-2
3.770609430E0,5.326318205E-4,1.930790395E-2,-1.371526904E-2
3.773097243E0,-1.597895520E-3,1.291632187E-2,-1.584579609E-2
3.775585055E0,-2.663159044E-3,7.590003312E-3,-1.797632314E-2
3.778072868E0,-3.728422802E-3,3.328948980E-3,-2.010685205E-2
3.780560680E0,-4.793686327E-3,-1.997369342E-3,-2.223737910E-2
3.783048493E0,-4.793686327E-3,-6.258423906E-3,-2.330264263E-2
3.785536305E0,-4.793686327E-3,-1.158474199E-2,-2.436790615E-2
3.788024118E0,-3.728422802E-3,-1.478053257E-2,-2.436790615E-2
3.790511930E0,-1.597895520E-3,-1.904158667E-2,-2.330264263E-2
3.792999743E0,1.597895520E-3,-2.223737910E-2,-2.223737910E-2
3.795487555E0,4.793686327E-3,-2.543316968E-2,-2.117211558E-2
3.797975368E0,9.054740891E-3,-2.862896025E-2,-1.904158667E-2
3.800463180E0,1.438105945E-2,-3.075948730E-2,-1.797632314E-2
3.802950993E0,1.970737800E-2,-3.182475269E-2,-1.691105962E-2
3.805438805E0,2.609895915E-2,-3.289001435E-2,-1.584579609E-2
3.807926618E0,3.355580568E-2,-3.289001435E-2,-1.478053257E-2
3.810414430E0,4.101264849E-2,-3.289001435E-2,-1.478053257E-2
3.812902243E0,4.953476042E-2,-3.289001435E-2,-1.371526904E-2
3.815390003E0,5.805686861E-2,-3.289001435E-2,-1.265000552E-2
3.817877764E0,6.657897681E-2,-3.289001435E-2,-1.265000552E-2
3.820365524E0,7.403582335E-2,-3.182475269E-2,-1.371526904E-2
3.822853284E0,8.255793154E-2,-3.182475269E-2,-1.371526904E-2
3.825341045E0,9.001477808E-2,-3.182475269E-2,-1.265000552E-2
3.827828805E0,9.747162461E-2,-3.182475269E-2,-1.371526904E-2
3.830316566E0,1.038632020E-1,-3.182475269E-2,-1.478053257E-2
3.832804326E0,1.113200486E-1,-3.182475269E-2,-1.584579609E-2
3.835292087E0,1.166463718E-1,-3.182475269E-2,-1.691105962E-2
3.837779847E0,1.219726875E-1,-3.182475269E-2,-1.797632314E-2
3.840267607E0,1.272990108E-1,-3.182475269E-2,-1.904158667E-2
3.842755368E0,1.315600574E-1,-3.182475269E-2,-2.117211558E-2
3.845243128E0,1.347558498E-1,-3.182475269E-2,-2.117211558E-2
3.847730889E0,1.379516423E-1,-3.075948730E-2,-2.117211558E-2
3.850218649E0,1.411474347E-1,-2.862896025E-2,-2.117211558E-2
3.852706409E0,1.432779580E-1,-2.649843320E-2,-2.010685205E-2
3.855194170E0,1.443432271E-1,-2.543316968E-2,-1.904158667E-2
3.857681930E0,1.464737505E-1,-2.330264263E-2,-1.904158667E-2
3.860169691E0,1.464737505E-1,-2.117211558E-2,-1.797632314E-2
3.862657451E0,1.464737505E-1,-2.010685205E-2,-1.691105962E-2
3.865145212E0,1.464737505E-1,-1.904158667E-2,-1.584579609E-2
3.867632972E0,1.454084814E-1,-1.797632314E-2,-1.478053257E-2
3.870120732E0,1.432779580E-1,-1.691105962E-2,-1.265000552E-2
3.872608493E0,1.411474347E-1,-1.691105962E-2,-1.051947847E-2
3.875096253E0,1.379516423E-1,-1.584579609E-2,-8.388951421E-3
3.877584014E0,1.347558498E-1,-1.584579609E-2,-6.258423906E-3
3.880071774E0,1.304948032E-1,-1.584579609E-2,-4.127896391E-3
3.882559534E0,1.262337416E-1,-1.584579609E-2,-3.062632866E-3
3.885047295E0,1.230379492E-1,-1.584579609E-2,-1.997369342E-3
3.887535055E0,1.187768951E-1,-1.584579609E-2,-9.321057005E-4
3.890022816E0,1.145158410E-1,-1.584579609E-2,1.331579551E-4
3.892510576E0,1.102547869E-1,-1.691105962E-2,1.198421582E-3
3.894998337E0,1.059937328E-1,-1.584579609E-2,1.198421582E-3
3.897486097E0,1.017326787E-1,-1.478053257E-2,2.263685223E-3
3.899973857E0,9.853688627E-2,-1.265000552E-2,3.328948980E-3
3.902461618E0,9.534109384E-2,-1.158474199E-2,3.328948980E-3
3.904949378E0,9.214530140E-2,-1.051947847E-2,4.394212738E-3
3.907437139E0,8.894951642E-2,-9.454214945E-3,4.394212738E-3
3.909924899E0,8.575372398E-2,-7.323687430E-3,4.394212738E-3
3.912412659E0,8.362319320E-2,-6.258423906E-3,3.328948980E-3
3.914900420E0,8.042740822E-2,-4.127896391E-3,3.328948980E-3
3.917388180E0,7.936213911E-2,-1.997369342E-3,3.328948980E-3
3.919875941E0,7.616634667E-2,1.331579551E-4,3.328948980E-3
3.922363701E0,7.510108501E-2,2.263685223E-3,3.328948980E-3
3.924851462E0,7.403582335E-2,4.394212738E-3,3.328948980E-3
3.927339222E0,7.190529257E-2,5.459476262E-3,3.328948980E-3
3.929826982E0,7.084003091E-2,7.590003312E-3,2.263685223E-3
3.932314743E0,6.977476925E-2,8.655266836E-3,1.331579551E-4
3.934802503E0,6.764423847E-2,8.655266836E-3,-9.321057005E-4
3.937290264E0,6.551371515E-2,9.720530361E-3,-4.127896391E-3
3.939778024E0,6.231792271E-2,9.720530361E-3,-5.193160381E-3
3.942265784E0,5.912213027E-2,1.078579482E-2,-7.323687430E-3
3.944753545E0,5.592634156E-2,1.185105834E-2,-8.388951421E-3
3.947241305E0,5.273054913E-2,1.291632187E-2,-9.454214945E-3
3.949729066E0,4.846949503E-2,1.291632187E-2,-1.158474199E-2
3.952216826E0,4.420844093E-2,1.291632187E-2,-1.158474199E-2
3.954704587E0,4.207791388E-2,1.185105834E-2,-1.371526904E-2
3.957192347E0,3.781685978E-2,1.185105834E-2,-1.371526904E-2
3.959680107E0,3.355580568E-2,1.078579482E-2,-1.478053257E-2
3.962167868E0,3.036001325E-2,9.720530361E-3,-1.478053257E-2
3.964655628E0,2.716422267E-2,8.655266836E-3,-1.478053257E-2
3.967143389E0,2.290316857E-2,7.590003312E-3,-1.371526904E-2
3.969631149E0,1.864211448E-2,6.524739787E-3,-1.265000552E-2
3.972118909E0,1.438105945E-2,4.394212738E-3,-1.158474199E-2
3.974606670E0,1.012000442E-2,3.328948980E-3,-1.051947847E-2
3.977094430E0,6.924213842E-3,1.198421582E-3,-8.388951421E-3
3.979582191E0,3.728422802E-3,1.331579551E-4,-6.258423906E-3
3.982069951E0,5.326318205E-4,-9.321057005E-4,-3.062632866E-3
3.984557712E0,-2.663159044E-3,-1.997369342E-3,1.331579551E-4
3.987045472E0,-4.793686327E-3,-4.127896391E-3,3.328948980E-3
3.989533232E0,-5.858949851E-3,-5.193160381E-3,6.524739787E-3
3.992020993E0,-6.924213842E-3,-6.258423906E-3,9.720530361E-3
3.994508753E0,-7.989477366E-3,-7.323687430E-3,1.291632187E-2
3.996996514E0,-7.989477366E-3,-7.323687430E-3,1.611211337E-2
3.999484274E0,-6.924213842E-3,-8.388951421E-3,2.037316747E-2
4.001972034E0,-6.924213842E-3,-8.388951421E-3,2.250369452E-2
4.004459795E0,-5.858949851E-3,-8.388951421E-3,2.676474862E-2
4.006948024E0,-5.858949851E-3,-7.323687430E-3,2.889527567E-2
4.009436253E0,-3.728422802E-3,-7.323687430E-3,3.102580272E-2
4.011924066E0,-3.728422802E-3,-7.323687430E-3,3.422159329E-2
4.014411826E0,-2.663159044E-3,-8.388951421E-3,3.528685868E-2
4.016899587E0,-1.597895520E-3,-9.454214945E-3,3.635212034E-2
4.019387347E0,-1.597895520E-3,-1.158474199E-2,3.848264739E-2
4.021875107E0,-5.326318205E-4,-1.371526904E-2,3.954791278E-2
4.024362868E0,-5.326318205E-4,-1.691105962E-2,4.061317816E-2
4.026850628E0,-5.326318205E-4,-1.904158667E-2,4.167843983E-2
4.029338389E0,-1.597895520E-3,-2.223737910E-2,4.274370521E-2
4.031826149E0,-2.663159044E-3,-2.543316968E-2,4.487423226E-2
4.034313909E0,-4.793686327E-3,-2.862896025E-2,4.487423226E-2
4.036801670E0,-9.054740891E-3,-3.182475269E-2,4.487423226E-2
4.039289430E0,-1.331579592E-2,-3.715106845E-2,4.487423226E-2
4.041777191E0,-1.864211448E-2,-4.141212255E-2,4.487423226E-2
4.044264951E0,-2.396843210E-2,-4.567318037E-2,4.487423226E-2
4.046753389E0,-3.036001325E-2,-4.993423447E-2,4.380896688E-2
4.049240680E0,-3.568633273E-2,-5.526055023E-2,4.487423226E-2
4.051727972E0,-4.101264849E-2,-6.165213138E-2,4.487423226E-2
4.054215264E0,-4.633896798E-2,-6.697845459E-2,4.487423226E-2
4.056702607E0,-5.273054913E-2,-7.230477035E-2,4.380896688E-2
4.059190003E0,-5.805686861E-2,-7.763108611E-2,4.380896688E-2
4.061677451E0,-6.338318437E-2,-8.295740932E-2,4.274370521E-2
4.064164951E0,-6.870950758E-2,-8.828372508E-2,4.274370521E-2
4.066652555E0,-7.297056168E-2,-9.361004084E-2,4.061317816E-2
4.069140264E0,-7.829687744E-2,-9.893636405E-2,3.954791278E-2
4.071628076E0,-8.149266988E-2,-1.042626798E-1,3.954791278E-2
4.074115941E0,-8.575372398E-2,-1.095889956E-1,3.741738573E-2
4.076603857E0,-8.894951642E-2,-1.149153188E-1,3.635212034E-2
4.079091826E0,-9.214530140E-2,-1.202416345E-1,3.422159329E-2
4.081579847E0,-9.534109384E-2,-1.245026886E-1,3.315633163E-2
4.084067920E0,-9.853688627E-2,-1.298290044E-1,3.102580272E-2
4.086556045E0,-1.017326787E-1,-1.340900660E-1,2.889527567E-2
4.089044170E0,-1.038632020E-1,-1.383511126E-1,2.569948509E-2
4.091532295E0,-1.070589945E-1,-1.436774284E-1,2.463422157E-2
4.094020420E0,-1.081242561E-1,-1.468732208E-1,2.356895804E-2
4.096508389E0,-1.091895252E-1,-1.511342824E-1,2.143843099E-2
4.098996149E0,-1.102547869E-1,-1.532648057E-1,2.037316747E-2
4.101483909E0,-1.081242561E-1,-1.543300748E-1,1.930790395E-2
4.103971670E0,-1.059937328E-1,-1.543300748E-1,1.717737690E-2
4.106459430E0,-1.027979404E-1,-1.543300748E-1,1.611211337E-2
4.108947191E0,-9.747162461E-2,-1.521995366E-1,1.611211337E-2
4.111434951E0,-9.001477808E-2,-1.500690132E-1,1.611211337E-2
4.113922712E0,-8.149266988E-2,-1.468732208E-1,1.504684892E-2
4.116410472E0,-6.977476925E-2,-1.436774284E-1,1.504684892E-2
4.118898232E0,-5.805686861E-2,-1.404816359E-1,1.611211337E-2
4.121385993E0,-4.527370632E-2,-1.362205893E-1,1.611211337E-2
4.123873753E0,-3.142527863E-2,-1.319595277E-1,1.717737690E-2
4.126361514E0,-1.757685095E-2,-1.287637353E-1,1.717737690E-2
4.128849274E0,-3.728422802E-3,-1.255679578E-1,1.824264042E-2
4.131337034E0,1.012000442E-2,-1.234374270E-1,1.930790395E-2
4.133824795E0,2.396843210E-2,-1.202416345E-1,2.037316747E-2
4.136312555E0,3.675159439E-2,-1.181111038E-1,2.143843099E-2
4.138800316E0,4.846949503E-2,-1.159805804E-1,2.250369452E-2
4.141288076E0,6.018739566E-2,-1.138500497E-1,2.356895804E-2
4.143775837E0,6.977476925E-2,-1.127847880E-1,2.463422157E-2
4.146263597E0,7.936213911E-2,-1.117195264E-1,2.463422157E-2
4.148751357E0,8.788424730E-2,-1.117195264E-1,2.569948509E-2
4.151239118E0,9.427583218E-2,-1.127847880E-1,2.569948509E-2
4.153726878E0,9.853688627E-2,-1.127847880E-1,2.569948509E-2
4.156214639E0,1.006674170E-1,-1.138500497E-1,2.463422157E-2
4.158702399E0,1.017326787E-1,-1.159805804E-1,2.463422157E-2
4.161190159E0,9.960214794E-2,-1.170458421E-1,2.463422157E-2
4.163677920E0,9.640636295E-2,-1.191763729E-1,2.356895804E-2
4.166165680E0,9.214530140E-2,-1.213068962E-1,2.250369452E-2
4.168653441E0,8.681898564E-2,-1.234374270E-1,2.143843099E-2
4.171141201E0,8.042740822E-2,-1.266332120E-1,2.143843099E-2
4.173628962E0,7.297056168E-2,-1.287637353E-1,2.143843099E-2
4.176116722E0,6.551371515E-2,-1.319595277E-1,2.037316747E-2
4.178604482E0,5.699160323E-2,-1.340900660E-1,1.930790395E-2
4.181092243E0,4.953476042E-2,-1.362205893E-1,2.037316747E-2
4.183580003E0,4.101264849E-2,-1.383511126E-1,2.037316747E-2
4.186067764E0,3.355580568E-2,-1.404816359E-1,2.037316747E-2
4.188555524E0,2.716422267E-2,-1.426121742E-1,2.037316747E-2
4.191043284E0,2.077264152E-2,-1.436774284E-1,2.143843099E-2
4.193531045E0,1.438105945E-2,-1.436774284E-1,2.250369452E-2
4.196018805E0,1.012000442E-2,-1.436774284E-1,2.143843099E-2
4.198506566E0,4.793686327E-3,-1.426121742E-1,2.143843099E-2
4.200994326E0,-5.326318205E-4,-1.404816359E-1,2.143843099E-2
4.203482087E0,-5.858949851E-3,-1.383511126E-1,2.143843099E-2
4.205969847E0,-1.012000442E-2,-1.340900660E-1,2.143843099E-2
4.208457607E0,-1.438105945E-2,-1.298290044E-1,2.250369452E-2
4.210945368E0,-1.864211448E-2,-1.255679578E-1,2.356895804E-2
4.213433128E0,-2.183790505E-2,-1.213068962E-1,2.569948509E-2
4.215920889E0,-2.609895915E-2,-1.170458421E-1,2.783001214E-2
4.218408649E0,-2.929474972E-2,-1.117195264E-1,3.102580272E-2
4.220896409E0,-3.249054030E-2,-1.074584723E-1,3.422159329E-2
4.223384170E0,-3.568633273E-2,-1.021321490E-1,3.741738573E-2
4.225871930E0,-3.888212144E-2,-9.787109494E-2,4.167843983E-2
4.228359691E0,-4.207791388E-2,-9.147951752E-2,4.700475931E-2
4.230847451E0,-4.420844093E-2,-8.615319431E-2,5.233107507E-2
4.233335212E0,-4.633896798E-2,-7.976161689E-2,5.872265995E-2
4.235822972E0,-4.953476042E-2,-7.230477035E-2,6.511423737E-2
4.238310732E0,-5.273054913E-2,-6.591318548E-2,7.044056058E-2
4.240798493E0,-5.592634156E-2,-6.058686972E-2,7.576687634E-2
4.243286253E0,-6.018739566E-2,-5.526055023E-2,8.215846121E-2
4.245774014E0,-6.338318437E-2,-4.993423447E-2,8.535424620E-2
4.248261774E0,-6.870950758E-2,-4.673844203E-2,9.068056941E-2
4.250749534E0,-7.297056168E-2,-4.460791498E-2,9.494162351E-2
4.253237295E0,-8.042740822E-2,-4.460791498E-2,9.920267761E-2
4.255725055E0,-8.681898564E-2,-4.567318037E-2,1.023984700E-1
4.258212816E0,-9.534109384E-2,-4.886896908E-2,1.045289934E-1
4.260700576E0,-1.049284711E-1,-5.313002318E-2,1.045289934E-1
4.263188337E0,-1.134505793E-1,-5.739107728E-2,1.045289934E-1
4.265676097E0,-1.241032109E-1,-6.271740049E-2,1.034637317E-1
4.268163857E0,-1.347558498E-1,-6.697845459E-2,1.013332009E-1
4.270651618E0,-1.443432271E-1,-7.230477035E-2,9.813741595E-2
4.273139378E0,-1.549958587E-1,-7.763108611E-2,9.387636185E-2
4.275627139E0,-1.635179669E-1,-8.082687855E-2,8.961530030E-2
4.278114899E0,-1.709748209E-1,-8.508793265E-2,8.428898454E-2
4.280602659E0,-1.784316599E-1,-8.828372508E-2,7.896266878E-2
4.283090420E0,-1.837579757E-1,-9.254477918E-2,7.257108390E-2
4.285578180E0,-1.880190372E-1,-9.680583328E-2,6.404897571E-2
4.288065941E0,-1.912148297E-1,-1.000016257E-1,5.659212917E-2
4.290553701E0,-1.933453530E-1,-1.031974182E-1,4.913528636E-2
4.293041462E0,-1.933453530E-1,-1.074584723E-1,4.167843983E-2
4.295529222E0,-1.922800839E-1,-1.117195264E-1,3.315633163E-2
4.298016982E0,-1.901495606E-1,-1.159805804E-1,2.569948509E-2
4.300504743E0,-1.858884990E-1,-1.213068962E-1,1.930790395E-2
4.302992503E0,-1.805621833E-1,-1.266332120E-1,1.185105834E-2
4.305480264E0,-1.741705984E-1,-1.330247968E-1,4.394212738E-3
4.307968024E0,-1.645832360E-1,-1.394163817E-1,-9.321057005E-4
4.310455784E0,-1.539305896E-1,-1.468732208E-1,-5.193160381E-3
4.312943545E0,-1.400821656E-1,-1.553953290E-1,-7.323687430E-3
4.315431305E0,-1.262337416E-1,-1.660479754E-1,-1.051947847E-2
4.317919066E0,-1.091895252E-1,-1.756353378E-1,-1.265000552E-2
4.320406826E0,-9.001477808E-2,-1.873532385E-1,-1.265000552E-2
4.322894587E0,-7.084003091E-2,-1.980058849E-1,-1.371526904E-2
4.325382347E0,-5.060002208E-2,-2.107890397E-1,-1.158474199E-2
4.327870107E0,-2.929474972E-2,-2.235722095E-1,-9.454214945E-3
4.330357920E0,-6.924213842E-3,-2.374206334E-1,-4.127896391E-3
4.332845732E0,1.651158556E-2,-2.502037883E-1,1.198421582E-3
4.335333545E0,4.101264849E-2,-2.619217038E-1,8.655266836E-3
4.337821357E0,6.657897681E-2,-2.715090811E-1,1.504684892E-2
4.340309170E0,9.108003974E-2,-2.800311744E-1,2.143843099E-2
4.342796982E0,1.177116334E-1,-2.853575051E-1,2.889527567E-2
4.345284795E0,1.422126889E-1,-2.874880135E-1,3.528685868E-2
4.347772607E0,1.656484902E-1,-2.885532975E-1,4.061317816E-2
4.350260420E0,1.858884990E-1,-2.864227593E-1,4.487423226E-2
4.352748232E0,2.039979845E-1,-2.832269669E-1,4.807002097E-2
4.355236045E0,2.178464085E-1,-2.779006660E-1,5.126581341E-2
4.357723857E0,2.295643091E-1,-2.704437971E-1,5.339634046E-2
4.360211670E0,2.348906398E-1,-2.640522122E-1,5.659212917E-2
4.362699482E0,2.348906398E-1,-2.576606572E-1,5.765739456E-2
4.365187295E0,2.316948473E-1,-2.523343265E-1,5.765739456E-2
4.367675107E0,2.221074700E-1,-2.480732650E-1,5.765739456E-2
4.370162920E0,2.082590461E-1,-2.438122183E-1,5.765739456E-2
4.372650732E0,1.880190372E-1,-2.427469492E-1,5.659212917E-2
4.375138545E0,1.645832360E-1,-2.427469492E-1,5.446160212E-2
4.377626357E0,1.347558498E-1,-2.438122183E-1,5.233107507E-2
4.380114170E0,1.006674170E-1,-2.470080107E-1,5.020054802E-2
4.382601982E0,6.338318437E-2,-2.523343265E-1,4.807002097E-2
4.385089795E0,2.290316857E-2,-2.587259114E-1,4.700475931E-2
4.387577607E0,-2.077264152E-2,-2.672480047E-1,4.487423226E-2
4.390065420E0,-6.551371515E-2,-2.768353820E-1,4.487423226E-2
4.392553232E0,-1.113200486E-1,-2.874880135E-1,4.487423226E-2
4.395041045E0,-1.571263820E-1,-2.992059290E-1,4.593949392E-2
4.397528857E0,-2.029327303E-1,-3.098585606E-1,4.807002097E-2
4.400016670E0,-2.466085255E-1,-3.194459379E-1,5.233107507E-2
4.402504482E0,-2.870885432E-1,-3.279680312E-1,5.659212917E-2
4.404992295E0,-3.254380524E-1,-3.364901543E-1,6.298371404E-2
4.407480107E0,-3.605917394E-1,-3.439469934E-1,6.937529147E-2
4.409967920E0,-3.914843798E-1,-3.503385782E-1,7.576687634E-2
4.412455680E0,-4.181159735E-1,-3.567301631E-1,8.322372288E-2
4.414943441E0,-4.415517747E-1,-3.609912097E-1,9.174583107E-2
4.417431201E0,-4.585959911E-1,-3.631217480E-1,1.002679393E-1
4.419918962E0,-4.713791609E-1,-3.641870022E-1,1.087900475E-1
4.422406722E0,-4.788360000E-1,-3.631217480E-1,1.162468940E-1
4.424894482E0,-4.809665382E-1,-3.620564938E-1,1.237037405E-1
4.427382243E0,-4.767054915E-1,-3.588607013E-1,1.322258562E-1
4.429870003E0,-4.681833684E-1,-3.556649089E-1,1.396826953E-1
4.432357764E0,-4.543349445E-1,-3.524691164E-1,1.471395344E-1
4.434845524E0,-4.351601899E-1,-3.482080400E-1,1.535311192E-1
4.437333284E0,-4.106591344E-1,-3.439469934E-1,1.599227041E-1
4.439821045E0,-3.818970025E-1,-3.375554085E-1,1.663142890E-1
4.442308805E0,-3.510043621E-1,-3.322291076E-1,1.705753356E-1
4.444796566E0,-3.169159293E-1,-3.269027770E-1,1.737711281E-1
4.447284326E0,-2.796317041E-1,-3.215764761E-1,1.759016514E-1
4.449772087E0,-2.412822098E-1,-3.173153996E-1,1.780321896E-1
4.452259847E0,-2.018674612E-1,-3.130543530E-1,1.780321896E-1
4.454747607E0,-1.624527127E-1,-3.087933064E-1,1.780321896E-1
4.457235368E0,-1.219726875E-1,-3.055975139E-1,1.769669205E-1
4.459723128E0,-8.255793154E-2,-3.024017215E-1,1.748363972E-1
4.462210889E0,-4.420844093E-2,-3.002711833E-1,1.737711281E-1
4.464698649E0,-7.989477366E-3,-2.992059290E-1,1.705753356E-1
4.467186409E0,2.716422267E-2,-2.981406748E-1,1.684448123E-1
4.469674170E0,5.912213027E-2,-2.981406748E-1,1.641837656E-1
4.472161930E0,8.894951642E-2,-2.992059290E-1,1.609879732E-1
4.474649691E0,1.155811027E-1,-3.013364673E-1,1.577921808E-1
4.477137451E0,1.411474347E-1,-3.024017215E-1,1.556616426E-1
4.479625212E0,1.624527127E-1,-3.055975139E-1,1.535311192E-1
4.482112972E0,1.816274524E-1,-3.066627681E-1,1.524658650E-1
4.484600732E0,1.976063997E-1,-3.087933064E-1,1.503353268E-1
4.487088493E0,2.125200927E-1,-3.098585606E-1,1.492700726E-1
4.489576253E0,2.242379934E-1,-3.109238148E-1,1.492700726E-1
4.492064014E0,2.338253707E-1,-3.119890988E-1,1.492700726E-1
4.494551774E0,2.412822098E-1,-3.119890988E-1,1.503353268E-1
4.497039534E0,2.466085255E-1,-3.119890988E-1,1.524658650E-1
4.499527295E0,2.498043180E-1,-3.130543530E-1,1.535311192E-1
4.502015055E0,2.498043180E-1,-3.151848912E-1,1.556616426E-1
4.504502816E0,2.466085255E-1,-3.173153996E-1,1.577921808E-1
4.506990576E0,2.402169555E-1,-3.194459379E-1,1.599227041E-1
4.509478337E0,2.316948473E-1,-3.215764761E-1,1.620532274E-1
4.511966097E0,2.210422009E-1,-3.247722387E-1,1.652490199E-1
4.514453857E0,2.071937770E-1,-3.269027770E-1,1.684448123E-1
4.516941618E0,1.933453530E-1,-3.290333152E-1,1.716406047E-1
4.519429378E0,1.784316599E-1,-3.300985694E-1,1.748363972E-1
4.521917139E0,1.624527127E-1,-3.300985694E-1,1.769669205E-1
4.524404899E0,1.454084814E-1,-3.290333152E-1,1.801627129E-1
4.526892659E0,1.294295341E-1,-3.279680312E-1,1.833585054E-1
4.529380420E0,1.145158410E-1,-3.258375227E-1,1.865542978E-1
4.531868180E0,1.017326787E-1,-3.215764761E-1,1.897500902E-1
4.534355941E0,8.894951642E-2,-3.173153996E-1,1.918806136E-1
4.536843701E0,7.936213911E-2,-3.109238148E-1,1.940111369E-1
4.539331462E0,7.084003091E-2,-3.034669757E-1,1.961416751E-1
4.541819222E0,6.338318437E-2,-2.938795984E-1,1.972069293E-1
4.544306982E0,5.699160323E-2,-2.832269669E-1,1.982721984E-1
4.546794743E0,5.060002208E-2,-2.715090811E-1,1.993374527E-1
4.549282503E0,4.633896798E-2,-2.597911656E-1,2.004027218E-1
4.551770264E0,4.207791388E-2,-2.459427416E-1,2.025332451E-1
4.554258024E0,3.994738683E-2,-2.331595868E-1,2.035985142E-1
4.556745784E0,3.675159439E-2,-2.193111479E-1,2.046637833E-1
4.559233545E0,3.462106735E-2,-2.054627240E-1,2.078595608E-1
4.561721305E0,3.249054030E-2,-1.937448233E-1,2.089248300E-1
4.564209066E0,3.036001325E-2,-1.809616536E-1,2.110553533E-1
4.566696826E0,2.716422267E-2,-1.692437679E-1,2.121206224E-1
4.569184587E0,2.503369562E-2,-1.575258672E-1,2.142511457E-1
4.571672347E0,2.077264152E-2,-1.458079666E-1,2.153164148E-1
4.574160107E0,1.544632297E-2,-1.351553202E-1,2.174469382E-1
4.576647868E0,7.989477366E-3,-1.245026886E-1,2.195774615E-1
4.579135628E0,5.326318205E-4,-1.138500497E-1,2.206427306E-1
4.581623389E0,-1.012000442E-2,-1.042626798E-1,2.206427306E-1
4.584111149E0,-2.290316857E-2,-9.467530251E-2,2.217079997E-1
4.586598909E0,-3.568633273E-2,-8.615319431E-2,2.206427306E-1
4.589086670E0,-5.060002208E-2,-7.763108611E-2,2.195774615E-1
4.591574430E0,-6.764423847E-2,-7.017423958E-2,2.185122073E-1
4.594062191E0,-8.575372398E-2,-6.591318548E-2,2.174469382E-1
4.596549951E0,-1.049284711E-1,-6.271740049E-2,2.153164148E-1
4.599037712E0,-1.241032109E-1,-6.271740049E-2,2.142511457E-1
4.601525472E0,-1.443432271E-1,-6.484792382E-2,2.131858915E-1
4.604013232E0,-1.645832360E-1,-6.804371625E-2,2.142511457E-1
4.606500993E0,-1.837579757E-1,-7.337003201E-2,2.142511457E-1
4.608988753E0,-2.008021921E-1,-8.082687855E-2,2.142511457E-1
4.611476514E0,-2.157158852E-1,-8.828372508E-2,2.142511457E-1
4.613964274E0,-2.284990549E-1,-9.680583328E-2,2.153164148E-1
4.616452034E0,-2.380864173E-1,-1.042626798E-1,2.153164148E-1
4.618939795E0,-2.444780022E-1,-1.106542572E-1,2.142511457E-1
4.621427555E0,-2.476737946E-1,-1.159805804E-1,2.142511457E-1
4.623915316E0,-2.466085255E-1,-1.191763729E-1,2.131858915E-1
4.626403076E0,-2.402169555E-1,-1.213068962E-1,2.110553533E-1
4.628890889E0,-2.316948473E-1,-1.223721579E-1,2.089248300E-1
4.631378701E0,-2.189116776E-1,-1.213068962E-1,2.057290375E-1
4.633866514E0,-2.029327303E-1,-1.191763729E-1,2.025332451E-1
4.636354326E0,-1.837579757E-1,-1.159805804E-1,1.982721984E-1
4.638842139E0,-1.635179669E-1,-1.117195264E-1,1.929458827E-1
4.641329951E0,-1.411474347E-1,-1.063932031E-1,1.865542978E-1
4.643817764E0,-1.198421568E-1,-1.010668874E-1,1.801627129E-1
4.646305576E0,-9.853688627E-2,-9.680583328E-2,1.716406047E-1
4.648793389E0,-7.723161578E-2,-9.254477918E-2,1.631184965E-1
4.651281201E0,-5.912213027E-2,-8.934898674E-2,1.535311192E-1
4.653769014E0,-3.994738683E-2,-8.828372508E-2,1.450090110E-1
4.656256826E0,-2.609895915E-2,-8.615319431E-2,1.354216337E-1
4.658744639E0,-1.438105945E-2,-8.615319431E-2,1.258342713E-1
4.661232451E0,-4.793686327E-3,-8.828372508E-2,1.173121557E-1
4.663720264E0,5.326318205E-4,-8.934898674E-2,1.087900475E-1
4.666208076E0,3.728422802E-3,-9.147951752E-2,1.002679393E-1
4.668695889E0,3.728422802E-3,-9.254477918E-2,9.281109273E-2
4.671183701E0,5.326318205E-4,-9.467530251E-2,8.428898454E-2
4.673671514E0,-4.793686327E-3,-9.787109494E-2,7.789740711E-2
4.676159326E0,-1.118526794E-2,-1.000016257E-1,7.150582224E-2
4.678647139E0,-1.970737800E-2,-1.042626798E-1,6.617950648E-2
4.681134951E0,-2.929474972E-2,-1.074584723E-1,6.191844866E-2
4.683622764E0,-4.101264849E-2,-1.117195264E-1,5.765739456E-2
4.686110576E0,-5.273054913E-2,-1.159805804E-1,5.446160212E-2
4.688598389E0,-6.444845349E-2,-1.202416345E-1,5.233107507E-2
4.691086201E0,-7.616634667E-2,-1.245026886E-1,5.020054802E-2
4.693574014E0,-8.788424730E-2,-1.266332120E-1,4.913528636E-2
4.696061826E0,-9.853688627E-2,-1.287637353E-1,5.020054802E-2
4.698549639E0,-1.070589945E-1,-1.298290044E-1,5.020054802E-2
4.701037451E0,-1.145158410E-1,-1.287637353E-1,5.233107507E-2
4.703525264E0,-1.209074259E-1,-1.276984811E-1,5.339634046E-2
4.706013076E0,-1.262337416E-1,-1.245026886E-1,5.659212917E-2
4.708500889E0,-1.294295341E-1,-1.191763729E-1,5.872265995E-2
4.710988701E0,-1.304948032E-1,-1.138500497E-1,6.085318699E-2
4.713476514E0,-1.315600574E-1,-1.085237339E-1,6.404897571E-2
4.715964274E0,-1.294295341E-1,-1.021321490E-1,6.617950648E-2
4.718452034E0,-1.251684725E-1,-9.680583328E-2,6.831002980E-2
4.720939795E0,-1.198421568E-1,-9.147951752E-2,7.044056058E-2
4.723427555E0,-1.123853177E-1,-8.721846342E-2,7.257108390E-2
4.725915316E0,-1.049284711E-1,-8.295740932E-2,7.576687634E-2
4.728403076E0,-9.747162461E-2,-7.869634777E-2,7.683213800E-2
4.730890837E0,-8.894951642E-2,-7.550056279E-2,7.789740711E-2
4.733378597E0,-8.042740822E-2,-7.337003201E-2,8.002793044E-2
4.735866357E0,-6.977476925E-2,-7.337003201E-2,8.215846121E-2
4.738354118E0,-6.018739566E-2,-7.337003201E-2,8.215846121E-2
4.740841878E0,-5.060002208E-2,-7.443529367E-2,8.215846121E-2
4.743329639E0,-4.101264849E-2,-7.763108611E-2,8.215846121E-2
4.745817399E0,-3.036001325E-2,-8.189214021E-2,8.109319210E-2
4.748305159E0,-2.183790505E-2,-8.615319431E-2,8.002793044E-2
4.750792920E0,-1.331579592E-2,-9.254477918E-2,7.896266878E-2
4.753280680E0,-4.793686327E-3,-9.893636405E-2,7.683213800E-2
4.755768441E0,2.663159044E-3,-1.053279415E-1,7.363634557E-2
4.758256201E0,7.989477366E-3,-1.106542572E-1,7.044056058E-2
4.760743962E0,1.331579592E-2,-1.159805804E-1,6.724476814E-2
4.763231722E0,1.651158556E-2,-1.202416345E-1,6.298371404E-2
4.765719482E0,1.970737800E-2,-1.234374270E-1,5.872265995E-2
4.768207243E0,2.077264152E-2,-1.276984811E-1,5.339634046E-2
4.770695003E0,2.290316857E-2,-1.287637353E-1,4.913528636E-2
4.773182764E0,2.290316857E-2,-1.298290044E-1,4.487423226E-2
4.775670524E0,2.290316857E-2,-1.298290044E-1,4.167843983E-2
4.778158284E0,2.183790505E-2,-1.287637353E-1,3.954791278E-2
4.780646045E0,1.970737800E-2,-1.276984811E-1,3.635212034E-2
4.783133805E0,1.757685095E-2,-1.255679578E-1,3.422159329E-2
4.785621566E0,1.544632297E-2,-1.223721579E-1,3.315633163E-2
4.788109326E0,1.225053146E-2,-1.170458421E-1,3.315633163E-2
4.790597087E0,9.054740891E-3,-1.117195264E-1,3.422159329E-2
4.793084847E0,4.793686327E-3,-1.063932031E-1,3.528685868E-2
4.795572607E0,5.326318205E-4,-1.010668874E-1,3.741738573E-2
4.798060368E0,-5.858949851E-3,-9.680583328E-2,3.954791278E-2
4.800548128E0,-1.225053146E-2,-9.254477918E-2,4.274370521E-2
4.803035889E0,-1.970737800E-2,-8.828372508E-2,4.487423226E-2
4.805523649E0,-2.822948620E-2,-8.615319431E-2,4.807002097E-2
4.808011409E0,-3.781685978E-2,-8.402267098E-2,5.020054802E-2
4.810499170E0,-4.740423337E-2,-8.189214021E-2,5.233107507E-2
4.812986930E0,-5.592634156E-2,-8.082687855E-2,5.446160212E-2
4.815474691E0,-6.551371515E-2,-7.976161689E-2,5.659212917E-2
4.817962451E0,-7.510108501E-2,-7.763108611E-2,5.872265995E-2
4.820450212E0,-8.362319320E-2,-7.656582445E-2,5.978792161E-2
4.822937972E0,-9.214530140E-2,-7.337003201E-2,5.978792161E-2
4.825425732E0,-9.747162461E-2,-7.017423958E-2,6.085318699E-2
4.827913493E0,-1.038632020E-1,-6.591318548E-2,6.085318699E-2
4.830401253E0,-1.059937328E-1,-5.952160433E-2,5.978792161E-2
4.832889014E0,-1.081242561E-1,-5.313002318E-2,5.765739456E-2
4.835376774E0,-1.081242561E-1,-4.673844203E-2,5.552686751E-2
4.837864534E0,-1.070589945E-1,-3.928159550E-2,5.339634046E-2
4.840352295E0,-1.059937328E-1,-3.395527974E-2,5.233107507E-2
4.842840055E0,-1.027979404E-1,-2.756369673E-2,5.126581341E-2
4.845327816E0,-9.960214794E-2,-2.223737910E-2,5.126581341E-2
4.847815576E0,-9.640636295E-2,-1.691105962E-2,5.126581341E-2
4.850303337E0,-9.214530140E-2,-1.158474199E-2,5.233107507E-2
4.852791097E0,-8.788424730E-2,-5.193160381E-3,5.446160212E-2
4.855278857E0,-8.362319320E-2,1.198421582E-3,5.552686751E-2
4.857766618E0,-7.936213911E-2,8.655266836E-3,5.765739456E-2
4.860254378E0,-7.510108501E-2,1.717737690E-2,5.978792161E-2
4.862742139E0,-7.190529257E-2,2.463422157E-2,6.191844866E-2
4.865229899E0,-6.870950758E-2,3.209106624E-2,6.404897571E-2
4.867717659E0,-6.551371515E-2,3.954791278E-2,6.724476814E-2
4.870205420E0,-6.338318437E-2,4.700475931E-2,7.044056058E-2
4.872693180E0,-6.338318437E-2,5.339634046E-2,7.470161468E-2
4.875180941E0,-6.338318437E-2,5.765739456E-2,7.789740711E-2
4.877668701E0,-6.551371515E-2,6.085318699E-2,8.215846121E-2
4.880156462E0,-6.657897681E-2,6.298371404E-2,8.748477697E-2
4.882644222E0,-6.977476925E-2,6.404897571E-2,9.174583107E-2
4.885131982E0,-7.297056168E-2,6.511423737E-2,9.707214683E-2
4.887619743E0,-7.723161578E-2,6.404897571E-2,1.023984700E-1
4.890107503E0,-8.042740822E-2,6.298371404E-2,1.066595241E-1
4.892595264E0,-8.468846232E-2,5.978792161E-2,1.109205782E-1
4.895083024E0,-8.788424730E-2,5.765739456E-2,1.130511016E-1
4.897570784E0,-9.214530140E-2,5.552686751E-2,1.162468940E-1
4.900058545E0,-9.640636295E-2,5.339634046E-2,1.194426864E-1
4.902546305E0,-9.853688627E-2,5.233107507E-2,1.215732098E-1
4.905034066E0,-1.006674170E-1,5.233107507E-2,1.226384789E-1
4.907521826E0,-1.017326787E-1,5.233107507E-2,1.247690022E-1
4.910009587E0,-1.006674170E-1,5.339634046E-2,1.258342713E-1
4.912497347E0,-9.747162461E-2,5.552686751E-2,1.268995255E-1
4.914985107E0,-9.427583218E-2,5.765739456E-2,1.258342713E-1
4.917472868E0,-8.894951642E-2,5.872265995E-2,1.258342713E-1
4.919960628E0,-8.255793154E-2,5.978792161E-2,1.237037405E-1
4.922448389E0,-7.510108501E-2,5.978792161E-2,1.215732098E-1
4.924936149E0,-6.764423847E-2,6.085318699E-2,1.183774248E-1
4.927423962E0,-5.912213027E-2,5.978792161E-2,1.151816323E-1
4.929911774E0,-5.166528746E-2,5.978792161E-2,1.098553166E-1
4.932399587E0,-4.527370632E-2,5.872265995E-2,1.045289934E-1
4.934887399E0,-3.888212144E-2,5.659212917E-2,9.920267761E-2
4.937375212E0,-3.355580568E-2,5.446160212E-2,9.281109273E-2
4.939863024E0,-3.036001325E-2,5.233107507E-2,8.535424620E-2
4.942350837E0,-2.609895915E-2,4.807002097E-2,8.002793044E-2
4.944838649E0,-2.396843210E-2,4.274370521E-2,7.257108390E-2
4.947326462E0,-2.290316857E-2,3.848264739E-2,6.617950648E-2
4.949814274E0,-2.183790505E-2,3.315633163E-2,5.872265995E-2
4.952302087E0,-2.290316857E-2,2.783001214E-2,5.126581341E-2
4.954789899E0,-2.396843210E-2,2.143843099E-2,4.380896688E-2
4.957277712E0,-2.716422267E-2,1.504684892E-2,3.635212034E-2
4.959765524E0,-3.142527863E-2,8.655266836E-3,2.889527567E-2
4.962253337E0,-3.675159439E-2,1.198421582E-3,2.250369452E-2
4.964741149E0,-4.207791388E-2,-6.258423906E-3,1.611211337E-2
4.967228962E0,-4.633896798E-2,-1.478053257E-2,9.720530361E-3
