"Time (s)","Acceleration x (m/s^2)","Acceleration y (m/s^2)","Acceleration z (m/s^2)"
2.896600700E-2,-1.011669922E1,-1.573589087E0,1.975814939E0
3.145371500E-2,-1.004487324E1,-1.621473074E0,2.191293001E0
3.394142400E-2,-1.000177765E1,-1.650203466E0,2.440289974E0
3.642913200E-2,-9.992200851E0,-1.722029567E0,2.655768156E0
3.891684000E-2,-1.001614285E1,-1.817797661E0,2.837727547E0
4.140454900E-2,-1.004966164E1,-1.927930951E0,2.981379747E0
4.389225700E-2,-1.009275723E1,-2.042852640E0,3.096301317E0
4.637996500E-2,-1.010712242E1,-2.148197412E0,3.177704096E0
4.886767400E-2,-1.015500641E1,-2.234388828E0,3.235165119E0
5.135538200E-2,-1.020289040E1,-2.306214809E0,3.292625904E0
5.384309000E-2,-1.025556278E1,-2.344521999E0,3.302202702E0
5.633079900E-2,-1.028908157E1,-2.387617588E0,3.278260708E0
5.881850700E-2,-1.033696556E1,-2.430713177E0,3.192069530E0
6.130621500E-2,-1.037527275E1,-2.512116194E0,3.053205729E0
6.379392400E-2,-1.043752193E1,-2.627037764E0,2.880823135E0
6.628163200E-2,-1.047104073E1,-2.804208755E0,2.627037764E0
6.876934000E-2,-1.051892471E1,-3.034052134E0,2.311003208E0
7.125704900E-2,-1.053328991E1,-3.273472309E0,1.985391736E0
7.374475700E-2,-1.050455952E1,-3.512892485E0,1.678933978E0
7.623246500E-2,-1.041357994E1,-3.714005470E0,1.372476101E0
7.872017400E-2,-1.029865837E1,-3.867234230E0,1.142632723E0
8.120788200E-2,-1.014064121E1,-3.996521235E0,9.367313981E-1
8.369559000E-2,-9.968258858E0,-4.101866245E0,8.265981078E-1
8.618329900E-2,-9.815030098E0,-4.231153011E0,7.882909179E-1
8.867100700E-2,-9.642647743E0,-4.336497784E0,7.882909179E-1
9.115871500E-2,-9.508571625E0,-4.460996151E0,7.930793166E-1
9.364642400E-2,-9.379284859E0,-4.585494995E0,8.074445128E-1
9.613413200E-2,-9.259574890E0,-4.705204964E0,7.978677154E-1
9.862184000E-2,-9.159018517E0,-4.777030945E0,7.835025191E-1
1.011095490E-1,-9.063250542E0,-4.834491730E0,7.882909179E-1
1.035972570E-1,-9.010578156E0,-4.863222122E0,7.547720671E-1
1.060849650E-1,-8.991424561E0,-4.844068527E0,7.595604658E-1
1.085726740E-1,-9.024943352E0,-4.767454147E0,8.122329116E-1
1.110603820E-1,-9.072827339E0,-4.657320976E0,8.888474107E-1
1.135480900E-1,-9.202114105E0,-4.528033733E0,1.022922635E0
1.160357990E-1,-9.307458878E0,-4.379593372E0,1.109113932E0
1.185235070E-1,-9.431957245E0,-4.216787815E0,1.142632723E0
1.210112150E-1,-9.537302017E0,-4.063559055E0,1.109113932E0
1.234989240E-1,-9.657012939E0,-3.910329819E0,1.037287831E0
1.259866320E-1,-9.791088104E0,-3.742735863E0,9.175778031E-1
1.284743400E-1,-9.944316864E0,-3.584718466E0,7.356184721E-1
1.309620490E-1,-1.014542961E1,-3.412335873E0,5.584475398E-1
1.334497570E-1,-1.033696556E1,-3.239953518E0,3.716998100E-1
1.359374650E-1,-1.052850151E1,-3.043628931E0,1.993172914E-1
1.384251740E-1,-1.075355721E1,-2.828150749E0,6.524199992E-2
1.409128820E-1,-1.099297714E1,-2.574365377E0,-3.052607179E-2
1.434005900E-1,-1.127549267E1,-2.311003208E0,-1.693897694E-1
1.458882990E-1,-1.151970100E1,-2.090736628E0,-3.417722881E-1
1.483760070E-1,-1.177827549E1,-1.884835243E0,-5.620388389E-1
1.508637150E-1,-1.203206062E1,-1.712452769E0,-8.158242106E-1
1.533514240E-1,-1.226190376E1,-1.592742682E0,-1.117493629E0
1.558391320E-1,-1.247738171E1,-1.492186189E0,-1.380855799E0
1.583268400E-1,-1.262582302E1,-1.420360208E0,-1.610699177E0
1.608145490E-1,-1.273595619E1,-1.334168911E0,-1.826177359E0
1.633022570E-1,-1.282214737E1,-1.271919608E0,-2.036867142E0
1.657899650E-1,-1.284130096E1,-1.247977614E0,-2.218826532E0
1.682776740E-1,-1.284608936E1,-1.228824019E0,-2.271498919E0
1.707653820E-1,-1.281257057E1,-1.233612418E0,-2.137423515E0
1.732530900E-1,-1.273595619E1,-1.271919608E0,-1.854907751E0
1.757408510E-1,-1.266891861E1,-1.386841297E0,-1.452681899E0
1.782286110E-1,-1.256357384E1,-1.578377485E0,-1.012148738E0
1.807163720E-1,-1.236724854E1,-1.841739655E0,-6.051344872E-1
1.832041320E-1,-1.209430981E1,-2.176927805E0,-2.555810213E-1
1.856918920E-1,-1.175433350E1,-2.516904593E0,1.562216580E-1
1.881796530E-1,-1.139041424E1,-2.813785553E0,5.871779919E-1
1.906674130E-1,-1.105043793E1,-3.081936121E0,1.104325533E0
1.931551740E-1,-1.076313400E1,-3.306991100E0,1.664568782E0
1.956429340E-1,-1.052850151E1,-3.512892485E0,2.205658197E0
1.981306950E-1,-1.037048435E1,-3.709217072E0,2.694075346E0
2.006184550E-1,-1.025077438E1,-3.905541420E0,3.077147722E0
2.031062150E-1,-1.019331360E1,-4.111443043E0,3.378817081E0
2.055939760E-1,-1.016458321E1,-4.259883404E0,3.589506865E0
2.080817360E-1,-1.014064121E1,-4.326920986E0,3.776254654E0
2.105694970E-1,-1.017894840E1,-4.312555790E0,3.915118217E0
2.130572570E-1,-1.025556278E1,-4.269460201E0,4.034828186E0
2.155450170E-1,-1.036569595E1,-4.168903828E0,4.082712650E0
2.180327780E-1,-1.052371311E1,-4.053982258E0,4.020462990E0
2.205205380E-1,-1.070567322E1,-3.924695253E0,3.814561844E0
2.230082990E-1,-1.087805557E1,-3.809773445E0,3.488950491E0
2.254960590E-1,-1.102170753E1,-3.656544447E0,3.057994127E0
2.279838200E-1,-1.117972469E1,-3.488950491E0,2.560000181E0
2.304715800E-1,-1.135210705E1,-3.292625904E0,2.018910646E0
2.329593400E-1,-1.154364395E1,-3.105878115E0,1.449090600E0
2.354471010E-1,-1.176869869E1,-2.928707123E0,8.361749649E-1
2.379348610E-1,-1.201290703E1,-2.818573952E0,2.088941038E-1
2.404226220E-1,-1.222359657E1,-2.722805977E0,-4.519055784E-1
2.429103820E-1,-1.242470932E1,-2.641402960E0,-1.146224022E0
2.453981420E-1,-1.256836224E1,-2.550423384E0,-1.816600561E0
2.478859030E-1,-1.268807220E1,-2.454655409E0,-2.419939280E0
2.503736630E-1,-1.275032139E1,-2.334945202E0,-2.908356428E0
2.528614240E-1,-1.275989819E1,-2.220023632E0,-3.253121614E0
2.553491840E-1,-1.271201420E1,-2.148197412E0,-3.463811398E0
2.578369450E-1,-1.261145782E1,-2.124255419E0,-3.564367771E0
2.603247050E-1,-1.248695850E1,-2.152985811E0,-3.487753391E0
2.628124650E-1,-1.235767174E1,-2.263119221E0,-3.310582399E0
2.653002260E-1,-1.223317337E1,-2.449866772E0,-2.965817451E0
2.677879860E-1,-1.211346340E1,-2.689286947E0,-2.482188702E0
2.702757470E-1,-1.199854183E1,-2.947860956E0,-1.926733851E0
2.727635070E-1,-1.185488987E1,-3.230376720E0,-1.356913805E0
2.752512670E-1,-1.167293072E1,-3.488950491E0,-7.966706157E-1
2.777389760E-1,-1.146702862E1,-3.776254654E0,-2.986766696E-1
2.802266840E-1,-1.123239708E1,-4.053982258E0,1.610100716E-1
2.827143920E-1,-1.098818874E1,-4.302978992E0,6.015431881E-1
2.852021010E-1,-1.077749920E1,-4.475361347E0,1.037287831E0
2.876898090E-1,-1.060990524E1,-4.580706596E0,1.473032594E0
2.901775170E-1,-1.054765606E1,-4.619013786E0,1.880046844E0
2.926652260E-1,-1.056202126E1,-4.599860191E0,2.258330822E0
2.951529340E-1,-1.067694283E1,-4.523245335E0,2.588730574E0
2.976406420E-1,-1.086369038E1,-4.432265759E0,2.880823135E0
3.001283510E-1,-1.110789871E1,-4.341286182E0,3.077147722E0
3.026160590E-1,-1.139041424E1,-4.216787815E0,3.134608507E0
3.051037670E-1,-1.166335392E1,-4.063559055E0,3.091512918E0
3.075914760E-1,-1.191713905E1,-3.843292236E0,2.967014551E0
3.100791840E-1,-1.214219379E1,-3.555988073E0,2.804208755E0
3.125668920E-1,-1.235767174E1,-3.230376720E0,2.564788580E0
3.150546010E-1,-1.257315063E1,-2.871246338E0,2.311003208E0
3.175423090E-1,-1.280299377E1,-2.488174200E0,2.047641039E0
3.200300170E-1,-1.307593250E1,-2.090736628E0,1.822586060E0
3.225177260E-1,-1.339675522E1,-1.755548358E0,1.678933978E0
3.250054340E-1,-1.371279049E1,-1.473032594E0,1.650203466E0
3.274931420E-1,-1.395699883E1,-1.262342811E0,1.664568782E0
3.299808510E-1,-1.408149719E1,-1.089960337E0,1.750759959E0
3.324685590E-1,-1.412938118E1,-9.510966539E-1,1.865681648E0
3.349562670E-1,-1.412459278E1,-8.792705536E-1,2.004545450E0
3.374439760E-1,-1.410065079E1,-8.170213103E-1,2.162562609E0
3.399316840E-1,-1.403840160E1,-8.265981078E-1,2.282272816E0
3.424193920E-1,-1.392348003E1,-8.792705536E-1,2.421136379E0
3.449071010E-1,-1.372236729E1,-9.846154451E-1,2.545634985E0
3.473948090E-1,-1.346858120E1,-1.156997919E0,2.646191359E0
3.498825170E-1,-1.313339329E1,-1.391629696E0,2.708440781E0
3.523702260E-1,-1.275510979E1,-1.654991984E0,2.741959572E0
3.548579340E-1,-1.239597893E1,-1.961449742E0,2.789843559E0
3.573456420E-1,-1.207994461E1,-2.272696018E0,2.856881142E0
3.598333510E-1,-1.180700588E1,-2.536058187E0,2.914341927E0
3.623210590E-1,-1.157716274E1,-2.789843559E0,2.947860956E0
3.648087670E-1,-1.139041424E1,-3.034052134E0,2.957437754E0
3.672964760E-1,-1.121324348E1,-3.263895512E0,2.919130325E0
3.697841840E-1,-1.100255394E1,-3.498527288E0,2.866457939E0
3.722718920E-1,-1.081101799E1,-3.680486679E0,2.804208755E0
3.747596010E-1,-1.064821243E1,-3.800196648E0,2.746747971E0
3.772473090E-1,-1.052850151E1,-3.876811028E0,2.708440781E0
3.797350170E-1,-1.049019432E1,-3.919906616E0,2.718017578E0
3.822227260E-1,-1.055723286E1,-3.953425646E0,2.689286947E0
3.847104340E-1,-1.066736603E1,-4.015674591E0,2.617460966E0
3.871981420E-1,-1.085411358E1,-4.063559055E0,2.483385801E0
3.896858510E-1,-1.105043793E1,-4.077924252E0,2.311003208E0
3.921735590E-1,-1.128028107E1,-4.015674591E0,2.167351007E0
3.946612670E-1,-1.154843235E1,-3.862445831E0,2.066794634E0
3.971489760E-1,-1.185488987E1,-3.584718466E0,1.999756932E0
3.996366840E-1,-1.218050098E1,-3.196857929E0,1.937507749E0
4.021243920E-1,-1.256836224E1,-2.732382774E0,1.860893250E0
4.046121010E-1,-1.290833855E1,-2.239177227E0,1.726817966E0
4.070998090E-1,-1.322916126E1,-1.750759959E0,1.535281897E0
4.095875170E-1,-1.355477333E1,-1.286284804E0,1.324592113E0
4.120752260E-1,-1.380855846E1,-8.409633636E-1,1.046864748E0
4.145629340E-1,-1.399051762E1,-4.243722558E-1,7.404068708E-1
4.170506420E-1,-1.407670879E1,-3.172317147E-2,4.339490533E-1
4.195383510E-1,-1.408149719E1,3.226186931E-1,1.610100716E-1
4.220260590E-1,-1.410065079E1,6.769605279E-1,-9.756372124E-2
4.245137670E-1,-1.419641876E1,9.834183455E-1,-2.938882709E-1
4.270015280E-1,-1.436880112E1,1.265934110E0,-4.375403523E-1
4.294892880E-1,-1.458906841E1,1.500565886E0,-5.764040351E-1
4.319770490E-1,-1.470877838E1,1.610699177E0,-6.721721292E-1
4.344648090E-1,-1.467525959E1,1.591545582E0,-7.535749674E-1
4.369525700E-1,-1.443583870E1,1.414374709E0,-8.062474132E-1
4.394403300E-1,-1.398572922E1,1.079186440E0,-8.301894665E-1
4.419280900E-1,-1.338239002E1,6.051344872E-1,-8.445546627E-1
4.444158510E-1,-1.271680260E1,2.094926499E-2,-7.631517649E-1
4.469036110E-1,-1.202248383E1,-5.776011348E-1,-5.572504401E-1
4.493913720E-1,-1.137604904E1,-1.166574836E0,-2.412158251E-1
4.518791320E-1,-1.080144119E1,-1.678933978E0,1.466448605E-1
4.543668920E-1,-1.037048435E1,-2.162562609E0,5.392939448E-1
4.568546530E-1,-1.002571964E1,-2.636614561E0,9.367313981E-1
4.593424130E-1,-9.791088104E0,-3.081936121E0,1.286284804E0
4.618301740E-1,-9.623494148E0,-3.498527288E0,1.611896276E0
4.643179340E-1,-9.489418030E0,-3.848080635E0,1.932719350E0
4.668056950E-1,-9.384073257E0,-4.125808239E0,2.263119221E0
4.692934550E-1,-9.350554466E0,-4.279036999E0,2.622249365E0
4.717812150E-1,-9.417592049E0,-4.326920986E0,3.048417330E0
4.742689760E-1,-9.628282547E0,-4.264671803E0,3.512892485E0
4.767567360E-1,-9.915586472E0,-4.140173435E0,3.919906616E0
4.792444970E-1,-1.030344677E1,-3.963002443E0,4.235941410E0
4.817322570E-1,-1.072961521E1,-3.761889458E0,4.437054157E0
4.842200170E-1,-1.116535950E1,-3.498527288E0,4.480149746E0
4.867077780E-1,-1.157716274E1,-3.172915697E0,4.408323765E0
4.891955380E-1,-1.195065784E1,-2.813785553E0,4.255095005E0
4.916832990E-1,-1.224275017E1,-2.440289974E0,4.010886192E0
4.941710590E-1,-1.247259331E1,-2.085948229E0,3.742735863E0
4.966588200E-1,-1.263061142E1,-1.731606364E0,3.474585295E0
4.991465800E-1,-1.278862858E1,-1.382052898E0,3.182492495E0
5.016343400E-1,-1.295143414E1,-1.046864748E0,2.871246338E0
5.041221010E-1,-1.309029770E1,-6.925228238E-1,2.536058187E0
5.066098610E-1,-1.316212368E1,-3.286041915E-1,2.181716204E0
5.090976220E-1,-1.317648888E1,-1.256955881E-2,1.784278870E0
5.115853820E-1,-1.315254688E1,2.124854028E-1,1.338957310E0
5.140731420E-1,-1.309508610E1,3.274070919E-1,8.505401611E-1
5.165609030E-1,-1.301847172E1,3.321954906E-1,3.381809890E-1
5.190486630E-1,-1.287960815E1,3.082534671E-1,-1.119289324E-1
5.215364240E-1,-1.272637939E1,2.747346461E-1,-5.380968451E-1
5.240241840E-1,-1.258751583E1,2.412158251E-1,-9.068039060E-1
5.265119450E-1,-1.241513252E1,1.550245583E-1,-1.222838521E0
5.289997050E-1,-1.222838497E1,-1.256955881E-2,-1.486200690E0
5.314874130E-1,-1.202727222E1,-2.807201445E-1,-1.682525277E0
5.339751220E-1,-1.178785229E1,-6.637924314E-1,-1.797446966E0
5.364628300E-1,-1.147660542E1,-1.152209520E0,-1.907580256E0
5.389505380E-1,-1.112705231E1,-1.650203466E0,-1.955464244E0
5.414385070E-1,-1.068173122E1,-2.138620615E0,-1.950675845E0
5.439260590E-1,-1.020289040E1,-2.560000181E0,-1.907580256E0
5.464136110E-1,-9.738415718E0,-2.933495522E0,-1.802235365E0
5.489011630E-1,-9.317035675E0,-3.278260708E0,-1.634641171E0
5.513887150E-1,-8.933963776E0,-3.560776472E0,-1.400009394E0
5.538762670E-1,-8.622717857E0,-3.781043053E0,-1.160589218E0
5.563638200E-1,-8.392873764E0,-4.006097794E0,-8.780734539E-1
5.588513720E-1,-8.254010201E0,-4.240729809E0,-6.051344872E-1
5.613389240E-1,-8.177395821E0,-4.465784550E0,-3.274070919E-1
5.638265280E-1,-8.143877029E0,-4.686051369E0,-6.404489279E-2
5.663141840E-1,-8.115146637E0,-4.848856926E0,1.562216580E-1
5.688018920E-1,-8.148665428E0,-4.935048103E0,3.381809890E-1
5.712896530E-1,-8.249221802E0,-4.906317711E0,5.057750940E-1
5.737774650E-1,-8.479064941E0,-4.777030945E0,6.637924314E-1
5.762653300E-1,-8.833407402E0,-4.518456936E0,7.978677154E-1
5.787531950E-1,-9.278728485E0,-4.197634220E0,8.840589523E-1
5.812410590E-1,-9.700108528E0,-3.852869034E0,8.696937561E-1
5.837289240E-1,-1.006402683E1,-3.517680883E0,8.026561141E-1
5.862167880E-1,-1.039921474E1,-3.196857929E0,6.733692288E-1
5.887046530E-1,-1.070567322E1,-2.895188332E0,5.201402903E-1
5.911925170E-1,-1.095466995E1,-2.603095770E0,3.525462151E-1
5.936803820E-1,-1.117014790E1,-2.315791607E0,1.514332592E-1
5.961682470E-1,-1.135689545E1,-2.052429438E0,-5.925649032E-2
5.986561110E-1,-1.152449036E1,-1.798644066E0,-2.747346461E-1
6.011438720E-1,-1.170166111E1,-1.559223890E0,-5.045779943E-1
6.036316320E-1,-1.189798546E1,-1.329380512E0,-7.487865686E-1
6.061193400E-1,-1.203684902E1,-1.109113932E0,-1.074398041E0
6.086070490E-1,-1.212782860E1,-9.127894044E-1,-1.433528304E0
6.110947570E-1,-1.218528938E1,-7.643488646E-1,-1.811812162E0
6.135824650E-1,-1.215655899E1,-6.637924314E-1,-2.190095901E0
6.160701740E-1,-1.206557941E1,-6.159083843E-1,-2.534861088E0
6.185578820E-1,-1.189319706E1,-6.781576276E-1,-2.879626036E0
6.210455900E-1,-1.159152794E1,-7.595604658E-1,-3.147776604E0
6.235332990E-1,-1.117972469E1,-8.840589523E-1,-3.377619982E0
6.260210070E-1,-1.074876881E1,-1.037287831E0,-3.612251759E0
6.285087150E-1,-1.031302357E1,-1.233612418E0,-3.789422750E0
6.309964240E-1,-9.829395294E0,-1.477820992E0,-3.837306738E0
6.334841320E-1,-9.269151688E0,-1.731606364E0,-3.760692358E0
6.359718400E-1,-8.780735016E0,-1.908777356E0,-3.559579372E0
6.384595490E-1,-8.397662163E0,-1.980603337E0,-3.324947596E0
6.409472570E-1,-8.134300232E0,-2.042852640E0,-3.032855034E0
6.434349650E-1,-7.981071472E0,-2.133832216E0,-2.707243681E0
6.459226740E-1,-7.914033890E0,-2.258330822E0,-2.352901697E0
6.484103820E-1,-7.837419033E0,-2.358887196E0,-1.912368655E0
6.508980900E-1,-7.765593052E0,-2.363675594E0,-1.447893500E0
6.533857990E-1,-7.813477039E0,-2.205658197E0,-8.924387097E-1
6.558735070E-1,-7.985859871E0,-1.932719350E0,-2.555810213E-1
6.583612150E-1,-8.225279808E0,-1.607107878E0,4.291606545E-1
6.608489240E-1,-8.493430138E0,-1.334168911E0,1.118690729E0
6.633366320E-1,-8.761581421E0,-1.147421122E0,1.774701953E0
6.658243400E-1,-9.058462143E0,-1.003769040E0,2.392405987E0
6.683120490E-1,-9.374496460E0,-8.792705536E-1,2.957437754E0
6.707997570E-1,-9.719262123E0,-7.212532759E-1,3.465008497E0
6.732874650E-1,-1.008318043E1,-5.249287486E-1,3.910329819E0
6.757751740E-1,-1.042315674E1,-3.381809890E-1,4.255095005E0
6.782628820E-1,-1.080622959E1,-1.562216580E-1,4.532822132E0
6.807505900E-1,-1.118451309E1,2.094926499E-2,4.733935356E0
6.832382990E-1,-1.152927876E1,2.124854028E-1,4.815338135E0
6.857260070E-1,-1.188362026E1,4.040215313E-1,4.810549736E0
6.882137150E-1,-1.219965458E1,6.578069329E-1,4.714781761E0
6.907014240E-1,-1.248695850E1,9.020155072E-1,4.566341400E0
6.931891320E-1,-1.272637939E1,1.151012421E0,4.302978992E0
6.956768400E-1,-1.284130096E1,1.395220995E0,3.963002443E0
6.981645490E-1,-1.282693577E1,1.567603588E0,3.517680883E0
7.006522570E-1,-1.262582302E1,1.639429569E0,2.976591349E0
7.031399650E-1,-1.223796177E1,1.629852772E0,2.330156803E0
7.056276740E-1,-1.166814232E1,1.534084797E0,1.659780383E0
7.081153820E-1,-1.104086113E1,1.347337008E0,9.989806414E-1
7.106030900E-1,-1.041836834E1,1.112705231E0,4.291606545E-1
7.130907990E-1,-9.829395294E0,8.254010081E-1,-1.137245819E-2
7.155785070E-1,-9.288305283E0,5.333084464E-1,-3.465606868E-1
7.180662150E-1,-8.828619003E0,2.364274114E-1,-6.434416771E-1
7.205539240E-1,-8.354566574E0,-4.129998013E-2,-9.355342984E-1
7.230416320E-1,-7.832630634E0,-2.855085433E-1,-1.218050122E0
7.255293400E-1,-7.272387505E0,-5.153518915E-1,-1.505354285E0
7.280170490E-1,-6.716932774E0,-7.356184721E-1,-1.687313676E0
7.305047570E-1,-6.190208435E0,-9.510966539E-1,-1.749562860E0
7.329924650E-1,-5.687426090E0,-1.171363235E0,-1.620275974E0
7.354801740E-1,-5.261258125E0,-1.310226917E0,-1.285087705E0
7.379678820E-1,-4.950012207E0,-1.372476101E0,-7.918822169E-1
7.404556420E-1,-4.744110584E0,-1.386841297E0,-2.412158251E-1
7.429434030E-1,-4.610035419E0,-1.338957310E0,3.525462151E-1
7.454311630E-1,-4.452018261E0,-1.262342811E0,9.894038439E-1
7.479189240E-1,-4.255693436E0,-1.180940032E0,1.659780383E0
7.504066840E-1,-3.954024076E0,-1.113902330E0,2.363675594E0
7.528944450E-1,-3.527856112E0,-1.013345838E0,3.053205729E0
7.553822050E-1,-3.106476784E0,-8.170213103E-1,3.776254654E0
7.578699650E-1,-2.685097218E0,-6.159083843E-1,4.489726543E0
7.603577260E-1,-2.321178436E0,-4.531026781E-1,5.121796131E0
7.628454860E-1,-2.009932280E0,-2.759317458E-1,5.634155273E0
7.653332470E-1,-1.727416515E0,-7.960720360E-2,5.993285179E0
7.678210070E-1,-1.368286252E0,8.798690885E-2,6.223128796E0
7.703087670E-1,-9.564836025E-1,2.843114436E-1,6.333261967E0
7.727965280E-1,-5.063736439E-1,5.093663931E-1,6.400299549E0
7.752842880E-1,-5.626374111E-2,7.200561762E-1,6.419453144E0
7.777720490E-1,4.129997790E-1,9.163807034E-1,6.352415562E0
7.802598090E-1,8.631097078E-1,1.088763237E0,6.218340397E0
7.827475700E-1,1.270123959E0,1.280299306E0,6.012439251E0
7.852353300E-1,1.533486247E0,1.514931083E0,5.729923248E0
7.877230900E-1,1.634042621E0,1.807023764E0,5.423465252E0
7.902108510E-1,1.610100627E0,2.170942307E0,5.088277340E0
7.926986110E-1,1.552639842E0,2.515707493E0,4.748300552E0
7.951863720E-1,1.538274646E0,2.812588453E0,4.389170170E0
7.976741320E-1,1.619677424E0,3.061585426E0,3.972579241E0
8.001618920E-1,1.739387512E0,3.219602823E0,3.460220098E0
8.026496530E-1,1.916558504E0,3.310582399E0,2.938283920E0
8.051374130E-1,2.103306293E0,3.348889589E0,2.378040791E0
8.076251740E-1,2.270900249E0,3.310582399E0,1.774701953E0
8.101129340E-1,2.376245260E0,3.214814425E0,1.123479128E0
8.126006950E-1,2.457648039E0,3.042431831E0,5.488707423E-1
8.150884550E-1,2.481590033E0,2.870049238E0,-1.795651275E-3
8.175762150E-1,2.395398855E0,2.755127668E0,-4.231751561E-1
8.200639760E-1,2.199074268E0,2.668936253E0,-6.386532784E-1
8.225517360E-1,2.007538080E0,2.544437885E0,-8.876502514E-1
8.250394970E-1,1.792060018E0,2.381632090E0,-1.309029818E0
8.275272570E-1,1.581370234E0,2.237980127E0,-1.835754156E0
8.300150170E-1,1.318008065E0,2.084751129E0,-2.381632090E0
8.325027780E-1,1.030703783E0,1.898003340E0,-2.826953650E0
8.349905380E-1,7.242460251E-1,1.653794765E0,-3.166930199E0
8.374782990E-1,3.746925592E-1,1.342548609E0,-3.468599796E0
8.399660590E-1,-1.316810958E-2,1.002571940E0,-3.751115561E0
8.424538200E-1,-3.914519846E-1,6.913257241E-1,-3.765480757E0
8.449415800E-1,-8.990227580E-1,5.093663931E-1,-3.588309765E0
8.474293400E-1,-1.535880446E0,3.848679364E-1,-3.406350374E0
8.499171010E-1,-2.354697466E0,3.321954906E-1,-3.224391222E0
8.524048090E-1,-3.360262156E0,3.752911091E-1,-3.047220230E0
8.548925170E-1,-4.428076267E0,4.566939771E-1,-2.870049238E0
8.573802260E-1,-5.448006153E0,5.189431906E-1,-2.678513050E0
8.598679340E-1,-6.415263653E0,5.380968451E-1,-2.549226284E0
8.623556420E-1,-7.234080315E0,5.524620414E-1,-2.506130695E0
8.648433510E-1,-7.909245491E0,5.811924338E-1,-2.587533474E0
8.673310590E-1,-8.412027359E0,5.811924338E-1,-2.850895643E0
8.698187670E-1,-8.718485832E0,5.668272376E-1,-3.176506996E0
8.723064760E-1,-8.890868187E0,4.997895956E-1,-3.554790974E0
8.747941840E-1,-9.024943352E0,3.561375141E-1,-3.966593742E0
8.772818920E-1,-9.091980934E0,1.502361596E-1,-4.378396511E0
8.797696010E-1,-9.149441719E0,-1.179144308E-1,-4.794987679E0
8.822573090E-1,-9.187748909E0,-4.674678743E-1,-5.192424774E0
8.847450170E-1,-9.187748909E0,-8.649053574E-1,-5.632957935E0
8.872327260E-1,-9.178172112E0,-1.319803715E0,-6.097433090E0
8.897204340E-1,-9.139864922E0,-1.784278870E0,-6.547543049E0
8.922081420E-1,-9.072827339E0,-2.277484417E0,-6.978499413E0
8.946958510E-1,-9.015366554E0,-2.741959572E0,-7.328052998E0
8.971835590E-1,-8.967482567E0,-3.177704096E0,-7.629722118E0
8.996712670E-1,-8.886079788E0,-3.584718466E0,-7.869142532E0
9.021589760E-1,-8.780735016E0,-3.929483652E0,-8.065466881E0
9.046466840E-1,-8.613141060E0,-4.231153011E0,-8.218695641E0
9.071343920E-1,-8.474276543E0,-4.494514942E0,-8.314463615E0
9.096221010E-1,-8.335412979E0,-4.757877350E0,-8.295310020E0
9.121098090E-1,-8.210914612E0,-4.968566895E0,-8.156446457E0
9.145975170E-1,-8.095993042E0,-5.102642536E0,-7.893084526E0
9.170852260E-1,-7.981071472E0,-5.207987309E0,-7.543530941E0
9.195729340E-1,-7.880515099E0,-5.255871296E0,-7.069478989E0
9.220606420E-1,-7.851784706E0,-5.303755283E0,-6.499659061E0
9.245483510E-1,-7.866149902E0,-5.332485676E0,-5.877166748E0
9.270360590E-1,-7.947552681E0,-5.303755283E0,-5.178059578E0
9.295237670E-1,-8.072051048E0,-5.184045315E0,-4.435857296E0
9.320114760E-1,-8.340201378E0,-5.026028156E0,-3.655347347E0
9.344991840E-1,-8.766369820E0,-4.753088951E0,-2.836530447E0
9.369868920E-1,-9.302670479E0,-4.384381771E0,-1.993771434E0
9.394746010E-1,-9.838972092E0,-3.977367640E0,-1.203684926E0
9.419623090E-1,-1.029865837E1,-3.579930067E0,-4.519055784E-1
9.444500170E-1,-1.060990524E1,-3.235165119E0,1.993172914E-1
9.469377260E-1,-1.076792240E1,-2.962226152E0,7.116764784E-1
9.494254340E-1,-1.080622959E1,-2.732382774E0,1.109113932E0
9.519131420E-1,-1.072003841E1,-2.550423384E0,1.405994892E0
9.544008510E-1,-1.053328991E1,-2.392405987E0,1.621473074E0
9.568885590E-1,-1.026992798E1,-2.287061214E0,1.798644066E0
9.593762670E-1,-9.996989250E0,-2.224812031E0,1.942296147E0
9.618639760E-1,-9.671378136E0,-2.215235233E0,2.042852640E0
9.643516840E-1,-9.293093681E0,-2.215235233E0,2.100313425E0
9.668393920E-1,-8.914810181E0,-2.224812031E0,2.095525026E0
9.693271010E-1,-8.560467720E0,-2.224812031E0,1.985391736E0
9.718148090E-1,-8.239645004E0,-2.224812031E0,1.793855667E0
9.743025170E-1,-7.966706276E0,-2.220023632E0,1.540070295E0
9.767902260E-1,-7.784746647E0,-2.215235233E0,1.267131209E0
9.792779340E-1,-7.655459881E0,-2.157774210E0,9.750386477E-1
9.817656950E-1,-7.607575893E0,-2.047641039E0,7.020996213E-1
9.842534550E-1,-7.612364292E0,-1.894412041E0,4.004302323E-1
9.867412150E-1,-7.665036678E0,-1.688510776E0,6.045359373E-2
9.892289760E-1,-7.746439457E0,-1.477820992E0,-2.172738016E-1
9.917167360E-1,-7.880515099E0,-1.276708007E0,-5.045779943E-1
9.942044970E-1,-8.024167061E0,-1.113902330E0,-7.966706157E-1
9.966922570E-1,-8.158242226E0,-9.463081956E-1,-1.083974838E0
9.991800170E-1,-8.239645004E0,-8.265981078E-1,-1.323395014E0
1.001667778E0,-8.254010201E0,-7.116764784E-1,-1.510142684E0
1.004155538E0,-8.215703011E0,-6.206967831E-1,-1.653794765E0
1.006643299E0,-8.124723434E0,-5.392939448E-1,-1.706467271E0
1.009131059E0,-8.052897453E0,-4.770447016E-1,-1.672948480E0
1.011618820E0,-8.043320656E0,-3.812766075E-1,-1.558026791E0
1.014106580E0,-8.057685852E0,-3.094505668E-1,-1.400009394E0
1.016594340E0,-8.081627846E0,-2.950853705E-1,-1.232415318E0
1.019082101E0,-8.110358238E0,-3.094505668E-1,-1.031302333E0
1.021569861E0,-8.124723434E0,-4.052186310E-1,-8.445546627E-1
1.024057622E0,-8.129511833E0,-5.392939448E-1,-6.769605279E-1
1.026545382E0,-8.115146637E0,-6.542156339E-1,-5.333084464E-1
1.029033142E0,-8.119935036E0,-7.547720671E-1,-4.088099301E-1
1.031520903E0,-8.143877029E0,-8.409633636E-1,-2.651578486E-1
1.034008663E0,-8.249221802E0,-8.936358094E-1,-7.841010392E-2
1.036496424E0,-8.373720169E0,-9.510966539E-1,1.274912357E-1
1.038984184E0,-8.541314125E0,-9.798270464E-1,3.381809890E-1
1.041471945E0,-8.675390244E0,-1.051653147E0,4.866214991E-1
1.043959705E0,-8.761581421E0,-1.133055925E0,5.919663906E-1
1.046447465E0,-8.771158218E0,-1.247977614E0,6.446388364E-1
1.048935226E0,-8.694543839E0,-1.401206493E0,6.015431881E-1
1.051422986E0,-8.546102524E0,-1.549647093E0,4.961982965E-1
1.053910747E0,-8.340201378E0,-1.702875972E0,2.902969420E-1
1.056398507E0,-8.095993042E0,-1.822586060E0,-3.531447425E-2
1.058886267E0,-7.861361504E0,-1.937507749E0,-3.944447339E-1
1.061374288E0,-7.693767071E0,-2.009333849E0,-7.775170207E-1
1.063862153E0,-7.655459881E0,-2.014122248E0,-1.107916832E0
1.066349861E0,-7.751227856E0,-1.951872945E0,-1.337760210E0
1.068837570E0,-7.894880295E0,-1.836951256E0,-1.500565886E0
1.071325278E0,-8.100781441E0,-1.707664371E0,-1.634641171E0
1.073812986E0,-8.330624580E0,-1.549647093E0,-1.754351258E0
1.076300695E0,-8.560467720E0,-1.410783410E0,-1.850119352E0
1.078788403E0,-8.780735016E0,-1.291073322E0,-1.950675845E0
1.081276111E0,-8.933963776E0,-1.204882026E0,-2.060809135E0
1.083763820E0,-9.048885345E0,-1.128267527E0,-2.147000313E0
1.086251528E0,-9.120711327E0,-1.066018343E0,-2.166153908E0
1.088739236E0,-9.115922928E0,-9.989806414E-1,-2.132635117E0
1.091226945E0,-9.068038940E0,-9.606734514E-1,-2.075174332E0
1.093714653E0,-8.967482567E0,-9.319429994E-1,-2.003348351E0
1.096202361E0,-8.833407402E0,-9.319429994E-1,-1.898003340E0
1.098690070E0,-8.680178642E0,-9.606734514E-1,-1.754351258E0
1.101178247E0,-8.541314125E0,-1.027711034E0,-1.591545582E0
1.103665903E0,-8.464699745E0,-1.133055925E0,-1.395220995E0
1.106153559E0,-8.426392555E0,-1.247977614E0,-1.174954534E0
1.108641215E0,-8.431180954E0,-1.348534107E0,-9.307458997E-1
1.111128872E0,-8.488641739E0,-1.420360208E0,-6.913257241E-1
1.113616528E0,-8.536525726E0,-1.473032594E0,-4.566939771E-1
1.116104184E0,-8.570044518E0,-1.501762986E0,-2.603694201E-1
1.118591840E0,-8.570044518E0,-1.573589087E0,-1.119289324E-1
1.121079497E0,-8.531737328E0,-1.678933978E0,7.781155407E-3
1.123567153E0,-8.469488144E0,-1.803432465E0,1.227028370E-1
1.126054809E0,-8.373720169E0,-1.918354154E0,2.184709013E-1
1.128542465E0,-8.254010201E0,-2.023699045E0,2.855085433E-1
1.131030122E0,-8.158242226E0,-2.119467020E0,3.190273643E-1
1.133517778E0,-8.115146637E0,-2.248754025E0,3.621230125E-1
1.136005434E0,-8.086416245E0,-2.373252392E0,3.429693878E-1
1.138493090E0,-8.048109055E0,-2.540846586E0,2.328361124E-1
1.140980747E0,-7.976283073E0,-2.713229179E0,6.045359373E-2
1.143468403E0,-7.880515099E0,-2.871246338E0,-1.502361596E-1
1.145956111E0,-7.736862659E0,-3.029263735E0,-3.752911091E-1
1.148443820E0,-7.631517887E0,-3.153762102E0,-5.859808922E-1
1.150931580E0,-7.550115108E0,-3.249530315E0,-7.870938182E-1
1.153419340E0,-7.535749912E0,-3.316567898E0,-9.546879530E-1
1.155907101E0,-7.574057102E0,-3.369240284E0,-1.112705231E0
1.158394861E0,-7.631517887E0,-3.374028683E0,-1.299453020E0
1.160882622E0,-7.746439457E0,-3.350086689E0,-1.476623893E0
1.163370382E0,-7.971494675E0,-3.283049107E0,-1.629852772E0
1.165858142E0,-8.263586998E0,-3.177704096E0,-1.792658567E0
1.168345903E0,-8.589199066E0,-3.043628931E0,-1.907580256E0
1.170833663E0,-8.890868187E0,-2.847304344E0,-2.017713547E0
1.173321424E0,-9.197325706E0,-2.641402960E0,-2.118269920E0
1.175809184E0,-9.522936821E0,-2.430713177E0,-2.209249735E0
1.178296945E0,-9.858125687E0,-2.215235233E0,-2.324171305E0
1.180784705E0,-1.019810200E1,-1.975814939E0,-2.415150881E0
1.183272465E0,-1.053328991E1,-1.765125155E0,-2.520495892E0
1.185760226E0,-1.085890198E1,-1.559223890E0,-2.601898670E0
1.188247986E0,-1.113184071E1,-1.372476101E0,-2.683301449E0
1.190735747E0,-1.136647224E1,-1.204882026E0,-2.798223257E0
1.193223507E0,-1.158673954E1,-1.022922635E0,-2.884414434E0
1.195711267E0,-1.174475670E1,-8.361749649E-1,-2.975394249E0
1.198199028E0,-1.188840866E1,-6.637924314E-1,-3.032855034E0
1.200686788E0,-1.198896503E1,-5.201402903E-1,-3.099892616E0
1.203174549E0,-1.200333023E1,-3.956418335E-1,-3.099892616E0
1.205662309E0,-1.194108105E1,-3.429693878E-1,-3.104681015E0
1.208150070E0,-1.182137108E1,-3.621230125E-1,-3.104681015E0
1.210637830E0,-1.169687271E1,-4.722562730E-1,-3.052008629E0
1.213125590E0,-1.151491261E1,-6.446388364E-1,-2.932298422E0
1.215613351E0,-1.129943466E1,-8.505401611E-1,-2.779069662E0
1.218101111E0,-1.104086113E1,-1.061229944E0,-2.606687069E0
1.220588872E0,-1.074876881E1,-1.252766013E0,-2.395997286E0
1.223076632E0,-1.045188713E1,-1.386841297E0,-2.194884300E0
1.225564392E0,-1.019331360E1,-1.492186189E0,-2.008136749E0
1.228052153E0,-9.968258858E0,-1.554435492E0,-1.787870169E0
1.230539913E0,-9.781511307E0,-1.607107878E0,-1.534084797E0
1.233027674E0,-9.623494148E0,-1.683722377E0,-1.289876223E0
1.235515434E0,-9.513360023E0,-1.760336757E0,-1.079186440E0
1.238003195E0,-9.412803650E0,-1.860893250E0,-8.780734539E-1
1.240490955E0,-9.312247276E0,-1.994968534E0,-6.865373254E-1
1.242978715E0,-9.259574890E0,-2.119467020E0,-5.380968451E-1
1.245466476E0,-9.168595314E0,-2.234388828E0,-3.992331326E-1
1.247954236E0,-9.068038940E0,-2.320580006E0,-2.890998423E-1
1.250441997E0,-8.957905769E0,-2.368463993E0,-2.076970041E-1
1.252929757E0,-8.838195801E0,-2.421136379E0,-1.550245583E-1
1.255417517E0,-8.737639427E0,-2.469020605E0,-9.277531505E-2
1.257905278E0,-8.637083054E0,-2.564788580E0,-5.925649032E-2
1.260393038E0,-8.526948929E0,-2.646191359E0,-3.531447425E-2
1.262880799E0,-8.397662163E0,-2.737171173E0,1.735796221E-2
1.265368559E0,-8.268375397E0,-2.823362350E0,8.439560980E-2
1.267856320E0,-8.143877029E0,-2.909553528E0,1.466448605E-1
1.270344080E0,-8.076839447E0,-2.947860956E0,2.472013235E-1
1.272831788E0,-8.076839447E0,-2.947860956E0,3.669114113E-1
1.275319497E0,-8.110358238E0,-2.904765129E0,4.818331003E-1
1.277807205E0,-8.206126213E0,-2.828150749E0,5.776011348E-1
1.280294913E0,-8.364143372E0,-2.708440781E0,6.254851818E-1
1.282782622E0,-8.541314125E0,-2.555211782E0,6.637924314E-1
1.285270330E0,-8.752004623E0,-2.392405987E0,6.590040326E-1
1.287758038E0,-9.020154953E0,-2.229600430E0,5.967547894E-1
1.290245747E0,-9.336189270E0,-2.100313425E0,5.153518915E-1
1.292733455E0,-9.666589737E0,-1.975814939E0,3.812766075E-1
1.295221163E0,-1.000656605E1,-1.841739655E0,1.993172914E-1
1.297708872E0,-1.035133076E1,-1.702875972E0,2.992752008E-3
1.300196580E0,-1.062427044E1,-1.544858694E0,-2.603694201E-1
1.302684288E0,-1.076792240E1,-1.382052898E0,-5.620388389E-1
1.305171997E0,-1.082538319E1,-1.209670424E0,-8.972271085E-1
1.307659705E0,-1.079665279E1,-1.070806742E0,-1.241992116E0
1.310147413E0,-1.069609642E1,-9.463081956E-1,-1.610699177E0
1.312635122E0,-1.056202126E1,-8.505401611E-1,-1.941099048E0
1.315122830E0,-1.038006115E1,-8.122329116E-1,-2.247556925E0
1.317610538E0,-1.015500641E1,-7.978677154E-1,-2.563591480E0
1.320098247E0,-9.944316864E0,-7.739257216E-1,-2.788646460E0
1.322585955E0,-9.795876503E0,-7.308300734E-1,-3.008913040E0
1.325073663E0,-9.637859344E0,-6.733692288E-1,-3.138199806E0
1.327561372E0,-9.484629631E0,-6.015431881E-1,-3.233968019E0
1.330049080E0,-9.384073257E0,-4.961982965E-1,-3.324947596E0
1.332536788E0,-9.278728485E0,-3.621230125E-1,-3.391985178E0
1.335024497E0,-9.216479301E0,-2.472013235E-1,-3.425503969E0
1.337512205E0,-9.187748909E0,-1.131260321E-1,-3.391985178E0
1.339999913E0,-9.197325706E0,-1.735796221E-2,-3.305794001E0
1.342487622E0,-9.240421295E0,5.925649032E-2,-3.195660830E0
1.344975330E0,-9.269151688E0,7.841010392E-2,-2.999336243E0
1.347463038E0,-9.321824074E0,6.404489279E-2,-2.731185675E0
1.349950747E0,-9.364919662E0,1.137245819E-2,-2.419939280E0
1.352438455E0,-9.393650055E0,-6.524199992E-2,-2.070385933E0
1.354926163E0,-9.374496460E0,-1.753752679E-1,-1.739986062E0
1.357413872E0,-9.331400871E0,-2.759317458E-1,-1.428739905E0
1.359901580E0,-9.259574890E0,-4.291606545E-1,-1.151012421E0
1.362389288E0,-9.202114105E0,-5.919663906E-1,-8.637082577E-1
1.364876997E0,-9.111134529E0,-7.787141204E-1,-6.099228859E-1
1.367364705E0,-9.048885345E0,-9.798270464E-1,-3.321954906E-1
1.369852413E0,-8.972270966E0,-1.200093627E0,-5.446808785E-2
1.372340122E0,-8.876502991E0,-1.415571809E0,1.849520802E-1
1.374827830E0,-8.809465408E0,-1.592742682E0,4.243722558E-1
1.377315538E0,-8.809465408E0,-1.722029567E0,6.206967831E-1
1.379803247E0,-8.847772598E0,-1.760336757E0,8.026561141E-1
1.382290955E0,-8.905233383E0,-1.745971560E0,9.463081956E-1
1.384778663E0,-8.991424561E0,-1.736394763E0,1.056441545E0
1.387266372E0,-9.058462143E0,-1.678933978E0,1.089960337E0
1.389754080E0,-9.096769333E0,-1.621473074E0,1.070806742E0
1.392241840E0,-9.111134529E0,-1.559223890E0,9.846154451E-1
1.394729601E0,-9.125499725E0,-1.496974587E0,8.218097091E-1
1.397217361E0,-9.130288124E0,-1.439513803E0,5.967547894E-1
1.399705122E0,-9.125499725E0,-1.348534107E0,3.573346138E-1
1.402192882E0,-9.125499725E0,-1.238400817E0,1.370680481E-1
1.404680642E0,-9.111134529E0,-1.113902330E0,-8.319851011E-2
1.407168403E0,-9.182960510E0,-9.510966539E-1,-2.986766696E-1
1.409656163E0,-9.297882080E0,-7.595604658E-1,-5.285200477E-1
1.412143924E0,-9.436745644E0,-6.159083843E-1,-7.296329737E-1
1.414631684E0,-9.556455612E0,-5.488707423E-1,-9.451110959E-1
1.417119445E0,-9.642647743E0,-5.249287486E-1,-1.198896527E0
1.419607205E0,-9.704896927E0,-5.105634928E-1,-1.443105102E0
1.422094965E0,-9.709685326E0,-5.297171474E-1,-1.672948480E0
1.424582726E0,-9.709685326E0,-5.488707423E-1,-1.840542555E0
1.427070486E0,-9.695320129E0,-5.345055461E-1,-1.988983035E0
1.429558247E0,-9.666589737E0,-5.392939448E-1,-2.094327927E0
1.432046007E0,-9.709685326E0,-5.680243373E-1,-2.123058319E0
1.434533767E0,-9.810241699E0,-6.254851818E-1,-2.075174332E0
1.437021528E0,-9.958682060E0,-6.829460263E-1,-2.008136749E0
1.439509288E0,-1.008796883E1,-7.739257216E-1,-1.902791858E0
1.441997049E0,-1.022683239E1,-8.553285599E-1,-1.759139657E0
1.444484809E0,-1.031781197E1,-9.271546006E-1,-1.629852772E0
1.446972570E0,-1.034175396E1,-9.941922426E-1,-1.471835494E0
1.449460330E0,-1.034654236E1,-9.989806414E-1,-1.328183413E0
1.451948090E0,-1.033217716E1,-1.008557439E0,-1.155800819E0
1.454435851E0,-1.028908157E1,-1.022922635E0,-9.642647505E-1
1.456923611E0,-1.023162079E1,-1.056441545E0,-7.918822169E-1
1.459411372E0,-1.015021801E1,-1.104325533E0,-6.099228859E-1
1.461899132E0,-1.004008484E1,-1.152209520E0,-4.758476019E-1
1.464386892E0,-9.915586472E0,-1.209670424E0,-3.465606868E-1
1.466874653E0,-9.757569313E0,-1.276708007E0,-2.555810213E-1
1.469362413E0,-9.589975357E0,-1.319803715E0,-1.598129570E-1
1.471850174E0,-9.398438454E0,-1.372476101E0,-4.489128292E-2
1.474337934E0,-9.235632896E0,-1.391629696E0,8.439560980E-2
1.476825695E0,-9.125499725E0,-1.405994892E0,1.801636815E-1
1.479313455E0,-9.058462143E0,-1.382052898E0,3.381809890E-1
1.481801215E0,-8.981847763E0,-1.348534107E0,4.674678743E-1
1.484288976E0,-8.895656586E0,-1.329380512E0,5.871779919E-1
1.486776736E0,-8.819042206E0,-1.315015316E0,6.925228238E-1
1.489264497E0,-8.747216225E0,-1.334168911E0,7.356184721E-1
1.491752257E0,-8.656236649E0,-1.338957310E0,7.691373229E-1
1.494240017E0,-8.570044518E0,-1.362899303E0,7.835025191E-1
1.496727778E0,-8.570044518E0,-1.372476101E0,8.026561141E-1
1.499215538E0,-8.627506256E0,-1.324592113E0,8.218097091E-1
1.501703299E0,-8.728062630E0,-1.243189216E0,8.122329116E-1
1.504191059E0,-8.819042206E0,-1.166574836E0,8.026561141E-1
1.506678820E0,-8.890868187E0,-1.113902330E0,7.691373229E-1
1.509166580E0,-8.933963776E0,-1.094748735E0,7.308300734E-1
1.511654340E0,-8.977059364E0,-1.104325533E0,6.973112226E-1
1.514142101E0,-8.996212959E0,-1.123479128E0,6.398503780E-1
1.516629861E0,-9.024943352E0,-1.142632723E0,5.776011348E-1
1.519117622E0,-9.053673744E0,-1.161786318E0,5.153518915E-1
1.521605330E0,-9.044096947E0,-1.180940032E0,4.052186310E-1
1.524093038E0,-9.034520149E0,-1.200093627E0,2.759317458E-1
1.526580747E0,-9.029731750E0,-1.204882026E0,1.418564469E-1
1.529068455E0,-9.034520149E0,-1.190516829E0,2.992752008E-3
1.531556163E0,-9.063250542E0,-1.161786318E0,-1.023521200E-1
1.534043872E0,-9.135076523E0,-1.085171938E0,-1.933317930E-1
1.536531580E0,-9.226056099E0,-1.003769040E0,-2.651578486E-1
1.539019288E0,-9.336189270E0,-9.271546006E-1,-3.130418658E-1
1.541506997E0,-9.475052834E0,-8.457517624E-1,-3.369838893E-1
1.543994705E0,-9.594763756E0,-7.691373229E-1,-3.752911091E-1
1.546482413E0,-9.661801338E0,-6.877344251E-1,-4.519055784E-1
1.548970122E0,-9.695320129E0,-5.919663906E-1,-5.572504401E-1
1.551457830E0,-9.690531731E0,-5.057750940E-1,-6.961141229E-1
1.553945538E0,-9.666589737E0,-4.578910768E-1,-8.397662640E-1
1.556433247E0,-9.637859344E0,-4.435258508E-1,-9.882067442E-1
1.558920955E0,-9.618705750E0,-4.722562730E-1,-1.103128433E0
1.561408663E0,-9.580398560E0,-4.961982965E-1,-1.218050122E0
1.563896372E0,-9.527725220E0,-4.961982965E-1,-1.270722508E0
1.566384080E0,-9.465476036E0,-5.009866953E-1,-1.309029818E0
1.568871788E0,-9.431957245E0,-4.914098978E-1,-1.289876223E0
1.571359497E0,-9.398438454E0,-4.531026781E-1,-1.232415318E0
1.573847205E0,-9.388861656E0,-4.243722558E-1,-1.146224022E0
1.576334913E0,-9.422380447E0,-4.243722558E-1,-9.929951429E-1
1.578822622E0,-9.494206429E0,-4.147954583E-1,-8.301894665E-1
1.581310330E0,-9.542090416E0,-4.052186310E-1,-6.578069329E-1
1.583798038E0,-9.589975357E0,-4.243722558E-1,-4.710591733E-1
1.586285747E0,-9.671378136E0,-4.243722558E-1,-3.321954906E-1
1.588773455E0,-9.815030098E0,-4.052186310E-1,-1.933317930E-1
1.591261163E0,-1.000177765E1,-3.764882088E-1,-1.023521200E-1
1.593748872E0,-1.021246719E1,-3.238157928E-1,-6.584054790E-3
1.596236580E0,-1.036090755E1,-2.902969420E-1,5.566519126E-2
1.598724288E0,-1.047104073E1,-2.376245260E-1,7.003039867E-2
1.601211997E0,-1.051892471E1,-2.088941038E-1,5.566519126E-2
1.603699705E0,-1.054765606E1,-2.041056901E-1,2.693476900E-2
1.606187413E0,-1.053328991E1,-2.519897223E-1,7.781155407E-3
1.608675122E0,-1.050455952E1,-3.573346138E-1,-1.616086066E-2
1.611162830E0,-1.044709873E1,-4.674678743E-1,-5.925649032E-2
1.613650538E0,-1.035133076E1,-5.919663906E-1,-1.023521200E-1
1.616138247E0,-1.026992798E1,-7.116764784E-1,-2.029085904E-1
1.618625955E0,-1.020767879E1,-8.792705536E-1,-2.986766696E-1
1.621114392E0,-1.017894840E1,-1.037287831E0,-4.088099301E-1
1.623602517E0,-1.019331360E1,-1.156997919E0,-5.524620414E-1
1.626090278E0,-1.023162079E1,-1.185728431E0,-6.673837304E-1
1.628577986E0,-1.026035118E1,-1.156997919E0,-7.775170207E-1
1.631065695E0,-1.031781197E1,-1.056441545E0,-9.115923047E-1
1.633553403E0,-1.038963795E1,-9.175778031E-1,-1.074398041E0
1.636041111E0,-1.043273354E1,-8.026561141E-1,-1.222838521E0
1.638528820E0,-1.044709873E1,-6.925228238E-1,-1.380855799E0
1.641016528E0,-1.046625233E1,-5.728127360E-1,-1.529296279E0
1.643504236E0,-1.048061752E1,-4.483142793E-1,-1.677736878E0
1.645991945E0,-1.046625233E1,-3.142389655E-1,-1.835754156E0
1.648479653E0,-1.041357994E1,-2.136825025E-1,-1.969829440E0
1.650967361E0,-1.034175396E1,-1.227028370E-1,-2.099116325E0
1.653455070E0,-1.023640919E1,-5.087678507E-2,-2.204461098E0
1.655942778E0,-1.010712242E1,-1.256955881E-2,-2.252345324E0
1.658430486E0,-9.939528465E0,1.137245819E-2,-2.242768526E0
1.660918195E0,-9.791088104E0,1.795651275E-3,-2.166153908E0
1.663405903E0,-9.657012939E0,-4.608838260E-2,-2.065597534E0
1.665893611E0,-9.518148422E0,-1.227028370E-1,-1.931522250E0
1.668381320E0,-9.384073257E0,-2.567781210E-1,-1.792658567E0
1.670869028E0,-9.264363289E0,-4.578910768E-1,-1.567603588E0
1.673356736E0,-9.163806915E0,-6.542156339E-1,-1.289876223E0
1.675844445E0,-9.120711327E0,-8.026561141E-1,-9.307458997E-1
1.678332153E0,-9.063250542E0,-9.367313981E-1,-5.045779943E-1
1.680819861E0,-8.996212959E0,-1.042076349E0,-9.277531505E-2
1.683307570E0,-8.929175377E0,-1.152209520E0,3.190273643E-1
1.685795278E0,-8.914810181E0,-1.267131209E0,7.164648771E-1
1.688282986E0,-8.919598579E0,-1.401206493E0,1.085171938E0
1.690770695E0,-9.001001358E0,-1.549647093E0,1.396418095E0
1.693258403E0,-9.135076523E0,-1.688510776E0,1.650203466E0
1.695746111E0,-9.369708061E0,-1.827374458E0,1.880046844E0
1.698233820E0,-9.642647743E0,-1.927930951E0,2.066794634E0
1.700721528E0,-9.958682060E0,-1.961449742E0,2.234388828E0
1.703209236E0,-1.030344677E1,-1.927930951E0,2.277484417E0
1.705696945E0,-1.060990524E1,-1.793855667E0,2.181716204E0
1.708184653E0,-1.086847878E1,-1.583165884E0,2.014122248E0
1.710672361E0,-1.109832191E1,-1.319803715E0,1.750759959E0
1.713160070E0,-1.129943466E1,-1.109113932E0,1.405994892E0
1.715647778E0,-1.147660542E1,-9.223662019E-1,1.032499433E0
1.718135486E0,-1.164420033E1,-7.739257216E-1,6.302735806E-1
1.720623195E0,-1.177348709E1,-6.015431881E-1,1.945288926E-1
1.723110903E0,-1.187404346E1,-3.764882088E-1,-2.555810213E-1
1.725598611E0,-1.197459984E1,-9.876082093E-2,-7.056909800E-1
1.728086320E0,-1.204163742E1,1.741781682E-1,-1.160589218E0
1.730574028E0,-1.204163742E1,4.375403523E-1,-1.601122379E0
1.733061736E0,-1.201769543E1,6.530185342E-1,-2.041655540E0
1.735549445E0,-1.196023464E1,8.254010081E-1,-2.419939280E0
1.738037153E0,-1.181179428E1,9.068039060E-1,-2.764704466E0
1.740524913E0,-1.159631634E1,9.307458997E-1,-3.061585426E0
1.743012674E0,-1.134731865E1,9.403226972E-1,-3.296217203E0
1.745500434E0,-1.107437992E1,9.068039060E-1,-3.468599796E0
1.747988195E0,-1.080144119E1,8.110358119E-1,-3.550002575E0
1.750475955E0,-1.052850151E1,6.290764809E-1,-3.530848980E0
1.752963715E0,-1.029386997E1,3.513490856E-1,-3.382408381E0
1.755451476E0,-1.010712242E1,2.573766746E-2,-3.123834610E0
1.757939236E0,-9.977835655E0,-3.142389655E-1,-2.807800055E0
1.760426997E0,-9.853337288E0,-6.302735806E-1,-2.458246708E0
1.762914757E0,-9.771934509E0,-9.127894044E-1,-2.103904724E0
1.765402517E0,-9.704896927E0,-1.166574836E0,-1.720832467E0
1.767890278E0,-9.666589737E0,-1.343745708E0,-1.337760210E0
1.770378038E0,-9.642647743E0,-1.492186189E0,-9.498994946E-1
1.772865799E0,-9.642647743E0,-1.640626669E0,-5.716156363E-1
1.775353559E0,-9.652224541E0,-1.765125155E0,-2.651578486E-1
1.777841320E0,-9.666589737E0,-1.860893250E0,4.608838260E-2
1.780329080E0,-9.714473724E0,-1.927930951E0,3.286041915E-1
1.782816840E0,-9.800664902E0,-1.937507749E0,6.302735806E-1
1.785304601E0,-9.920374870E0,-1.918354154E0,9.319429994E-1
1.787792361E0,-1.009754562E1,-1.851316452E0,1.185728431E0
1.790280122E0,-1.031302357E1,-1.736394763E0,1.391629696E0
1.792767882E0,-1.059554005E1,-1.578377485E0,1.540070295E0
1.795255642E0,-1.086847878E1,-1.405994892E0,1.616684675E0
1.797743403E0,-1.111747551E1,-1.252766013E0,1.631049871E0
1.800231163E0,-1.129464626E1,-1.147421122E0,1.568800688E0
1.802718924E0,-1.139520264E1,-1.042076349E0,1.449090600E0
1.805206684E0,-1.142872143E1,-9.606734514E-1,1.257554412E0
1.807694445E0,-1.141914463E1,-8.840589523E-1,9.989806414E-1
1.810182205E0,-1.137604904E1,-8.122329116E-1,6.733692288E-1
1.812669965E0,-1.130901146E1,-7.404068708E-1,3.429693878E-1
1.815157726E0,-1.117972469E1,-6.494272351E-1,1.256955881E-2
1.817645486E0,-1.104564953E1,-5.919663906E-1,-3.082534671E-1
1.820133247E0,-1.089242077E1,-5.105634928E-1,-5.764040351E-1
1.822621007E0,-1.073440361E1,-4.674678743E-1,-8.158242106E-1
1.825108767E0,-1.053807831E1,-4.243722558E-1,-1.045667648E0
1.827596528E0,-1.028908157E1,-4.100070298E-1,-1.213261724E0
1.830084288E0,-9.992200851E0,-4.243722558E-1,-1.376067400E0
1.832572049E0,-9.714473724E0,-4.626794755E-1,-1.514931083E0
1.835059809E0,-9.479841232E0,-5.584475398E-1,-1.601122379E0
1.837547570E0,-9.283516884E0,-7.787141204E-1,-1.629852772E0
1.840035330E0,-9.192537308E0,-1.061229944E0,-1.610699177E0
1.842523090E0,-9.130288124E0,-1.377264500E0,-1.548449993E0
1.845010851E0,-9.125499725E0,-1.678933978E0,-1.447893500E0
1.847498611E0,-9.139864922E0,-1.899200439E0,-1.332971811E0
1.849986372E0,-9.135076523E0,-2.018910646E0,-1.270722508E0
1.852474132E0,-9.120711327E0,-2.023699045E0,-1.246780515E0
1.854961892E0,-9.125499725E0,-1.980603337E0,-1.294664621E0
1.857449653E0,-9.178172112E0,-1.899200439E0,-1.366490602E0
1.859937413E0,-9.297882080E0,-1.817797661E0,-1.423951507E0
1.862425174E0,-9.470264435E0,-1.731606364E0,-1.428739905E0
1.864912934E0,-9.709685326E0,-1.616684675E0,-1.361702204E0
1.867400695E0,-9.925163269E0,-1.463455796E0,-1.270722508E0
1.869888455E0,-1.011191082E1,-1.305438519E0,-1.151012421E0
1.872376215E0,-1.026035118E1,-1.171363235E0,-1.060032845E0
1.874863976E0,-1.037527275E1,-1.070806742E0,-9.977835417E-1
1.877351684E0,-1.044231033E1,-1.022922635E0,-9.355342984E-1
1.879839392E0,-1.048540592E1,-9.989806414E-1,-8.589198589E-1
1.882327101E0,-1.053807831E1,-9.654618502E-1,-7.200561762E-1
1.884814809E0,-1.062427044E1,-9.319429994E-1,-5.716156363E-1
1.887302517E0,-1.073440361E1,-9.175778031E-1,-3.992331326E-1
1.889790226E0,-1.079665279E1,-8.984242082E-1,-2.460042238E-1
1.892277934E0,-1.081580639E1,-9.175778031E-1,-8.798690885E-2
1.894765642E0,-1.082059479E1,-9.510966539E-1,6.045359373E-2
1.897253351E0,-1.079186440E1,-1.008557439E0,2.328361124E-1
1.899741059E0,-1.075355721E1,-1.085171938E0,3.812766075E-1
1.902228767E0,-1.066736603E1,-1.166574836E0,5.297171474E-1
1.904716476E0,-1.058117485E1,-1.233612418E0,6.925228238E-1
1.907204184E0,-1.045188713E1,-1.281496406E0,8.505401611E-1
1.909691892E0,-1.028429317E1,-1.319803715E0,1.037287831E0
1.912179601E0,-1.008318043E1,-1.348534107E0,1.195305228E0
1.914667309E0,-9.829395294E0,-1.372476101E0,1.348534107E0
1.917155017E0,-9.570821762E0,-1.425148606E0,1.501762986E0
1.919642726E0,-9.307458878E0,-1.506551385E0,1.659780383E0
1.922130434E0,-9.039308548E0,-1.616684675E0,1.765125155E0
1.924618142E0,-8.799888611E0,-1.731606364E0,1.894412041E0
1.927105851E0,-8.593987465E0,-1.860893250E0,1.985391736E0
1.929593559E0,-8.431180954E0,-2.028487444E0,2.066794634E0
1.932081267E0,-8.330624580E0,-2.200869799E0,2.148197412E0
1.934568976E0,-8.297105789E0,-2.373252392E0,2.200869799E0
1.937056684E0,-8.306682587E0,-2.526481390E0,2.267907619E0
1.939544392E0,-8.378508568E0,-2.636614561E0,2.291849613E0
1.942032101E0,-8.483853340E0,-2.727594376E0,2.243965626E0
1.944519809E0,-8.622717857E0,-2.770689964E0,2.143409014E0
1.947007517E0,-8.814253807E0,-2.799420357E0,1.990180135E0
1.949495226E0,-8.962694168E0,-2.770689964E0,1.789067268E0
1.951982934E0,-9.091980934E0,-2.703652382E0,1.554435492E0
1.954470642E0,-9.163806915E0,-2.583942175E0,1.305438519E0
1.956958351E0,-9.226056099E0,-2.459443808E0,1.089960337E0
1.959446059E0,-9.288305283E0,-2.320580006E0,8.936358094E-1
1.961933767E0,-9.340977669E0,-2.224812031E0,7.499836683E-1
1.964421476E0,-9.369708061E0,-2.157774210E0,6.542156339E-1
1.966909184E0,-9.427168846E0,-2.119467020E0,5.823895931E-1
1.969396892E0,-9.489418030E0,-2.095525026E0,5.105634928E-1
1.971884601E0,-9.589975357E0,-2.047641039E0,4.483142793E-1
1.974372309E0,-9.719262123E0,-1.947084546E0,4.004302323E-1
1.976860017E0,-9.877279282E0,-1.765125155E0,3.908534348E-1
1.979347726E0,-1.002093124E1,-1.578377485E0,4.004302323E-1
1.981835434E0,-1.015979481E1,-1.377264500E0,4.483142793E-1
1.984323142E0,-1.026992798E1,-1.209670424E0,4.722562730E-1
1.986810903E0,-1.036090755E1,-1.085171938E0,5.297171474E-1
1.989298663E0,-1.043752193E1,-9.989806414E-1,5.823895931E-1
1.991786424E0,-1.049498272E1,-9.463081956E-1,6.254851818E-1
1.994274184E0,-1.053328991E1,-9.032126069E-1,6.733692288E-1
1.996761945E0,-1.054286766E1,-8.888474107E-1,7.643488646E-1
1.999249705E0,-1.050455952E1,-8.553285599E-1,8.313865662E-1
2.001737465E0,-1.041836834E1,-8.457517624E-1,8.888474107E-1
2.004225226E0,-1.028908157E1,-8.265981078E-1,9.510966539E-1
2.006712986E0,-1.016458321E1,-8.265981078E-1,1.046864748E0
2.009200747E0,-1.001614285E1,-8.409633636E-1,1.104325533E0
2.011688507E0,-9.896432877E0,-8.888474107E-1,1.147421122E0
2.014176267E0,-9.771934509E0,-9.798270464E-1,1.185728431E0
2.016664028E0,-9.724050522E0,-1.099537134E0,1.262342811E0
2.019151788E0,-9.685743332E0,-1.252766013E0,1.377264500E0
2.021639549E0,-9.762357712E0,-1.377264500E0,1.530493379E0
2.024127309E0,-9.877279282E0,-1.458667397E0,1.678933978E0
2.026615070E0,-1.001614285E1,-1.511339784E0,1.813009262E0
2.029102830E0,-1.010712242E1,-1.540070295E0,1.913565755E0
2.031590590E0,-1.014542961E1,-1.568800688E0,1.971026540E0
2.034078351E0,-1.016937160E1,-1.559223890E0,1.956661344E0
2.036566111E0,-1.017416000E1,-1.554435492E0,1.918354154E0
2.039053872E0,-1.018852520E1,-1.559223890E0,1.836951256E0
2.041541632E0,-1.024119759E1,-1.635838270E0,1.769913554E0
2.044029392E0,-1.024598598E1,-1.755548358E0,1.664568782E0
2.046517153E0,-1.027471638E1,-1.908777356E0,1.549647093E0
2.049004913E0,-1.027950478E1,-2.090736628E0,1.382052898E0
2.051492674E0,-1.025077438E1,-2.301426411E0,1.180940032E0
2.053980434E0,-1.018852520E1,-2.478597403E0,9.367313981E-1
2.056468195E0,-1.003529644E1,-2.655768156E0,6.877344251E-1
2.058955955E0,-9.858125687E0,-2.794631958E0,4.531026781E-1
2.061443715E0,-9.680954933E0,-2.919130325E0,2.711433470E-1
2.063931476E0,-9.508571625E0,-3.014898539E0,1.514332592E-1
2.066419236E0,-9.340977669E0,-3.110666513E0,6.045359373E-2
2.068906997E0,-9.254786491E0,-3.163338900E0,1.256955881E-2
2.071394757E0,-9.240421295E0,-3.182492495E0,-1.137245819E-2
2.073882517E0,-9.278728485E0,-3.206434727E0,-3.531447425E-2
2.076370278E0,-9.398438454E0,-3.201646328E0,-1.616086066E-2
2.078858038E0,-9.546878815E0,-3.158550501E0,-1.137245819E-2
2.081345799E0,-9.704896927E0,-3.081936121E0,-1.137245819E-2
2.083833559E0,-9.872490883E0,-2.952649355E0,-6.584054790E-3
2.086321320E0,-1.005445004E1,-2.789843559E0,-6.584054790E-3
2.088809080E0,-1.027950478E1,-2.593518972E0,-1.137245819E-2
2.091296840E0,-1.050934792E1,-2.387617588E0,-2.573766746E-2
2.093784601E0,-1.071046162E1,-2.176927805E0,-3.052607179E-2
2.096272361E0,-1.088763237E1,-1.980603337E0,-5.446808785E-2
2.098760122E0,-1.105522633E1,-1.841739655E0,-9.756372124E-2
2.101247882E0,-1.120845509E1,-1.741183162E0,-1.646013707E-1
2.103735642E0,-1.136647224E1,-1.674145579E0,-2.316390127E-1
2.106223403E0,-1.155800915E1,-1.640626669E0,-3.178302646E-1
2.108711163E0,-1.169687271E1,-1.664568782E0,-4.423287511E-1
2.111198924E0,-1.179742908E1,-1.745971560E0,-5.620388389E-1
2.113686684E0,-1.179742908E1,-1.813009262E0,-6.625953317E-1
2.116174445E0,-1.173517990E1,-1.880046844E0,-7.535749674E-1
2.118662205E0,-1.164898872E1,-1.942296147E0,-8.445546627E-1
2.121149965E0,-1.155800915E1,-2.004545450E0,-9.355342984E-1
2.123637726E0,-1.145266342E1,-2.076371431E0,-9.977835417E-1
2.126125486E0,-1.133774185E1,-2.176927805E0,-1.069609642E0
2.128613247E0,-1.122282028E1,-2.301426411E0,-1.122282028E0
2.131101007E0,-1.109832191E1,-2.459443808E0,-1.194108129E0
2.133588715E0,-1.092115116E1,-2.665344954E0,-1.275510907E0
2.136076424E0,-1.077271080E1,-2.895188332E0,-1.285087705E0
2.138564132E0,-1.061469364E1,-3.101089716E0,-1.232415318E0
2.141051840E0,-1.040400314E1,-3.302202702E0,-1.165377736E0
2.143539549E0,-1.018852520E1,-3.479373693E0,-1.040879130E0
2.146027257E0,-9.973047256E0,-3.599083662E0,-9.020155072E-1
2.148514965E0,-9.762357712E0,-3.690063477E0,-7.152677774E-1
2.151002674E0,-9.604340553E0,-3.757101059E0,-5.285200477E-1
2.153490382E0,-9.460687637E0,-3.800196648E0,-3.657143116E-1
2.155978090E0,-9.388861656E0,-3.838503838E0,-1.885433793E-1
2.158465799E0,-9.436745644E0,-3.848080635E0,-2.094926499E-2
2.160953507E0,-9.575610161E0,-3.800196648E0,1.322796494E-1
2.163441215E0,-9.747992516E0,-3.737947464E0,2.711433470E-1
2.165928924E0,-9.939528465E0,-3.613448858E0,4.052186310E-1
2.168416632E0,-1.015500641E1,-3.469796896E0,5.440823436E-1
2.170904340E0,-1.039442635E1,-3.311779499E0,6.590040326E-1
2.173392049E0,-1.065300083E1,-3.148973703E0,7.835025191E-1
2.175879757E0,-1.087805557E1,-2.938283920E0,8.457517624E-1
2.178367465E0,-1.109832191E1,-2.670133352E0,7.882909179E-1
2.180855174E0,-1.132816505E1,-2.401982784E0,5.871779919E-1
2.183342882E0,-1.148139381E1,-2.186504602E0,2.950853705E-1
2.185830590E0,-1.157237434E1,-2.033275843E0,-9.756372124E-2
2.188318299E0,-1.159631634E1,-1.932719350E0,-5.572504401E-1
2.190806007E0,-1.157716274E1,-1.875258446E0,-1.012148738E0
2.193293715E0,-1.152927876E1,-1.832162857E0,-1.423951507E0
2.195781424E0,-1.147660542E1,-1.798644066E0,-1.783081770E0
2.198269132E0,-1.139520264E1,-1.803432465E0,-2.051232338E0
2.200756840E0,-1.131379986E1,-1.832162857E0,-2.247556925E0
2.203244549E0,-1.120845509E1,-1.918354154E0,-2.400785685E0
2.205732257E0,-1.108874512E1,-2.018910646E0,-2.510919094E0
2.208219965E0,-1.093551636E1,-2.138620615E0,-2.539649487E0
2.210707674E0,-1.077749920E1,-2.272696018E0,-2.510919094E0
2.213195382E0,-1.060511684E1,-2.406771183E0,-2.391208887E0
2.215683090E0,-1.045188713E1,-2.536058187E0,-2.209249735E0
2.218170799E0,-1.032260036E1,-2.622249365E0,-1.974617839E0
2.220658507E0,-1.022683239E1,-2.718017578E0,-1.696890473E0
2.223146215E0,-1.026513958E1,-2.890399933E0,-1.323395014E0
2.225633924E0,-1.007839203E1,-3.201646328E0,-6.242880821E-1
2.228121632E0,-9.700108528E0,-3.283049107E0,-4.967968538E-2
2.230609340E0,-9.628282547E0,-3.014898539E0,5.087678507E-2
2.233097049E0,-9.738415718E0,-2.732382774E0,8.439560980E-2
2.235584757E0,-9.843760490E0,-2.598307371E0,1.945288926E-1
2.238072517E0,-9.949105263E0,-2.550423384E0,3.764882088E-1
2.240560278E0,-1.012627602E1,-2.540846586E0,6.063315868E-1
2.243048038E0,-1.034654236E1,-2.550423384E0,9.175778031E-1
2.245535799E0,-1.058596325E1,-2.536058187E0,1.185728431E0
2.248023559E0,-1.081101799E1,-2.488174200E0,1.396418095E0
2.250511320E0,-1.094988155E1,-2.459443808E0,1.540070295E0
2.252999080E0,-1.098818874E1,-2.445078373E0,1.635838270E0
2.255486840E0,-1.095466995E1,-2.464232206E0,1.688510776E0
2.257974601E0,-1.086847878E1,-2.516904593E0,1.712452769E0
2.260462361E0,-1.072003841E1,-2.579153776E0,1.702875972E0
2.262950122E0,-1.057638645E1,-2.660556555E0,1.678933978E0
2.265437882E0,-1.042794514E1,-2.751536369E0,1.654991984E0
2.267925642E0,-1.031781197E1,-2.856881142E0,1.645415068E0
2.270413403E0,-1.022204399E1,-2.957437754E0,1.631049871E0
2.272901163E0,-1.013585281E1,-3.072359324E0,1.640626669E0
2.275388924E0,-1.000656605E1,-3.220799923E0,1.597531080E0
2.277876684E0,-9.858125687E0,-3.374028683E0,1.544858694E0
2.280364445E0,-9.690531731E0,-3.493738890E0,1.511339784E0
2.282852205E0,-9.503783226E0,-3.599083662E0,1.544858694E0
2.285339965E0,-9.355342865E0,-3.685275078E0,1.583165884E0
2.287827726E0,-9.221267700E0,-3.728370667E0,1.683722377E0
2.290315486E0,-9.130288124E0,-3.742735863E0,1.841739655E0
2.292803247E0,-9.091980934E0,-3.757101059E0,1.980603337E0
2.295291007E0,-9.077615738E0,-3.733159065E0,2.133832216E0
2.297778767E0,-9.077615738E0,-3.680486679E0,2.253542423E0
2.300266528E0,-9.091980934E0,-3.642179251E0,2.368463993E0
2.302754288E0,-9.144653320E0,-3.579930067E0,2.473809004E0
2.305242049E0,-9.182960510E0,-3.493738890E0,2.560000181E0
2.307729809E0,-9.206902504E0,-3.407547474E0,2.627037764E0
2.310217570E0,-9.249998093E0,-3.316567898E0,2.689286947E0
2.312705330E0,-9.312247276E0,-3.201646328E0,2.775478363E0
2.315193090E0,-9.422380447E0,-3.062782526E0,2.823362350E0
2.317680851E0,-9.556455612E0,-2.914341927E0,2.828150749E0
2.320168611E0,-9.709685326E0,-2.727594376E0,2.794631958E0
2.322656372E0,-9.867702484E0,-2.512116194E0,2.703652382E0
2.325144132E0,-1.005445004E1,-2.330156803E0,2.564788580E0
2.327631892E0,-1.025077438E1,-2.152985811E0,2.354098797E0
2.330119653E0,-1.042794514E1,-2.014122248E0,2.100313425E0
2.332607413E0,-1.057638645E1,-1.899200439E0,1.832162857E0
2.335095174E0,-1.068173122E1,-1.813009262E0,1.535281897E0
2.337582934E0,-1.072003841E1,-1.745971560E0,1.238400817E0
2.340070695E0,-1.073440361E1,-1.674145579E0,9.175778031E-1
2.342558455E0,-1.072961521E1,-1.607107878E0,6.446388364E-1
2.345046215E0,-1.072961521E1,-1.554435492E0,3.908534348E-1
2.347533976E0,-1.072482681E1,-1.540070295E0,1.753752679E-1
2.350021736E0,-1.068173122E1,-1.549647093E0,1.256955881E-2
2.352509497E0,-1.066257763E1,-1.573589087E0,-1.071405262E-1
2.354997257E0,-1.062427044E1,-1.611896276E0,-1.837549806E-1
2.357485017E0,-1.056680965E1,-1.669357181E0,-2.364274114E-1
2.359972778E0,-1.050934792E1,-1.784278870E0,-3.082534671E-1
2.362460538E0,-1.042794514E1,-1.927930951E0,-3.752911091E-1
2.364948299E0,-1.031781197E1,-2.071583033E0,-4.519055784E-1
2.367436059E0,-1.016458321E1,-2.220023632E0,-4.950011969E-1
2.369923820E0,-1.000656605E1,-2.358887196E0,-4.997895956E-1
2.372411580E0,-9.853337288E0,-2.469020605E0,-4.854243994E-1
2.374899340E0,-9.719262123E0,-2.555211782E0,-4.327519536E-1
2.377387101E0,-9.604340553E0,-2.598307371E0,-3.513490856E-1
2.379874861E0,-9.546878815E0,-2.603095770E0,-2.555810213E-1
2.382362622E0,-9.537302017E0,-2.607884169E0,-1.262941360E-1
2.384850382E0,-9.527725220E0,-2.579153776E0,7.781155407E-3
2.387338142E0,-9.566033363E0,-2.545634985E0,1.274912357E-1
2.389825903E0,-9.652224541E0,-2.536058187E0,2.184709013E-1
2.392313611E0,-9.714473724E0,-2.560000181E0,2.519897223E-1
2.394801320E0,-9.786299706E0,-2.603095770E0,2.663549483E-1
2.397289028E0,-9.867702484E0,-2.650979757E0,2.376245260E-1
2.399776736E0,-9.920374870E0,-2.694075346E0,1.801636815E-1
2.402264445E0,-9.934740067E0,-2.703652382E0,1.322796494E-1
2.404752153E0,-9.939528465E0,-2.698863983E0,2.693476900E-2
2.407239861E0,-9.910798073E0,-2.650979757E0,-9.277531505E-2
2.409727570E0,-9.872490883E0,-2.612672567E0,-2.412158251E-1
2.412215278E0,-9.843760490E0,-2.564788580E0,-3.848679364E-1
2.414702986E0,-9.858125687E0,-2.545634985E0,-4.854243994E-1
2.417190695E0,-9.877279282E0,-2.540846586E0,-5.859808922E-1
2.419678403E0,-9.906009674E0,-2.564788580E0,-6.769605279E-1
2.422166111E0,-9.896432877E0,-2.603095770E0,-7.152677774E-1
2.424653820E0,-9.862914085E0,-2.636614561E0,-7.631517649E-1
2.427141528E0,-9.805453300E0,-2.689286947E0,-7.823054194E-1
2.429629236E0,-9.709685326E0,-2.746747971E0,-7.631517649E-1
2.432116945E0,-9.642647743E0,-2.828150749E0,-7.056909800E-1
2.434604653E0,-9.566033363E0,-2.899976730E0,-6.003460884E-1
2.437092361E0,-9.479841232E0,-2.971802950E0,-4.566939771E-1
2.439580070E0,-9.388861656E0,-3.057994127E0,-2.603694201E-1
2.442067778E0,-9.297882080E0,-3.134608507E0,-2.094926499E-2
2.444555486E0,-9.192537308E0,-3.172915697E0,1.801636815E-1
2.447043195E0,-9.139864922E0,-3.201646328E0,4.339490533E-1
2.449530903E0,-9.115922928E0,-3.196857929E0,6.542156339E-1
2.452018611E0,-9.144653320E0,-3.168127298E0,8.888474107E-1
2.454506320E0,-9.197325706E0,-3.101089716E0,1.089960337E0
2.456994028E0,-9.269151688E0,-3.005321741E0,1.276708007E0
2.459481736E0,-9.360131264E0,-2.904765129E0,1.458667397E0
2.461969445E0,-9.470264435E0,-2.794631958E0,1.587954283E0
2.464457153E0,-9.585186958E0,-2.636614561E0,1.774701953E0
2.466944861E0,-9.685743332E0,-2.445078373E0,1.899200439E0
2.469432570E0,-9.762357712E0,-2.277484417E0,1.951872945E0
2.471920278E0,-9.882067680E0,-2.138620615E0,1.927930951E0
2.474407986E0,-9.996989250E0,-2.009333849E0,1.865681648E0
2.476895695E0,-1.009754562E1,-1.889623642E0,1.784278870E0
2.479383403E0,-1.020289040E1,-1.784278870E0,1.669357181E0
2.481871111E0,-1.031781197E1,-1.650203466E0,1.530493379E0
2.484358820E0,-1.041836834E1,-1.530493379E0,1.377264500E0
2.486846528E0,-1.051892471E1,-1.429937005E0,1.228824019E0
2.489334236E0,-1.064821243E1,-1.343745708E0,1.061229944E0
2.491821997E0,-1.076792240E1,-1.286284804E0,8.601169586E-1
2.494309757E0,-1.084932518E1,-1.286284804E0,6.542156339E-1
2.496797517E0,-1.089720917E1,-1.338957310E0,4.626794755E-1
2.499285278E0,-1.092115116E1,-1.434725404E0,2.855085433E-1
2.501773038E0,-1.087326717E1,-1.626261473E0,9.397241473E-2
2.504260799E0,-1.078707600E1,-1.846528053E0,2.992752008E-3
2.506748559E0,-1.061948204E1,-2.057217836E0,-3.052607179E-2
2.509236320E0,-1.038963795E1,-2.282272816E0,-2.094926499E-2
2.511724080E0,-1.014064121E1,-2.512116194E0,4.129998013E-2
2.514211840E0,-9.896432877E0,-2.737171173E0,1.657984704E-1
2.516699601E0,-9.647436142E0,-2.933495522E0,2.855085433E-1
2.519187361E0,-9.436745644E0,-3.129820108E0,4.339490533E-1
2.521675122E0,-9.240421295E0,-3.306991100E0,5.967547894E-1
2.524162882E0,-9.068038940E0,-3.465008497E0,7.116764784E-1
2.526650642E0,-8.933963776E0,-3.589506865E0,8.553285599E-1
2.529138403E0,-8.814253807E0,-3.675698042E0,9.846154451E-1
2.531626163E0,-8.742427826E0,-3.737947464E0,1.109113932E0
2.534113924E0,-8.708909035E0,-3.728370667E0,1.243189216E0
2.536601684E0,-8.713697433E0,-3.670909643E0,1.358110905E0
2.539089445E0,-8.771158218E0,-3.546411276E0,1.492186189E0
2.541577205E0,-8.862137794E0,-3.383605480E0,1.592742682E0
2.544064965E0,-8.953117371E0,-3.192069530E0,1.702875972E0
2.546552726E0,-9.101557732E0,-3.005321741E0,1.769913554E0
2.549040486E0,-9.254786491E0,-2.789843559E0,1.760336757E0
2.551528247E0,-9.403226852E0,-2.607884169E0,1.736394763E0
2.554016007E0,-9.522936821E0,-2.430713177E0,1.650203466E0
2.556503767E0,-9.628282547E0,-2.253542423E0,1.559223890E0
2.558991528E0,-9.719262123E0,-2.095525026E0,1.434725404E0
2.561479288E0,-9.791088104E0,-1.937507749E0,1.300650120E0
2.563967049E0,-9.838972092E0,-1.813009262E0,1.190516829E0
2.566454809E0,-9.901221275E0,-1.688510776E0,1.089960337E0
2.568942570E0,-9.973047256E0,-1.602319479E0,9.941922426E-1
2.571430330E0,-1.002571964E1,-1.511339784E0,8.840589523E-1
2.573918090E0,-1.009754562E1,-1.477820992E0,7.882909179E-1
2.576405851E0,-1.011191082E1,-1.439513803E0,6.494272351E-1
2.578893611E0,-1.013585281E1,-1.425148606E0,5.536591411E-1
2.581381372E0,-1.010712242E1,-1.429937005E0,4.483142793E-1
2.583869132E0,-1.007839203E1,-1.458667397E0,3.477577865E-1
2.586356892E0,-1.001614285E1,-1.487397790E0,2.711433470E-1
2.588844653E0,-9.944316864E0,-1.544858694E0,2.184709013E-1
2.591332413E0,-9.867702484E0,-1.635838270E0,1.801636815E-1
2.593820174E0,-9.800664902E0,-1.731606364E0,1.993172914E-1
2.596307934E0,-9.700108528E0,-1.832162857E0,2.136825025E-1
2.598795695E0,-9.599552155E0,-1.937507749E0,2.711433470E-1
2.601283455E0,-9.498994827E0,-2.018910646E0,3.669114113E-1
2.603771215E0,-9.388861656E0,-2.052429438E0,4.818331003E-1
2.606258976E0,-9.307458878E0,-2.047641039E0,5.967547894E-1
2.608746736E0,-9.259574890E0,-2.009333849E0,7.260416746E-1
2.611234497E0,-9.264363289E0,-1.985391736E0,8.409633636E-1
2.613722257E0,-9.293093681E0,-1.985391736E0,9.415197968E-1
2.616210017E0,-9.321824074E0,-1.990180135E0,1.022922635E0
2.618697778E0,-9.326612473E0,-2.028487444E0,1.061229944E0
2.621185695E0,-9.326612473E0,-2.018910646E0,1.113902330E0
2.623673507E0,-9.340977669E0,-1.975814939E0,1.137844324E0
2.626161267E0,-9.384073257E0,-1.889623642E0,1.190516829E0
2.628648976E0,-9.427168846E0,-1.789067268E0,1.238400817E0
2.631136684E0,-9.489418030E0,-1.683722377E0,1.267131209E0
2.633624392E0,-9.585186958E0,-1.583165884E0,1.257554412E0
2.636112101E0,-9.680954933E0,-1.506551385E0,1.204882026E0
2.638599809E0,-9.762357712E0,-1.425148606E0,1.099537134E0
2.641087517E0,-9.795876503E0,-1.401206493E0,9.463081956E-1
2.643575226E0,-9.829395294E0,-1.377264500E0,8.026561141E-1
2.646062934E0,-9.848548889E0,-1.386841297E0,6.398503780E-1
2.648550642E0,-9.838972092E0,-1.410783410E0,4.722562730E-1
2.651038351E0,-9.791088104E0,-1.453878999E0,3.333925903E-1
2.653526059E0,-9.724050522E0,-1.492186189E0,2.136825025E-1
2.656013767E0,-9.633070946E0,-1.540070295E0,1.657984704E-1
2.658501476E0,-9.551667213E0,-1.592742682E0,1.274912357E-1
2.660989184E0,-9.470264435E0,-1.654991984E0,1.083376259E-1
2.663476892E0,-9.388861656E0,-1.717241168E0,1.179144308E-1
2.665964601E0,-9.302670479E0,-1.808220863E0,1.227028370E-1
2.668452309E0,-9.249998093E0,-1.923142552E0,1.227028370E-1
2.670940017E0,-9.187748909E0,-2.023699045E0,1.418564469E-1
2.673427726E0,-9.106346130E0,-2.143409014E0,1.897404790E-1
2.675915434E0,-9.015366554E0,-2.239177227E0,2.232593149E-1
2.678403142E0,-8.919598579E0,-2.325368404E0,2.950853705E-1
2.680890851E0,-8.838195801E0,-2.387617588E0,3.764882088E-1
2.683378559E0,-8.790311813E0,-2.421136379E0,4.722562730E-1
2.685866267E0,-8.771158218E0,-2.416347980E0,5.632359385E-1
2.688353976E0,-8.790311813E0,-2.382829189E0,6.590040326E-1
2.690841684E0,-8.828619003E0,-2.339733601E0,7.308300734E-1
2.693329392E0,-8.890868187E0,-2.311003208E0,7.691373229E-1
2.695817101E0,-8.977059364E0,-2.263119221E0,7.835025191E-1
2.698304809E0,-9.082404137E0,-2.243965626E0,7.882909179E-1
2.700792517E0,-9.168595314E0,-2.181716204E0,7.978677154E-1
2.703280226E0,-9.273940086E0,-2.143409014E0,8.026561141E-1
2.705767934E0,-9.350554466E0,-2.081159830E0,7.595604658E-1
2.708255642E0,-9.427168846E0,-2.023699045E0,7.308300734E-1
2.710743351E0,-9.460687637E0,-1.951872945E0,7.356184721E-1
2.713231059E0,-9.518148422E0,-1.851316452E0,7.068880796E-1
2.715718767E0,-9.561244011E0,-1.760336757E0,6.685808301E-1
2.718206476E0,-9.604340553E0,-1.688510776E0,6.302735806E-1
2.720694184E0,-9.666589737E0,-1.640626669E0,6.015431881E-1
2.723181945E0,-9.709685326E0,-1.640626669E0,5.297171474E-1
2.725669705E0,-9.728838921E0,-1.645415068E0,4.770447016E-1
2.728157465E0,-9.704896927E0,-1.693299174E0,4.100070298E-1
2.730645226E0,-9.666589737E0,-1.726817966E0,3.381809890E-1
2.733132986E0,-9.623494148E0,-1.765125155E0,2.950853705E-1
2.735620747E0,-9.556455612E0,-1.798644066E0,2.855085433E-1
2.738108507E0,-9.479841232E0,-1.832162857E0,2.902969420E-1
2.740596267E0,-9.417592049E0,-1.875258446E0,3.046621680E-1
2.743084028E0,-9.355342865E0,-1.932719350E0,3.333925903E-1
2.745571788E0,-9.297882080E0,-1.971026540E0,3.812766075E-1
2.748059549E0,-9.283516884E0,-1.985391736E0,4.100070298E-1
2.750547309E0,-9.273940086E0,-1.994968534E0,4.770447016E-1
2.753035070E0,-9.278728485E0,-2.004545450E0,5.297171474E-1
2.755522830E0,-9.312247276E0,-1.990180135E0,5.776011348E-1
2.758010590E0,-9.360131264E0,-1.961449742E0,5.967547894E-1
2.760498351E0,-9.427168846E0,-1.937507749E0,6.398503780E-1
2.762986111E0,-9.508571625E0,-1.889623642E0,6.829460263E-1
2.765473872E0,-9.561244011E0,-1.832162857E0,6.973112226E-1
2.767961632E0,-9.599552155E0,-1.774701953E0,6.829460263E-1
2.770449392E0,-9.623494148E0,-1.726817966E0,6.685808301E-1
2.772937153E0,-9.642647743E0,-1.683722377E0,6.542156339E-1
2.775424913E0,-9.623494148E0,-1.669357181E0,6.542156339E-1
2.777912674E0,-9.585186958E0,-1.640626669E0,6.446388364E-1
2.780400434E0,-9.537302017E0,-1.621473074E0,6.973112226E-1
2.782888195E0,-9.513360023E0,-1.621473074E0,7.212532759E-1
2.785375955E0,-9.465476036E0,-1.631049871E0,7.260416746E-1
2.787863715E0,-9.436745644E0,-1.626261473E0,7.212532759E-1
2.790351476E0,-9.422380447E0,-1.635838270E0,6.925228238E-1
2.792839236E0,-9.408015251E0,-1.664568782E0,6.542156339E-1
2.795326997E0,-9.393650055E0,-1.702875972E0,5.871779919E-1
2.797814757E0,-9.374496460E0,-1.741183162E0,5.392939448E-1
2.800302517E0,-9.345766068E0,-1.784278870E0,4.866214991E-1
2.802790278E0,-9.302670479E0,-1.822586060E0,4.674678743E-1
2.805278038E0,-9.269151688E0,-1.856104851E0,4.339490533E-1
2.807765799E0,-9.230844498E0,-1.880046844E0,4.578910768E-1
2.810253559E0,-9.202114105E0,-1.894412041E0,5.153518915E-1
2.812741320E0,-9.192537308E0,-1.889623642E0,5.488707423E-1
2.815229080E0,-9.182960510E0,-1.841739655E0,5.919663906E-1
2.817716840E0,-9.202114105E0,-1.808220863E0,6.302735806E-1
2.820204601E0,-9.240421295E0,-1.789067268E0,6.542156339E-1
2.822692361E0,-9.283516884E0,-1.779490471E0,6.685808301E-1
2.825180122E0,-9.331400871E0,-1.774701953E0,7.020996213E-1
2.827667882E0,-9.369708061E0,-1.784278870E0,7.164648771E-1
2.830155642E0,-9.408015251E0,-1.789067268E0,7.212532759E-1
2.832643403E0,-9.436745644E0,-1.798644066E0,7.595604658E-1
2.835131163E0,-9.451110840E0,-1.784278870E0,8.026561141E-1
2.837618924E0,-9.465476036E0,-1.755548358E0,8.409633636E-1
2.840106684E0,-9.460687637E0,-1.745971560E0,8.744821548E-1
2.842594445E0,-9.489418030E0,-1.717241168E0,8.696937561E-1
2.845082205E0,-9.518148422E0,-1.722029567E0,8.792705536E-1
2.847569965E0,-9.556455612E0,-1.741183162E0,9.080010056E-1
2.850057726E0,-9.585186958E0,-1.731606364E0,9.127894044E-1
2.852545486E0,-9.623494148E0,-1.745971560E0,9.032126069E-1
2.855033247E0,-9.642647743E0,-1.750759959E0,8.505401611E-1
2.857521007E0,-9.657012939E0,-1.779490471E0,7.978677154E-1
2.860008767E0,-9.647436142E0,-1.817797661E0,7.212532759E-1
2.862496528E0,-9.647436142E0,-1.865681648E0,6.398503780E-1
2.864984288E0,-9.604340553E0,-1.918354154E0,5.488707423E-1
2.867472049E0,-9.561244011E0,-1.971026540E0,4.770447016E-1
2.869959809E0,-9.527725220E0,-1.961449742E0,3.860650361E-1
2.872447570E0,-9.527725220E0,-1.956661344E0,3.094505668E-1
2.874935330E0,-9.532513618E0,-1.975814939E0,2.424129248E-1
2.877423090E0,-9.518148422E0,-1.975814939E0,1.657984704E-1
2.879910851E0,-9.498994827E0,-1.980603337E0,1.083376259E-1
2.882398611E0,-9.455899239E0,-1.994968534E0,6.524199992E-2
2.884886372E0,-9.393650055E0,-2.028487444E0,1.735796221E-2
2.887374132E0,-9.317035675E0,-2.066794634E0,1.256955881E-2
2.889861892E0,-9.235632896E0,-2.143409014E0,3.651157767E-2
2.892349653E0,-9.139864922E0,-2.215235233E0,9.397241473E-2
2.894837413E0,-9.077615738E0,-2.277484417E0,1.418564469E-1
2.897325174E0,-9.039308548E0,-2.344521999E0,2.376245260E-1
2.899812934E0,-8.996212959E0,-2.411559582E0,3.429693878E-1
2.902300642E0,-8.972270966E0,-2.464232206E0,4.578910768E-1
2.904788351E0,-8.957905769E0,-2.516904593E0,5.584475398E-1
2.907276059E0,-8.938752174E0,-2.555211782E0,6.350619793E-1
2.909763767E0,-8.938752174E0,-2.579153776E0,7.260416746E-1
2.912251476E0,-8.929175377E0,-2.593518972E0,8.265981078E-1
2.914739184E0,-8.933963776E0,-2.598307371E0,9.223662019E-1
2.917226892E0,-8.948328972E0,-2.593518972E0,1.027711034E0
2.919714601E0,-8.986636162E0,-2.598307371E0,1.099537134E0
2.922202309E0,-9.044096947E0,-2.583942175E0,1.152209520E0
2.924690017E0,-9.072827339E0,-2.569576979E0,1.228824019E0
2.927177726E0,-9.149441719E0,-2.521692991E0,1.257554412E0
2.929665434E0,-9.226056099E0,-2.478597403E0,1.271919608E0
2.932153142E0,-9.321824074E0,-2.425924778E0,1.281496406E0
2.934640851E0,-9.431957245E0,-2.349310398E0,1.267131209E0
2.937128559E0,-9.546878815E0,-2.243965626E0,1.224035621E0
2.939616267E0,-9.647436142E0,-2.162562609E0,1.156997919E0
2.942103976E0,-9.724050522E0,-2.076371431E0,1.094748735E0
2.944591684E0,-9.771934509E0,-1.990180135E0,1.042076349E0
2.947079392E0,-9.834183693E0,-1.908777356E0,9.606734514E-1
2.949567101E0,-9.886856079E0,-1.870470047E0,8.936358094E-1
2.952054809E0,-9.939528465E0,-1.827374458E0,8.026561141E-1
2.954542517E0,-1.001614285E1,-1.793855667E0,7.020996213E-1
2.957030226E0,-1.005445004E1,-1.803432465E0,6.302735806E-1
2.959517934E0,-1.007360363E1,-1.832162857E0,5.009866953E-1
2.962005642E0,-1.006881523E1,-1.870470047E0,4.147954583E-1
2.964493351E0,-1.002093124E1,-1.908777356E0,3.381809890E-1
2.966981059E0,-9.925163269E0,-1.980603337E0,2.424129248E-1
2.969468767E0,-9.867702484E0,-2.033275843E0,1.657984704E-1
2.971956476E0,-9.757569313E0,-2.109890223E0,1.514332592E-1
2.974444184E0,-9.676166534E0,-2.200869799E0,1.562216580E-1
2.976931892E0,-9.609128952E0,-2.282272816E0,1.562216580E-1
2.979419601E0,-9.503783226E0,-2.382829189E0,1.705868691E-1
2.981907309E0,-9.417592049E0,-2.488174200E0,1.945288926E-1
2.984395017E0,-9.355342865E0,-2.564788580E0,2.376245260E-1
2.986882726E0,-9.326612473E0,-2.627037764E0,2.855085433E-1
2.989370434E0,-9.297882080E0,-2.636614561E0,3.477577865E-1
2.991858195E0,-9.326612473E0,-2.627037764E0,4.435258508E-1
2.994345955E0,-9.350554466E0,-2.598307371E0,4.961982965E-1
2.996833715E0,-9.403226852E0,-2.560000181E0,5.345055461E-1
2.999321476E0,-9.460687637E0,-2.502539396E0,5.680243373E-1
3.001809236E0,-9.518148422E0,-2.445078373E0,6.111199856E-1
3.004296997E0,-9.575610161E0,-2.363675594E0,6.542156339E-1
3.006784757E0,-9.652224541E0,-2.287061214E0,6.877344251E-1
3.009272517E0,-9.714473724E0,-2.176927805E0,7.116764784E-1
3.011760278E0,-9.767146111E0,-2.076371431E0,7.308300734E-1
3.014248038E0,-9.815030098E0,-1.961449742E0,7.547720671E-1
3.016735799E0,-9.901221275E0,-1.856104851E0,7.691373229E-1
3.019223559E0,-9.968258858E0,-1.765125155E0,7.643488646E-1
3.021711320E0,-1.003050804E1,-1.674145579E0,7.451952696E-1
3.024199080E0,-1.010712242E1,-1.602319479E0,7.212532759E-1
3.026686840E0,-1.018852520E1,-1.564012289E0,7.356184721E-1
3.029174601E0,-1.024598598E1,-1.544858694E0,6.925228238E-1
3.031662361E0,-1.031781197E1,-1.540070295E0,6.637924314E-1
3.034150122E0,-1.033696556E1,-1.573589087E0,6.302735806E-1
3.036637882E0,-1.031781197E1,-1.602319479E0,5.871779919E-1
3.039125642E0,-1.026035118E1,-1.611896276E0,5.776011348E-1
3.041613403E0,-1.017894840E1,-1.635838270E0,5.536591411E-1
3.044101163E0,-1.010712242E1,-1.674145579E0,5.201402903E-1
3.046588924E0,-1.002571964E1,-1.722029567E0,5.057750940E-1
3.049076684E0,-9.944316864E0,-1.769913554E0,4.674678743E-1
3.051564445E0,-9.877279282E0,-1.841739655E0,4.100070298E-1
3.054052205E0,-9.810241699E0,-1.927930951E0,3.716998100E-1
3.056539965E0,-9.762357712E0,-1.990180135E0,3.573346138E-1
3.059027726E0,-9.700108528E0,-2.047641039E0,2.902969420E-1
3.061515486E0,-9.652224541E0,-2.105101824E0,2.663549483E-1
3.064003247E0,-9.604340553E0,-2.176927805E0,3.046621680E-1
3.066491007E0,-9.556455612E0,-2.220023632E0,3.333925903E-1
3.068978767E0,-9.527725220E0,-2.239177227E0,3.956418335E-1
3.071466528E0,-9.498994827E0,-2.267907619E0,4.578910768E-1
3.073954288E0,-9.489418030E0,-2.277484417E0,5.201402903E-1
3.076442049E0,-9.479841232E0,-2.267907619E0,5.823895931E-1
3.078929809E0,-9.513360023E0,-2.234388828E0,6.398503780E-1
3.081417570E0,-9.527725220E0,-2.200869799E0,6.829460263E-1
3.083905330E0,-9.551667213E0,-2.152985811E0,7.068880796E-1
3.086393090E0,-9.585186958E0,-2.119467020E0,7.356184721E-1
3.088880851E0,-9.637859344E0,-2.081159830E0,7.882909179E-1
3.091368611E0,-9.690531731E0,-2.033275843E0,8.265981078E-1
3.093856372E0,-9.767146111E0,-1.990180135E0,8.744821548E-1
3.096344132E0,-9.853337288E0,-1.947084546E0,9.175778031E-1
3.098831892E0,-9.953893661E0,-1.899200439E0,9.510966539E-1
3.101319653E0,-1.006402683E1,-1.822586060E0,9.702502489E-1
3.103807413E0,-1.018852520E1,-1.741183162E0,9.798270464E-1
3.106295174E0,-1.030344677E1,-1.645415068E0,1.003769040E0
3.108782934E0,-1.042315674E1,-1.573589087E0,1.027711034E0
3.111270695E0,-1.053328991E1,-1.501762986E0,1.008557439E0
3.113758455E0,-1.060032845E1,-1.429937005E0,9.846154451E-1
3.116246215E0,-1.064821243E1,-1.386841297E0,9.463081956E-1
3.118733976E0,-1.068173122E1,-1.358110905E0,8.792705536E-1
3.121221736E0,-1.069609642E1,-1.362899303E0,7.978677154E-1
3.123709497E0,-1.070088482E1,-1.401206493E0,7.356184721E-1
3.126197257E0,-1.070567322E1,-1.458667397E0,6.542156339E-1
3.128685017E0,-1.067694283E1,-1.496974587E0,5.823895931E-1
3.131172778E0,-1.061469364E1,-1.559223890E0,5.201402903E-1
3.133660538E0,-1.059075165E1,-1.602319479E0,4.770447016E-1
3.136148299E0,-1.055244446E1,-1.654991984E0,4.483142793E-1
3.138636059E0,-1.049977112E1,-1.712452769E0,4.052186310E-1
3.141123976E0,-1.047104073E1,-1.779490471E0,3.860650361E-1
3.143611788E0,-1.044709873E1,-1.841739655E0,3.621230125E-1
3.146099549E0,-1.041836834E1,-1.860893250E0,3.477577865E-1
3.148587309E0,-1.040879154E1,-1.880046844E0,3.238157928E-1
3.151075017E0,-1.039921474E1,-1.908777356E0,2.807201445E-1
3.153562726E0,-1.038484955E1,-1.956661344E0,2.472013235E-1
3.156050434E0,-1.037527275E1,-2.009333849E0,2.328361124E-1
3.158538142E0,-1.038484955E1,-2.062006235E0,2.088941038E-1
3.161025851E0,-1.041357994E1,-2.119467020E0,1.849520802E-1
3.163513559E0,-1.043752193E1,-2.162562609E0,1.897404790E-1
3.166001267E0,-1.045188713E1,-2.196081400E0,2.136825025E-1
3.168488976E0,-1.045667553E1,-2.220023632E0,2.184709013E-1
3.170976684E0,-1.046625233E1,-2.253542423E0,2.328361124E-1
3.173464392E0,-1.046146393E1,-2.253542423E0,2.376245260E-1
3.175952101E0,-1.045667553E1,-2.272696018E0,2.615665495E-1
3.178439809E0,-1.044709873E1,-2.311003208E0,3.142389655E-1
3.180927517E0,-1.044231033E1,-2.354098797E0,3.669114113E-1
3.183415226E0,-1.047104073E1,-2.387617588E0,3.956418335E-1
3.185902934E0,-1.050934792E1,-2.425924778E0,3.956418335E-1
3.188390642E0,-1.055244446E1,-2.469020605E0,4.052186310E-1
3.190878351E0,-1.063863564E1,-2.512116194E0,3.860650361E-1
3.193366059E0,-1.070567322E1,-2.516904593E0,3.525462151E-1
3.195853767E0,-1.074398041E1,-2.507327795E0,3.525462151E-1
3.198341476E0,-1.080622959E1,-2.516904593E0,3.333925903E-1
3.200829184E0,-1.084932518E1,-2.545634985E0,3.094505668E-1
3.203316892E0,-1.088763237E1,-2.598307371E0,2.855085433E-1
3.205804601E0,-1.095466995E1,-2.670133352E0,2.663549483E-1
3.208292309E0,-1.101213074E1,-2.746747971E0,2.376245260E-1
3.210780017E0,-1.105522633E1,-2.832939148E0,1.849520802E-1
3.213267726E0,-1.109832191E1,-2.914341927E0,1.562216580E-1
3.215755434E0,-1.113662910E1,-3.024475336E0,1.227028370E-1
3.218243142E0,-1.116535950E1,-3.120243311E0,8.439560980E-2
3.220730851E0,-1.117014790E1,-3.182492495E0,4.129998013E-2
3.223218559E0,-1.117972469E1,-3.225588322E0,3.172317147E-2
3.225706267E0,-1.117972469E1,-3.249530315E0,5.566519126E-2
3.228193976E0,-1.118930149E1,-3.268683910E0,9.397241473E-2
3.230681684E0,-1.118930149E1,-3.297414303E0,1.274912357E-1
3.233169392E0,-1.117972469E1,-3.369240284E0,1.179144308E-1
3.235657101E0,-1.117493629E1,-3.455431700E0,9.876082093E-2
3.238144861E0,-1.115578270E1,-3.522469282E0,1.083376259E-1
3.240632622E0,-1.113662910E1,-3.594295263E0,1.131260321E-1
3.243120382E0,-1.114141750E1,-3.623025656E0,1.179144308E-1
3.245608142E0,-1.116057110E1,-3.594295263E0,1.274912357E-1
3.248095903E0,-1.114620590E1,-3.560776472E0,1.610100716E-1
3.250583663E0,-1.112226391E1,-3.488950491E0,1.801636815E-1
3.253071424E0,-1.112705231E1,-3.417124271E0,1.610100716E-1
3.255559184E0,-1.112705231E1,-3.369240284E0,1.322796494E-1
3.258046945E0,-1.112705231E1,-3.330933094E0,8.439560980E-2
3.260534705E0,-1.115099430E1,-3.292625904E0,3.172317147E-2
3.263022465E0,-1.118451309E1,-3.244741917E0,-1.795651275E-3
3.265510226E0,-1.122760868E1,-3.196857929E0,-2.094926499E-2
3.267997986E0,-1.128506947E1,-3.125031710E0,-1.795651275E-3
3.270485747E0,-1.132337666E1,-3.077147722E0,2.693476900E-2
3.272973507E0,-1.136647224E1,-3.029263735E0,8.439560980E-2
3.275461267E0,-1.143350983E1,-2.986168146E0,1.131260321E-1
3.277949028E0,-1.147660542E1,-2.952649355E0,1.514332592E-1
3.280436788E0,-1.151012421E1,-2.938283920E0,2.088941038E-1
3.282924549E0,-1.153406715E1,-2.938283920E0,2.807201445E-1
3.285412309E0,-1.154843235E1,-2.933495522E0,3.381809890E-1
3.287900070E0,-1.155800915E1,-2.967014551E0,3.621230125E-1
3.290387830E0,-1.152927876E1,-3.019686937E0,4.052186310E-1
3.292875590E0,-1.151970100E1,-3.096301317E0,4.435258508E-1
3.295363351E0,-1.152449036E1,-3.148973703E0,4.578910768E-1
3.297851111E0,-1.152927876E1,-3.177704096E0,4.626794755E-1
3.300338872E0,-1.153885555E1,-3.182492495E0,4.866214991E-1
3.302826632E0,-1.155800915E1,-3.187281132E0,5.153518915E-1
3.305314392E0,-1.155800915E1,-3.168127298E0,5.249287486E-1
3.307802153E0,-1.156279755E1,-3.158550501E0,5.057750940E-1
3.310289913E0,-1.155322075E1,-3.153762102E0,4.770447016E-1
3.312777674E0,-1.151491261E1,-3.158550501E0,4.195838571E-1
3.315265434E0,-1.146702862E1,-3.182492495E0,3.381809890E-1
3.317753195E0,-1.144308662E1,-3.225588322E0,2.711433470E-1
3.320240955E0,-1.139041424E1,-3.239953518E0,2.088941038E-1
3.322728715E0,-1.137604904E1,-3.259107113E0,1.705868691E-1
3.325216476E0,-1.137126064E1,-3.259107113E0,1.370680481E-1
3.327704236E0,-1.138562584E1,-3.244741917E0,1.466448605E-1
3.330191997E0,-1.138562584E1,-3.230376720E0,1.370680481E-1
3.332679757E0,-1.138083744E1,-3.196857929E0,1.610100716E-1
3.335167517E0,-1.136168385E1,-3.172915697E0,1.610100716E-1
3.337655278E0,-1.129943466E1,-3.153762102E0,1.322796494E-1
3.340143038E0,-1.125633907E1,-3.120243311E0,1.179144308E-1
3.342630799E0,-1.122282028E1,-3.110666513E0,1.227028370E-1
3.345118559E0,-1.116535950E1,-3.105878115E0,1.179144308E-1
3.347606320E0,-1.110789871E1,-3.120243311E0,7.481880486E-2
3.350094080E0,-1.106480312E1,-3.115454912E0,4.608838260E-2
3.352581840E0,-1.103128433E1,-3.096301317E0,4.608838260E-2
3.355069601E0,-1.099776554E1,-3.096301317E0,6.524199992E-2
3.357557361E0,-1.096903515E1,-3.072359324E0,8.918401599E-2
3.360045122E0,-1.097382355E1,-3.038840532E0,1.418564469E-1
3.362532882E0,-1.097382355E1,-3.029263735E0,1.849520802E-1
3.365020642E0,-1.096424675E1,-3.010110140E0,2.567781210E-1
3.367508403E0,-1.094988155E1,-3.010110140E0,2.663549483E-1
3.369996163E0,-1.092593956E1,-3.014898539E0,2.328361124E-1
3.372483924E0,-1.090678596E1,-3.000533342E0,1.993172914E-1
3.374971684E0,-1.092593956E1,-3.014898539E0,1.418564469E-1
3.377459445E0,-1.095466995E1,-3.014898539E0,8.918401599E-2
3.379947205E0,-1.102649593E1,-3.014898539E0,5.566519126E-2
3.382434965E0,-1.112226391E1,-3.019686937E0,1.256955881E-2
3.384922726E0,-1.126112747E1,-3.010110140E0,2.992752008E-3
3.387410486E0,-1.140477943E1,-2.967014551E0,3.172317147E-2
3.389898247E0,-1.152449036E1,-2.919130325E0,2.214636654E-2
3.392386007E0,-1.164420033E1,-2.866457939E0,1.735796221E-2
3.394873767E0,-1.176391029E1,-2.799420357E0,2.693476900E-2
3.397361528E0,-1.186446667E1,-2.785055161E0,-2.573766746E-2
3.399849288E0,-1.192671585E1,-2.770689964E0,-1.119289324E-1
3.402337049E0,-1.199854183E1,-2.770689964E0,-2.029085904E-1
3.404824809E0,-1.206079102E1,-2.746747971E0,-3.274070919E-1
3.407312570E0,-1.211825180E1,-2.713229179E0,-4.710591733E-1
3.409800330E0,-1.220444298E1,-2.660556555E0,-6.003460884E-1
3.412288090E0,-1.230978775E1,-2.583942175E0,-7.248445749E-1
3.414775851E0,-1.240555573E1,-2.488174200E0,-8.732850552E-1
3.417263611E0,-1.253005505E1,-2.435501575E0,-1.064821243E0
3.419751372E0,-1.259230423E1,-2.387617588E0,-1.294664621E0
3.422239132E0,-1.266413021E1,-2.339733601E0,-1.500565886E0
3.424726892E0,-1.268807220E1,-2.296638012E0,-1.687313676E0
3.427214653E0,-1.271201420E1,-2.243965626E0,-1.874061346E0
3.429702413E0,-1.273116779E1,-2.186504602E0,-2.032078743E0
3.432190174E0,-1.272637939E1,-2.114678621E0,-2.147000313E0
3.434677934E0,-1.270722580E1,-2.062006235E0,-2.242768526E0
3.437165695E0,-1.268328381E1,-2.014122248E0,-2.281075716E0
3.439653403E0,-1.262582302E1,-1.956661344E0,-2.305017710E0
3.442141111E0,-1.258272743E1,-1.937507749E0,-2.305017710E0
3.444628820E0,-1.253963184E1,-1.971026540E0,-2.242768526E0
3.447116528E0,-1.245343971E1,-2.023699045E0,-2.170942307E0
3.449604236E0,-1.230978775E1,-2.100313425E0,-2.022501945E0
3.452091945E0,-1.217092419E1,-2.152985811E0,-1.807023764E0
3.454579653E0,-1.203206062E1,-2.220023632E0,-1.543661594E0
3.457067361E0,-1.191713905E1,-2.272696018E0,-1.246780515E0
3.459555070E0,-1.180700588E1,-2.320580006E0,-9.642647505E-1
3.462042778E0,-1.170166111E1,-2.373252392E0,-7.009025216E-1
3.464530486E0,-1.160589314E1,-2.440289974E0,-4.519055784E-1
3.467018195E0,-1.153885555E1,-2.507327795E0,-2.124854028E-1
3.469505903E0,-1.144787502E1,-2.593518972E0,2.992752008E-3
3.471993611E0,-1.134731865E1,-2.665344954E0,1.993172914E-1
3.474481320E0,-1.126112747E1,-2.694075346E0,4.052186310E-1
3.476969028E0,-1.123239708E1,-2.670133352E0,5.919663906E-1
3.479456736E0,-1.122282028E1,-2.627037764E0,7.787141204E-1
3.481944445E0,-1.119887829E1,-2.555211782E0,9.175778031E-1
3.484432153E0,-1.121324348E1,-2.464232206E0,1.027711034E0
3.486919861E0,-1.125155067E1,-2.382829189E0,1.113902330E0
3.489407570E0,-1.131858826E1,-2.306214809E0,1.123479128E0
3.491895278E0,-1.139999104E1,-2.191293001E0,1.094748735E0
3.494382986E0,-1.148618221E1,-2.018910646E0,1.089960337E0
3.496870695E0,-1.157716274E1,-1.817797661E0,1.032499433E0
3.499358403E0,-1.164420033E1,-1.611896276E0,9.894038439E-1
3.501846111E0,-1.173039150E1,-1.405994892E0,9.127894044E-1
3.504333820E0,-1.181179428E1,-1.219247222E0,8.074445128E-1
3.506821528E0,-1.185010147E1,-1.042076349E0,7.068880796E-1
3.509309236E0,-1.193150425E1,-8.840589523E-1,5.728127360E-1
3.511796945E0,-1.199854183E1,-7.739257216E-1,4.339490533E-1
3.514284653E0,-1.207515621E1,-7.068880796E-1,2.472013235E-1
3.516772361E0,-1.207515621E1,-6.781576276E-1,2.693476900E-2
3.519260070E0,-1.203206062E1,-6.206967831E-1,-1.550245583E-1
3.521747778E0,-1.194586945E1,-5.632359385E-1,-3.800795078E-1
3.524235486E0,-1.184531307E1,-4.961982965E-1,-5.716156363E-1
3.526723247E0,-1.175433350E1,-4.483142793E-1,-7.727286220E-1
3.529211007E0,-1.170166111E1,-4.243722558E-1,-9.546879530E-1
3.531698767E0,-1.165377712E1,-4.243722558E-1,-1.069609642E0
3.534186528E0,-1.161546993E1,-4.531026781E-1,-1.155800819E0
3.536674288E0,-1.160110474E1,-4.866214991E-1,-1.218050122E0
3.539162049E0,-1.153406715E1,-5.440823436E-1,-1.232415318E0
3.541649809E0,-1.143829823E1,-5.871779919E-1,-1.227626920E0
3.544137570E0,-1.132337666E1,-6.159083843E-1,-1.174954534E0
3.546625330E0,-1.120366669E1,-6.446388364E-1,-1.103128433E0
3.549113090E0,-1.112705231E1,-6.733692288E-1,-1.016937137E0
3.551600851E0,-1.108395672E1,-7.260416746E-1,-8.972271085E-1
3.554088611E0,-1.106959152E1,-7.643488646E-1,-7.823054194E-1
3.556576372E0,-1.108874512E1,-8.218097091E-1,-6.578069329E-1
3.559064132E0,-1.108874512E1,-8.888474107E-1,-5.572504401E-1
3.561551892E0,-1.106001472E1,-9.558850527E-1,-4.806360006E-1
3.564039653E0,-1.098818874E1,-1.013345838E0,-3.992331326E-1
3.566527413E0,-1.091636276E1,-1.042076349E0,-3.417722881E-1
3.569015174E0,-1.086369038E1,-1.042076349E0,-2.938882709E-1
3.571502934E0,-1.083495998E1,-9.894038439E-1,-2.412158251E-1
3.573990695E0,-1.081101799E1,-8.984242082E-1,-2.124854028E-1
3.576478455E0,-1.076792240E1,-8.170213103E-1,-2.172738016E-1
3.578966215E0,-1.076792240E1,-7.691373229E-1,-2.124854028E-1
3.581453976E0,-1.075355721E1,-7.260416746E-1,-2.029085904E-1
3.583941736E0,-1.073919201E1,-6.973112226E-1,-1.933317930E-1
3.586429497E0,-1.073440361E1,-6.685808301E-1,-1.550245583E-1
3.588917257E0,-1.069130802E1,-5.871779919E-1,-1.454477459E-1
3.591405017E0,-1.066736603E1,-4.914098978E-1,-1.406593472E-1
3.593892778E0,-1.065300083E1,-4.004302323E-1,-1.550245583E-1
3.596380538E0,-1.064821243E1,-3.094505668E-1,-1.981201917E-1
3.598868299E0,-1.065778923E1,-2.328361124E-1,-2.412158251E-1
3.601356059E0,-1.069130802E1,-2.280477136E-1,-2.555810213E-1
3.603843820E0,-1.075834560E1,-2.855085433E-1,-2.364274114E-1
3.606331580E0,-1.081101799E1,-3.621230125E-1,-2.220622003E-1
3.608819340E0,-1.086369038E1,-4.578910768E-1,-2.220622003E-1
3.611307101E0,-1.089242077E1,-5.440823436E-1,-2.412158251E-1
3.613794861E0,-1.090678596E1,-6.206967831E-1,-2.938882709E-1
3.616282622E0,-1.089242077E1,-6.685808301E-1,-3.896563351E-1
3.618770382E0,-1.088763237E1,-7.260416746E-1,-4.902127981E-1
3.621258142E0,-1.093072796E1,-7.787141204E-1,-5.572504401E-1
3.623745903E0,-1.099297714E1,-8.313865662E-1,-6.338648796E-1
3.626233663E0,-1.103128433E1,-8.696937561E-1,-6.817489266E-1
3.628721424E0,-1.106480312E1,-9.127894044E-1,-7.200561762E-1
3.631209184E0,-1.109832191E1,-9.367313981E-1,-7.823054194E-1
3.633696945E0,-1.108874512E1,-9.415197968E-1,-8.637082577E-1
3.636184705E0,-1.109353352E1,-9.654618502E-1,-9.642647505E-1
3.638672465E0,-1.108395672E1,-9.367313981E-1,-1.074398041E0
3.641160226E0,-1.107437992E1,-8.744821548E-1,-1.170166135E0
3.643647986E0,-1.109832191E1,-7.739257216E-1,-1.237203717E0
3.646135747E0,-1.114620590E1,-6.111199856E-1,-1.304241419E0
3.648623507E0,-1.120845509E1,-4.291606545E-1,-1.347337008E0
3.651111267E0,-1.127070427E1,-2.424129248E-1,-1.356913805E0
3.653599028E0,-1.137126064E1,-6.524199992E-2,-1.328183413E0
3.656086788E0,-1.138083744E1,7.362170517E-2,-1.289876223E0
3.658574549E0,-1.135689545E1,1.981201917E-1,-1.241992116E0
3.661062309E0,-1.129464626E1,3.082534671E-1,-1.189319730E0
3.663550070E0,-1.120366669E1,3.800795078E-1,-1.189319730E0
3.666037830E0,-1.106001472E1,4.040215313E-1,-1.198896527E0
3.668525590E0,-1.095945835E1,3.609259129E-1,-1.160589218E0
3.671013351E0,-1.084932518E1,2.747346461E-1,-1.088763237E0
3.673501111E0,-1.074876881E1,1.406593472E-1,-9.882067442E-1
3.675988872E0,-1.064821243E1,-4.129998013E-2,-8.397662640E-1
3.678476632E0,-1.053807831E1,-2.472013235E-1,-6.147112846E-1
3.680964392E0,-1.039921474E1,-4.339490533E-1,-4.088099301E-1
3.683452153E0,-1.028429317E1,-5.680243373E-1,-1.598129570E-1
3.685939913E0,-1.021725559E1,-6.733692288E-1,1.274912357E-1
3.688427674E0,-1.015500641E1,-7.404068708E-1,4.243722558E-1
3.690915434E0,-1.013106441E1,-8.074445128E-1,6.685808301E-1
3.693403195E0,-1.014542961E1,-9.223662019E-1,8.984242082E-1
3.695890955E0,-1.017894840E1,-9.989806414E-1,1.113902330E0
3.698378715E0,-1.022204399E1,-1.113902330E0,1.324592113E0
3.700866476E0,-1.026992798E1,-1.219247222E0,1.492186189E0
3.703354236E0,-1.034175396E1,-1.305438519E0,1.616684675E0
3.705841997E0,-1.039442635E1,-1.338957310E0,1.736394763E0
3.708329757E0,-1.040400314E1,-1.324592113E0,1.793855667E0
3.710817517E0,-1.038006115E1,-1.300650120E0,1.822586060E0
3.713305278E0,-1.035611916E1,-1.286284804E0,1.803432465E0
3.715793038E0,-1.030823517E1,-1.271919608E0,1.760336757E0
3.718280799E0,-1.025556278E1,-1.300650120E0,1.688510776E0
3.720768559E0,-1.016458321E1,-1.353322506E0,1.540070295E0
3.723256320E0,-1.004966164E1,-1.429937005E0,1.338957310E0
3.725744080E0,-9.925163269E0,-1.468244195E0,1.094748735E0
3.728231840E0,-9.843760490E0,-1.477820992E0,8.265981078E-1
3.730719601E0,-9.791088104E0,-1.492186189E0,6.398503780E-1
3.733207361E0,-9.752780914E0,-1.501762986E0,4.914098978E-1
3.735695122E0,-9.757569313E0,-1.473032594E0,3.860650361E-1
3.738182882E0,-9.762357712E0,-1.396418095E0,2.711433470E-1
3.740670590E0,-9.733627319E0,-1.281496406E0,1.322796494E-1
3.743158299E0,-9.685743332E0,-1.195305228E0,-1.795651275E-3
3.745646007E0,-9.623494148E0,-1.161786318E0,-1.119289324E-1
3.748133715E0,-9.580398560E0,-1.152209520E0,-2.029085904E-1
3.750621424E0,-9.537302017E0,-1.156997919E0,-2.172738016E-1
3.753109132E0,-9.494206429E0,-1.147421122E0,-1.646013707E-1
3.755596840E0,-9.465476036E0,-1.137844324E0,-6.404489279E-2
3.758084549E0,-9.431957245E0,-1.133055925E0,3.172317147E-2
3.760572257E0,-9.393650055E0,-1.113902330E0,1.418564469E-1
3.763059965E0,-9.360131264E0,-1.094748735E0,2.902969420E-1
3.765547674E0,-9.331400871E0,-1.075595140E0,4.339490533E-1
3.768035382E0,-9.278728485E0,-1.061229944E0,5.823895931E-1
3.770523090E0,-9.230844498E0,-1.042076349E0,7.739257216E-1
3.773010799E0,-9.211690903E0,-9.941922426E-1,1.018134236E0
3.775498507E0,-9.249998093E0,-8.840589523E-1,1.377264500E0
3.777986215E0,-9.360131264E0,-7.404068708E-1,1.750759959E0
3.780473924E0,-9.513360023E0,-5.871779919E-1,2.157774210E0
3.782961632E0,-9.680954933E0,-4.770447016E-1,2.545634985E0
3.785449340E0,-9.886856079E0,-4.004302323E-1,2.885611534E0
3.787937049E0,-1.012148762E1,-3.429693878E-1,3.187281132E0
3.790424757E0,-1.036090755E1,-2.711433470E-1,3.455431700E0
3.792912465E0,-1.061948204E1,-1.801636815E-1,3.646967649E0
3.795400174E0,-1.083017159E1,-1.179144308E-1,3.771466255E0
3.797887882E0,-1.096424675E1,-3.651157767E-2,3.852869034E0
3.800375590E0,-1.110789871E1,9.756372124E-2,3.891176224E0
3.802863299E0,-1.123239708E1,2.651578486E-1,3.929483652E0
3.805351007E0,-1.131858826E1,3.752911091E-1,3.953425646E0
3.807838715E0,-1.138083744E1,4.758476019E-1,3.943848848E0
3.810326424E0,-1.143829823E1,5.285200477E-1,3.843292236E0
3.812814132E0,-1.142393303E1,5.428852439E-1,3.670909643E0
3.815301840E0,-1.135210705E1,4.997895956E-1,3.441066504E0
3.817789549E0,-1.124197388E1,3.657143116E-1,3.139396906E0
3.820277257E0,-1.109832191E1,1.789665818E-1,2.861669540E0
3.822764965E0,-1.095466995E1,1.137245819E-2,2.564788580E0
3.825252674E0,-1.076792240E1,-9.397241473E-2,2.291849613E0
3.827740434E0,-1.054765606E1,-1.610100716E-1,1.999756932E0
3.830228195E0,-1.028908157E1,-2.088941038E-1,1.674145579E0
3.832715955E0,-1.007839203E1,-2.711433470E-1,1.281496406E0
3.835203715E0,-9.925163269E0,-3.525462151E-1,8.265981078E-1
3.837691476E0,-9.862914085E0,-4.578910768E-1,3.477577865E-1
3.840179236E0,-9.747992516E0,-5.680243373E-1,-1.454477459E-1
3.842666997E0,-9.642647743E0,-6.877344251E-1,-6.578069329E-1
3.845154757E0,-9.508571625E0,-7.739257216E-1,-1.170166135E0
3.847642517E0,-9.312247276E0,-8.026561141E-1,-1.620275974E0
3.850130278E0,-9.139864922E0,-8.026561141E-1,-2.041655540E0
3.852618038E0,-8.948328972E0,-7.930793166E-1,-2.391208887E0
3.855105799E0,-8.742427826E0,-8.026561141E-1,-2.692878246E0
3.857593559E0,-8.440757751E0,-8.936358094E-1,-2.956240654E0
3.860081320E0,-8.095993042E0,-1.013345838E0,-3.152565002E0
3.862569080E0,-7.708132267E0,-1.180940032E0,-3.324947596E0
3.865056840E0,-7.291541100E0,-1.353322506E0,-3.401561975E0
3.867544601E0,-6.903680801E0,-1.482609391E0,-3.353677988E0
3.870032361E0,-6.539762020E0,-1.583165884E0,-3.200449228E0
3.872520122E0,-6.151901245E0,-1.717241168E0,-2.989759445E0
3.875007882E0,-5.735310078E0,-1.870470047E0,-2.745550871E0
3.877495642E0,-5.294776917E0,-2.042852640E0,-2.486977100E0
3.879983403E0,-4.878185749E0,-2.205658197E0,-2.170942307E0
3.882471163E0,-4.471171856E0,-2.344521999E0,-1.878849745E0
3.884958924E0,-4.088099480E0,-2.473809004E0,-1.567603588E0
3.887446684E0,-3.791218281E0,-2.574365377E0,-1.237203717E0
3.889934445E0,-3.618835926E0,-2.622249365E0,-8.780734539E-1
3.892422205E0,-3.542221308E0,-2.593518972E0,-5.524620414E-1
3.894909965E0,-3.475183725E0,-2.531269789E0,-2.747346461E-1
3.897397726E0,-3.307589531E0,-2.445078373E0,-4.967968538E-2
3.899885486E0,-3.034650564E0,-2.416347980E0,1.227028370E-1
3.902373247E0,-2.704250813E0,-2.435501575E0,2.232593149E-1
3.904861007E0,-2.364274263E0,-2.483385801E0,2.998737693E-1
3.907348767E0,-2.019509077E0,-2.564788580E0,3.190273643E-1
3.909836528E0,-1.665167332E0,-2.650979757E0,2.998737693E-1
3.912324288E0,-1.329979062E0,-2.741959572E0,2.855085433E-1
3.914812049E0,-1.052251697E0,-2.804208755E0,2.663549483E-1
3.917299809E0,-8.176198602E-1,-2.794631958E0,1.993172914E-1
3.919787570E0,-6.452373862E-1,-2.727594376E0,1.370680481E-1
3.922275330E0,-5.255272985E-1,-2.612672567E0,5.566519126E-2
3.924763090E0,-4.106055796E-1,-2.521692991E0,-2.573766746E-2
3.927250851E0,-3.196259141E-1,-2.440289974E0,-6.883329898E-2
3.929738611E0,-2.286462635E-1,-2.334945202E0,-1.454477459E-1
3.932226372E0,-1.328781992E-1,-2.253542423E0,-2.412158251E-1
3.934714132E0,-5.147533491E-2,-2.157774210E0,-3.465606868E-1
3.937201892E0,1.077390742E-2,-2.028487444E0,-4.423287511E-1
3.939689653E0,1.077390742E-2,-1.860893250E0,-5.237316489E-1
3.942177413E0,-1.316810958E-2,-1.683722377E0,-6.099228859E-1
3.944665174E0,-9.457096457E-2,-1.482609391E0,-6.386532784E-1
3.947152934E0,-2.094926536E-1,-1.300650120E0,-7.009025216E-1
3.949640695E0,-2.956839204E-1,-1.142632723E0,-8.254010081E-1
3.952128455E0,-2.717418969E-1,-9.894038439E-1,-8.637082577E-1
3.954616215E0,-3.196259141E-1,-8.409633636E-1,-9.738415480E-1
3.957103976E0,-3.675099611E-1,-7.643488646E-1,-1.170166135E0
3.959591736E0,-4.584896266E-1,-6.781576276E-1,-1.385644197E0
3.962079497E0,-6.021417379E-1,-5.584475398E-1,-1.586757183E0
3.964567257E0,-8.750807047E-1,-4.100070298E-1,-1.768716455E0
3.967055017E0,-1.186326981E0,-2.567781210E-1,-1.998559833E0
3.969542778E0,-1.507149935E0,-1.179144308E-1,-2.290652514E0
3.972030538E0,-1.784877419E0,-1.256955881E-2,-2.640205860E0
3.974518299E0,-2.005143881E0,5.925649032E-2,-3.037643433E0
3.977006059E0,-2.206256866E0,8.798690885E-2,-3.454234600E0
3.979493820E0,-2.412158251E0,6.883329898E-2,-3.842095137E0
3.981981580E0,-2.584540844E0,3.052607179E-2,-4.143764496E0
3.984469340E0,-2.732981205E0,1.795651275E-3,-4.411915302E0
3.986957101E0,-2.919728994E0,-2.992752008E-3,-4.670488834E0
3.989444861E0,-3.178302765E0,1.137245819E-2,-4.919486046E0
3.991932622E0,-3.494337320E0,6.404489279E-2,-5.216366768E0
3.994420382E0,-3.796006680E0,1.502361596E-1,-5.546766758E0
3.996908142E0,-4.102464676E0,2.316390127E-1,-5.905897141E0
3.999395903E0,-4.384980202E0,3.082534671E-1,-6.303334713E0
4.001883663E0,-4.610035419E0,3.609259129E-1,-6.657676220E0
4.004371424E0,-4.825513363E0,3.992331326E-1,-6.959345818E0
4.006859184E0,-5.021838188E0,4.279635549E-1,-7.203554153E0
4.009346945E0,-5.179855347E0,4.662707746E-1,-7.366360188E0
4.011834705E0,-5.357026100E0,5.189431906E-1,-7.462128162E0
4.014322465E0,-5.625176907E0,6.290764809E-1,-7.428609371E0
4.016810226E0,-6.022614479E0,8.158242106E-1,-7.289745808E0
4.019297986E0,-6.482301235E0,1.055244446E0,-7.079055786E0
4.021785747E0,-6.927622795E0,1.285087705E0,-6.887519836E0
4.024273507E0,-7.372944355E0,1.495777488E0,-6.643311024E0
4.026761267E0,-7.799111843E0,1.639429569E0,-6.375160694E0
4.029249028E0,-8.201337814E0,1.711255670E0,-6.063914299E0
4.031736788E0,-8.570044518E0,1.739986062E0,-5.699995518E0
4.034224549E0,-8.919598579E0,1.730409265E0,-5.283404827E0
4.036712309E0,-9.235632896E0,1.687313676E0,-4.842871666E0
4.039200070E0,-9.470264435E0,1.567603588E0,-4.416703701E0
4.041687778E0,-9.657012939E0,1.385644197E0,-4.052784920E0
4.044175486E0,-9.848548889E0,1.146224022E0,-3.760692358E0
4.046663195E0,-1.009275723E1,8.972271085E-1,-3.459022999E0
4.049150903E0,-1.039921474E1,6.482301354E-1,-3.147776604E0
4.051638611E0,-1.068651962E1,4.040215313E-1,-2.826953650E0
4.054126320E0,-1.091157436E1,1.646013707E-1,-2.554014683E0
4.056614028E0,-1.110789871E1,-1.179144308E-1,-2.367266893E0
4.059101736E0,-1.123239708E1,-3.956418335E-1,-2.237980127E0
4.061589445E0,-1.129943466E1,-7.068880796E-1,-2.170942307E0
4.064077153E0,-1.131858826E1,-1.013345838E0,-2.185307503E0
4.066564861E0,-1.126112747E1,-1.334168911E0,-2.266710520E0
4.069052570E0,-1.109353352E1,-1.688510776E0,-2.405574083E0
4.071540278E0,-1.085890198E1,-2.004545450E0,-2.616263866E0
4.074027986E0,-1.059554005E1,-2.291849613E0,-2.826953650E0
4.076515695E0,-1.030344677E1,-2.569576979E0,-3.066373825E0
4.079003403E0,-1.004008484E1,-2.804208755E0,-3.286640406E0
4.081491111E0,-9.824606895E0,-2.986168146E0,-3.497330189E0
4.083978820E0,-9.685743332E0,-3.148973703E0,-3.660135746E0
4.086466528E0,-9.566033363E0,-3.259107113E0,-3.832518339E0
4.088954236E0,-9.451110840E0,-3.302202702E0,-4.004900932E0
4.091441945E0,-9.312247276E0,-3.326144695E0,-4.215590477E0
4.093929653E0,-9.192537308E0,-3.316567898E0,-4.411915302E0
4.096417361E0,-9.135076523E0,-3.326144695E0,-4.579509258E0
4.098905070E0,-9.111134529E0,-3.340509892E0,-4.708796024E0
4.101392778E0,-9.149441719E0,-3.359663486E0,-4.771045208E0
4.103880486E0,-9.249998093E0,-3.350086689E0,-4.756680012E0
4.106368195E0,-9.436745644E0,-3.316567898E0,-4.660912037E0
4.108855903E0,-9.676166534E0,-3.283049107E0,-4.522048473E0
4.111343611E0,-9.934740067E0,-3.216011524E0,-4.378396511E0
4.113831320E0,-1.015500641E1,-3.091512918E0,-4.215590477E0
4.116319028E0,-1.028908157E1,-2.962226152E0,-4.043208122E0
4.118806736E0,-1.038484955E1,-2.866457939E0,-3.880402327E0
4.121294445E0,-1.040879154E1,-2.832939148E0,-3.722385168E0
4.123782153E0,-1.040400314E1,-2.866457939E0,-3.545214176E0
4.126269913E0,-1.037048435E1,-2.933495522E0,-3.344101191E0
4.128757674E0,-1.034654236E1,-3.029263735E0,-3.114257812E0
4.131245434E0,-1.034175396E1,-3.134608507E0,-2.865260839E0
4.133733195E0,-1.033696556E1,-3.216011524E0,-2.601898670E0
4.136220955E0,-1.032738876E1,-3.287837505E0,-2.333748102E0
4.138708715E0,-1.032738876E1,-3.321356297E0,-2.089539528E0
4.141196476E0,-1.032260036E1,-3.345298290E0,-1.787870169E0
4.143684236E0,-1.029386997E1,-3.335721493E0,-1.500565886E0
4.146171997E0,-1.023640919E1,-3.359663486E0,-1.270722508E0
4.148659757E0,-1.014064121E1,-3.407547474E0,-1.088763237E0
4.151147517E0,-1.002093124E1,-3.479373693E0,-9.690531492E-1
4.153635278E0,-9.910798073E0,-3.560776472E0,-8.924387097E-1
4.156123038E0,-9.771934509E0,-3.579930067E0,-8.684966564E-1
4.158610799E0,-9.637859344E0,-3.536834478E0,-8.780734539E-1
4.161098559E0,-9.503783226E0,-3.445854902E0,-8.972271085E-1
4.163586320E0,-9.393650055E0,-3.326144695E0,-9.115923047E-1
4.166074080E0,-9.307458878E0,-3.225588322E0,-9.163807034E-1
4.168561840E0,-9.235632896E0,-3.139396906E0,-9.403226972E-1
4.171049601E0,-9.187748909E0,-3.038840532E0,-9.403226972E-1
4.173537361E0,-9.139864922E0,-2.923918724E0,-9.403226972E-1
4.176025122E0,-9.058462143E0,-2.818573952E0,-9.498994946E-1
4.178512882E0,-8.972270966E0,-2.737171173E0,-9.115923047E-1
4.181000642E0,-8.866926193E0,-2.646191359E0,-8.684966564E-1
4.183488403E0,-8.771158218E0,-2.555211782E0,-8.349778652E-1
4.185976163E0,-8.670601845E0,-2.469020605E0,-7.727286220E-1
4.188463924E0,-8.579621315E0,-2.397194386E0,-6.913257241E-1
4.190951684E0,-8.493430138E0,-2.301426411E0,-5.859808922E-1
4.193439445E0,-8.440757751E0,-2.200869799E0,-4.950011969E-1
4.195927205E0,-8.402450562E0,-2.085948229E0,-4.566939771E-1
4.198414965E0,-8.359354973E0,-1.985391736E0,-4.519055784E-1
4.200902726E0,-8.340201378E0,-1.908777356E0,-4.375403523E-1
4.203390486E0,-8.330624580E0,-1.827374458E0,-3.992331326E-1
4.205878247E0,-8.354566574E0,-1.755548358E0,-3.465606868E-1
4.208366007E0,-8.364143372E0,-1.731606364E0,-2.795230448E-1
4.210853767E0,-8.364143372E0,-1.722029567E0,-1.981201917E-1
4.213341528E0,-8.364143372E0,-1.765125155E0,-1.502361596E-1
4.215829288E0,-8.306682587E0,-1.808220863E0,-1.885433793E-1
4.218317049E0,-8.249221802E0,-1.884835243E0,-2.651578486E-1
4.220804809E0,-8.182184219E0,-1.951872945E0,-3.992331326E-1
4.223292570E0,-8.124723434E0,-1.980603337E0,-5.333084464E-1
4.225780330E0,-8.105569839E0,-2.018910646E0,-6.817489266E-1
4.228268090E0,-8.067262650E0,-2.004545450E0,-8.397662640E-1
4.230755851E0,-8.014590263E0,-2.014122248E0,-1.055244446E0
4.233243611E0,-7.918822289E0,-1.990180135E0,-1.304241419E0
4.235731372E0,-7.808688641E0,-1.980603337E0,-1.572391987E0
4.238219132E0,-7.698555470E0,-1.937507749E0,-1.816600561E0
4.240706892E0,-7.597999096E0,-1.894412041E0,-2.012925148E0
4.243194653E0,-7.511807919E0,-1.836951256E0,-2.190095901E0
4.245682413E0,-7.468712330E0,-1.774701953E0,-2.338536501E0
4.248170174E0,-7.425616741E0,-1.688510776E0,-2.491765499E0
4.250657934E0,-7.387309551E0,-1.573589087E0,-2.606687069E0
4.253145695E0,-7.363367558E0,-1.449090600E0,-2.726397276E0
4.255633455E0,-7.339425087E0,-1.329380512E0,-2.826953650E0
4.258121215E0,-7.286752701E0,-1.180940032E0,-2.903568029E0
4.260608976E0,-7.229291916E0,-1.085171938E0,-2.961029053E0
4.263096736E0,-7.157465935E0,-9.846154451E-1,-2.975394249E0
4.265584497E0,-7.085639954E0,-9.032126069E-1,-2.956240654E0
4.268072257E0,-7.018602371E0,-8.361749649E-1,-2.908356428E0
4.270560017E0,-6.941987991E0,-7.787141204E-1,-2.822165251E0
4.273047778E0,-6.865373611E0,-7.260416746E-1,-2.688089848E0
4.275535538E0,-6.812700748E0,-6.733692288E-1,-2.558803082E0
4.278023299E0,-6.755239964E0,-6.302735806E-1,-2.419939280E0
4.280511059E0,-6.716932774E0,-5.967547894E-1,-2.271498919E0
4.282998820E0,-6.692990780E0,-5.967547894E-1,-2.142211914E0
4.285486580E0,-6.683413982E0,-6.159083843E-1,-2.022501945E0
4.287974340E0,-6.721721172E0,-6.206967831E-1,-1.893214941E0
4.290462101E0,-6.779181957E0,-6.302735806E-1,-1.744774461E0
4.292949861E0,-6.860584736E0,-6.111199856E-1,-1.605910778E0
4.295437622E0,-6.956353188E0,-5.680243373E-1,-1.495777488E0
4.297925382E0,-7.090428352E0,-4.914098978E-1,-1.400009394E0
4.300413142E0,-7.234080315E0,-4.243722558E-1,-1.352125406E0
4.302900903E0,-7.387309551E0,-3.573346138E-1,-1.328183413E0
4.305388663E0,-7.554903507E0,-3.429693878E-1,-1.328183413E0
4.307876424E0,-7.751227856E0,-3.333925903E-1,-1.318606615E0
4.310364184E0,-8.009801865E0,-2.950853705E-1,-1.337760210E0
4.312851945E0,-8.282740593E0,-2.041056901E-1,-1.385644197E0
4.315339705E0,-8.531737328E0,-1.035492271E-1,-1.524507880E0
4.317827465E0,-8.742427826E0,-3.651157767E-2,-1.696890473E0
4.320315226E0,-8.895656586E0,1.795651275E-3,-1.912368655E0
4.322802986E0,-8.981847763E0,1.616086066E-2,-2.142211914E0
4.325290747E0,-9.010578156E0,3.531447425E-2,-2.410362482E0
4.327778507E0,-8.981847763E0,3.531447425E-2,-2.649782658E0
4.330266267E0,-8.895656586E0,6.584054790E-3,-2.865260839E0
4.332754028E0,-8.785523415E0,-1.256955881E-2,-3.090315819E0
4.335241788E0,-8.661025047E0,-4.129998013E-2,-3.286640406E0
4.337729497E0,-8.474276543E0,-1.083376259E-1,-3.473388195E0
4.340217205E0,-8.254010201E0,-2.041056901E-1,-3.645770550E0
4.342704913E0,-8.009801865E0,-3.046621680E-1,-3.784634352E0
4.345192622E0,-7.775169849E0,-3.956418335E-1,-3.889979124E0
4.347680330E0,-7.507019520E0,-4.818331003E-1,-3.961805344E0
4.350168038E0,-7.224503517E0,-5.776011348E-1,-4.024054527E0
4.352655747E0,-6.946776390E0,-7.020996213E-1,-4.009689331E0
4.355143455E0,-6.707355976E0,-8.313865662E-1,-3.947440147E0
4.357631163E0,-6.467936039E0,-9.510966539E-1,-3.870825529E0
4.360118872E0,-6.262034416E0,-1.066018343E0,-3.765480757E0
4.362606580E0,-6.080075264E0,-1.176151633E0,-3.655347347E0
4.365094288E0,-5.936423302E0,-1.276708007E0,-3.526060581E0
4.367581997E0,-5.835866451E0,-1.386841297E0,-3.382408381E0
4.370069705E0,-5.768828869E0,-1.520916581E0,-3.224391222E0
4.372557413E0,-5.802347660E0,-1.659780383E0,-2.989759445E0
4.375045122E0,-5.907692909E0,-1.769913554E0,-2.707243681E0
4.377532830E0,-6.070498466E0,-1.856104851E0,-2.367266893E0
4.380020538E0,-6.295553207E0,-1.894412041E0,-2.041655540E0
4.382508247E0,-6.539762020E0,-1.894412041E0,-1.749562860E0
4.384995955E0,-6.783970356E0,-1.846528053E0,-1.510142684E0
4.387483663E0,-7.085639954E0,-1.750759959E0,-1.265934110E0
4.389971372E0,-7.368155956E0,-1.592742682E0,-1.064821243E0
4.392459080E0,-7.602787495E0,-1.453878999E0,-9.451110959E-1
4.394946788E0,-7.813477039E0,-1.310226917E0,-8.206126094E-1
4.397434497E0,-7.976283073E0,-1.209670424E0,-6.913257241E-1
4.399922205E0,-8.134300232E0,-1.123479128E0,-6.099228859E-1
4.402409913E0,-8.301894188E0,-1.037287831E0,-5.237316489E-1
4.404897622E0,-8.488641739E0,-9.032126069E-1,-4.902127981E-1
4.407385330E0,-8.632294655E0,-7.882909179E-1,-4.997895956E-1
4.409873038E0,-8.732851028E0,-6.590040326E-1,-5.428852439E-1
4.412360747E0,-8.795100212E0,-5.536591411E-1,-6.434416771E-1
4.414848455E0,-8.819042206E0,-4.866214991E-1,-7.296329737E-1
4.417336163E0,-8.833407402E0,-4.387374520E-1,-8.254010081E-1
4.419823872E0,-8.804677010E0,-4.052186310E-1,-9.115923047E-1
4.422311580E0,-8.780735016E0,-3.812766075E-1,-9.929951429E-1
4.424799340E0,-8.723274231E0,-3.333925903E-1,-1.040879130E0
4.427287101E0,-8.684967041E0,-2.855085433E-1,-1.088763237E0
4.429774861E0,-8.670601845E0,-2.567781210E-1,-1.112705231E0
4.432262622E0,-8.670601845E0,-2.376245260E-1,-1.155800819E0
4.434750382E0,-8.675390244E0,-2.519897223E-1,-1.194108129E0
4.437238142E0,-8.665813446E0,-2.998737693E-1,-1.237203717E0
4.439725903E0,-8.617929459E0,-3.956418335E-1,-1.328183413E0
4.442213663E0,-8.503006935E0,-5.057750940E-1,-1.452681899E0
4.444701424E0,-8.364143372E0,-6.398503780E-1,-1.596333981E0
4.447189184E0,-8.206126213E0,-7.739257216E-1,-1.735197663E0
4.449676945E0,-8.038532257E0,-9.127894044E-1,-1.835754156E0
4.452164705E0,-7.875726700E0,-1.027711034E0,-1.921945453E0
4.454652465E0,-7.722497463E0,-1.099537134E0,-1.955464244E0
4.457140226E0,-7.665036678E0,-1.176151633E0,-1.969829440E0
4.459627986E0,-7.621941090E0,-1.238400817E0,-1.998559833E0
4.462115747E0,-7.583633900E0,-1.276708007E0,-2.075174332E0
4.464603507E0,-7.540538311E0,-1.324592113E0,-2.156577110E0
4.467091267E0,-7.511807919E0,-1.367687702E0,-2.214038134E0
4.469579028E0,-7.526173115E0,-1.420360208E0,-2.252345324E0
4.472066788E0,-7.612364292E0,-1.468244195E0,-2.233191729E0
4.474554549E0,-7.808688641E0,-1.449090600E0,-2.190095901E0
4.477042309E0,-8.091204643E0,-1.386841297E0,-2.123058319E0
4.479530070E0,-8.392873764E0,-1.310226917E0,-2.022501945E0
4.482017830E0,-8.622717857E0,-1.200093627E0,-1.902791858E0
4.484505590E0,-8.842984200E0,-1.109113932E0,-1.754351258E0
4.486993351E0,-9.034520149E0,-1.008557439E0,-1.605910778E0
4.489481111E0,-9.221267700E0,-8.888474107E-1,-1.467047095E0
4.491968872E0,-9.403226852E0,-7.978677154E-1,-1.318606615E0
4.494456632E0,-9.585186958E0,-6.829460263E-1,-1.112705231E0
4.496944392E0,-9.752780914E0,-5.776011348E-1,-9.020155072E-1
4.499432153E0,-9.867702484E0,-4.818331003E-1,-6.961141229E-1
4.501919913E0,-1.002571964E1,-4.100070298E-1,-4.327519536E-1
4.504407674E0,-1.021725559E1,-3.429693878E-1,-1.550245583E-1
4.506895434E0,-1.042794514E1,-2.950853705E-1,1.179144308E-1
4.509383195E0,-1.065778923E1,-2.280477136E-1,3.716998100E-1
4.511870955E0,-1.085890198E1,-1.753752679E-1,6.111199856E-1
4.514358715E0,-1.100255394E1,-1.466448605E-1,7.739257216E-1
4.516846476E0,-1.106959152E1,-1.514332592E-1,8.840589523E-1
4.519334236E0,-1.111268711E1,-1.610100716E-1,9.558850527E-1
4.521821997E0,-1.114141750E1,-1.945288926E-1,9.319429994E-1
4.524309757E0,-1.115099430E1,-2.472013235E-1,8.792705536E-1
4.526797517E0,-1.113662910E1,-3.333925903E-1,7.978677154E-1
4.529285278E0,-1.109353352E1,-4.531026781E-1,6.350619793E-1
4.531773038E0,-1.102170753E1,-5.728127360E-1,4.578910768E-1
4.534260799E0,-1.098818874E1,-6.925228238E-1,1.801636815E-1
4.536748559E0,-1.091157436E1,-8.265981078E-1,-1.358709484E-1
4.539236320E0,-1.084932518E1,-9.175778031E-1,-4.997895956E-1
4.541724080E0,-1.083974838E1,-1.003769040E0,-8.924387097E-1
4.544211840E0,-1.083495998E1,-1.056441545E0,-1.285087705E0
4.546699601E0,-1.083495998E1,-1.085171938E0,-1.653794765E0
4.549187361E0,-1.082059479E1,-1.104325533E0,-2.060809135E0
4.551675122E0,-1.078228760E1,-1.133055925E0,-2.458246708E0
4.554162882E0,-1.071525002E1,-1.142632723E0,-2.865260839E0
4.556650642E0,-1.061469364E1,-1.156997919E0,-3.253121614E0
4.559138403E0,-1.050455952E1,-1.137844324E0,-3.631405354E0
4.561626163E0,-1.039442635E1,-1.118690729E0,-3.971382141E0
4.564113924E0,-1.033217716E1,-1.118690729E0,-4.249109268E0
4.566601684E0,-1.029386997E1,-1.104325533E0,-4.474164486E0
4.569089445E0,-1.028429317E1,-1.070806742E0,-4.608239651E0
4.571577205E0,-1.026992798E1,-1.042076349E0,-4.684854031E0
4.574064965E0,-1.025556278E1,-1.032499433E0,-4.689642429E0
4.576552726E0,-1.026992798E1,-1.042076349E0,-4.627393246E0
4.579040486E0,-1.026992798E1,-1.075595140E0,-4.455010891E0
4.581528247E0,-1.024119759E1,-1.147421122E0,-4.239532471E0
4.584016007E0,-1.023162079E1,-1.195305228E0,-3.937863350E0
4.586503767E0,-1.018852520E1,-1.295861721E0,-3.602674961E0
4.588991528E0,-1.013585281E1,-1.382052898E0,-3.219602823E0
4.591479288E0,-1.008796883E1,-1.463455796E0,-2.793434858E0
4.593967049E0,-1.004966164E1,-1.516128182E0,-2.300229311E0
4.596454809E0,-1.004008484E1,-1.587954283E0,-1.763928056E0
4.598942570E0,-1.008796883E1,-1.688510776E0,-1.203684926E0
4.601430590E0,-1.016937160E1,-1.798644066E0,-6.194996834E-1
4.603918247E0,-1.023640919E1,-1.923142552E0,-6.883329898E-2
4.606405903E0,-1.026035118E1,-2.052429438E0,4.626794755E-1
4.608893559E0,-1.026513958E1,-2.176927805E0,9.080010056E-1
4.611381215E0,-1.020289040E1,-2.282272816E0,1.295861721E0
4.613868872E0,-1.015979481E1,-2.344521999E0,1.621473074E0
4.616356528E0,-1.013106441E1,-2.401982784E0,1.918354154E0
4.618844184E0,-1.014064121E1,-2.449866772E0,2.143409014E0
4.621331840E0,-1.014542961E1,-2.488174200E0,2.296638012E0
4.623819497E0,-1.016937160E1,-2.550423384E0,2.358887196E0
4.626307153E0,-1.019810200E1,-2.588730574E0,2.363675594E0
4.628794809E0,-1.020767879E1,-2.612672567E0,2.239177227E0
4.631282465E0,-1.018373680E1,-2.612672567E0,2.014122248E0
4.633770122E0,-1.011669922E1,-2.603095770E0,1.698087573E0
4.636257778E0,-1.003050804E1,-2.588730574E0,1.286284804E0
4.638745434E0,-9.949105263E0,-2.560000181E0,8.122329116E-1
4.641233142E0,-9.896432877E0,-2.516904593E0,2.950853705E-1
4.643720903E0,-9.843760490E0,-2.430713177E0,-2.076970041E-1
4.646208663E0,-9.791088104E0,-2.315791607E0,-6.913257241E-1
4.648696424E0,-9.724050522E0,-2.181716204E0,-1.155800819E0
4.651184184E0,-9.642647743E0,-2.052429438E0,-1.644217968E0
4.653671945E0,-9.551667213E0,-1.927930951E0,-2.132635117E0
4.656159705E0,-9.422380447E0,-1.822586060E0,-2.611475468E0
4.658647465E0,-9.288305283E0,-1.736394763E0,-3.099892616E0
4.661135226E0,-9.130288124E0,-1.669357181E0,-3.535637379E0
4.663622986E0,-8.953117371E0,-1.597531080E0,-3.947440147E0
4.666110747E0,-8.799888611E0,-1.544858694E0,-4.268262863E0
4.668598507E0,-8.661025047E0,-1.520916581E0,-4.526836872E0
4.671086267E0,-8.565256119E0,-1.540070295E0,-4.694430828E0
4.673574028E0,-8.531737328E0,-1.578377485E0,-4.842871666E0
4.676061788E0,-8.570044518E0,-1.640626669E0,-4.876390457E0
4.678549549E0,-8.632294655E0,-1.674145579E0,-4.871602058E0
4.681037309E0,-8.704120636E0,-1.693299174E0,-4.737526417E0
4.683525070E0,-8.790311813E0,-1.669357181E0,-4.531625271E0
4.686012830E0,-8.881291389E0,-1.650203466E0,-4.311358929E0
4.688500590E0,-8.957905769E0,-1.640626669E0,-4.067150116E0
4.690988351E0,-9.053673744E0,-1.616684675E0,-3.818153143E0
4.693476111E0,-9.182960510E0,-1.578377485E0,-3.564367771E0
4.695963872E0,-9.360131264E0,-1.516128182E0,-3.334524393E0
4.698451632E0,-9.546878815E0,-1.415571809E0,-3.095104218E0
4.700939392E0,-9.767146111E0,-1.319803715E0,-2.850895643E0
4.703427153E0,-1.002571964E1,-1.204882026E0,-2.625840664E0
4.705914913E0,-1.026992798E1,-1.104325533E0,-2.348113298E0
4.708402674E0,-1.047582912E1,-1.013345838E0,-2.099116325E0
4.710890434E0,-1.061948204E1,-9.080010056E-1,-1.878849745E0
4.713378195E0,-1.068651962E1,-8.074445128E-1,-1.711255670E0
4.715865955E0,-1.067215443E1,-7.068880796E-1,-1.577180386E0
4.718353715E0,-1.056202126E1,-6.302735806E-1,-1.500565886E0
4.720841476E0,-1.046146393E1,-5.680243373E-1,-1.447893500E0
4.723329236E0,-1.032260036E1,-5.249287486E-1,-1.423951507E0
4.725816997E0,-1.018373680E1,-4.531026781E-1,-1.419163108E0
4.728304757E0,-1.001614285E1,-3.860650361E-1,-1.438316703E0
4.730792517E0,-9.901221275E0,-2.902969420E-1,-1.438316703E0
4.733280278E0,-9.786299706E0,-1.657984704E-1,-1.467047095E0
4.735768038E0,-9.700108528E0,-4.129998013E-2,-1.534084797E0
4.738255799E0,-9.633070946E0,6.883329898E-2,-1.629852772E0
4.740743559E0,-9.613917351E0,6.883329898E-2,-1.696890473E0
4.743231320E0,-9.585186958E0,3.531447425E-2,-1.773504853E0
4.745719080E0,-9.542090416E0,-1.256955881E-2,-1.874061346E0
4.748206840E0,-9.470264435E0,-7.960720360E-2,-2.022501945E0
4.750694601E0,-9.360131264E0,-1.562216580E-1,-2.170942307E0
4.753182361E0,-9.254786491E0,-2.088941038E-1,-2.362478495E0
4.755670122E0,-9.130288124E0,-2.424129248E-1,-2.558803082E0
4.758157882E0,-9.001001358E0,-2.855085433E-1,-2.716820478E0
4.760645642E0,-8.895656586E0,-2.998737693E-1,-2.860472441E0
4.763133403E0,-8.838195801E0,-3.477577865E-1,-2.941875219E0
4.765621163E0,-8.799888611E0,-4.100070298E-1,-3.047220230E0
4.768108924E0,-8.775946617E0,-4.578910768E-1,-3.099892616E0
4.770596684E0,-8.809465408E0,-5.057750940E-1,-3.162141800E0
4.773084445E0,-8.862137794E0,-5.392939448E-1,-3.200449228E0
4.775572205E0,-8.943540573E0,-5.536591411E-1,-3.190872431E0
4.778059965E0,-9.101557732E0,-5.345055461E-1,-3.109469414E0
4.780547726E0,-9.317035675E0,-4.674678743E-1,-2.994547844E0
4.783035486E0,-9.556455612E0,-3.381809890E-1,-2.865260839E0
4.785523247E0,-9.762357712E0,-1.753752679E-1,-2.740762472E0
4.788011007E0,-9.929951668E0,-4.129998013E-2,-2.644994259E0
4.790498767E0,-1.006881523E1,6.883329898E-2,-2.611475468E0
4.792986528E0,-1.018373680E1,1.454477459E-1,-2.597110271E0
4.795474288E0,-1.028429317E1,1.981201917E-1,-2.606687069E0
4.797962049E0,-1.036090755E1,2.651578486E-1,-2.587533474E0
4.800449809E0,-1.040879154E1,3.513490856E-1,-2.563591480E0
4.802937570E0,-1.041836834E1,4.375403523E-1,-2.515707493E0
4.805425330E0,-1.039442635E1,5.045779943E-1,-2.424727678E0
4.807913090E0,-1.038484955E1,6.003460884E-1,-2.328959703E0
4.810400851E0,-1.038963795E1,6.673837304E-1,-2.233191729E0
4.812888611E0,-1.035611916E1,7.152677774E-1,-2.113481522E0
4.815376372E0,-1.030823517E1,7.296329737E-1,-2.003348351E0
4.817864132E0,-1.023162079E1,7.392097712E-1,-1.859696150E0
4.820351892E0,-1.012148762E1,7.009025216E-1,-1.692102075E0
4.822839653E0,-1.002093124E1,6.338648796E-1,-1.500565886E0
4.825327413E0,-9.953893661E0,5.333084464E-1,-1.294664621E0
4.827815174E0,-9.920374870E0,4.040215313E-1,-1.064821243E0
4.830302934E0,-9.872490883E0,2.699462473E-1,-8.349778652E-1
4.832790695E0,-9.795876503E0,1.119289324E-1,-6.338648796E-1
4.835278455E0,-9.743204117E0,-1.735796221E-2,-4.854243994E-1
4.837766215E0,-9.700108528E0,-1.227028370E-1,-3.848679364E-1
4.840253976E0,-9.657012939E0,-1.849520802E-1,-3.465606868E-1
4.842741736E0,-9.580398560E0,-2.472013235E-1,-3.417722881E-1
4.845229497E0,-9.508571625E0,-3.094505668E-1,-3.609259129E-1
4.847717257E0,-9.451110840E0,-4.052186310E-1,-3.513490856E-1
4.850205017E0,-9.422380447E0,-4.914098978E-1,-3.561375141E-1
4.852692778E0,-9.417592049E0,-5.536591411E-1,-3.609259129E-1
4.855180486E0,-9.441534042E0,-5.823895931E-1,-4.183867574E-1
4.857668195E0,-9.527725220E0,-5.776011348E-1,-4.710591733E-1
4.860155903E0,-9.609128952E0,-5.249287486E-1,-5.045779943E-1
4.862643611E0,-9.676166534E0,-4.291606545E-1,-5.620388389E-1
4.865131320E0,-9.762357712E0,-3.286041915E-1,-6.290764809E-1
4.867619028E0,-9.843760490E0,-2.328361124E-1,-6.961141229E-1
4.870106736E0,-9.882067680E0,-1.370680481E-1,-7.727286220E-1
4.872594445E0,-9.910798073E0,-5.087678507E-2,-8.780734539E-1
4.875082153E0,-9.949105263E0,4.010287672E-2,-9.834183455E-1
4.877569861E0,-9.973047256E0,1.262941360E-1,-1.088763237E0
4.880057570E0,-1.004008484E1,2.460042238E-1,-1.174954534E0
4.882545278E0,-1.010233402E1,3.513490856E-1,-1.256357312E0
4.885032986E0,-1.018373680E1,4.279635549E-1,-1.347337008E0
4.887520695E0,-1.022683239E1,5.189431906E-1,-1.390432596E0
4.890008403E0,-1.024598598E1,6.099228859E-1,-1.423951507E0
4.892496111E0,-1.023640919E1,6.673837304E-1,-1.438316703E0
4.894983820E0,-1.020289040E1,7.104793787E-1,-1.438316703E0
4.897471528E0,-1.016458321E1,7.439981699E-1,-1.390432596E0
4.899959236E0,-1.014064121E1,7.631517649E-1,-1.309029818E0
4.902446945E0,-1.015021801E1,7.439981699E-1,-1.265934110E0
4.904934653E0,-1.018852520E1,7.009025216E-1,-1.174954534E0
4.907422361E0,-1.025556278E1,5.716156363E-1,-1.131858826E0
4.909910070E0,-1.032738876E1,4.135983288E-1,-1.050456047E0
4.912397778E0,-1.037527275E1,2.603694201E-1,-9.834183455E-1
4.914885486E0,-1.038963795E1,1.215057373E-1,-9.115923047E-1
4.917373195E0,-1.038963795E1,-7.781155407E-3,-8.876502514E-1
4.919860903E0,-1.037527275E1,-7.960720360E-2,-9.163807034E-1
4.922348611E0,-1.041357994E1,-7.960720360E-2,-9.882067442E-1
4.924836320E0,-1.042794514E1,-7.003039867E-2,-1.079186440E0
4.927324028E0,-1.045188713E1,-6.524199992E-2,-1.203684926E0
4.929811736E0,-1.046146393E1,-3.651157767E-2,-1.289876223E0
4.932299445E0,-1.045188713E1,-5.087678507E-2,-1.371279001E0
4.934787153E0,-1.043752193E1,-5.566519126E-2,-1.423951507E0
4.937274861E0,-1.044709873E1,-5.566519126E-2,-1.481412292E0
4.939762570E0,-1.043752193E1,-7.960720360E-2,-1.514931083E0
4.942250330E0,-1.043752193E1,-1.227028370E-1,-1.558026791E0
4.944738090E0,-1.040879154E1,-1.657984704E-1,-1.586757183E0
4.947225851E0,-1.036090755E1,-2.184709013E-1,-1.625064373E0
4.949713611E0,-1.034654236E1,-2.567781210E-1,-1.644217968E0
4.952201372E0,-1.031781197E1,-2.807201445E-1,-1.668160081E0
4.954689132E0,-1.031302357E1,-2.998737693E-1,-1.672948480E0
4.957176892E0,-1.033696556E1,-2.950853705E-1,-1.644217968E0
4.959664653E0,-1.036569595E1,-2.567781210E-1,-1.562815189E0
4.962152413E0,-1.037527275E1,-1.897404790E-1,-1.490989089E0
4.964640174E0,-1.038484955E1,-1.514332592E-1,-1.433528304E0
4.967127934E0,-1.035133076E1,-9.876082093E-2,-1.366490602E0
4.969615695E0,-1.030344677E1,-7.003039867E-2,-1.309029818E0
4.972103455E0,-1.023640919E1,-3.651157767E-2,-1.232415318E0
4.974591215E0,-1.018373680E1,1.137245819E-2,-1.127070427E0
4.977078976E0,-1.015500641E1,6.883329898E-2,-1.031302333E0
4.979566736E0,-1.013106441E1,6.883329898E-2,-9.355342984E-1
4.982054497E0,-1.012627602E1,-1.735796221E-2,-8.254010081E-1
4.984542257E0,-1.017416000E1,-1.418564469E-1,-7.009025216E-1
4.987030017E0,-1.022683239E1,-3.286041915E-1,-5.237316489E-1
4.989517778E0,-1.030344677E1,-4.818331003E-1,-3.465606868E-1
4.992005538E0,-1.037048435E1,-6.302735806E-1,-1.502361596E-1
4.994493299E0,-1.039442635E1,-6.925228238E-1,-1.795651275E-3
4.996981059E0,-1.038963795E1,-7.451952696E-1,6.524199992E-2
4.999468820E0,-1.035611916E1,-7.547720671E-1,7.960720360E-2
5.001956580E0,-1.029865837E1,-7.739257216E-1,4.608838260E-2
5.004444340E0,-1.029386997E1,-8.122329116E-1,7.781155407E-3
5.006932101E0,-1.032260036E1,-8.409633636E-1,-2.573766746E-2
5.009419861E0,-1.039921474E1,-8.649053574E-1,-7.362170517E-2
5.011907622E0,-1.050455952E1,-8.553285599E-1,-1.167173311E-1
5.014395382E0,-1.059554005E1,-7.930793166E-1,-1.789665818E-1
5.016883142E0,-1.064342403E1,-7.068880796E-1,-2.843114436E-1
5.019370903E0,-1.066736603E1,-6.159083843E-1,-3.896563351E-1
5.021858663E0,-1.069130802E1,-5.440823436E-1,-5.093663931E-1
5.024346424E0,-1.072482681E1,-4.961982965E-1,-6.290764809E-1
5.026834184E0,-1.074398041E1,-4.531026781E-1,-7.679402232E-1
5.029321945E0,-1.078707600E1,-4.100070298E-1,-8.780734539E-1
5.031809705E0,-1.081101799E1,-3.525462151E-1,-9.834183455E-1
5.034297465E0,-1.082059479E1,-2.855085433E-1,-1.088763237E0
5.036785226E0,-1.083017159E1,-2.184709013E-1,-1.198896527E0
5.039272986E0,-1.080622959E1,-1.657984704E-1,-1.270722508E0
5.041760747E0,-1.076792240E1,-1.227028370E-1,-1.356913805E0
5.044248507E0,-1.070567322E1,-8.439560980E-2,-1.404797792E0
5.046736267E0,-1.061948204E1,-8.439560980E-2,-1.433528304E0
