"Time (s)","Gyroscope x (rad/s)","Gyroscope y (rad/s)","Gyroscope z (rad/s)"
4.140454900E-2,-4.213117659E-1,8.961530030E-2,2.344911546E-1
4.389225700E-2,-3.925496638E-1,9.813741595E-2,2.387522161E-1
4.637996500E-2,-3.648527861E-1,9.920267761E-2,2.408827394E-1
4.886767400E-2,-3.382211924E-1,9.174583107E-2,2.419480085E-1
5.135538200E-2,-3.126548827E-1,7.683213800E-2,2.408827394E-1
5.384309000E-2,-2.892190814E-1,5.446160212E-2,2.398174703E-1
5.633079900E-2,-2.689790726E-1,2.356895804E-2,2.376869470E-1
5.881850700E-2,-2.508696020E-1,-1.478053257E-2,2.355564237E-1
6.130621500E-2,-2.338253707E-1,-5.739107728E-2,2.344911546E-1
6.379392400E-2,-2.178464085E-1,-1.042626798E-1,2.334259003E-1
6.628163200E-2,-2.029327303E-1,-1.521995366E-1,2.344911546E-1
6.876934000E-2,-1.890842915E-1,-1.990711391E-1,2.355564237E-1
7.125704900E-2,-1.773663908E-1,-2.406164259E-1,2.376869470E-1
7.374475700E-2,-1.688442826E-1,-2.768353820E-1,2.398174703E-1
7.623246500E-2,-1.613874435E-1,-3.055975139E-1,2.408827394E-1
7.872017400E-2,-1.549958587E-1,-3.258375227E-1,2.430132627E-1
8.120788200E-2,-1.507348120E-1,-3.386206925E-1,2.440785319E-1
8.369559000E-2,-1.475390196E-1,-3.428817391E-1,2.451438010E-1
8.618329900E-2,-1.432779580E-1,-3.396859467E-1,2.451438010E-1
8.867100700E-2,-1.379516423E-1,-3.332943618E-1,2.440785319E-1
9.115871500E-2,-1.315600574E-1,-3.215764761E-1,2.419480085E-1
9.364642400E-2,-1.230379492E-1,-3.087933064E-1,2.344911546E-1
9.613413200E-2,-1.113200486E-1,-2.938795984E-1,2.259690464E-1
9.862184000E-2,-9.960214794E-2,-2.779006660E-1,2.121206224E-1
1.011095490E-1,-8.362319320E-2,-2.608564198E-1,1.950764060E-1
1.035972570E-1,-6.764423847E-2,-2.427469492E-1,1.759016514E-1
1.060849650E-1,-4.846949503E-2,-2.225069404E-1,1.524658650E-1
1.085726740E-1,-2.822948620E-2,-2.001364082E-1,1.279647946E-1
1.110603820E-1,-6.924213842E-3,-1.767006069E-1,1.023984700E-1
1.135480900E-1,1.544632297E-2,-1.521995366E-1,7.576687634E-2
1.160357990E-1,3.888212144E-2,-1.308942735E-1,4.913528636E-2
1.185235070E-1,6.125266105E-2,-1.138500497E-1,2.250369452E-2
1.210112150E-1,8.255793154E-2,-1.000016257E-1,-3.062632866E-3
1.234989240E-1,1.006674170E-1,-9.147951752E-2,-2.969422378E-2
1.259866320E-1,1.145158410E-1,-8.828372508E-2,-5.419528857E-2
1.284743400E-1,1.230379492E-1,-8.828372508E-2,-7.763108611E-2
1.309620490E-1,1.262337416E-1,-9.147951752E-2,-9.893636405E-2
1.334497570E-1,1.219726875E-1,-9.574057162E-2,-1.181111038E-1
1.359374650E-1,1.113200486E-1,-1.010668874E-1,-1.362205893E-1
1.384251740E-1,9.214530140E-2,-1.085237339E-1,-1.511342824E-1
1.409128820E-1,6.764423847E-2,-1.170458421E-1,-1.628521830E-1
1.434005900E-1,3.568633273E-2,-1.276984811E-1,-1.713742912E-1
1.458882990E-1,-1.597895520E-3,-1.415469050E-1,-1.767006069E-1
1.483760070E-1,-4.633896798E-2,-1.585911214E-1,-1.777658761E-1
1.508637150E-1,-9.853688627E-2,-1.767006069E-1,-1.735048145E-1
1.533514240E-1,-1.571263820E-1,-1.969406158E-1,-1.649827063E-1
1.558391320E-1,-2.242379934E-1,-2.161153555E-1,-1.500690132E-1
1.583268400E-1,-2.988064587E-1,-2.363553643E-1,-1.319595277E-1
1.608145490E-1,-3.797664940E-1,-2.544648647E-1,-1.085237339E-1
1.633022570E-1,-4.681833684E-1,-2.704437971E-1,-7.976161689E-2
1.657899650E-1,-5.608612895E-1,-2.832269669E-1,-4.673844203E-2
1.682776740E-1,-6.578003168E-1,-2.885532975E-1,-8.388951421E-3
1.707653820E-1,-7.558045387E-1,-2.842922211E-1,3.422159329E-2
1.732530900E-1,-8.516782522E-1,-2.725743353E-1,8.109319210E-2
1.757408510E-1,-9.422256947E-1,-2.523343265E-1,1.300953180E-1
1.782286110E-1,-1.023185730E0,-2.278332561E-1,1.801627129E-1
1.807163720E-1,-1.092427850E0,-2.001364082E-1,2.323606312E-1
1.832041320E-1,-1.151017308E0,-1.692437679E-1,2.824280262E-1
1.856918920E-1,-1.197888970E0,-1.362205893E-1,3.303648829E-1
1.881796530E-1,-1.230912089E0,-9.893636405E-2,3.729754388E-1
1.906674130E-1,-1.250086904E0,-5.952160433E-2,4.102596641E-1
1.931551740E-1,-1.254347920E0,-1.904158667E-2,4.400870502E-1
1.956429340E-1,-1.243695259E0,2.037316747E-2,4.624575675E-1
1.981306950E-1,-1.215998411E0,5.552686751E-2,4.752407372E-1
2.006184550E-1,-1.173387885E0,8.855003864E-2,4.816323221E-1
2.031062150E-1,-1.116928935E0,1.173121557E-1,4.805670679E-1
2.055939760E-1,-1.049817324E0,1.428784877E-1,4.731102288E-1
2.080817360E-1,-9.731183648E-1,1.652490199E-1,4.603270590E-1
2.105694970E-1,-8.900277615E-1,1.833585054E-1,4.443480968E-1
2.130572570E-1,-8.037413955E-1,1.950764060E-1,4.230428338E-1
2.155450170E-1,-7.142592669E-1,1.982721984E-1,4.017375410E-1
2.180327780E-1,-6.258423924E-1,1.929458827E-1,3.783017397E-1
2.205205380E-1,-5.395560265E-1,1.769669205E-1,3.527354300E-1
2.230082990E-1,-4.596612751E-1,1.514005959E-1,3.261038363E-1
2.254960590E-1,-3.872233331E-1,1.162468940E-1,3.005374968E-1
2.279838200E-1,-3.265033066E-1,7.363634557E-2,2.760364413E-1
2.304715800E-1,-2.775011659E-1,2.569948509E-2,2.515353858E-1
2.329593400E-1,-2.423474789E-1,-2.543316968E-2,2.291648388E-1
2.354471010E-1,-2.210422009E-1,-7.763108611E-2,2.089248300E-1
2.379348610E-1,-2.135853618E-1,-1.308942735E-1,1.897500902E-1
2.404226220E-1,-2.231727391E-1,-1.798963994E-1,1.748363972E-1
2.429103820E-1,-2.466085255E-1,-2.235722095E-1,1.620532274E-1
2.453981420E-1,-2.870885432E-1,-2.608564198E-1,1.545963883E-1
2.478859030E-1,-3.435475230E-1,-2.906838059E-1,1.535311192E-1
2.503736630E-1,-4.138549268E-1,-3.098585606E-1,1.577921808E-1
2.528614240E-1,-4.969455004E-1,-3.205111921E-1,1.684448123E-1
2.553491840E-1,-5.917539597E-1,-3.215764761E-1,1.865542978E-1
2.578369450E-1,-6.950845122E-1,-3.109238148E-1,2.099900991E-1
2.603247050E-1,-8.026761413E-1,-2.896185517E-1,2.376869470E-1
2.628124650E-1,-9.123983383E-1,-2.576606572E-1,2.685796022E-1
2.653002260E-1,-1.019989967E0,-2.150501013E-1,3.005374968E-1
2.677879860E-1,-1.121189952E0,-1.681784987E-1,3.324954212E-1
2.702757470E-1,-1.214933157E0,-1.159805804E-1,3.633880615E-1
2.727635070E-1,-1.298023701E0,-6.271740049E-2,3.921501637E-1
2.752512670E-1,-1.370461702E0,-1.051947847E-2,4.187817574E-1
2.777389760E-1,-1.429051161E0,3.954791278E-2,4.390217662E-1
2.802266840E-1,-1.472726941E0,8.961530030E-2,4.550007284E-1
2.827143920E-1,-1.503619671E0,1.375521719E-1,4.645881057E-1
2.852021010E-1,-1.520663857E0,1.854890287E-1,4.667186439E-1
2.876898090E-1,-1.523859620E0,2.312953621E-1,4.613923132E-1
2.901775170E-1,-1.514272213E0,2.739059031E-1,4.486091435E-1
2.926652260E-1,-1.492967010E0,3.122554123E-1,4.294344187E-1
2.951529340E-1,-1.459943771E0,3.463438451E-1,4.059986174E-1
2.976406420E-1,-1.417333245E0,3.729754388E-1,3.772364855E-1
3.001283510E-1,-1.365135312E0,3.910849094E-1,3.463438451E-1
3.026160590E-1,-1.307611108E0,3.996070325E-1,3.133206666E-1
3.051037670E-1,-1.246891141E0,3.996070325E-1,2.771016955E-1
3.075914760E-1,-1.185105801E0,3.910849094E-1,2.398174703E-1
3.100791840E-1,-1.123320460E0,3.751059473E-1,2.025332451E-1
3.125668920E-1,-1.065796256E0,3.527354300E-1,1.663142890E-1
3.150546010E-1,-1.011467814E0,3.282343447E-1,1.322258562E-1
3.175423090E-1,-9.635309577E-1,3.037332892E-1,1.002679393E-1
3.200300170E-1,-9.209204316E-1,2.802974880E-1,7.363634557E-2
3.225177260E-1,-8.857667446E-1,2.600574791E-1,5.233107507E-2
3.250054340E-1,-8.570045829E-1,2.440785319E-1,3.954791278E-2
3.274931420E-1,-8.335688114E-1,2.280995846E-1,3.635212034E-2
3.299808510E-1,-8.143940568E-1,2.131858915E-1,4.380896688E-2
3.324685590E-1,-7.994803786E-1,1.982721984E-1,5.872265995E-2
3.349562670E-1,-7.856319547E-1,1.801627129E-1,8.215846121E-2
3.374439760E-1,-7.739140391E-1,1.620532274E-1,1.109205782E-1
3.399316840E-1,-7.600656152E-1,1.428784877E-1,1.460742801E-1
3.424193920E-1,-7.462171912E-1,1.258342713E-1,1.854890287E-1
3.449071010E-1,-7.270424366E-1,1.119858399E-1,2.302301079E-1
3.473948090E-1,-7.036066055E-1,1.023984700E-1,2.771016955E-1
3.498825170E-1,-6.748445034E-1,1.002679393E-1,3.261038363E-1
3.523702260E-1,-6.407560706E-1,1.055942550E-1,3.751059473E-1
3.548579340E-1,-6.013413072E-1,1.162468940E-1,4.209122956E-1
3.573456420E-1,-5.576655269E-1,1.343563795E-1,4.624575675E-1
3.598333510E-1,-5.107939243E-1,1.567269117E-1,4.986765385E-1
3.623210590E-1,-4.628570378E-1,1.822932363E-1,5.285038948E-1
3.648087670E-1,-4.138549268E-1,2.078595608E-1,5.508744717E-1
3.672964760E-1,-3.648527861E-1,2.344911546E-1,5.668534040E-1
3.697841840E-1,-3.190464675E-1,2.600574791E-1,5.753754973E-1
3.722718920E-1,-2.743053734E-1,2.845585644E-1,5.764408112E-1
3.747596010E-1,-2.338253707E-1,3.058638275E-1,5.721797347E-1
3.772473090E-1,-1.976063997E-1,3.239732981E-1,5.593965650E-1
3.797350170E-1,-1.645832360E-1,3.399522603E-1,5.402218103E-1
3.822227260E-1,-1.347558498E-1,3.527354300E-1,5.146554708E-1
3.847104340E-1,-1.070589945E-1,3.601922691E-1,4.816323221E-1
3.871981420E-1,-8.255793154E-2,3.644533157E-1,4.432828426E-1
3.896858510E-1,-6.018739566E-2,3.633880615E-1,4.006722867E-1
3.921735590E-1,-4.207791388E-2,3.580617309E-1,3.527354300E-1
3.946612670E-1,-2.716422267E-2,3.495396376E-1,3.016027808E-1
3.971489760E-1,-1.544632297E-2,3.378217220E-1,2.483395934E-1
3.996366840E-1,-3.728422802E-3,3.250385821E-1,1.929458827E-1
4.021243920E-1,6.924213842E-3,3.090596199E-1,1.375521719E-1
4.046121010E-1,1.757685095E-2,2.920154035E-1,8.535424620E-2
4.070998090E-1,2.822948620E-2,2.739059031E-1,3.741738573E-2
4.095875170E-1,3.675159439E-2,2.568616867E-1,-5.193160381E-3
4.120752260E-1,4.314317927E-2,2.387522161E-1,-4.141212255E-2
4.145629340E-1,4.633896798E-2,2.206427306E-1,-6.804371625E-2
4.170506420E-1,4.314317927E-2,2.035985142E-1,-8.828372508E-2
4.195383510E-1,3.355580568E-2,1.897500902E-1,-1.000016257E-1
4.220260590E-1,1.757685095E-2,1.769669205E-1,-1.042626798E-1
4.245137670E-1,-7.989477366E-3,1.684448123E-1,-1.021321490E-1
4.270015280E-1,-3.781685978E-2,1.652490199E-1,-9.041424841E-2
4.294892880E-1,-7.510108501E-2,1.673795432E-1,-6.804371625E-2
4.319770490E-1,-1.155811027E-1,1.769669205E-1,-3.182475269E-2
4.344648090E-1,-1.603221744E-1,1.929458827E-1,1.824264042E-2
4.369525700E-1,-2.082590461E-1,2.153164148E-1,8.109319210E-2
4.394403300E-1,-2.604569495E-1,2.419480085E-1,1.524658650E-1
4.419280900E-1,-3.169159293E-1,2.739059031E-1,2.302301079E-1
4.444158510E-1,-3.787012100E-1,3.058638275E-1,3.058638275E-1
4.469036110E-1,-4.436823130E-1,3.378217220E-1,3.740406930E-1
4.493913720E-1,-5.129244328E-1,3.697796464E-1,4.336954653E-1
4.518791320E-1,-5.800360441E-1,4.006722867E-1,4.805670679E-1
4.543668920E-1,-6.460824013E-1,4.273038805E-1,5.135902166E-1
4.568546530E-1,-7.078676820E-1,4.518049359E-1,5.327649713E-1
4.593424130E-1,-7.632613778E-1,4.741754830E-1,5.370260477E-1
4.618301740E-1,-8.122635484E-1,4.933502376E-1,5.274386406E-1
4.643179340E-1,-8.527435660E-1,5.082638860E-1,5.040028691E-1
4.668056950E-1,-8.857667446E-1,5.199818015E-1,4.699144363E-1
4.692934550E-1,-9.092025161E-1,5.274386406E-1,4.241080880E-1
4.717812150E-1,-9.251814485E-1,5.274386406E-1,3.708449006E-1
4.742689760E-1,-9.294425249E-1,5.210470557E-1,3.090596199E-1
4.767567360E-1,-9.219856858E-1,5.061333776E-1,2.408827394E-1
4.792444970E-1,-9.038761854E-1,4.837628603E-1,1.684448123E-1
4.817322570E-1,-8.740488291E-1,4.528702199E-1,9.387636185E-2
4.842200170E-1,-8.335688114E-1,4.166512489E-1,1.824264042E-2
4.867077780E-1,-7.845667005E-1,3.740406930E-1,-5.632581562E-2
4.891955380E-1,-7.302381992E-1,3.271690905E-1,-1.245026886E-1
4.916832990E-1,-6.695181727E-1,2.792322338E-1,-1.873532385E-1
4.941710590E-1,-6.056023836E-1,2.334259003E-1,-2.438122183E-1
4.966588200E-1,-5.416865349E-1,1.876195520E-1,-2.928143442E-1
4.991465800E-1,-4.756402075E-1,1.460742801E-1,-3.332943618E-1
5.016343400E-1,-4.106591344E-1,1.077247858E-1,-3.652522564E-1
5.041221010E-1,-3.456780612E-1,7.363634557E-2,-3.865575492E-1
5.066098610E-1,-2.838927507E-1,4.700475931E-2,-3.993407190E-1
5.090976220E-1,-2.242379934E-1,2.676474862E-2,-4.014712274E-1
5.115853820E-1,-1.699095517E-1,1.291632187E-2,-3.961449265E-1
5.140731420E-1,-1.219726875E-1,6.524739787E-3,-3.822965026E-1
5.165609030E-1,-8.362319320E-2,3.328948980E-3,-3.609912097E-1
5.190486630E-1,-5.486107618E-2,7.590003312E-3,-3.332943618E-1
5.215364240E-1,-3.781685978E-2,1.611211337E-2,-2.992059290E-1
5.240241840E-1,-3.355580568E-2,2.783001214E-2,-2.587259114E-1
5.265119450E-1,-4.207791388E-2,4.274370521E-2,-2.150501013E-1
5.289997050E-1,-6.231792271E-2,6.085318699E-2,-1.681784987E-1
5.314874130E-1,-9.214530140E-2,8.215846121E-2,-1.191763729E-1
5.339751220E-1,-1.326253265E-1,1.034637317E-1,-7.017423958E-2
5.364628300E-1,-1.805621833E-1,1.247690022E-1,-2.436790615E-2
5.389505380E-1,-2.359558940E-1,1.460742801E-1,1.611211337E-2
5.414385070E-1,-2.924148738E-1,1.673795432E-1,5.020054802E-2
5.439260590E-1,-3.520696461E-1,1.886848211E-1,7.576687634E-2
5.464136110E-1,-4.095938802E-1,2.121206224E-1,9.068056941E-2
5.489011630E-1,-4.639223218E-1,2.376869470E-1,9.600688517E-2
5.513887150E-1,-5.129244328E-1,2.653838098E-1,8.961530030E-2
5.538762670E-1,-5.555350184E-1,2.941459119E-1,7.363634557E-2
5.563638200E-1,-5.885581374E-1,3.261038363E-1,4.700475931E-2
5.588513720E-1,-6.119939685E-1,3.580617309E-1,1.078579482E-2
5.613389240E-1,-6.269076467E-1,3.910849094E-1,-3.395527974E-2
5.638265280E-1,-6.332992315E-1,4.198470414E-1,-8.721846342E-2
5.663141840E-1,-6.354297400E-1,4.432828426E-1,-1.479384899E-1
5.688018920E-1,-6.311687231E-1,4.592617750E-1,-2.161153555E-1
5.712896530E-1,-6.247771382E-1,4.677838981E-1,-2.906838059E-1
5.737774650E-1,-6.151897311E-1,4.677838981E-1,-3.695133328E-1
5.762653300E-1,-6.024065614E-1,4.603270590E-1,-4.515386224E-1
5.787531950E-1,-5.874928832E-1,4.443480968E-1,-5.314334035E-1
5.812410590E-1,-5.683181286E-1,4.230428338E-1,-6.081323624E-1
5.837289240E-1,-5.470128655E-1,3.974764943E-1,-6.784397960E-1
5.862167880E-1,-5.225118399E-1,3.697796464E-1,-7.423555851E-1
5.887046530E-1,-4.980107546E-1,3.399522603E-1,-7.977492809E-1
5.911925170E-1,-4.724444151E-1,3.122554123E-1,-8.467514515E-1
5.936803820E-1,-4.447475672E-1,2.866890728E-1,-8.861662149E-1
5.961682470E-1,-4.181159735E-1,2.643185556E-1,-9.170588255E-1
5.986561110E-1,-3.904191256E-1,2.462090552E-1,-9.404946566E-1
6.011438720E-1,-3.637875319E-1,2.312953621E-1,-9.575388432E-1
6.036316320E-1,-3.382211924E-1,2.217079997E-1,-9.660609365E-1
6.061193400E-1,-3.137201369E-1,2.153164148E-1,-9.671262503E-1
6.086070490E-1,-2.945453823E-1,2.131858915E-1,-9.607346654E-1
6.110947570E-1,-2.796317041E-1,2.153164148E-1,-9.468862414E-1
6.135824650E-1,-2.711096108E-1,2.227732539E-1,-9.245156646E-1
6.160701740E-1,-2.700443268E-1,2.334259003E-1,-8.957535625E-1
6.185578820E-1,-2.775011659E-1,2.494048476E-1,-8.637956381E-1
6.210455900E-1,-2.934801280E-1,2.707101107E-1,-8.275766969E-1
6.235332990E-1,-3.158506751E-1,2.973417044E-1,-7.902924418E-1
6.260210070E-1,-3.446127772E-1,3.282343447E-1,-7.551387548E-1
6.285087150E-1,-3.808317482E-1,3.676491082E-1,-7.221155763E-1
6.309964240E-1,-4.234423041E-1,4.113249183E-1,-6.944187284E-1
6.334841320E-1,-4.713791609E-1,4.613923132E-1,-6.773745418E-1
6.359718400E-1,-5.225118399E-1,5.135902166E-1,-6.688523889E-1
6.384595490E-1,-5.789707899E-1,5.657881498E-1,-6.699176431E-1
6.409472570E-1,-6.364950538E-1,6.190513372E-1,-6.805703044E-1
6.434349650E-1,-6.950845122E-1,6.701840162E-1,-6.997450590E-1
6.459226740E-1,-7.547392845E-1,7.191861272E-1,-7.274419069E-1
6.484103820E-1,-8.143940568E-1,7.649924755E-1,-7.625955939E-1
6.508980900E-1,-8.740488291E-1,8.044071794E-1,-8.030756116E-1
6.533857990E-1,-9.315730333E-1,8.374303579E-1,-8.488819599E-1
6.558735070E-1,-9.859014750E-1,8.640619516E-1,-8.957535625E-1
6.583612150E-1,-1.033838391E0,8.821714520E-1,-9.426251650E-1
6.608489240E-1,-1.074318409E0,8.938893676E-1,-9.873662591E-1
6.633366320E-1,-1.105211020E0,8.960198760E-1,-1.028911471E0
6.658243400E-1,-1.125451088E0,8.906935453E-1,-1.069391489E0
6.683120490E-1,-1.133973122E0,8.779103756E-1,-1.109871507E0
6.707997570E-1,-1.129712105E0,8.587356806E-1,-1.148221016E0
6.732874650E-1,-1.111602664E0,8.342345953E-1,-1.185505271E0
6.757751740E-1,-1.078579426E0,8.065377474E-1,-1.220659018E0
6.782628820E-1,-1.031707883E0,7.777756453E-1,-1.252616882E0
6.807505900E-1,-9.709877968E-1,7.500787377E-1,-1.282444239E0
6.832382990E-1,-8.985498548E-1,7.234471440E-1,-1.306945324E0
6.857260070E-1,-8.154593110E-1,6.978808641E-1,-1.325054765E0
6.882137150E-1,-7.249119282E-1,6.733797789E-1,-1.333576918E0
6.907014240E-1,-6.290381551E-1,6.488786936E-1,-1.332511663E0
6.931891320E-1,-5.299686790E-1,6.243776679E-1,-1.321859002E0
6.956768400E-1,-4.298338890E-1,6.020070910E-1,-1.297357917E0
6.981645490E-1,-3.296990991E-1,5.807018280E-1,-1.262204289E0
7.006522570E-1,-2.338253707E-1,5.647228956E-1,-1.218528390E0
7.031399650E-1,-1.443432271E-1,5.540702343E-1,-1.166330576E0
7.056276740E-1,-6.338318437E-2,5.498092175E-1,-1.108806252E0
7.081153820E-1,2.663159044E-3,5.519397259E-1,-1.049151540E0
7.106030900E-1,5.486107618E-2,5.625923872E-1,-9.905620217E-1
7.130907990E-1,9.001477808E-2,5.785713196E-1,-9.362335801E-1
7.155785070E-1,1.091895252E-1,5.988113284E-1,-8.851009011E-1
7.180662150E-1,1.113200486E-1,6.222470999E-1,-8.424903750E-1
7.205539240E-1,9.640636295E-2,6.446176767E-1,-8.062714338E-1
7.230416320E-1,6.444845349E-2,6.680534482E-1,-7.743135095E-1
7.255293400E-1,1.438105945E-2,6.914892793E-1,-7.508777380E-1
7.280170490E-1,-5.273054913E-2,7.149250507E-1,-7.338334918E-1
7.305047570E-1,-1.379516423E-1,7.362303138E-1,-7.231808305E-1
7.329924650E-1,-2.380864173E-1,7.543398142E-1,-7.199850678E-1
7.354801740E-1,-3.531349003E-1,7.681882381E-1,-7.231808305E-1
7.379678820E-1,-4.777707458E-1,7.745798230E-1,-7.348987460E-1
7.404556420E-1,-6.098634601E-1,7.692534924E-1,-7.508777380E-1
7.429434030E-1,-7.451519370E-1,7.543398142E-1,-7.689871788E-1
7.454311630E-1,-8.815056682E-1,7.277082205E-1,-7.881619334E-1
7.479189240E-1,-1.012533069E0,6.893587112E-1,-8.052061796E-1
7.504066840E-1,-1.136103630E0,6.392913461E-1,-8.190546036E-1
7.528944450E-1,-1.249021649E0,5.807018280E-1,-8.297072053E-1
7.553822050E-1,-1.344895363E0,5.146554708E-1,-8.382292986E-1
7.578699650E-1,-1.422659636E0,4.443480968E-1,-8.456861973E-1
7.603577260E-1,-1.476988077E0,3.697796464E-1,-8.531430364E-1
7.628454860E-1,-1.505750179E0,2.941459119E-1,-8.574040532E-1
7.653332470E-1,-1.510011196E0,2.195774615E-1,-8.584693074E-1
7.678210070E-1,-1.488705993E0,1.492700726E-1,-8.552735448E-1
7.703087670E-1,-1.442899585E0,8.641951531E-2,-8.478167057E-1
7.727965280E-1,-1.373657465E0,3.315633163E-2,-8.371640444E-1
7.752842880E-1,-1.283110023E0,-9.454214945E-3,-8.233156204E-1
7.777720490E-1,-1.175518394E0,-4.247738793E-2,-8.073366880E-1
7.802598090E-1,-1.051947832E0,-6.378266215E-2,-7.892271876E-1
7.827475700E-1,-9.187898636E-1,-7.869634777E-2,-7.689871788E-1
7.852353300E-1,-7.803056240E-1,-8.721846342E-2,-7.466166615E-1
7.877230900E-1,-6.396908164E-1,-9.361004084E-2,-7.199850678E-1
7.902108510E-1,-5.022718310E-1,-9.893636405E-2,-6.880271435E-1
7.926986110E-1,-3.691138625E-1,-1.063932031E-1,-6.486123800E-1
7.951863720E-1,-2.455432713E-1,-1.181111038E-1,-6.006755233E-1
7.976741320E-1,-1.304948032E-1,-1.351553202E-1,-5.452818274E-1
8.001618920E-1,-2.822948620E-2,-1.553953290E-1,-4.856270552E-1
8.026496530E-1,6.018739566E-2,-1.809616536E-1,-4.227765203E-1
8.051374130E-1,1.347558498E-1,-2.118543088E-1,-3.609912097E-1
8.076251740E-1,1.933453530E-1,-2.448774725E-1,-3.013364673E-1
8.101129340E-1,2.380864173E-1,-2.789659202E-1,-2.448774725E-1
8.126006950E-1,2.668485343E-1,-3.151848912E-1,-1.926795542E-1
8.150884550E-1,2.838927507E-1,-3.503385782E-1,-1.468732208E-1
8.175762150E-1,2.870885432E-1,-3.854922652E-1,-1.095889956E-1
8.200639760E-1,2.796317041E-1,-4.217112362E-1,-7.763108611E-2
8.225517360E-1,2.668485343E-1,-4.653870463E-1,-5.206476152E-2
8.250394970E-1,2.487390637E-1,-5.122586489E-1,-3.182475269E-2
8.275272570E-1,2.263685167E-1,-5.580649972E-1,-1.904158667E-2
8.300150170E-1,1.986716688E-1,-6.017407775E-1,-1.265000552E-2
8.325027780E-1,1.645832360E-1,-6.411555409E-1,-1.158474199E-2
8.349905380E-1,1.262337416E-1,-6.773745418E-1,-1.478053257E-2
8.374782990E-1,8.468846232E-2,-7.103977203E-1,-2.117211558E-2
8.399660590E-1,4.101264849E-2,-7.391598225E-1,-3.182475269E-2
8.424538200E-1,-3.728422802E-3,-7.615303397E-1,-4.673844203E-2
8.449415800E-1,-4.527370632E-2,-7.796398401E-1,-6.591318548E-2
8.474293400E-1,-8.042740822E-2,-7.945535183E-1,-8.508793265E-2
8.499171010E-1,-1.070589945E-1,-8.062714338E-1,-1.031974182E-1
8.524048090E-1,-1.230379492E-1,-8.147935271E-1,-1.170458421E-1
8.548925170E-1,-1.272990108E-1,-8.211851120E-1,-1.255679578E-1
8.573802260E-1,-1.209074259E-1,-8.265114427E-1,-1.234374270E-1
8.598679340E-1,-1.006674170E-1,-8.307724595E-1,-1.106542572E-1
8.623556420E-1,-6.551371515E-2,-8.329030275E-1,-8.615319431E-2
8.648433510E-1,-1.970737800E-2,-8.329030275E-1,-5.206476152E-2
8.673310590E-1,3.781685978E-2,-8.297072053E-1,-7.323687430E-3
8.698187670E-1,1.038632020E-1,-8.201198578E-1,4.593949392E-2
8.723064760E-1,1.752358675E-1,-8.030756116E-1,1.045289934E-1
8.747941840E-1,2.498043180E-1,-7.785745859E-1,1.652490199E-1
8.772818920E-1,3.243727684E-1,-7.466166615E-1,2.291648388E-1
8.797696010E-1,3.978759646E-1,-7.050713897E-1,2.930806577E-1
8.822573090E-1,4.671181142E-1,-6.560692191E-1,3.538006842E-1
8.847450170E-1,5.310339332E-1,-6.028060913E-1,4.113249183E-1
8.872327260E-1,5.853623748E-1,-5.431513190E-1,4.635228515E-1
8.897204340E-1,6.301034689E-1,-4.813660085E-1,5.103944540E-1
8.922081420E-1,6.631265879E-1,-4.163849354E-1,5.519397259E-1
8.946958510E-1,6.812360883E-1,-3.503385782E-1,5.849629045E-1
8.971835590E-1,6.833665967E-1,-2.842922211E-1,6.126597524E-1
8.996712670E-1,6.705834866E-1,-2.182458937E-1,6.318345070E-1
9.021589760E-1,6.418213248E-1,-1.543300748E-1,6.446176767E-1
9.046466840E-1,5.981455445E-1,-9.041424841E-2,6.499440074E-1
9.071343920E-1,5.374255180E-1,-2.969422378E-2,6.478134394E-1
9.096221010E-1,4.596612751E-1,2.783001214E-2,6.382260919E-1
9.121098090E-1,3.680485785E-1,8.002793044E-2,6.233124137E-1
9.145975170E-1,2.625874877E-1,1.279647946E-1,6.020070910E-1
9.170852260E-1,1.475390196E-1,1.695100814E-1,5.753754973E-1
9.195729340E-1,2.609895915E-2,2.067943066E-1,5.434176326E-1
9.220606420E-1,-1.006674170E-1,2.376869470E-1,5.061333776E-1
9.245483510E-1,-2.284990549E-1,2.621880174E-1,4.656533599E-1
9.270360590E-1,-3.542001545E-1,2.792322338E-1,4.209122956E-1
9.295237670E-1,-4.745749533E-1,2.898848653E-1,3.751059473E-1
9.320114760E-1,-5.885581374E-1,2.909501195E-1,3.314301372E-1
9.344991840E-1,-6.929540038E-1,2.834932804E-1,2.898848653E-1
9.369868920E-1,-7.835013866E-1,2.675143182E-1,2.547311783E-1
9.394746010E-1,-8.580698371E-1,2.430132627E-1,2.280995846E-1
9.419623090E-1,-9.134635925E-1,2.110553533E-1,2.131858915E-1
9.444500170E-1,-9.475520253E-1,1.748363972E-1,2.099900991E-1
9.469377260E-1,-9.582046270E-1,1.364869028E-1,2.185122073E-1
9.494254340E-1,-9.454214573E-1,1.002679393E-1,2.366216928E-1
9.519131420E-1,-9.113330245E-1,6.937529147E-2,2.643185556E-1
9.544008510E-1,-8.538088202E-1,4.700475931E-2,2.973417044E-1
9.568885590E-1,-7.771098018E-1,3.528685868E-2,3.346259296E-1
9.593762670E-1,-6.823013425E-1,3.528685868E-2,3.740406930E-1
9.618639760E-1,-5.715139508E-1,4.593949392E-2,4.113249183E-1
9.643516840E-1,-4.468781054E-1,6.617950648E-2,4.454133511E-1
9.668393920E-1,-3.126548827E-1,9.494162351E-2,4.763059914E-1
9.693271010E-1,-1.720400751E-1,1.300953180E-1,5.008070469E-1
9.718148090E-1,-3.036001325E-2,1.705753356E-1,5.178512931E-1
9.743025170E-1,1.059937328E-1,2.131858915E-1,5.274386406E-1
9.767902260E-1,2.348906398E-1,2.557964325E-1,5.306344628E-1
9.792779340E-1,3.499391079E-1,2.920154035E-1,5.263733864E-1
9.817656950E-1,4.490086138E-1,3.250385821E-1,5.167860389E-1
9.842534550E-1,5.299686790E-1,3.495396376E-1,5.029376149E-1
9.867412150E-1,5.896234512E-1,3.665838540E-1,4.869586527E-1
9.892289760E-1,6.301034689E-1,3.740406930E-1,4.688491523E-1
9.917167360E-1,6.471476555E-1,3.740406930E-1,4.507396817E-1
9.942044970E-1,6.439518929E-1,3.665838540E-1,4.347607195E-1
9.966922570E-1,6.237118840E-1,3.527354300E-1,4.198470414E-1
9.991800170E-1,5.842971206E-1,3.324954212E-1,4.091944098E-1
1.001667778E0,5.299686790E-1,3.079943359E-1,4.017375410E-1
1.004155538E0,4.617917836E-1,2.813627720E-1,3.953459561E-1
1.006643299E0,3.850927949E-1,2.515353858E-1,3.921501637E-1
1.009131059E0,2.998717129E-1,2.206427306E-1,3.910849094E-1
1.011618820E0,2.135853618E-1,1.897500902E-1,3.910849094E-1
1.014106580E0,1.283642650E-1,1.599227041E-1,3.953459561E-1
1.016594340E0,4.740423337E-2,1.300953180E-1,4.017375410E-1
1.019082101E0,-2.609895915E-2,1.045289934E-1,4.113249183E-1
1.021569861E0,-9.001477808E-2,8.002793044E-2,4.241080880E-1
1.024057622E0,-1.443432271E-1,5.978792161E-2,4.379565120E-1
1.026545382E0,-1.858884990E-1,4.167843983E-2,4.539354742E-1
1.029033142E0,-2.178464085E-1,2.889527567E-2,4.709796906E-1
1.031520903E0,-2.370211631E-1,2.037316747E-2,4.880239069E-1
1.034008663E0,-2.444780022E-1,1.611211337E-2,5.082638860E-1
1.036496424E0,-2.412822098E-1,1.611211337E-2,5.295692086E-1
1.038984184E0,-2.253032625E-1,1.824264042E-2,5.530049801E-1
1.041471945E0,-1.965411454E-1,2.356895804E-2,5.785713196E-1
1.043959705E0,-1.581916511E-1,2.889527567E-2,6.052029133E-1
1.046447465E0,-1.091895252E-1,3.528685868E-2,6.350302696E-1
1.048935226E0,-5.379581451E-2,4.061317816E-2,6.627271175E-1
1.051422986E0,9.054740891E-3,4.593949392E-2,6.882934570E-1
1.053910747E0,7.510108501E-2,5.126581341E-2,7.106640339E-1
1.056398507E0,1.432779580E-1,5.659212917E-2,7.266429663E-1
1.058886267E0,2.093243003E-1,6.617950648E-2,7.372955680E-1
1.061374288E0,2.711096108E-1,7.896266878E-2,7.383608818E-1
1.063862153E0,3.243727684E-1,9.494162351E-2,7.340998054E-1
1.066349861E0,3.701791167E-1,1.130511016E-1,7.234471440E-1
1.068837570E0,4.053328037E-1,1.311605871E-1,7.085334659E-1
1.071325278E0,4.298338890E-1,1.471395344E-1,6.925545335E-1
1.073812986E0,4.436823130E-1,1.599227041E-1,6.776408553E-1
1.076300695E0,4.468781054E-1,1.684448123E-1,6.637924314E-1
1.078788403E0,4.372907281E-1,1.695100814E-1,6.520745158E-1
1.081276111E0,4.170507193E-1,1.652490199E-1,6.446176767E-1
1.083763820E0,3.861580789E-1,1.545963883E-1,6.403566003E-1
1.086251528E0,3.456780612E-1,1.386174262E-1,6.392913461E-1
1.088739236E0,2.966759205E-1,1.173121557E-1,6.414218545E-1
1.091226945E0,2.434127480E-1,9.387636185E-2,6.467481852E-1
1.093714653E0,1.858884990E-1,6.831002980E-2,6.542050242E-1
1.096202361E0,1.283642650E-1,4.274370521E-2,6.616618633E-1
1.098690070E0,7.190529257E-2,1.930790395E-2,6.723145247E-1
1.101178247E0,2.077264152E-2,-9.321057005E-4,6.819018722E-1
1.103665903E0,-2.716422267E-2,-1.904158667E-2,6.914892793E-1
1.106153559E0,-6.870950758E-2,-3.395527974E-2,7.000113726E-1
1.108641215E0,-1.017326787E-1,-4.673844203E-2,7.095987201E-1
1.111128872E0,-1.262337416E-1,-5.632581562E-2,7.181208730E-1
1.113616528E0,-1.422126889E-1,-6.378266215E-2,7.277082205E-1
1.116104184E0,-1.496695429E-1,-7.017423958E-2,7.383608818E-1
1.118591840E0,-1.475390196E-1,-7.443529367E-2,7.490134835E-1
1.121079497E0,-1.358211190E-1,-7.656582445E-2,7.617966533E-1
1.123567153E0,-1.177116334E-1,-7.550056279E-2,7.756450772E-1
1.126054809E0,-9.108003974E-2,-7.337003201E-2,7.894935012E-1
1.128542465E0,-5.805686861E-2,-6.804371625E-2,8.022766709E-1
1.131030122E0,-1.864211448E-2,-6.165213138E-2,8.150598407E-1
1.133517778E0,2.716422267E-2,-5.419528857E-2,8.267777562E-1
1.136005434E0,7.723161578E-2,-4.673844203E-2,8.363651037E-1
1.138493090E0,1.304948032E-1,-3.928159550E-2,8.448871970E-1
1.140980747E0,1.858884990E-1,-3.075948730E-2,8.502135277E-1
1.143468403E0,2.434127480E-1,-2.010685205E-2,8.512787819E-1
1.145956111E0,2.998717129E-1,-8.388951421E-3,8.480830193E-1
1.148443820E0,3.542001545E-1,3.328948980E-3,8.384956717E-1
1.150931580E0,4.032022953E-1,1.611211337E-2,8.246471882E-1
1.153419340E0,4.490086138E-1,2.783001214E-2,8.033419251E-1
1.155907101E0,4.894886315E-1,3.848264739E-2,7.767103314E-1
1.158394861E0,5.246423483E-1,4.700475931E-2,7.458177209E-1
1.160882622E0,5.534044504E-1,5.233107507E-2,7.085334659E-1
1.163370382E0,5.757750273E-1,5.446160212E-2,6.680534482E-1
1.165858142E0,5.917539597E-1,5.446160212E-2,6.254429221E-1
1.168345903E0,6.034718752E-1,5.126581341E-2,5.817670822E-1
1.170833663E0,6.109287143E-1,4.700475931E-2,5.380913019E-1
1.173321424E0,6.141244769E-1,4.061317816E-2,4.954807460E-1
1.175809184E0,6.151897311E-1,3.422159329E-2,4.560659826E-1
1.178296945E0,6.151897311E-1,2.889527567E-2,4.198470414E-1
1.180784705E0,6.119939685E-1,2.569948509E-2,3.878891170E-1
1.183272465E0,6.077328920E-1,2.250369452E-2,3.601922691E-1
1.185760226E0,6.013413072E-1,2.250369452E-2,3.388870060E-1
1.188247986E0,5.938844681E-1,2.250369452E-2,3.229080439E-1
1.190735747E0,5.853623748E-1,2.676474862E-2,3.154512048E-1
1.193223507E0,5.736444592E-1,3.209106624E-2,3.143859208E-1
1.195711267E0,5.608612895E-1,4.061317816E-2,3.197122514E-1
1.198199028E0,5.459476113E-1,5.233107507E-2,3.324954212E-1
1.200686788E0,5.278381109E-1,6.617950648E-2,3.527354300E-1
1.203174549E0,5.065328479E-1,8.109319210E-2,3.804322779E-1
1.205662309E0,4.809665382E-1,9.813741595E-2,4.155859649E-1
1.208150070E0,4.532696903E-1,1.162468940E-1,4.550007284E-1
1.210637830E0,4.223770201E-1,1.343563795E-1,4.976112843E-1
1.213125590E0,3.893538713E-1,1.545963883E-1,5.412870646E-1
1.215613351E0,3.542001545E-1,1.737711281E-1,5.838976502E-1
1.218101111E0,3.190464675E-1,1.929458827E-1,6.233124137E-1
1.220588872E0,2.828274965E-1,2.110553533E-1,6.584661007E-1
1.223076632E0,2.466085255E-1,2.259690464E-1,6.882934570E-1
1.225564392E0,2.114548385E-1,2.419480085E-1,7.127945423E-1
1.228052153E0,1.784316599E-1,2.547311783E-1,7.319692969E-1
1.230539913E0,1.496695429E-1,2.675143182E-1,7.447524667E-1
1.233027674E0,1.230379492E-1,2.792322338E-1,7.543398142E-1
1.235515434E0,1.027979404E-1,2.888196111E-1,7.596661448E-1
1.238003195E0,8.681898564E-2,2.984069884E-1,7.617966533E-1
1.240490955E0,7.616634667E-2,3.047985733E-1,7.596661448E-1
1.242978715E0,6.870950758E-2,3.101248741E-1,7.532745600E-1
1.245466476E0,6.444845349E-2,3.133206666E-1,7.426218987E-1
1.247954236E0,6.231792271E-2,3.143859208E-1,7.287734747E-1
1.250441997E0,6.231792271E-2,3.122554123E-1,7.138597965E-1
1.252929757E0,6.338318437E-2,3.079943359E-1,6.957502961E-1
1.255417517E0,6.444845349E-2,3.016027808E-1,6.765755415E-1
1.257905278E0,6.551371515E-2,2.930806577E-1,6.552702785E-1
1.260393038E0,6.551371515E-2,2.834932804E-1,6.307692528E-1
1.262880799E0,6.444845349E-2,2.707101107E-1,6.052029133E-1
1.265368559E0,6.231792271E-2,2.568616867E-1,5.764408112E-1
1.267856320E0,6.125266105E-2,2.408827394E-1,5.455481410E-1
1.270344080E0,6.018739566E-2,2.227732539E-1,5.103944540E-1
1.272831788E0,5.912213027E-2,2.025332451E-1,4.731102288E-1
1.275319497E0,6.125266105E-2,1.812279820E-1,4.326302111E-1
1.277807205E0,6.657897681E-2,1.567269117E-1,3.932154477E-1
1.280294913E0,7.510108501E-2,1.322258562E-1,3.538006842E-1
1.282782622E0,8.788424730E-2,1.077247858E-1,3.165164590E-1
1.285270330E0,1.070589945E-1,8.428898454E-2,2.834932804E-1
1.287758038E0,1.283642650E-1,6.191844866E-2,2.536658943E-1
1.290245747E0,1.560611278E-1,4.061317816E-2,2.291648388E-1
1.292733455E0,1.880190372E-1,2.250369452E-2,2.121206224E-1
1.295221163E0,2.242379934E-1,6.524739787E-3,2.014679909E-1
1.297708872E0,2.636527419E-1,-5.193160381E-3,1.972069293E-1
1.300196580E0,3.073285520E-1,-1.265000552E-2,1.993374527E-1
1.302684288E0,3.531349003E-1,-1.584579609E-2,2.078595608E-1
1.305171997E0,3.978759646E-1,-1.265000552E-2,2.217079997E-1
1.307659705E0,4.436823130E-1,-4.127896391E-3,2.408827394E-1
1.310147413E0,4.873581231E-1,1.185105834E-2,2.632532716E-1
1.312635122E0,5.267728567E-1,3.422159329E-2,2.866890728E-1
1.315122830E0,5.597960353E-1,6.085318699E-2,3.122554123E-1
1.317610538E0,5.864276290E-1,9.068056941E-2,3.378217220E-1
1.320098247E0,6.056023836E-1,1.226384789E-1,3.601922691E-1
1.322585955E0,6.141244769E-1,1.545963883E-1,3.793670237E-1
1.325073663E0,6.130592227E-1,1.854890287E-1,3.953459561E-1
1.327561372E0,6.013413072E-1,2.142511457E-1,4.081291258E-1
1.330049080E0,5.800360441E-1,2.408827394E-1,4.166512489E-1
1.332536788E0,5.491434336E-1,2.643185556E-1,4.219775498E-1
1.335024497E0,5.075981021E-1,2.856238186E-1,4.262386262E-1
1.337512205E0,4.575307369E-1,3.037332892E-1,4.273038805E-1
1.339999913E0,3.989412189E-1,3.175817132E-1,4.294344187E-1
1.342487622E0,3.350254297E-1,3.282343447E-1,4.304996729E-1
1.344975330E0,2.636527419E-1,3.356912136E-1,4.336954653E-1
1.347463038E0,1.880190372E-1,3.388870060E-1,4.358259737E-1
1.349950747E0,1.113200486E-1,3.367564678E-1,4.400870502E-1
1.352438455E0,3.462106735E-2,3.303648829E-1,4.443480968E-1
1.354926163E0,-3.888212144E-2,3.207775056E-1,4.486091435E-1
1.357413872E0,-1.081242561E-1,3.079943359E-1,4.528702199E-1
1.359901580E0,-1.709748209E-1,2.952111959E-1,4.571312666E-1
1.362389288E0,-2.242379934E-1,2.802974880E-1,4.592617750E-1
1.364876997E0,-2.689790726E-1,2.675143182E-1,4.603270590E-1
1.367364705E0,-3.041327596E-1,2.557964325E-1,4.581965208E-1
1.369852413E0,-3.296990991E-1,2.440785319E-1,4.528702199E-1
1.372340122E0,-3.446127772E-1,2.323606312E-1,4.454133511E-1
1.374827830E0,-3.510043621E-1,2.206427306E-1,4.347607195E-1
1.377315538E0,-3.456780612E-1,2.078595608E-1,4.209122956E-1
1.379803247E0,-3.307643533E-1,1.950764060E-1,4.038680792E-1
1.382290955E0,-3.062632978E-1,1.833585054E-1,3.846933246E-1
1.384778663E0,-2.700443268E-1,1.716406047E-1,3.655185997E-1
1.387266372E0,-2.253032625E-1,1.609879732E-1,3.484743834E-1
1.389754080E0,-1.720400751E-1,1.535311192E-1,3.324954212E-1
1.392241840E0,-1.113200486E-1,1.482048035E-1,3.186469972E-1
1.394729601E0,-4.527370632E-2,1.460742801E-1,3.047985733E-1
1.397217361E0,2.290316857E-2,1.460742801E-1,2.930806577E-1
1.399705122E0,9.214530140E-2,1.492700726E-1,2.813627720E-1
1.402192882E0,1.581916511E-1,1.535311192E-1,2.707101107E-1
1.404680642E0,2.210422009E-1,1.599227041E-1,2.621880174E-1
1.407168403E0,2.785664499E-1,1.652490199E-1,2.547311783E-1
1.409656163E0,3.296990991E-1,1.705753356E-1,2.504701018E-1
1.412143924E0,3.733749092E-1,1.748363972E-1,2.483395934E-1
1.414631684E0,4.085285962E-1,1.790974438E-1,2.504701018E-1
1.417119445E0,4.351601899E-1,1.801627129E-1,2.547311783E-1
1.419607205E0,4.522044063E-1,1.812279820E-1,2.600574791E-1
1.422094965E0,4.596612751E-1,1.801627129E-1,2.653838098E-1
1.424582726E0,4.543349445E-1,1.790974438E-1,2.707101107E-1
1.427070486E0,4.404865205E-1,1.759016514E-1,2.760364413E-1
1.429558247E0,4.170507193E-1,1.727058738E-1,2.792322338E-1
1.432046007E0,3.840275407E-1,1.695100814E-1,2.813627720E-1
1.434533767E0,3.467433155E-1,1.641837656E-1,2.824280262E-1
1.437021528E0,3.041327596E-1,1.588574350E-1,2.824280262E-1
1.439509288E0,2.583264410E-1,1.514005959E-1,2.813627720E-1
1.441997049E0,2.093243003E-1,1.418132186E-1,2.792322338E-1
1.444484809E0,1.603221744E-1,1.322258562E-1,2.760364413E-1
1.446972570E0,1.113200486E-1,1.205079481E-1,2.717753947E-1
1.449460330E0,6.551371515E-2,1.087900475E-1,2.685796022E-1
1.451948090E0,2.290316857E-2,9.600688517E-2,2.643185556E-1
1.454435851E0,-1.651158556E-2,8.428898454E-2,2.589922249E-1
1.456923611E0,-5.166528746E-2,7.257108390E-2,2.547311783E-1
1.459411372E0,-8.042740822E-2,6.191844866E-2,2.494048476E-1
1.461899132E0,-1.038632020E-1,5.126581341E-2,2.451438010E-1
1.464386892E0,-1.219726875E-1,4.167843983E-2,2.398174703E-1
1.466874653E0,-1.347558498E-1,3.209106624E-2,2.334259003E-1
1.469362413E0,-1.443432271E-1,2.463422157E-2,2.259690464E-1
1.471850174E0,-1.486042738E-1,1.717737690E-2,2.163816839E-1
1.474337934E0,-1.496695429E-1,9.720530361E-3,2.046637833E-1
1.476825695E0,-1.464737505E-1,3.328948980E-3,1.908153445E-1
1.479313455E0,-1.400821656E-1,-3.062632866E-3,1.780321896E-1
1.481801215E0,-1.294295341E-1,-9.454214945E-3,1.631184965E-1
1.484288976E0,-1.134505793E-1,-1.584579609E-2,1.482048035E-1
1.486776736E0,-9.640636295E-2,-2.330264263E-2,1.332911104E-1
1.489264497E0,-7.510108501E-2,-3.075948730E-2,1.205079481E-1
1.491752257E0,-5.060002208E-2,-4.034686089E-2,1.066595241E-1
1.494240017E0,-2.396843210E-2,-5.099949613E-2,9.281109273E-2
1.496727778E0,2.663159044E-3,-6.165213138E-2,8.109319210E-2
1.499215538E0,3.142527863E-2,-7.230477035E-2,6.937529147E-2
1.501703299E0,6.125266105E-2,-8.402267098E-2,5.978792161E-2
1.504191059E0,9.214530140E-2,-9.467530251E-2,5.233107507E-2
1.506678820E0,1.241032109E-1,-1.053279415E-1,4.593949392E-2
1.509166580E0,1.549958587E-1,-1.159805804E-1,4.274370521E-2
1.511654340E0,1.869537681E-1,-1.276984811E-1,4.061317816E-2
1.514142101E0,2.178464085E-1,-1.394163817E-1,3.848264739E-2
1.516629861E0,2.466085255E-1,-1.532648057E-1,3.635212034E-2
1.519117622E0,2.753706574E-1,-1.671132296E-1,3.422159329E-2
1.521605330E0,3.020022511E-1,-1.830921918E-1,3.102580272E-2
1.524093038E0,3.254380524E-1,-2.001364082E-1,2.783001214E-2
1.526580747E0,3.467433155E-1,-2.171806246E-1,2.356895804E-2
1.529068455E0,3.659180701E-1,-2.342248410E-1,1.717737690E-2
1.531556163E0,3.818970025E-1,-2.502037883E-1,8.655266836E-3
1.534043872E0,3.968107104E-1,-2.651174963E-1,-9.321057005E-4
1.536531580E0,4.085285962E-1,-2.779006660E-1,-9.454214945E-3
1.539019288E0,4.213117659E-1,-2.874880135E-1,-2.010685205E-2
1.541506997E0,4.319643974E-1,-2.970753908E-1,-2.969422378E-2
1.543994705E0,4.436823130E-1,-3.055975139E-1,-3.821633384E-2
1.546482413E0,4.543349445E-1,-3.130543530E-1,-4.673844203E-2
1.548970122E0,4.639223218E-1,-3.194459379E-1,-5.313002318E-2
1.551457830E0,4.713791609E-1,-3.237069845E-1,-5.845634267E-2
1.553945538E0,4.777707458E-1,-3.279680312E-1,-6.378266215E-2
1.556433247E0,4.809665382E-1,-3.290333152E-1,-6.804371625E-2
1.558920955E0,4.809665382E-1,-3.300985694E-1,-7.337003201E-2
1.561408663E0,4.777707458E-1,-3.279680312E-1,-7.869634777E-2
1.563896372E0,4.692486227E-1,-3.237069845E-1,-8.508793265E-2
1.566384080E0,4.585959911E-1,-3.183806837E-1,-9.361004084E-2
1.568871788E0,4.436823130E-1,-3.119890988E-1,-1.042626798E-1
1.571359497E0,4.277033508E-1,-3.055975139E-1,-1.149153188E-1
1.573847205E0,4.095938802E-1,-2.981406748E-1,-1.266332120E-1
1.576334913E0,3.904191256E-1,-2.917490900E-1,-1.394163817E-1
1.578822622E0,3.701791167E-1,-2.874880135E-1,-1.532648057E-1
1.581310330E0,3.520696461E-1,-2.864227593E-1,-1.660479754E-1
1.583798038E0,3.328948915E-1,-2.885532975E-1,-1.777658761E-1
1.586285747E0,3.158506751E-1,-2.949448824E-1,-1.884185076E-1
1.588773455E0,2.998717129E-1,-3.055975139E-1,-1.980058849E-1
1.591261163E0,2.860232890E-1,-3.183806837E-1,-2.043974549E-1
1.593748872E0,2.753706574E-1,-3.354249001E-1,-2.086585164E-1
1.596236580E0,2.657832801E-1,-3.535343707E-1,-2.086585164E-1
1.598724288E0,2.615222335E-1,-3.748396337E-1,-2.054627240E-1
1.601211997E0,2.604569495E-1,-3.950796425E-1,-1.990711391E-1
1.603699705E0,2.625874877E-1,-4.131891429E-1,-1.894837767E-1
1.606187413E0,2.679138184E-1,-4.281028211E-1,-1.777658761E-1
1.608675122E0,2.785664499E-1,-4.419512451E-1,-1.639174372E-1
1.611162830E0,2.913496196E-1,-4.526038766E-1,-1.500690132E-1
1.613650538E0,3.073285520E-1,-4.600607455E-1,-1.383511126E-1
1.616138247E0,3.265033066E-1,-4.664523304E-1,-1.276984811E-1
1.618625955E0,3.467433155E-1,-4.685828388E-1,-1.191763729E-1
1.621114392E0,3.691138625E-1,-4.685828388E-1,-1.149153188E-1
1.623602517E0,3.914843798E-1,-4.653870463E-1,-1.159805804E-1
1.626090278E0,4.138549268E-1,-4.611259997E-1,-1.213068962E-1
1.628577986E0,4.340949357E-1,-4.547344148E-1,-1.276984811E-1
1.631065695E0,4.554001987E-1,-4.462123215E-1,-1.372858584E-1
1.633553403E0,4.735096991E-1,-4.355596602E-1,-1.479384899E-1
1.636041111E0,4.905539155E-1,-4.249070287E-1,-1.585911214E-1
1.638528820E0,5.033370852E-1,-4.099933505E-1,-1.692437679E-1
1.641016528E0,5.129244328E-1,-3.940143883E-1,-1.788311303E-1
1.643504236E0,5.161202550E-1,-3.780354261E-1,-1.884185076E-1
1.645991945E0,5.129244328E-1,-3.609912097E-1,-1.969406158E-1
1.648479653E0,5.044023395E-1,-3.439469934E-1,-2.033322006E-1
1.650967361E0,4.862928391E-1,-3.279680312E-1,-2.075932473E-1
1.653455070E0,4.607265294E-1,-3.119890988E-1,-2.097237855E-1
1.655942778E0,4.287686050E-1,-2.960101366E-1,-2.097237855E-1
1.658430486E0,3.882885873E-1,-2.800311744E-1,-2.075932473E-1
1.660918195E0,3.424822688E-1,-2.661827505E-1,-2.043974549E-1
1.663405903E0,2.902843356E-1,-2.544648647E-1,-2.001364082E-1
1.665893611E0,2.348906398E-1,-2.448774725E-1,-1.958753467E-1
1.668381320E0,1.763011366E-1,-2.363553643E-1,-1.926795542E-1
1.670869028E0,1.134505793E-1,-2.310290486E-1,-1.916143000E-1
1.673356736E0,5.060002208E-2,-2.278332561E-1,-1.916143000E-1
1.675844445E0,-1.118526794E-2,-2.278332561E-1,-1.948100924E-1
1.678332153E0,-6.870950758E-2,-2.310290486E-1,-2.001364082E-1
1.680819861E0,-1.187768951E-1,-2.384859025E-1,-2.075932473E-1
1.683307570E0,-1.603221744E-1,-2.470080107E-1,-2.171806246E-1
1.685795278E0,-1.922800839E-1,-2.587259114E-1,-2.288985252E-1
1.688282986E0,-2.125200927E-1,-2.725743353E-1,-2.448774725E-1
1.690770695E0,-2.210422009E-1,-2.874880135E-1,-2.629869580E-1
1.693258403E0,-2.167811543E-1,-3.045322299E-1,-2.832269669E-1
1.695746111E0,-2.008021921E-1,-3.237069845E-1,-3.066627681E-1
1.698233820E0,-1.720400751E-1,-3.439469934E-1,-3.332943618E-1
1.700721528E0,-1.315600574E-1,-3.663175404E-1,-3.599259555E-1
1.703209236E0,-7.829687744E-2,-3.886880577E-1,-3.865575492E-1
1.705696945E0,-1.438105945E-2,-4.110586047E-1,-4.131891429E-1
1.708184653E0,5.912213027E-2,-4.302333593E-1,-4.387554526E-1
1.710672361E0,1.411474347E-1,-4.440817833E-1,-4.611259997E-1
1.713160070E0,2.274337858E-1,-4.536691606E-1,-4.792354703E-1
1.715647778E0,3.147853911E-1,-4.568649530E-1,-4.930838943E-1
1.718135486E0,4.021370113E-1,-4.547344148E-1,-5.037365556E-1
1.720623195E0,4.841623306E-1,-4.483428299E-1,-5.111933947E-1
1.723110903E0,5.597960353E-1,-4.387554526E-1,-5.143891573E-1
1.725598611E0,6.247771382E-1,-4.259723127E-1,-5.122586489E-1
1.728086320E0,6.769750714E-1,-4.131891429E-1,-5.058670640E-1
1.730574028E0,7.153245211E-1,-3.993407190E-1,-4.930838943E-1
1.733061736E0,7.366297841E-1,-3.854922652E-1,-4.749744236E-1
1.735549445E0,7.419561148E-1,-3.705785871E-1,-4.515386224E-1
1.738037153E0,7.291729450E-1,-3.567301631E-1,-4.227765203E-1
1.740524913E0,6.993455887E-1,-3.428817391E-1,-3.918838501E-1
1.743012674E0,6.524739861E-1,-3.311638236E-1,-3.556649089E-1
1.745500434E0,5.896234512E-1,-3.205111921E-1,-3.194459379E-1
1.747988195E0,5.118591785E-1,-3.130543530E-1,-2.832269669E-1
1.750475955E0,4.202465117E-1,-3.066627681E-1,-2.470080107E-1
1.752963715E0,3.179811835E-1,-3.034669757E-1,-2.161153555E-1
1.755451476E0,2.103895694E-1,-3.024017215E-1,-1.894837767E-1
1.757939236E0,1.006674170E-1,-3.034669757E-1,-1.681784987E-1
1.760426997E0,-1.012000442E-2,-3.066627681E-1,-1.553953290E-1
1.762914757E0,-1.166463718E-1,-3.130543530E-1,-1.490037590E-1
1.765402517E0,-2.157158852E-1,-3.205111921E-1,-1.490037590E-1
1.767890278E0,-3.051980436E-1,-3.300985694E-1,-1.553953290E-1
1.770378038E0,-3.829622865E-1,-3.386206925E-1,-1.671132296E-1
1.772865799E0,-4.458128214E-1,-3.471427858E-1,-1.841574460E-1
1.775353559E0,-4.937497079E-1,-3.545996249E-1,-2.043974549E-1
1.777841320E0,-5.257076025E-1,-3.588607013E-1,-2.278332561E-1
1.780329080E0,-5.416865349E-1,-3.588607013E-1,-2.533995807E-1
1.782816840E0,-5.416865349E-1,-3.567301631E-1,-2.800311744E-1
1.785304601E0,-5.246423483E-1,-3.492733240E-1,-3.066627681E-1
1.787792361E0,-4.916191697E-1,-3.396859467E-1,-3.343596160E-1
1.790280122E0,-4.447475672E-1,-3.269027770E-1,-3.599259555E-1
1.792767882E0,-3.840275407E-1,-3.119890988E-1,-3.833617568E-1
1.795255642E0,-3.115896285E-1,-2.949448824E-1,-4.014712274E-1
1.797743403E0,-2.316948473E-1,-2.768353820E-1,-4.153196514E-1
1.800231163E0,-1.443432271E-1,-2.597911656E-1,-4.217112362E-1
1.802718924E0,-5.379581451E-2,-2.448774725E-1,-4.227765203E-1
1.805206684E0,3.675159439E-2,-2.320943177E-1,-4.174501896E-1
1.807694445E0,1.241032109E-1,-2.203764170E-1,-4.067975581E-1
1.810182205E0,2.050632536E-1,-2.097237855E-1,-3.908185959E-1
1.812669965E0,2.785664499E-1,-2.001364082E-1,-3.727091253E-1
1.815157726E0,3.424822688E-1,-1.916143000E-1,-3.514038324E-1
1.817645486E0,3.946801722E-1,-1.841574460E-1,-3.279680312E-1
1.820133247E0,4.351601899E-1,-1.788311303E-1,-3.024017215E-1
1.822621007E0,4.639223218E-1,-1.735048145E-1,-2.747048736E-1
1.825108767E0,4.799012840E-1,-1.703090221E-1,-2.470080107E-1
1.827596528E0,4.852275848E-1,-1.671132296E-1,-2.182458937E-1
1.830084288E0,4.788360000E-1,-1.649827063E-1,-1.894837767E-1
1.832572049E0,4.628570378E-1,-1.649827063E-1,-1.617869139E-1
1.835059809E0,4.372907281E-1,-1.660479754E-1,-1.372858584E-1
1.837547570E0,4.021370113E-1,-1.681784987E-1,-1.170458421E-1
1.840035330E0,3.616569936E-1,-1.713742912E-1,-1.021321490E-1
1.842523090E0,3.147853911E-1,-1.788311303E-1,-9.574057162E-2
1.845010851E0,2.657832801E-1,-1.873532385E-1,-9.787109494E-2
1.847498611E0,2.146506310E-1,-2.001364082E-1,-1.085237339E-1
1.849986372E0,1.645832360E-1,-2.150501013E-1,-1.276984811E-1
1.852474132E0,1.177116334E-1,-2.320943177E-1,-1.532648057E-1
1.854961892E0,7.190529257E-2,-2.491385341E-1,-1.841574460E-1
1.857449653E0,3.142527863E-2,-2.629869580E-1,-2.182458937E-1
1.859937413E0,-5.858949851E-3,-2.693785429E-1,-2.555301189E-1
1.862425174E0,-3.888212144E-2,-2.693785429E-1,-2.928143442E-1
1.864912934E0,-6.977476925E-2,-2.651174963E-1,-3.300985694E-1
1.867400695E0,-9.534109384E-2,-2.544648647E-1,-3.641870022E-1
1.869888455E0,-1.177116334E-1,-2.416816950E-1,-3.929491341E-1
1.872376215E0,-1.358211190E-1,-2.257027328E-1,-4.163849354E-1
1.874863976E0,-1.518000662E-1,-2.097237855E-1,-4.344944060E-1
1.877351684E0,-1.645832360E-1,-1.926795542E-1,-4.462123215E-1
1.879839392E0,-1.773663908E-1,-1.735048145E-1,-4.536691606E-1
1.882327101E0,-1.890842915E-1,-1.532648057E-1,-4.568649530E-1
1.884814809E0,-2.008021921E-1,-1.330247968E-1,-4.568649530E-1
1.887302517E0,-2.114548385E-1,-1.138500497E-1,-4.526038766E-1
1.889790226E0,-2.221074700E-1,-9.680583328E-2,-4.440817833E-1
1.892277934E0,-2.316948473E-1,-8.189214021E-2,-4.323638678E-1
1.894765642E0,-2.434127480E-1,-7.017423958E-2,-4.185154438E-1
1.897253351E0,-2.551306486E-1,-6.165213138E-2,-4.014712274E-1
1.899741059E0,-2.657832801E-1,-5.526055023E-2,-3.822965026E-1
1.902228767E0,-2.764359117E-1,-5.206476152E-2,-3.609912097E-1
1.904716476E0,-2.860232890E-1,-4.993423447E-2,-3.386206925E-1
1.907204184E0,-2.956106663E-1,-5.099949613E-2,-3.173153996E-1
1.909691892E0,-3.020022511E-1,-5.206476152E-2,-2.949448824E-1
1.912179601E0,-3.062632978E-1,-5.739107728E-2,-2.736395895E-1
1.914667309E0,-3.083938360E-1,-6.165213138E-2,-2.533995807E-1
1.917155017E0,-3.083938360E-1,-6.804371625E-2,-2.352901101E-1
1.919642726E0,-3.051980436E-1,-7.656582445E-2,-2.182458937E-1
1.922130434E0,-2.998717129E-1,-8.615319431E-2,-2.054627240E-1
1.924618142E0,-2.913496196E-1,-9.680583328E-2,-1.958753467E-1
1.927105851E0,-2.817622423E-1,-1.085237339E-1,-1.916143000E-1
1.929593559E0,-2.689790726E-1,-1.223721579E-1,-1.916143000E-1
1.932081267E0,-2.540653646E-1,-1.394163817E-1,-1.980058849E-1
1.934568976E0,-2.370211631E-1,-1.564605981E-1,-2.097237855E-1
1.937056684E0,-2.178464085E-1,-1.756353378E-1,-2.278332561E-1
1.939544392E0,-1.976063997E-1,-1.980058849E-1,-2.512690723E-1
1.942032101E0,-1.741705984E-1,-2.214416862E-1,-2.810964286E-1
1.944519809E0,-1.496695429E-1,-2.470080107E-1,-3.151848912E-1
1.947007517E0,-1.230379492E-1,-2.715090811E-1,-3.524691164E-1
1.949495226E0,-9.534109384E-2,-2.960101366E-1,-3.908185959E-1
1.951982934E0,-6.977476925E-2,-3.183806837E-1,-4.291680753E-1
1.954470642E0,-4.527370632E-2,-3.375554085E-1,-4.643217921E-1
1.956958351E0,-2.290316857E-2,-3.535343707E-1,-4.962796867E-1
1.959446059E0,-1.597895520E-3,-3.641870022E-1,-5.229113102E-1
1.961933767E0,1.651158556E-2,-3.695133328E-1,-5.442165732E-1
1.964421476E0,3.355580568E-2,-3.716438413E-1,-5.601955056E-1
1.966909184E0,4.846949503E-2,-3.695133328E-1,-5.729786754E-1
1.969396892E0,6.444845349E-2,-3.641870022E-1,-5.836313367E-1
1.971884601E0,7.723161578E-2,-3.545996249E-1,-5.900229216E-1
1.974372309E0,8.788424730E-2,-3.428817391E-1,-5.942839384E-1
1.976860017E0,9.640636295E-2,-3.300985694E-1,-5.953491926E-1
1.979347726E0,1.038632020E-1,-3.130543530E-1,-5.900229216E-1
1.981835434E0,1.113200486E-1,-2.960101366E-1,-5.793702602E-1
1.984323142E0,1.166463718E-1,-2.779006660E-1,-5.633913279E-1
1.986810903E0,1.209074259E-1,-2.597911656E-1,-5.420860648E-1
1.989298663E0,1.241032109E-1,-2.438122183E-1,-5.154544711E-1
1.991786424E0,1.251684725E-1,-2.288985252E-1,-4.866923392E-1
1.994274184E0,1.241032109E-1,-2.150501013E-1,-4.536691606E-1
1.996761945E0,1.219726875E-1,-2.043974549E-1,-4.195807278E-1
1.999249705E0,1.166463718E-1,-1.958753467E-1,-3.844270110E-1
2.001737465E0,1.123853177E-1,-1.916143000E-1,-3.492733240E-1
2.004225226E0,1.059937328E-1,-1.894837767E-1,-3.162501454E-1
2.006712986E0,9.853688627E-2,-1.894837767E-1,-2.842922211E-1
2.009200747E0,9.214530140E-2,-1.916143000E-1,-2.544648647E-1
2.011688507E0,8.681898564E-2,-1.948100924E-1,-2.288985252E-1
2.014176267E0,8.149266988E-2,-1.969406158E-1,-2.065279931E-1
2.016664028E0,7.936213911E-2,-2.001364082E-1,-1.905490309E-1
2.019151788E0,7.829687744E-2,-2.012016773E-1,-1.820269227E-1
2.021639549E0,8.042740822E-2,-2.033322006E-1,-1.788311303E-1
2.024127309E0,8.468846232E-2,-2.075932473E-1,-1.798963994E-1
2.026615070E0,9.427583218E-2,-2.129195631E-1,-1.862879843E-1
2.029102830E0,1.081242561E-1,-2.225069404E-1,-1.937448233E-1
2.031590590E0,1.262337416E-1,-2.342248410E-1,-2.001364082E-1
2.034078351E0,1.486042738E-1,-2.470080107E-1,-2.075932473E-1
2.036566111E0,1.752358675E-1,-2.597911656E-1,-2.139848322E-1
2.039053872E0,2.039979845E-1,-2.725743353E-1,-2.193111479E-1
2.041541632E0,2.359558940E-1,-2.853575051E-1,-2.235722095E-1
2.044029392E0,2.700443268E-1,-2.970753908E-1,-2.267680019E-1
2.046517153E0,3.051980436E-1,-3.087933064E-1,-2.299637944E-1
2.049004913E0,3.403517306E-1,-3.215764761E-1,-2.320943177E-1
2.051492674E0,3.755054474E-1,-3.354249001E-1,-2.342248410E-1
2.053980434E0,4.085285962E-1,-3.492733240E-1,-2.352901101E-1
2.056468195E0,4.394212663E-1,-3.599259555E-1,-2.384859025E-1
2.058955955E0,4.660528302E-1,-3.705785871E-1,-2.406164259E-1
2.061443715E0,4.916191697E-1,-3.769701719E-1,-2.438122183E-1
2.063931476E0,5.150549412E-1,-3.780354261E-1,-2.480732650E-1
2.066419236E0,5.384907722E-1,-3.759049177E-1,-2.565953732E-1
2.068906997E0,5.608612895E-1,-3.695133328E-1,-2.661827505E-1
2.071394757E0,5.821665525E-1,-3.588607013E-1,-2.779006660E-1
2.073882517E0,6.034718752E-1,-3.460775316E-1,-2.928143442E-1
2.076370278E0,6.258423924E-1,-3.311638236E-1,-3.098585606E-1
2.078858038E0,6.503434777E-1,-3.151848912E-1,-3.269027770E-1
2.081345799E0,6.759097576E-1,-2.992059290E-1,-3.439469934E-1
2.083833559E0,7.025413513E-1,-2.810964286E-1,-3.609912097E-1
2.086321320E0,7.302381992E-1,-2.651174963E-1,-3.759049177E-1
2.088809080E0,7.600656152E-1,-2.480732650E-1,-3.865575492E-1
2.091296840E0,7.909582257E-1,-2.299637944E-1,-3.950796425E-1
2.093784601E0,8.229161501E-1,-2.129195631E-1,-3.972101808E-1
2.096272361E0,8.548740745E-1,-1.958753467E-1,-3.961449265E-1
2.098760122E0,8.868319988E-1,-1.788311303E-1,-3.897533417E-1
2.101247882E0,9.198551774E-1,-1.628521830E-1,-3.801659644E-1
2.103735642E0,9.518130422E-1,-1.468732208E-1,-3.684480488E-1
2.106223403E0,9.816404581E-1,-1.319595277E-1,-3.524691164E-1
2.108711163E0,1.009337306E0,-1.170458421E-1,-3.343596160E-1
2.111198924E0,1.033838391E0,-1.031974182E-1,-3.130543530E-1
2.113686684E0,1.054078341E0,-9.041424841E-2,-2.885532975E-1
2.116174445E0,1.070057273E0,-8.082687855E-2,-2.651174963E-1
2.118662205E0,1.079644680E0,-7.123950869E-2,-2.395511568E-1
2.121149965E0,1.084971070E0,-6.378266215E-2,-2.150501013E-1
2.123637726E0,1.083905697E0,-5.739107728E-2,-1.894837767E-1
2.126125486E0,1.079644680E0,-5.206476152E-2,-1.628521830E-1
2.128613247E0,1.070057273E0,-4.567318037E-2,-1.351553202E-1
2.131101007E0,1.058339477E0,-3.821633384E-2,-1.063932031E-1
2.133588715E0,1.042360425E0,-3.075948730E-2,-7.656582445E-2
2.136076424E0,1.023185730E0,-2.117211558E-2,-4.780370742E-2
2.138564132E0,1.002945662E0,-9.454214945E-3,-2.010685205E-2
2.141051840E0,9.795098901E-1,3.328948980E-3,4.394212738E-3
2.143539549E0,9.571393728E-1,1.717737690E-2,2.463422157E-2
2.146027257E0,9.337036014E-1,3.102580272E-2,3.954791278E-2
2.148514965E0,9.113330245E-1,4.380896688E-2,4.807002097E-2
2.151002674E0,8.910930157E-1,5.446160212E-2,5.126581341E-2
2.153490382E0,8.740488291E-1,6.298371404E-2,5.020054802E-2
2.155978090E0,8.602004051E-1,7.044056058E-2,4.380896688E-2
2.158465799E0,8.506129980E-1,7.683213800E-2,3.315633163E-2
2.160953507E0,8.442214131E-1,8.109319210E-2,1.930790395E-2
2.163441215E0,8.431561589E-1,8.428898454E-2,2.263685223E-3
2.165928924E0,8.442214131E-1,8.748477697E-2,-1.584579609E-2
2.168416632E0,8.495477438E-1,8.748477697E-2,-3.395527974E-2
2.170904340E0,8.570045829E-1,8.535424620E-2,-5.313002318E-2
2.173392049E0,8.676572442E-1,8.002793044E-2,-6.910897791E-2
2.175879757E0,8.804404140E-1,6.937529147E-2,-8.508793265E-2
2.178367465E0,8.953540921E-1,5.446160212E-2,-9.680583328E-2
2.180855174E0,9.102677703E-1,3.635212034E-2,-1.031974182E-1
2.183342882E0,9.230509400E-1,1.717737690E-2,-1.063932031E-1
2.185830590E0,9.326383471E-1,-1.997369342E-3,-1.053279415E-1
2.188318299E0,9.347688556E-1,-2.010685205E-2,-9.680583328E-2
2.190806007E0,9.294425249E-1,-3.289001435E-2,-8.508793265E-2
2.193293715E0,9.155941010E-1,-3.928159550E-2,-6.910897791E-2
2.195781424E0,8.921582699E-1,-3.928159550E-2,-4.993423447E-2
2.198269132E0,8.602004051E-1,-3.075948730E-2,-2.862896025E-2
2.200756840E0,8.186551332E-1,-1.478053257E-2,-6.258423906E-3
2.203244549E0,7.696529627E-1,5.459476262E-3,1.717737690E-2
2.205732257E0,7.142592669E-1,3.102580272E-2,3.954791278E-2
2.208219965E0,6.524739861E-1,6.085318699E-2,6.085318699E-2
2.210707674E0,5.842971206E-1,9.387636185E-2,8.002793044E-2
2.213195382E0,5.129244328E-1,1.279647946E-1,9.600688517E-2
2.215683090E0,4.372907281E-1,1.609879732E-1,1.087900475E-1
2.218170799E0,3.627222776E-1,1.940111369E-1,1.173121557E-1
2.220658507E0,2.881538272E-1,2.238385230E-1,1.205079481E-1
2.223146215E0,2.167811543E-1,2.515353858E-1,1.205079481E-1
2.225633924E0,1.518000662E-1,2.728406489E-1,1.173121557E-1
2.228121632E0,9.747162461E-2,2.824280262E-1,1.119858399E-1
2.230609340E0,5.699160323E-2,2.898848653E-1,1.002679393E-1
2.233097049E0,2.716422267E-2,3.058638275E-1,8.322372288E-2
2.235584757E0,3.728422802E-3,3.250385821E-1,6.404897571E-2
2.238072517E0,-1.651158556E-2,3.484743834E-1,4.593949392E-2
2.240560278E0,-3.142527863E-2,3.729754388E-1,2.889527567E-2
2.243048038E0,-4.207791388E-2,3.932154477E-1,1.398158539E-2
2.245535799E0,-4.846949503E-2,4.059986174E-1,3.328948980E-3
2.248023559E0,-5.166528746E-2,4.113249183E-1,-4.127896391E-3
2.250511320E0,-5.166528746E-2,4.070638716E-1,-7.323687430E-3
2.252999080E0,-4.953476042E-2,3.974764943E-1,-7.323687430E-3
2.255486840E0,-4.633896798E-2,3.836280704E-1,-5.193160381E-3
2.257974601E0,-4.314317927E-2,3.644533157E-1,1.331579551E-4
2.260462361E0,-3.781685978E-2,3.420827985E-1,7.590003312E-3
2.262950122E0,-3.249054030E-2,3.207775056E-1,1.504684892E-2
2.265437882E0,-2.609895915E-2,2.973417044E-1,2.250369452E-2
2.267925642E0,-1.970737800E-2,2.739059031E-1,2.996053919E-2
2.270413403E0,-1.331579592E-2,2.526006401E-1,3.635212034E-2
2.272901163E0,-3.728422802E-3,2.334259003E-1,4.167843983E-2
2.275388924E0,4.793686327E-3,2.153164148E-1,4.593949392E-2
2.277876684E0,1.544632297E-2,1.993374527E-1,4.807002097E-2
2.280364445E0,2.609895915E-2,1.865542978E-1,4.913528636E-2
2.282852205E0,3.781685978E-2,1.769669205E-1,4.700475931E-2
2.285339965E0,5.166528746E-2,1.716406047E-1,4.380896688E-2
2.287827726E0,6.657897681E-2,1.684448123E-1,3.635212034E-2
2.290315486E0,8.362319320E-2,1.684448123E-1,2.569948509E-2
2.292803247E0,1.027979404E-1,1.705753356E-1,1.185105834E-2
2.295291007E0,1.262337416E-1,1.716406047E-1,-4.127896391E-3
2.297778767E0,1.528653353E-1,1.727058738E-1,-2.330264263E-2
2.300266528E0,1.816274524E-1,1.705753356E-1,-4.354264960E-2
2.302754288E0,2.146506310E-1,1.673795432E-1,-6.591318548E-2
2.305242049E0,2.498043180E-1,1.609879732E-1,-8.615319431E-2
2.307729809E0,2.870885432E-1,1.535311192E-1,-1.063932031E-1
2.310217570E0,3.265033066E-1,1.439437568E-1,-1.266332120E-1
2.312705330E0,3.691138625E-1,1.332911104E-1,-1.447426975E-1
2.315193090E0,4.117243886E-1,1.205079481E-1,-1.639174372E-1
2.317680851E0,4.575307369E-1,1.066595241E-1,-1.820269227E-1
2.320168611E0,5.044023395E-1,8.961530030E-2,-2.001364082E-1
2.322656372E0,5.512739420E-1,7.150582224E-2,-2.161153555E-1
2.325144132E0,5.981455445E-1,5.020054802E-2,-2.288985252E-1
2.327631892E0,6.439518929E-1,2.783001214E-2,-2.395511568E-1
2.330119653E0,6.886929274E-1,6.524739787E-3,-2.470080107E-1
2.332607413E0,7.291729450E-1,-1.478053257E-2,-2.480732650E-1
2.335095174E0,7.653919458E-1,-3.395527974E-2,-2.470080107E-1
2.337582934E0,7.973498106E-1,-5.206476152E-2,-2.406164259E-1
2.340070695E0,8.229161501E-1,-6.591318548E-2,-2.299637944E-1
2.342558455E0,8.431561589E-1,-7.763108611E-2,-2.171806246E-1
2.345046215E0,8.548740745E-1,-8.615319431E-2,-2.022669315E-1
2.347533976E0,8.580698371E-1,-9.147951752E-2,-1.830921918E-1
2.350021736E0,8.548740745E-1,-9.361004084E-2,-1.628521830E-1
2.352509497E0,8.442214131E-1,-9.361004084E-2,-1.415469050E-1
2.354997257E0,8.293077350E-1,-9.147951752E-2,-1.191763729E-1
2.357485017E0,8.101329803E-1,-8.721846342E-2,-9.680583328E-2
2.359972778E0,7.866972089E-1,-8.295740932E-2,-7.443529367E-2
2.362460538E0,7.600656152E-1,-7.763108611E-2,-5.206476152E-2
2.364948299E0,7.313035131E-1,-7.230477035E-2,-3.289001435E-2
2.367436059E0,6.993455887E-1,-6.484792382E-2,-1.478053257E-2
2.369923820E0,6.663224101E-1,-5.526055023E-2,-9.321057005E-4
2.372411580E0,6.332992315E-1,-4.460791498E-2,1.078579482E-2
2.374899340E0,5.992107987E-1,-3.182475269E-2,1.717737690E-2
2.377387101E0,5.661876202E-1,-1.691105962E-2,1.930790395E-2
2.379874861E0,5.331644416E-1,-9.321057005E-4,1.824264042E-2
2.382362622E0,5.022718310E-1,1.611211337E-2,1.504684892E-2
2.384850382E0,4.735096991E-1,3.209106624E-2,8.655266836E-3
2.387338142E0,4.458128214E-1,4.700475931E-2,2.263685223E-3
2.389825903E0,4.213117659E-1,5.872265995E-2,-5.193160381E-3
2.392313611E0,3.957454562E-1,6.724476814E-2,-1.265000552E-2
2.394801320E0,3.712443709E-1,7.150582224E-2,-2.010685205E-2
2.397289028E0,3.446127772E-1,7.150582224E-2,-2.756369673E-2
2.399776736E0,3.179811835E-1,6.511423737E-2,-3.608580679E-2
2.402264445E0,2.870885432E-1,5.552686751E-2,-4.354264960E-2
2.404752153E0,2.540653646E-1,4.061317816E-2,-5.099949613E-2
2.407239861E0,2.167811543E-1,2.356895804E-2,-5.845634267E-2
2.409727570E0,1.773663908E-1,3.328948980E-3,-6.484792382E-2
2.412215278E0,1.336905807E-1,-1.691105962E-2,-7.017423958E-2
2.414702986E0,8.788424730E-2,-3.715106845E-2,-7.230477035E-2
2.417190695E0,3.994738683E-2,-5.632581562E-2,-7.230477035E-2
2.419678403E0,-9.054740891E-3,-7.230477035E-2,-7.123950869E-2
2.422166111E0,-5.912213027E-2,-8.828372508E-2,-6.910897791E-2
2.424653820E0,-1.081242561E-1,-1.021321490E-1,-6.378266215E-2
2.427141528E0,-1.549958587E-1,-1.117195264E-1,-5.739107728E-2
2.429629236E0,-1.997369379E-1,-1.191763729E-1,-4.780370742E-2
2.432116945E0,-2.423474789E-1,-1.213068962E-1,-3.821633384E-2
2.434604653E0,-2.796317041E-1,-1.181111038E-1,-2.756369673E-2
2.437092361E0,-3.105243444E-1,-1.095889956E-1,-1.691105962E-2
2.439580070E0,-3.360906839E-1,-9.680583328E-2,-9.454214945E-3
2.442067778E0,-3.542001545E-1,-8.082687855E-2,-3.062632866E-3
2.444555486E0,-3.648527861E-1,-6.271740049E-2,1.331579551E-4
2.447043195E0,-3.691138625E-1,-4.247738793E-2,1.198421582E-3
2.449530903E0,-3.648527861E-1,-2.010685205E-2,1.331579551E-4
2.452018611E0,-3.520696461E-1,1.198421582E-3,-4.127896391E-3
2.454506320E0,-3.328948915E-1,2.356895804E-2,-1.051947847E-2
2.456994028E0,-3.073285520E-1,4.700475931E-2,-1.904158667E-2
2.459481736E0,-2.775011659E-1,6.831002980E-2,-2.756369673E-2
2.461969445E0,-2.423474789E-1,8.855003864E-2,-3.715106845E-2
2.464457153E0,-2.039979845E-1,1.055942550E-1,-4.673844203E-2
2.466944861E0,-1.635179669E-1,1.205079481E-1,-5.526055023E-2
2.469432570E0,-1.230379492E-1,1.300953180E-1,-6.271740049E-2
2.471920278E0,-8.255793154E-2,1.364869028E-1,-7.017423958E-2
2.474407986E0,-4.420844093E-2,1.386174262E-1,-7.443529367E-2
2.476895695E0,-1.012000442E-2,1.354216337E-1,-7.763108611E-2
2.479383403E0,1.864211448E-2,1.300953180E-1,-7.869634777E-2
2.481871111E0,3.888212144E-2,1.205079481E-1,-7.763108611E-2
2.484358820E0,5.273054913E-2,1.045289934E-1,-7.656582445E-2
2.486846528E0,5.805686861E-2,8.748477697E-2,-7.123950869E-2
2.489334236E0,5.699160323E-2,6.724476814E-2,-6.378266215E-2
2.491821997E0,4.846949503E-2,4.487423226E-2,-5.313002318E-2
2.494309757E0,3.249054030E-2,2.250369452E-2,-3.821633384E-2
2.496797517E0,1.225053146E-2,1.331579551E-4,-2.010685205E-2
2.499285278E0,-1.438105945E-2,-2.117211558E-2,2.263685223E-3
2.501773038E0,-4.527370632E-2,-4.141212255E-2,2.676474862E-2
2.504260799E0,-8.042740822E-2,-5.952160433E-2,5.339634046E-2
2.506748559E0,-1.177116334E-1,-7.443529367E-2,8.002793044E-2
2.509236320E0,-1.560611278E-1,-8.508793265E-2,1.066595241E-1
2.511724080E0,-1.933453530E-1,-9.361004084E-2,1.300953180E-1
2.514211840E0,-2.274337858E-1,-1.000016257E-1,1.503353268E-1
2.516699601E0,-2.572611570E-1,-1.010668874E-1,1.663142890E-1
2.519187361E0,-2.806969583E-1,-9.893636405E-2,1.769669205E-1
2.521675122E0,-2.977411747E-1,-9.361004084E-2,1.822932363E-1
2.524162882E0,-3.073285520E-1,-8.402267098E-2,1.822932363E-1
2.526650642E0,-3.094590902E-1,-7.230477035E-2,1.759016514E-1
2.529138403E0,-3.041327596E-1,-5.952160433E-2,1.652490199E-1
2.531626163E0,-2.934801280E-1,-4.460791498E-2,1.482048035E-1
2.534113924E0,-2.764359117E-1,-2.756369673E-2,1.279647946E-1
2.536601684E0,-2.551306486E-1,-1.051947847E-2,1.045289934E-1
2.539089445E0,-2.274337858E-1,6.524739787E-3,7.896266878E-2
2.541577205E0,-1.976063997E-1,2.250369452E-2,5.339634046E-2
2.544064965E0,-1.635179669E-1,3.635212034E-2,2.783001214E-2
2.546552726E0,-1.283642650E-1,4.700475931E-2,4.394212738E-3
2.549040486E0,-9.001477808E-2,5.446160212E-2,-1.904158667E-2
2.551528247E0,-5.273054913E-2,5.978792161E-2,-3.715106845E-2
2.554016007E0,-1.757685095E-2,6.191844866E-2,-5.419528857E-2
2.556503767E0,1.651158556E-2,6.191844866E-2,-6.697845459E-2
2.558991528E0,4.527370632E-2,5.872265995E-2,-7.763108611E-2
2.561479288E0,6.977476925E-2,5.446160212E-2,-8.402267098E-2
2.563967049E0,9.108003974E-2,4.913528636E-2,-8.934898674E-2
2.566454809E0,1.070589945E-1,4.274370521E-2,-9.041424841E-2
2.568942570E0,1.177116334E-1,3.741738573E-2,-9.147951752E-2
2.571430330E0,1.241032109E-1,2.996053919E-2,-8.828372508E-2
2.573918090E0,1.251684725E-1,2.143843099E-2,-8.295740932E-2
2.576405851E0,1.219726875E-1,1.185105834E-2,-7.656582445E-2
2.578893611E0,1.155811027E-1,1.198421582E-3,-6.804371625E-2
2.581381372E0,1.038632020E-1,-9.454214945E-3,-5.845634267E-2
2.583869132E0,9.001477808E-2,-1.904158667E-2,-4.780370742E-2
2.586356892E0,7.403582335E-2,-2.649843320E-2,-3.608580679E-2
2.588844653E0,5.592634156E-2,-3.395527974E-2,-2.543316968E-2
2.591332413E0,3.675159439E-2,-3.821633384E-2,-1.371526904E-2
2.593820174E0,1.757685095E-2,-4.141212255E-2,-3.062632866E-3
2.596307934E0,-1.597895520E-3,-4.354264960E-2,5.459476262E-3
2.598795695E0,-2.077264152E-2,-4.354264960E-2,1.078579482E-2
2.601283455E0,-3.781685978E-2,-4.247738793E-2,1.504684892E-2
2.603771215E0,-5.379581451E-2,-4.141212255E-2,1.717737690E-2
2.606258976E0,-6.551371515E-2,-3.928159550E-2,1.504684892E-2
2.608746736E0,-7.510108501E-2,-3.821633384E-2,1.185105834E-2
2.611234497E0,-8.149266988E-2,-3.715106845E-2,5.459476262E-3
2.613722257E0,-8.468846232E-2,-3.502054140E-2,-9.321057005E-4
2.616210017E0,-8.468846232E-2,-3.502054140E-2,-7.323687430E-3
2.618697778E0,-8.042740822E-2,-3.502054140E-2,-1.478053257E-2
2.621185695E0,-7.510108501E-2,-3.608580679E-2,-2.117211558E-2
2.623673507E0,-6.764423847E-2,-3.608580679E-2,-2.756369673E-2
2.626161267E0,-5.805686861E-2,-3.608580679E-2,-3.395527974E-2
2.628648976E0,-4.633896798E-2,-3.715106845E-2,-4.034686089E-2
2.631136684E0,-3.462106735E-2,-3.928159550E-2,-4.567318037E-2
2.633624392E0,-1.970737800E-2,-4.247738793E-2,-4.993423447E-2
2.636112101E0,-5.858949851E-3,-4.780370742E-2,-5.313002318E-2
2.638599809E0,6.924213842E-3,-5.419528857E-2,-5.313002318E-2
2.641087517E0,1.970737800E-2,-6.165213138E-2,-5.099949613E-2
2.643575226E0,2.929474972E-2,-6.804371625E-2,-4.673844203E-2
2.646062934E0,3.568633273E-2,-7.443529367E-2,-4.034686089E-2
2.648550642E0,3.994738683E-2,-7.976161689E-2,-3.289001435E-2
2.651038351E0,3.994738683E-2,-8.295740932E-2,-2.330264263E-2
2.653526059E0,3.675159439E-2,-8.721846342E-2,-1.371526904E-2
2.656013767E0,2.929474972E-2,-8.828372508E-2,-3.062632866E-3
2.658501476E0,1.970737800E-2,-8.934898674E-2,6.524739787E-3
2.660989184E0,9.054740891E-3,-9.041424841E-2,1.717737690E-2
2.663476892E0,-3.728422802E-3,-8.934898674E-2,2.676474862E-2
2.665964601E0,-1.651158556E-2,-8.828372508E-2,3.422159329E-2
2.668452309E0,-2.929474972E-2,-8.615319431E-2,4.274370521E-2
2.670940017E0,-3.994738683E-2,-8.402267098E-2,4.913528636E-2
2.673427726E0,-5.060002208E-2,-8.082687855E-2,5.446160212E-2
2.675915434E0,-5.912213027E-2,-7.763108611E-2,5.872265995E-2
2.678403142E0,-6.551371515E-2,-7.337003201E-2,6.085318699E-2
2.680890851E0,-7.084003091E-2,-6.910897791E-2,6.085318699E-2
2.683378559E0,-7.297056168E-2,-6.271740049E-2,5.872265995E-2
2.685866267E0,-7.190529257E-2,-5.632581562E-2,5.446160212E-2
2.688353976E0,-6.764423847E-2,-4.993423447E-2,4.913528636E-2
2.690841684E0,-6.231792271E-2,-4.247738793E-2,4.167843983E-2
2.693329392E0,-5.273054913E-2,-3.608580679E-2,3.528685868E-2
2.695817101E0,-4.314317927E-2,-2.969422378E-2,2.783001214E-2
2.698304809E0,-3.249054030E-2,-2.436790615E-2,2.037316747E-2
2.700792517E0,-2.183790505E-2,-1.904158667E-2,1.398158539E-2
2.703280226E0,-1.225053146E-2,-1.691105962E-2,9.720530361E-3
2.705767934E0,-1.597895520E-3,-1.478053257E-2,5.459476262E-3
2.708255642E0,5.858949851E-3,-1.265000552E-2,3.328948980E-3
2.710743351E0,1.225053146E-2,-1.158474199E-2,2.263685223E-3
2.713231059E0,1.757685095E-2,-1.158474199E-2,1.198421582E-3
2.715718767E0,2.183790505E-2,-1.158474199E-2,2.263685223E-3
2.718206476E0,2.290316857E-2,-1.265000552E-2,4.394212738E-3
2.720694184E0,2.290316857E-2,-1.478053257E-2,7.590003312E-3
2.723181945E0,2.077264152E-2,-1.797632314E-2,1.185105834E-2
2.725669705E0,1.651158556E-2,-2.010685205E-2,1.717737690E-2
2.728157465E0,9.054740891E-3,-2.436790615E-2,2.356895804E-2
2.730645226E0,-5.326318205E-4,-2.756369673E-2,2.996053919E-2
2.733132986E0,-1.331579592E-2,-3.182475269E-2,3.741738573E-2
2.735620747E0,-2.822948620E-2,-3.715106845E-2,4.380896688E-2
2.738108507E0,-4.420844093E-2,-4.141212255E-2,5.020054802E-2
2.740596267E0,-6.231792271E-2,-4.567318037E-2,5.659212917E-2
2.743084028E0,-7.829687744E-2,-5.099949613E-2,6.085318699E-2
2.745571788E0,-9.427583218E-2,-5.419528857E-2,6.617950648E-2
2.748059549E0,-1.081242561E-1,-5.632581562E-2,6.937529147E-2
2.750547309E0,-1.209074259E-1,-5.739107728E-2,7.150582224E-2
2.753035070E0,-1.304948032E-1,-5.739107728E-2,7.150582224E-2
2.755522830E0,-1.379516423E-1,-5.526055023E-2,7.150582224E-2
2.758010590E0,-1.422126889E-1,-5.206476152E-2,7.257108390E-2
2.760498351E0,-1.432779580E-1,-4.886896908E-2,7.363634557E-2
2.762986111E0,-1.422126889E-1,-4.460791498E-2,7.363634557E-2
2.765473872E0,-1.390169114E-1,-4.141212255E-2,7.363634557E-2
2.767961632E0,-1.347558498E-1,-3.821633384E-2,7.576687634E-2
2.770449392E0,-1.294295341E-1,-3.502054140E-2,7.896266878E-2
2.772937153E0,-1.230379492E-1,-3.182475269E-2,8.322372288E-2
2.775424913E0,-1.177116334E-1,-2.756369673E-2,8.855003864E-2
2.777912674E0,-1.113200486E-1,-2.436790615E-2,9.600688517E-2
2.780400434E0,-1.049284711E-1,-1.904158667E-2,1.023984700E-1
2.782888195E0,-9.853688627E-2,-1.478053257E-2,1.077247858E-1
2.785375955E0,-9.214530140E-2,-1.158474199E-2,1.130511016E-1
2.787863715E0,-8.681898564E-2,-1.051947847E-2,1.162468940E-1
2.790351476E0,-8.149266988E-2,-1.051947847E-2,1.194426864E-1
2.792839236E0,-7.829687744E-2,-1.158474199E-2,1.205079481E-1
2.795326997E0,-7.616634667E-2,-1.584579609E-2,1.226384789E-1
2.797814757E0,-7.403582335E-2,-1.904158667E-2,1.226384789E-1
2.800302517E0,-7.297056168E-2,-2.330264263E-2,1.226384789E-1
2.802790278E0,-7.403582335E-2,-2.756369673E-2,1.215732098E-1
2.805278038E0,-7.616634667E-2,-2.969422378E-2,1.205079481E-1
2.807765799E0,-7.723161578E-2,-3.182475269E-2,1.194426864E-1
2.810253559E0,-7.936213911E-2,-3.182475269E-2,1.173121557E-1
2.812741320E0,-8.042740822E-2,-3.182475269E-2,1.130511016E-1
2.815229080E0,-8.042740822E-2,-3.075948730E-2,1.087900475E-1
2.817716840E0,-7.936213911E-2,-2.969422378E-2,1.045289934E-1
2.820204601E0,-7.723161578E-2,-2.649843320E-2,1.013332009E-1
2.822692361E0,-7.297056168E-2,-2.436790615E-2,9.707214683E-2
2.825180122E0,-6.764423847E-2,-2.117211558E-2,9.494162351E-2
2.827667882E0,-6.231792271E-2,-1.797632314E-2,9.387636185E-2
2.830155642E0,-5.592634156E-2,-1.478053257E-2,9.281109273E-2
2.832643403E0,-4.953476042E-2,-1.158474199E-2,9.281109273E-2
2.835131163E0,-4.101264849E-2,-8.388951421E-3,9.387636185E-2
2.837618924E0,-3.355580568E-2,-4.127896391E-3,9.494162351E-2
2.840106684E0,-2.609895915E-2,-1.997369342E-3,9.707214683E-2
2.842594445E0,-1.864211448E-2,-9.321057005E-4,9.813741595E-2
2.845082205E0,-1.118526794E-2,1.198421582E-3,9.920267761E-2
2.847569965E0,-3.728422802E-3,2.263685223E-3,1.013332009E-1
2.850057726E0,3.728422802E-3,3.328948980E-3,1.034637317E-1
2.852545486E0,9.054740891E-3,3.328948980E-3,1.055942550E-1
2.855033247E0,1.438105945E-2,1.198421582E-3,1.077247858E-1
2.857521007E0,1.864211448E-2,-1.997369342E-3,1.109205782E-1
2.860008767E0,2.183790505E-2,-6.258423906E-3,1.141163707E-1
2.862496528E0,2.290316857E-2,-1.051947847E-2,1.173121557E-1
2.864984288E0,2.077264152E-2,-1.478053257E-2,1.205079481E-1
2.867472049E0,1.757685095E-2,-1.904158667E-2,1.237037405E-1
2.869959809E0,1.118526794E-2,-2.436790615E-2,1.258342713E-1
2.872447570E0,2.663159044E-3,-2.862896025E-2,1.279647946E-1
2.874935330E0,-7.989477366E-3,-3.395527974E-2,1.300953180E-1
2.877423090E0,-2.077264152E-2,-3.715106845E-2,1.322258562E-1
2.879910851E0,-3.568633273E-2,-4.247738793E-2,1.364869028E-1
2.882398611E0,-5.273054913E-2,-4.673844203E-2,1.396826953E-1
2.884886372E0,-7.084003091E-2,-4.993423447E-2,1.439437568E-1
2.887374132E0,-8.894951642E-2,-5.206476152E-2,1.471395344E-1
2.889861892E0,-1.081242561E-1,-5.313002318E-2,1.503353268E-1
2.892349653E0,-1.262337416E-1,-5.313002318E-2,1.535311192E-1
2.894837413E0,-1.443432271E-1,-5.206476152E-2,1.545963883E-1
2.897325174E0,-1.592569202E-1,-4.993423447E-2,1.545963883E-1
2.899812934E0,-1.731053442E-1,-4.780370742E-2,1.524658650E-1
2.902300642E0,-1.848232448E-1,-4.460791498E-2,1.492700726E-1
2.904788351E0,-1.912148297E-1,-4.034686089E-2,1.450090110E-1
2.907276059E0,-1.944106072E-1,-3.715106845E-2,1.396826953E-1
2.909763767E0,-1.933453530E-1,-3.182475269E-2,1.332911104E-1
2.912251476E0,-1.890842915E-1,-2.649843320E-2,1.258342713E-1
2.914739184E0,-1.826927215E-1,-2.010685205E-2,1.173121557E-1
2.917226892E0,-1.731053442E-1,-1.478053257E-2,1.077247858E-1
2.919714601E0,-1.603221744E-1,-9.454214945E-3,9.707214683E-2
2.922202309E0,-1.454084814E-1,-4.127896391E-3,8.535424620E-2
2.924690017E0,-1.294295341E-1,-9.321057005E-4,7.363634557E-2
2.927177726E0,-1.113200486E-1,1.198421582E-3,5.978792161E-2
2.929665434E0,-9.321057051E-2,2.263685223E-3,4.807002097E-2
2.932153142E0,-7.403582335E-2,1.331579551E-4,3.528685868E-2
2.934640851E0,-5.379581451E-2,-3.062632866E-3,2.463422157E-2
2.937128559E0,-3.568633273E-2,-6.258423906E-3,1.398158539E-2
2.939616267E0,-1.651158556E-2,-1.051947847E-2,6.524739787E-3
2.942103976E0,1.597895520E-3,-1.478053257E-2,2.263685223E-3
2.944591684E0,1.864211448E-2,-1.691105962E-2,-9.321057005E-4
2.947079392E0,3.568633273E-2,-2.010685205E-2,-3.062632866E-3
2.949567101E0,4.953476042E-2,-2.223737910E-2,-4.127896391E-3
2.952054809E0,6.231792271E-2,-2.436790615E-2,-1.997369342E-3
2.954542517E0,7.403582335E-2,-2.649843320E-2,1.331579551E-4
2.957030226E0,8.255793154E-2,-2.862896025E-2,3.328948980E-3
2.959517934E0,8.681898564E-2,-3.075948730E-2,8.655266836E-3
2.962005642E0,9.001477808E-2,-3.289001435E-2,1.611211337E-2
2.964493351E0,8.894951642E-2,-3.608580679E-2,2.356895804E-2
2.966981059E0,8.575372398E-2,-3.928159550E-2,3.209106624E-2
2.969468767E0,8.042740822E-2,-4.247738793E-2,4.061317816E-2
2.971956476E0,7.190529257E-2,-4.354264960E-2,4.913528636E-2
2.974444184E0,6.231792271E-2,-4.460791498E-2,5.552686751E-2
2.976931892E0,5.166528746E-2,-4.460791498E-2,6.085318699E-2
2.979419601E0,4.207791388E-2,-4.354264960E-2,6.511423737E-2
2.981907309E0,3.142527863E-2,-4.141212255E-2,6.724476814E-2
2.984395017E0,2.183790505E-2,-3.715106845E-2,6.724476814E-2
2.986882726E0,1.225053146E-2,-3.395527974E-2,6.511423737E-2
2.989370434E0,3.728422802E-3,-2.862896025E-2,6.085318699E-2
2.991858195E0,-3.728422802E-3,-2.330264263E-2,5.552686751E-2
2.994345955E0,-1.012000442E-2,-1.797632314E-2,4.700475931E-2
2.996833715E0,-1.544632297E-2,-1.371526904E-2,3.954791278E-2
2.999321476E0,-1.970737800E-2,-9.454214945E-3,3.102580272E-2
3.001809236E0,-2.396843210E-2,-6.258423906E-3,2.250369452E-2
3.004296997E0,-2.822948620E-2,-3.062632866E-3,1.504684892E-2
3.006784757E0,-3.249054030E-2,1.331579551E-4,7.590003312E-3
3.009272517E0,-3.568633273E-2,2.263685223E-3,2.263685223E-3
3.011760278E0,-3.888212144E-2,3.328948980E-3,-1.997369342E-3
3.014248038E0,-4.207791388E-2,3.328948980E-3,-5.193160381E-3
3.016735799E0,-4.527370632E-2,2.263685223E-3,-8.388951421E-3
3.019223559E0,-4.953476042E-2,1.331579551E-4,-9.454214945E-3
3.021711320E0,-5.379581451E-2,-3.062632866E-3,-8.388951421E-3
3.024199080E0,-5.912213027E-2,-7.323687430E-3,-6.258423906E-3
3.026686840E0,-6.444845349E-2,-1.265000552E-2,-1.997369342E-3
3.029174601E0,-6.977476925E-2,-1.904158667E-2,3.328948980E-3
3.031662361E0,-7.510108501E-2,-2.436790615E-2,1.185105834E-2
3.034150122E0,-7.936213911E-2,-2.862896025E-2,2.250369452E-2
3.036637882E0,-8.468846232E-2,-3.182475269E-2,3.315633163E-2
3.039125642E0,-9.001477808E-2,-3.395527974E-2,4.487423226E-2
3.041613403E0,-9.427583218E-2,-3.608580679E-2,5.659212917E-2
3.044101163E0,-9.747162461E-2,-3.821633384E-2,6.724476814E-2
3.046588924E0,-1.006674170E-1,-3.821633384E-2,7.896266878E-2
3.049076684E0,-1.017326787E-1,-3.608580679E-2,8.855003864E-2
3.051564445E0,-1.027979404E-1,-3.395527974E-2,9.707214683E-2
3.054052205E0,-1.027979404E-1,-3.182475269E-2,1.055942550E-1
3.056539965E0,-1.027979404E-1,-2.649843320E-2,1.119858399E-1
3.059027726E0,-1.027979404E-1,-2.010685205E-2,1.173121557E-1
3.061515486E0,-1.017326787E-1,-1.478053257E-2,1.205079481E-1
3.064003247E0,-1.006674170E-1,-7.323687430E-3,1.237037405E-1
3.066491007E0,-9.960214794E-2,1.331579551E-4,1.237037405E-1
3.068978767E0,-9.853688627E-2,8.655266836E-3,1.237037405E-1
3.071466528E0,-9.640636295E-2,1.717737690E-2,1.205079481E-1
3.073954288E0,-9.427583218E-2,2.463422157E-2,1.173121557E-1
3.076442049E0,-9.214530140E-2,2.996053919E-2,1.119858399E-1
3.078929809E0,-9.001477808E-2,3.528685868E-2,1.055942550E-1
3.081417570E0,-8.575372398E-2,3.954791278E-2,9.920267761E-2
3.083905330E0,-8.362319320E-2,4.167843983E-2,9.281109273E-2
3.086393090E0,-8.042740822E-2,4.380896688E-2,8.428898454E-2
3.088880851E0,-7.829687744E-2,4.380896688E-2,7.789740711E-2
3.091368611E0,-7.510108501E-2,4.487423226E-2,7.150582224E-2
3.093856372E0,-7.190529257E-2,4.487423226E-2,6.511423737E-2
3.096344132E0,-6.870950758E-2,4.487423226E-2,5.872265995E-2
3.098831892E0,-6.551371515E-2,4.380896688E-2,5.446160212E-2
3.101319653E0,-6.231792271E-2,4.167843983E-2,4.913528636E-2
3.103807413E0,-6.018739566E-2,3.954791278E-2,4.700475931E-2
3.106295174E0,-5.805686861E-2,3.635212034E-2,4.700475931E-2
3.108782934E0,-5.592634156E-2,3.102580272E-2,4.913528636E-2
3.111270695E0,-5.486107618E-2,2.463422157E-2,5.233107507E-2
3.113758455E0,-5.379581451E-2,1.717737690E-2,5.872265995E-2
3.116246215E0,-5.379581451E-2,9.720530361E-3,6.617950648E-2
3.118733976E0,-5.486107618E-2,1.198421582E-3,7.576687634E-2
3.121221736E0,-5.699160323E-2,-7.323687430E-3,8.641951531E-2
3.123709497E0,-5.912213027E-2,-1.584579609E-2,9.813741595E-2
3.126197257E0,-6.338318437E-2,-2.330264263E-2,1.109205782E-1
3.128685017E0,-6.764423847E-2,-3.075948730E-2,1.247690022E-1
3.131172778E0,-7.403582335E-2,-3.608580679E-2,1.375521719E-1
3.133660538E0,-8.042740822E-2,-4.034686089E-2,1.503353268E-1
3.136148299E0,-8.681898564E-2,-4.460791498E-2,1.631184965E-1
3.138636059E0,-9.214530140E-2,-4.673844203E-2,1.727058738E-1
3.141123976E0,-9.747162461E-2,-4.886896908E-2,1.812279820E-1
3.143611788E0,-1.027979404E-1,-4.993423447E-2,1.886848211E-1
3.146099549E0,-1.081242561E-1,-5.099949613E-2,1.950764060E-1
3.148587309E0,-1.123853177E-1,-5.099949613E-2,2.014679909E-1
3.151075017E0,-1.166463718E-1,-4.886896908E-2,2.067943066E-1
3.153562726E0,-1.198421568E-1,-4.567318037E-2,2.121206224E-1
3.156050434E0,-1.219726875E-1,-4.247738793E-2,2.163816839E-1
3.158538142E0,-1.241032109E-1,-3.502054140E-2,2.206427306E-1
3.161025851E0,-1.262337416E-1,-2.649843320E-2,2.249037921E-1
3.163513559E0,-1.283642650E-1,-1.691105962E-2,2.291648388E-1
3.166001267E0,-1.304948032E-1,-6.258423906E-3,2.334259003E-1
3.168488976E0,-1.326253265E-1,4.394212738E-3,2.366216928E-1
3.170976684E0,-1.358211190E-1,1.504684892E-2,2.408827394E-1
3.173464392E0,-1.379516423E-1,2.569948509E-2,2.440785319E-1
3.175952101E0,-1.422126889E-1,3.635212034E-2,2.483395934E-1
3.178439809E0,-1.464737505E-1,4.700475931E-2,2.504701018E-1
3.180927517E0,-1.507348120E-1,5.446160212E-2,2.536658943E-1
3.183415226E0,-1.560611278E-1,6.191844866E-2,2.557964325E-1
3.185902934E0,-1.613874435E-1,6.617950648E-2,2.568616867E-1
3.188390642E0,-1.688442826E-1,6.937529147E-2,2.579269707E-1
3.190878351E0,-1.773663908E-1,7.150582224E-2,2.579269707E-1
3.193366059E0,-1.869537681E-1,7.150582224E-2,2.589922249E-1
3.195853767E0,-1.976063997E-1,7.044056058E-2,2.621880174E-1
3.198341476E0,-2.093243003E-1,6.937529147E-2,2.643185556E-1
3.200829184E0,-2.221074700E-1,6.724476814E-2,2.685796022E-1
3.203316892E0,-2.370211631E-1,6.404897571E-2,2.728406489E-1
3.205804601E0,-2.530001104E-1,6.085318699E-2,2.771016955E-1
3.208292309E0,-2.700443268E-1,5.765739456E-2,2.813627720E-1
3.210780017E0,-2.892190814E-1,5.446160212E-2,2.866890728E-1
3.213267726E0,-3.073285520E-1,5.126581341E-2,2.920154035E-1
3.215755434E0,-3.275685608E-1,4.807002097E-2,2.962764502E-1
3.218243142E0,-3.478085697E-1,4.380896688E-2,2.994722426E-1
3.220730851E0,-3.712443709E-1,4.061317816E-2,3.037332892E-1
3.223218559E0,-3.936149180E-1,3.741738573E-2,3.079943359E-1
3.225706267E0,-4.181159735E-1,3.528685868E-2,3.111901283E-1
3.228193976E0,-4.404865205E-1,3.422159329E-2,3.154512048E-1
3.230681684E0,-4.617917836E-1,3.315633163E-2,3.197122514E-1
3.233169392E0,-4.820317924E-1,3.315633163E-2,3.229080439E-1
3.235657101E0,-5.001412630E-1,3.209106624E-2,3.271690905E-1
3.238144861E0,-5.161202550E-1,3.315633163E-2,3.282343447E-1
3.240632622E0,-5.320991874E-1,3.422159329E-2,3.303648829E-1
3.243120382E0,-5.470128655E-1,3.528685868E-2,3.292996287E-1
3.245608142E0,-5.608612895E-1,3.635212034E-2,3.271690905E-1
3.248095903E0,-5.725792050E-1,3.741738573E-2,3.239732981E-1
3.250583663E0,-5.842971206E-1,3.741738573E-2,3.207775056E-1
3.253071424E0,-5.928192139E-1,3.848264739E-2,3.175817132E-1
3.255559184E0,-6.013413072E-1,3.954791278E-2,3.133206666E-1
3.258046945E0,-6.087981462E-1,3.954791278E-2,3.079943359E-1
3.260534705E0,-6.151897311E-1,4.061317816E-2,3.047985733E-1
3.263022465E0,-6.215813160E-1,4.274370521E-2,3.016027808E-1
3.265510226E0,-6.269076467E-1,4.593949392E-2,2.984069884E-1
3.267997986E0,-6.332992315E-1,4.913528636E-2,2.962764502E-1
3.270485747E0,-6.375603080E-1,5.339634046E-2,2.952111959E-1
3.272973507E0,-6.418213248E-1,5.978792161E-2,2.962764502E-1
3.275461267E0,-6.428865790E-1,6.511423737E-2,2.973417044E-1
3.277949028E0,-6.428865790E-1,7.044056058E-2,3.005374968E-1
3.280436788E0,-6.418213248E-1,7.683213800E-2,3.058638275E-1
3.282924549E0,-6.386255622E-1,8.322372288E-2,3.111901283E-1
3.285412309E0,-6.322339773E-1,8.855003864E-2,3.165164590E-1
3.287900070E0,-6.237118840E-1,9.387636185E-2,3.229080439E-1
3.290387830E0,-6.130592227E-1,9.813741595E-2,3.303648829E-1
3.292875590E0,-6.002760530E-1,1.023984700E-1,3.367564678E-1
3.295363351E0,-5.864276290E-1,1.077247858E-1,3.410175145E-1
3.297851111E0,-5.715139508E-1,1.130511016E-1,3.463438451E-1
3.300338872E0,-5.544697046E-1,1.173121557E-1,3.495396376E-1
3.302826632E0,-5.374255180E-1,1.215732098E-1,3.527354300E-1
3.305314392E0,-5.193160176E-1,1.237037405E-1,3.559312224E-1
3.307802153E0,-5.012065172E-1,1.247690022E-1,3.569964767E-1
3.310289913E0,-4.830970466E-1,1.247690022E-1,3.591270149E-1
3.312777674E0,-4.660528302E-1,1.237037405E-1,3.601922691E-1
3.315265434E0,-4.511391521E-1,1.226384789E-1,3.623228073E-1
3.317753195E0,-4.372907281E-1,1.205079481E-1,3.623228073E-1
3.320240955E0,-4.255728126E-1,1.194426864E-1,3.623228073E-1
3.322728715E0,-4.149201810E-1,1.194426864E-1,3.612575233E-1
3.325216476E0,-4.085285962E-1,1.194426864E-1,3.601922691E-1
3.327704236E0,-4.021370113E-1,1.205079481E-1,3.569964767E-1
3.330191997E0,-3.968107104E-1,1.226384789E-1,3.538006842E-1
3.332679757E0,-3.936149180E-1,1.237037405E-1,3.506048918E-1
3.335167517E0,-3.925496638E-1,1.237037405E-1,3.463438451E-1
3.337655278E0,-3.914843798E-1,1.237037405E-1,3.431480527E-1
3.340143038E0,-3.925496638E-1,1.237037405E-1,3.388870060E-1
3.342630799E0,-3.946801722E-1,1.226384789E-1,3.346259296E-1
3.345118559E0,-3.978759646E-1,1.226384789E-1,3.303648829E-1
3.347606320E0,-4.010717571E-1,1.226384789E-1,3.261038363E-1
3.350094080E0,-4.053328037E-1,1.226384789E-1,3.218427896E-1
3.352581840E0,-4.095938802E-1,1.247690022E-1,3.175817132E-1
3.355069601E0,-4.138549268E-1,1.290300637E-1,3.122554123E-1
3.357557361E0,-4.181159735E-1,1.343563795E-1,3.079943359E-1
3.360045122E0,-4.213117659E-1,1.407479644E-1,3.026680350E-1
3.362532882E0,-4.234423041E-1,1.471395344E-1,2.984069884E-1
3.365020642E0,-4.245075583E-1,1.524658650E-1,2.930806577E-1
3.367508403E0,-4.223770201E-1,1.567269117E-1,2.877543271E-1
3.369996163E0,-4.202465117E-1,1.609879732E-1,2.802974880E-1
3.372483924E0,-4.159854650E-1,1.641837656E-1,2.728406489E-1
3.374971684E0,-4.095938802E-1,1.684448123E-1,2.653838098E-1
3.377459445E0,-4.021370113E-1,1.737711281E-1,2.557964325E-1
3.379947205E0,-3.946801722E-1,1.812279820E-1,2.462090552E-1
3.382434965E0,-3.861580789E-1,1.897500902E-1,2.355564237E-1
3.384922726E0,-3.755054474E-1,1.993374527E-1,2.249037921E-1
3.387410486E0,-3.659180701E-1,2.089248300E-1,2.142511457E-1
3.389898247E0,-3.542001545E-1,2.174469382E-1,2.035985142E-1
3.392386007E0,-3.424822688E-1,2.249037921E-1,1.961416751E-1
3.394873767E0,-3.307643533E-1,2.302301079E-1,1.876195520E-1
3.397361528E0,-3.179811835E-1,2.334259003E-1,1.812279820E-1
3.399849288E0,-3.041327596E-1,2.344911546E-1,1.759016514E-1
3.402337049E0,-2.902843356E-1,2.355564237E-1,1.705753356E-1
3.404824809E0,-2.785664499E-1,2.344911546E-1,1.663142890E-1
3.407312570E0,-2.668485343E-1,2.334259003E-1,1.620532274E-1
3.409800330E0,-2.572611570E-1,2.323606312E-1,1.588574350E-1
3.412288090E0,-2.476737946E-1,2.302301079E-1,1.556616426E-1
3.414775851E0,-2.402169555E-1,2.291648388E-1,1.514005959E-1
3.417263611E0,-2.348906398E-1,2.302301079E-1,1.492700726E-1
3.419751372E0,-2.306295782E-1,2.323606312E-1,1.460742801E-1
3.422239132E0,-2.295643091E-1,2.376869470E-1,1.450090110E-1
3.424726892E0,-2.338253707E-1,2.451438010E-1,1.450090110E-1
3.427214653E0,-2.412822098E-1,2.536658943E-1,1.460742801E-1
3.429702413E0,-2.551306486E-1,2.653838098E-1,1.471395344E-1
3.432190174E0,-2.743053734E-1,2.781669796E-1,1.503353268E-1
3.434677934E0,-2.966759205E-1,2.920154035E-1,1.545963883E-1
3.437165695E0,-3.243727684E-1,3.058638275E-1,1.599227041E-1
3.439653403E0,-3.552654386E-1,3.229080439E-1,1.663142890E-1
3.442141111E0,-3.893538713E-1,3.410175145E-1,1.727058738E-1
3.444628820E0,-4.266380966E-1,3.601922691E-1,1.790974438E-1
3.447116528E0,-4.649875760E-1,3.793670237E-1,1.865542978E-1
3.449604236E0,-5.054675937E-1,3.996070325E-1,1.950764060E-1
3.452091945E0,-5.427518487E-1,4.198470414E-1,2.025332451E-1
3.454579653E0,-5.800360441E-1,4.400870502E-1,2.089248300E-1
3.457067361E0,-6.141244769E-1,4.592617750E-1,2.142511457E-1
3.459555070E0,-6.439518929E-1,4.763059914E-1,2.163816839E-1
3.462042778E0,-6.695181727E-1,4.912196994E-1,2.185122073E-1
3.464530486E0,-6.886929274E-1,5.040028691E-1,2.185122073E-1
3.467018195E0,-7.014760971E-1,5.146554708E-1,2.153164148E-1
3.469505903E0,-7.078676820E-1,5.231776237E-1,2.099900991E-1
3.471993611E0,-7.089329362E-1,5.295692086E-1,2.035985142E-1
3.474481320E0,-7.046719193E-1,5.338302255E-1,1.950764060E-1
3.476969028E0,-6.929540038E-1,5.370260477E-1,1.833585054E-1
3.479456736E0,-6.759097576E-1,5.380913019E-1,1.695100814E-1
3.481944445E0,-6.514087319E-1,5.370260477E-1,1.545963883E-1
3.484432153E0,-6.215813160E-1,5.359607935E-1,1.375521719E-1
3.486919861E0,-5.853623748E-1,5.338302255E-1,1.205079481E-1
3.489407570E0,-5.448823571E-1,5.306344628E-1,1.013332009E-1
3.491895278E0,-5.001412630E-1,5.274386406E-1,8.322372288E-2
3.494382986E0,-4.532696903E-1,5.231776237E-1,6.617950648E-2
3.496870695E0,-4.042675495E-1,5.189165473E-1,5.020054802E-2
3.499358403E0,-3.542001545E-1,5.146554708E-1,3.635212034E-2
3.501846111E0,-3.041327596E-1,5.114597082E-1,2.569948509E-2
3.504333820E0,-2.551306486E-1,5.071986318E-1,1.717737690E-2
3.506821528E0,-2.071937770E-1,5.018723607E-1,1.078579482E-2
3.509309236E0,-1.624527127E-1,4.976112843E-1,6.524739787E-3
3.511796945E0,-1.209074259E-1,4.901544452E-1,4.394212738E-3
3.514284653E0,-8.362319320E-2,4.837628603E-1,4.394212738E-3
3.516772361E0,-5.060002208E-2,4.763059914E-1,4.394212738E-3
3.519260070E0,-2.077264152E-2,4.699144363E-1,6.524739787E-3
3.521747778E0,1.597895520E-3,4.656533599E-1,9.720530361E-3
3.524235486E0,1.970737800E-2,4.645881057E-1,1.398158539E-2
3.526723247E0,3.142527863E-2,4.656533599E-1,1.717737690E-2
3.529211007E0,3.781685978E-2,4.709796906E-1,2.037316747E-2
3.531698767E0,3.888212144E-2,4.773712754E-1,2.356895804E-2
3.534186528E0,3.462106735E-2,4.869586527E-1,2.676474862E-2
3.536674288E0,2.503369562E-2,4.965460002E-1,2.889527567E-2
3.539162049E0,1.225053146E-2,5.071986318E-1,2.996053919E-2
3.541649809E0,-3.728422802E-3,5.189165473E-1,2.996053919E-2
3.544137570E0,-2.077264152E-2,5.295692086E-1,2.783001214E-2
3.546625330E0,-3.994738683E-2,5.423523784E-1,2.569948509E-2
3.549113090E0,-5.805686861E-2,5.562008023E-1,2.143843099E-2
3.551600851E0,-7.510108501E-2,5.689839721E-1,1.611211337E-2
3.554088611E0,-9.108003974E-2,5.785713196E-1,1.078579482E-2
3.556576372E0,-1.059937328E-1,5.881586671E-1,2.263685223E-3
3.559064132E0,-1.198421568E-1,5.945502520E-1,-6.258423906E-3
3.561551892E0,-1.326253265E-1,5.966808200E-1,-1.691105962E-2
3.564039653E0,-1.432779580E-1,5.977460742E-1,-2.756369673E-2
3.566527413E0,-1.518000662E-1,5.945502520E-1,-3.928159550E-2
3.569015174E0,-1.592569202E-1,5.902892351E-1,-5.099949613E-2
3.571502934E0,-1.656484902E-1,5.838976502E-1,-6.378266215E-2
3.573990695E0,-1.699095517E-1,5.764408112E-1,-7.656582445E-2
3.576478455E0,-1.731053442E-1,5.679186583E-1,-8.721846342E-2
3.578966215E0,-1.752358675E-1,5.593965650E-1,-9.787109494E-2
3.581453976E0,-1.773663908E-1,5.508744717E-1,-1.074584723E-1
3.583941736E0,-1.773663908E-1,5.434176326E-1,-1.170458421E-1
3.586429497E0,-1.763011366E-1,5.359607935E-1,-1.255679578E-1
3.588917257E0,-1.741705984E-1,5.295692086E-1,-1.330247968E-1
3.591405017E0,-1.699095517E-1,5.253081322E-1,-1.404816359E-1
3.593892778E0,-1.645832360E-1,5.221123695E-1,-1.468732208E-1
3.596380538E0,-1.581916511E-1,5.231776237E-1,-1.511342824E-1
3.598868299E0,-1.507348120E-1,5.263733864E-1,-1.521995366E-1
3.601356059E0,-1.411474347E-1,5.316997170E-1,-1.511342824E-1
3.603843820E0,-1.315600574E-1,5.380913019E-1,-1.490037590E-1
3.606331580E0,-1.219726875E-1,5.466133952E-1,-1.458079666E-1
3.608819340E0,-1.123853177E-1,5.562008023E-1,-1.436774284E-1
3.611307101E0,-1.027979404E-1,5.636576414E-1,-1.415469050E-1
3.613794861E0,-9.321057051E-2,5.721797347E-1,-1.404816359E-1
3.616282622E0,-8.681898564E-2,5.807018280E-1,-1.404816359E-1
3.618770382E0,-8.149266988E-2,5.892239809E-1,-1.415469050E-1
3.621258142E0,-7.936213911E-2,5.988113284E-1,-1.436774284E-1
3.623745903E0,-8.042740822E-2,6.062681675E-1,-1.468732208E-1
3.626233663E0,-8.362319320E-2,6.137250066E-1,-1.521995366E-1
3.628721424E0,-9.001477808E-2,6.201165915E-1,-1.596563905E-1
3.631209184E0,-9.960214794E-2,6.233124137E-1,-1.692437679E-1
3.633696945E0,-1.123853177E-1,6.254429221E-1,-1.809616536E-1
3.636184705E0,-1.283642650E-1,6.275734305E-1,-1.948100924E-1
3.638672465E0,-1.475390196E-1,6.297039986E-1,-2.107890397E-1
3.641160226E0,-1.677790284E-1,6.307692528E-1,-2.267680019E-1
3.643647986E0,-1.912148297E-1,6.318345070E-1,-2.448774725E-1
3.646135747E0,-2.178464085E-1,6.350302696E-1,-2.597911656E-1
3.648623507E0,-2.444780022E-1,6.403566003E-1,-2.736395895E-1
3.651111267E0,-2.721748650E-1,6.467481852E-1,-2.832269669E-1
3.653599028E0,-2.998717129E-1,6.563355327E-1,-2.896185517E-1
3.656086788E0,-3.275685608E-1,6.669881940E-1,-2.917490900E-1
3.658574549E0,-3.531349003E-1,6.797713637E-1,-2.917490900E-1
3.661062309E0,-3.787012100E-1,6.914892793E-1,-2.874880135E-1
3.663550070E0,-4.032022953E-1,7.053377032E-1,-2.800311744E-1
3.666037830E0,-4.287686050E-1,7.191861272E-1,-2.704437971E-1
3.668525590E0,-4.532696903E-1,7.330345511E-1,-2.597911656E-1
3.671013351E0,-4.788360000E-1,7.479482293E-1,-2.480732650E-1
3.673501111E0,-5.044023395E-1,7.607313991E-1,-2.363553643E-1
3.675988872E0,-5.289034247E-1,7.745798230E-1,-2.246374637E-1
3.678476632E0,-5.534044504E-1,7.873629928E-1,-2.150501013E-1
3.680964392E0,-5.757750273E-1,7.980156541E-1,-2.086585164E-1
3.683452153E0,-5.970802903E-1,8.065377474E-1,-2.043974549E-1
3.685939913E0,-6.141244769E-1,8.129293323E-1,-2.033322006E-1
3.688427674E0,-6.279729009E-1,8.171903491E-1,-2.054627240E-1
3.690915434E0,-6.354297400E-1,8.193209171E-1,-2.075932473E-1
3.693403195E0,-6.386255622E-1,8.171903491E-1,-2.107890397E-1
3.695890955E0,-6.354297400E-1,8.139945865E-1,-2.150501013E-1
3.698378715E0,-6.247771382E-1,8.076030016E-1,-2.203764170E-1
3.700866476E0,-6.087981462E-1,8.012114167E-1,-2.257027328E-1
3.703354236E0,-5.864276290E-1,7.926893234E-1,-2.288985252E-1
3.705841997E0,-5.576655269E-1,7.841671705E-1,-2.331595868E-1
3.708329757E0,-5.235770941E-1,7.756450772E-1,-2.352901101E-1
3.710817517E0,-4.841623306E-1,7.660577297E-1,-2.384859025E-1
3.713305278E0,-4.415517747E-1,7.575356364E-1,-2.416816950E-1
3.715793038E0,-3.957454562E-1,7.490134835E-1,-2.438122183E-1
3.718280799E0,-3.488738537E-1,7.404913902E-1,-2.470080107E-1
3.720768559E0,-3.020022511E-1,7.309040427E-1,-2.523343265E-1
3.723256320E0,-2.551306486E-1,7.213166356E-1,-2.597911656E-1
3.725744080E0,-2.125200927E-1,7.138597965E-1,-2.693785429E-1
3.728231840E0,-1.752358675E-1,7.106640339E-1,-2.821617126E-1
3.730719601E0,-1.411474347E-1,7.106640339E-1,-2.960101366E-1
3.733207361E0,-1.145158410E-1,7.127945423E-1,-3.119890988E-1
3.735695122E0,-9.214530140E-2,7.170555592E-1,-3.300985694E-1
3.738182882E0,-7.616634667E-2,7.234471440E-1,-3.492733240E-1
3.740670590E0,-6.657897681E-2,7.309040427E-1,-3.684480488E-1
3.743158299E0,-6.338318437E-2,7.383608818E-1,-3.876228034E-1
3.745646007E0,-6.870950758E-2,7.447524667E-1,-4.067975581E-1
3.748133715E0,-8.149266988E-2,7.522093058E-1,-4.249070287E-1
3.750621424E0,-1.006674170E-1,7.596661448E-1,-4.419512451E-1
3.753109132E0,-1.272990108E-1,7.660577297E-1,-4.589954615E-1
3.755596840E0,-1.603221744E-1,7.703187466E-1,-4.749744236E-1
3.758084549E0,-1.976063997E-1,7.713840604E-1,-4.909533858E-1
3.760572257E0,-2.391516864E-1,7.681882381E-1,-5.090628862E-1
3.763059965E0,-2.838927507E-1,7.639271617E-1,-5.271723270E-1
3.765547674E0,-3.318296373E-1,7.554050684E-1,-5.463470817E-1
3.768035382E0,-3.808317482E-1,7.447524667E-1,-5.665870905E-1
3.770523090E0,-4.308991432E-1,7.330345511E-1,-5.878923535E-1
3.773010799E0,-4.799012840E-1,7.202513814E-1,-6.102629304E-1
3.775498507E0,-5.267728567E-1,7.053377032E-1,-6.326334476E-1
3.777986215E0,-5.683181286E-1,6.893587112E-1,-6.550039649E-1
3.780473924E0,-6.034718752E-1,6.712492704E-1,-6.752439737E-1
3.782961632E0,-6.279729009E-1,6.520745158E-1,-6.954839826E-1
3.785449340E0,-6.439518929E-1,6.297039986E-1,-7.135934830E-1
3.787937049E0,-6.492781639E-1,6.062681675E-1,-7.306377292E-1
3.790424757E0,-6.460824013E-1,5.807018280E-1,-7.455514073E-1
3.792912465E0,-6.332992315E-1,5.508744717E-1,-7.604650855E-1
3.795400174E0,-6.141244769E-1,5.199818015E-1,-7.721830010E-1
3.797887882E0,-5.874928832E-1,4.869586527E-1,-7.817703485E-1
3.800375590E0,-5.555350184E-1,4.528702199E-1,-7.892271876E-1
3.802863299E0,-5.193160176E-1,4.177165031E-1,-7.924230099E-1
3.805351007E0,-4.777707458E-1,3.814975321E-1,-7.924230099E-1
3.807838715E0,-4.330296814E-1,3.442133069E-1,-7.892271876E-1
3.810326424E0,-3.850927949E-1,3.047985733E-1,-7.807050943E-1
3.812814132E0,-3.339601457E-1,2.643185556E-1,-7.711177468E-1
3.815301840E0,-2.817622423E-1,2.249037921E-1,-7.572692633E-1
3.817789549E0,-2.284990549E-1,1.876195520E-1,-7.412903309E-1
3.820277257E0,-1.741705984E-1,1.535311192E-1,-7.263766527E-1
3.822764965E0,-1.209074259E-1,1.237037405E-1,-7.125282288E-1
3.825252674E0,-6.870950758E-2,9.707214683E-2,-7.008103132E-1
3.827740434E0,-1.864211448E-2,7.257108390E-2,-6.912229657E-1
3.830228195E0,2.929474972E-2,4.913528636E-2,-6.837661266E-1
3.832715955E0,7.297056168E-2,2.783001214E-2,-6.784397960E-1
3.835203715E0,1.113200486E-1,9.720530361E-3,-6.763092279E-1
3.837691476E0,1.432779580E-1,-5.193160381E-3,-6.773745418E-1
3.840179236E0,1.677790284E-1,-1.797632314E-2,-6.784397960E-1
3.842666997E0,1.837579757E-1,-2.649843320E-2,-6.795050502E-1
3.845154757E0,1.912148297E-1,-2.969422378E-2,-6.805703044E-1
3.847642517E0,1.901495606E-1,-2.862896025E-2,-6.805703044E-1
3.850130278E0,1.784316599E-1,-2.010685205E-2,-6.784397960E-1
3.852618038E0,1.581916511E-1,-7.323687430E-3,-6.752439737E-1
3.855105799E0,1.272990108E-1,1.078579482E-2,-6.720482111E-1
3.857593559E0,8.575372398E-2,2.996053919E-2,-6.656566262E-1
3.860081320E0,3.355580568E-2,5.020054802E-2,-6.581997871E-1
3.862569080E0,-2.929474972E-2,6.937529147E-2,-6.518082023E-1
3.865056840E0,-1.027979404E-1,8.641951531E-2,-6.454166174E-1
3.867544601E0,-1.837579757E-1,9.920267761E-2,-6.422207952E-1
3.870032361E0,-2.711096108E-1,1.098553166E-1,-6.411555409E-1
3.872520122E0,-3.637875319E-1,1.141163707E-1,-6.432861090E-1
3.875007882E0,-4.564654827E-1,1.130511016E-1,-6.486123800E-1
3.877495642E0,-5.502086878E-1,1.055942550E-1,-6.560692191E-1
3.879983403E0,-6.418213248E-1,9.387636185E-2,-6.688523889E-1
3.882471163E0,-7.270424366E-1,7.789740711E-2,-6.848313808E-1
3.884958924E0,-8.069372177E-1,5.978792161E-2,-7.040061355E-1
3.887446684E0,-8.783098459E-1,3.848264739E-2,-7.263766527E-1
3.889934445E0,-9.390298724E-1,1.717737690E-2,-7.508777380E-1
3.892422205E0,-9.890972972E-1,-6.258423906E-3,-7.743135095E-1
3.894909965E0,-1.028512001E0,-3.075948730E-2,-7.956187725E-1
3.897397726E0,-1.056208849E0,-5.632581562E-2,-8.137282729E-1
3.899885486E0,-1.073253155E0,-8.402267098E-2,-8.286419511E-1
3.902373247E0,-1.079644680E0,-1.127847880E-1,-8.403598666E-1
3.904861007E0,-1.078579426E0,-1.415469050E-1,-8.499472141E-1
3.907348767E0,-1.068992019E0,-1.681784987E-1,-8.584693074E-1
3.909836528E0,-1.053013086E0,-1.937448233E-1,-8.669914603E-1
3.912324288E0,-1.031707883E0,-2.171806246E-1,-8.765788078E-1
3.914812049E0,-1.005076289E0,-2.374206334E-1,-8.861662149E-1
3.917299809E0,-9.752488732E-1,-2.555301189E-1,-8.968188167E-1
3.919787570E0,-9.432909489E-1,-2.715090811E-1,-9.074714780E-1
3.922275330E0,-9.102677703E-1,-2.842922211E-1,-9.159935713E-1
3.924763090E0,-8.761793375E-1,-2.949448824E-1,-9.245156646E-1
3.927250851E0,-8.420909047E-1,-3.045322299E-1,-9.330378175E-1
3.929738611E0,-8.090677261E-1,-3.130543530E-1,-9.383640885E-1
3.932226372E0,-7.781751156E-1,-3.237069845E-1,-9.447556734E-1
3.934714132E0,-7.494129539E-1,-3.354249001E-1,-9.490167499E-1
3.937201892E0,-7.227813601E-1,-3.503385782E-1,-9.522125125E-1
3.939689653E0,-6.993455887E-1,-3.695133328E-1,-9.543430805E-1
3.942177413E0,-6.791055799E-1,-3.908185959E-1,-9.554083347E-1
3.944665174E0,-6.588655710E-1,-4.153196514E-1,-9.554083347E-1
3.947152934E0,-6.386255622E-1,-4.440817833E-1,-9.522125125E-1
3.949640695E0,-6.183855534E-1,-4.749744236E-1,-9.468862414E-1
3.952128455E0,-5.949497223E-1,-5.090628862E-1,-9.404946566E-1
3.954616215E0,-5.693834424E-1,-5.442165732E-1,-9.341030717E-1
3.957103976E0,-5.416865349E-1,-5.815007687E-1,-9.266462326E-1
3.959591736E0,-5.097286701E-1,-6.187850237E-1,-9.202546477E-1
3.962079497E0,-4.767054915E-1,-6.550039649E-1,-9.138630629E-1
3.964567257E0,-4.394212663E-1,-6.901576519E-1,-9.074714780E-1
3.967055017E0,-3.989412189E-1,-7.221155763E-1,-8.978840709E-1
3.969542778E0,-3.552654386E-1,-7.519429922E-1,-8.861662149E-1
3.972030538E0,-3.083938360E-1,-7.796398401E-1,-8.712524772E-1
3.974518299E0,-2.604569495E-1,-8.030756116E-1,-8.552735448E-1
3.977006059E0,-2.135853618E-1,-8.222503662E-1,-8.360987902E-1
3.979493820E0,-1.656484902E-1,-8.360987902E-1,-8.169240355E-1
3.981981580E0,-1.198421568E-1,-8.446208835E-1,-7.966840267E-1
3.984469340E0,-7.616634667E-2,-8.478167057E-1,-7.753787637E-1
3.986957101E0,-3.249054030E-2,-8.435556293E-1,-7.551387548E-1
3.989444861E0,9.054740891E-3,-8.339682817E-1,-7.348987460E-1
3.991932622E0,4.953476042E-2,-8.179892898E-1,-7.157239914E-1
3.994420382E0,8.468846232E-2,-7.977492809E-1,-6.965492368E-1
3.996908142E0,1.155811027E-1,-7.711177468E-1,-6.795050502E-1
3.999395903E0,1.390169114E-1,-7.412903309E-1,-6.603302956E-1
4.001883663E0,1.549958587E-1,-7.072018981E-1,-6.432861090E-1
4.004371424E0,1.635179669E-1,-6.667218804E-1,-6.251766086E-1
4.006859184E0,1.603221744E-1,-6.219807863E-1,-6.102629304E-1
4.009346945E0,1.475390196E-1,-5.740439296E-1,-5.953491926E-1
4.011834705E0,1.230379492E-1,-5.239765644E-1,-5.846965909E-1
4.014322465E0,9.001477808E-2,-4.728438854E-1,-5.761744976E-1
4.016810226E0,4.740423337E-2,-4.227765203E-1,-5.687175989E-1
4.019297986E0,-2.663159044E-3,-3.759049177E-1,-5.591302514E-1
4.021785747E0,-5.805686861E-2,-3.332943618E-1,-5.474123359E-1
4.024273507E0,-1.198421568E-1,-2.960101366E-1,-5.324986577E-1
4.026761267E0,-1.826927215E-1,-2.651174963E-1,-5.122586489E-1
4.029249028E0,-2.487390637E-1,-2.395511568E-1,-4.866923392E-1
4.031736788E0,-3.137201369E-1,-2.203764170E-1,-4.568649530E-1
4.034224549E0,-3.755054474E-1,-2.075932473E-1,-4.227765203E-1
4.036712309E0,-4.319643974E-1,-2.012016773E-1,-3.833617568E-1
4.039200070E0,-4.799012840E-1,-2.001364082E-1,-3.407512009E-1
4.041687778E0,-5.193160176E-1,-2.022669315E-1,-2.949448824E-1
4.044175486E0,-5.480781198E-1,-2.065279931E-1,-2.491385341E-1
4.046663195E0,-5.651223660E-1,-2.107890397E-1,-2.022669315E-1
4.049150903E0,-5.693834424E-1,-2.139848322E-1,-1.543300748E-1
4.051638611E0,-5.619265437E-1,-2.139848322E-1,-1.053279415E-1
4.054126320E0,-5.384907722E-1,-2.129195631E-1,-5.632581562E-2
4.056614028E0,-5.033370852E-1,-2.097237855E-1,-6.258423906E-3
4.059101736E0,-4.554001987E-1,-2.065279931E-1,4.380896688E-2
4.061589445E0,-3.989412189E-1,-2.022669315E-1,9.281109273E-2
4.064077153E0,-3.350254297E-1,-1.958753467E-1,1.396826953E-1
4.066564861E0,-2.657832801E-1,-1.894837767E-1,1.844237745E-1
4.069052570E0,-1.933453530E-1,-1.809616536E-1,2.249037921E-1
4.071540278E0,-1.198421568E-1,-1.713742912E-1,2.611227632E-1
4.074027986E0,-4.846949503E-2,-1.575258672E-1,2.909501195E-1
4.076515695E0,1.864211448E-2,-1.404816359E-1,3.143859208E-1
4.079003403E0,7.936213911E-2,-1.213068962E-1,3.314301372E-1
4.081491111E0,1.326253265E-1,-1.000016257E-1,3.420827985E-1
4.083978820E0,1.773663908E-1,-7.976161689E-2,3.463438451E-1
4.086466528E0,2.114548385E-1,-6.271740049E-2,3.452785909E-1
4.088954236E0,2.338253707E-1,-4.886896908E-2,3.399522603E-1
4.091441945E0,2.466085255E-1,-3.928159550E-2,3.303648829E-1
4.093929653E0,2.466085255E-1,-3.395527974E-2,3.197122514E-1
4.096417361E0,2.359558940E-1,-3.075948730E-2,3.058638275E-1
4.098905070E0,2.157158852E-1,-2.862896025E-2,2.898848653E-1
4.101392778E0,1.858884990E-1,-2.436790615E-2,2.717753947E-1
4.103880486E0,1.507348120E-1,-2.010685205E-2,2.515353858E-1
4.106368195E0,1.091895252E-1,-1.478053257E-2,2.312953621E-1
4.108855903E0,6.657897681E-2,-8.388951421E-3,2.121206224E-1
4.111343611E0,2.396843210E-2,-9.321057005E-4,1.961416751E-1
4.113831320E0,-1.757685095E-2,8.655266836E-3,1.833585054E-1
4.116319028E0,-5.592634156E-2,1.930790395E-2,1.769669205E-1
4.118806736E0,-9.001477808E-2,3.209106624E-2,1.737711281E-1
4.121294445E0,-1.187768951E-1,4.807002097E-2,1.769669205E-1
4.123782153E0,-1.422126889E-1,6.724476814E-2,1.822932363E-1
4.126269913E0,-1.603221744E-1,9.174583107E-2,1.908153445E-1
4.128757674E0,-1.741705984E-1,1.194426864E-1,2.004027218E-1
4.131245434E0,-1.826927215E-1,1.492700726E-1,2.110553533E-1
4.133733195E0,-1.858884990E-1,1.812279820E-1,2.206427306E-1
4.136220955E0,-1.848232448E-1,2.131858915E-1,2.302301079E-1
4.138708715E0,-1.805621833E-1,2.451438010E-1,2.387522161E-1
4.141196476E0,-1.731053442E-1,2.739059031E-1,2.483395934E-1
4.143684236E0,-1.624527127E-1,2.994722426E-1,2.568616867E-1
4.146171997E0,-1.496695429E-1,3.207775056E-1,2.664490640E-1
4.148659757E0,-1.336905807E-1,3.378217220E-1,2.728406489E-1
4.151147517E0,-1.166463718E-1,3.506048918E-1,2.781669796E-1
4.153635278E0,-9.853688627E-2,3.601922691E-1,2.813627720E-1
4.156123038E0,-8.149266988E-2,3.676491082E-1,2.792322338E-1
4.158610799E0,-6.551371515E-2,3.729754388E-1,2.749711871E-1
4.161098559E0,-5.060002208E-2,3.761712313E-1,2.664490640E-1
4.163586320E0,-3.994738683E-2,3.783017397E-1,2.579269707E-1
4.166074080E0,-3.142527863E-2,3.793670237E-1,2.472743243E-1
4.168561840E0,-2.822948620E-2,3.772364855E-1,2.355564237E-1
4.171049601E0,-2.929474972E-2,3.751059473E-1,2.227732539E-1
4.173537361E0,-3.568633273E-2,3.687143922E-1,2.089248300E-1
4.176025122E0,-4.740423337E-2,3.580617309E-1,1.982721984E-1
4.178512882E0,-6.338318437E-2,3.431480527E-1,1.876195520E-1
4.181000642E0,-8.468846232E-2,3.239732981E-1,1.769669205E-1
4.183488403E0,-1.102547869E-1,3.005374968E-1,1.684448123E-1
4.185976163E0,-1.379516423E-1,2.739059031E-1,1.609879732E-1
4.188463924E0,-1.667137593E-1,2.430132627E-1,1.535311192E-1
4.190951684E0,-1.954758763E-1,2.089248300E-1,1.460742801E-1
4.193439445E0,-2.221074700E-1,1.716406047E-1,1.407479644E-1
4.195927205E0,-2.455432713E-1,1.332911104E-1,1.364869028E-1
4.198414965E0,-2.636527419E-1,9.600688517E-2,1.332911104E-1
4.200902726E0,-2.764359117E-1,5.872265995E-2,1.332911104E-1
4.203390486E0,-2.817622423E-1,2.676474862E-2,1.343563795E-1
4.205878247E0,-2.785664499E-1,1.331579551E-4,1.396826953E-1
4.208366007E0,-2.647180259E-1,-2.117211558E-2,1.460742801E-1
4.210853767E0,-2.412822098E-1,-3.608580679E-2,1.545963883E-1
4.213341528E0,-2.082590461E-1,-4.567318037E-2,1.641837656E-1
4.215829288E0,-1.656484902E-1,-5.099949613E-2,1.737711281E-1
4.218317049E0,-1.155811027E-1,-5.313002318E-2,1.844237745E-1
4.220804809E0,-6.125266105E-2,-5.099949613E-2,1.940111369E-1
4.223292570E0,-2.663159044E-3,-4.567318037E-2,2.025332451E-1
4.225780330E0,5.805686861E-2,-3.608580679E-2,2.110553533E-1
4.228268090E0,1.187768951E-1,-2.543316968E-2,2.174469382E-1
4.230755851E0,1.773663908E-1,-1.265000552E-2,2.249037921E-1
4.233243611E0,2.316948473E-1,1.198421582E-3,2.312953621E-1
4.235731372E0,2.806969583E-1,1.824264042E-2,2.366216928E-1
4.238219132E0,3.201117218E-1,3.422159329E-2,2.419480085E-1
4.240706892E0,3.510043621E-1,5.020054802E-2,2.462090552E-1
4.243194653E0,3.712443709E-1,6.404897571E-2,2.494048476E-1
4.245682413E0,3.808317482E-1,7.470161468E-2,2.515353858E-1
4.248170174E0,3.808317482E-1,8.215846121E-2,2.515353858E-1
4.250657934E0,3.701791167E-1,8.641951531E-2,2.536658943E-1
4.253145695E0,3.499391079E-1,8.641951531E-2,2.547311783E-1
4.255633455E0,3.211769760E-1,8.215846121E-2,2.568616867E-1
4.258121215E0,2.838927507E-1,7.576687634E-2,2.600574791E-1
4.260608976E0,2.402169555E-1,6.511423737E-2,2.653838098E-1
4.263096736E0,1.922800839E-1,5.446160212E-2,2.717753947E-1
4.265584497E0,1.411474347E-1,4.167843983E-2,2.781669796E-1
4.268072257E0,8.681898564E-2,2.889527567E-2,2.866890728E-1
4.270560017E0,3.462106735E-2,1.611211337E-2,2.941459119E-1
4.273047778E0,-1.757685095E-2,3.328948980E-3,3.026680350E-1
4.275535538E0,-6.657897681E-2,-9.454214945E-3,3.111901283E-1
4.278023299E0,-1.102547869E-1,-2.330264263E-2,3.197122514E-1
4.280511059E0,-1.475390196E-1,-3.608580679E-2,3.292996287E-1
4.282998820E0,-1.794969290E-1,-4.886896908E-2,3.378217220E-1
4.285486580E0,-2.039979845E-1,-5.952160433E-2,3.463438451E-1
4.287974340E0,-2.199769467E-1,-6.910897791E-2,3.538006842E-1
4.290462101E0,-2.284990549E-1,-7.763108611E-2,3.623228073E-1
4.292949861E0,-2.263685167E-1,-8.508793265E-2,3.697796464E-1
4.295437622E0,-2.167811543E-1,-8.934898674E-2,3.772364855E-1
4.297925382E0,-1.965411454E-1,-9.254477918E-2,3.836280704E-1
4.300413142E0,-1.677790284E-1,-9.254477918E-2,3.910849094E-1
4.302900903E0,-1.315600574E-1,-9.041424841E-2,3.985417485E-1
4.305388663E0,-8.681898564E-2,-8.508793265E-2,4.081291258E-1
4.307876424E0,-3.568633273E-2,-7.763108611E-2,4.177165031E-1
4.310364184E0,1.970737800E-2,-6.697845459E-2,4.294344187E-1
4.312851945E0,7.723161578E-2,-5.632581562E-2,4.432828426E-1
4.315339705E0,1.368863732E-1,-4.567318037E-2,4.592617750E-1
4.317827465E0,1.965411454E-1,-3.608580679E-2,4.784365296E-1
4.320315226E0,2.540653646E-1,-2.543316968E-2,5.018723607E-1
4.322802986E0,3.083938360E-1,-1.478053257E-2,5.285038948E-1
4.325290747E0,3.584612012E-1,-4.127896391E-3,5.583313107E-1
4.327778507E0,4.010717571E-1,6.524739787E-3,5.913544893E-1
4.330266267E0,4.372907281E-1,1.930790395E-2,6.254429221E-1
4.332754028E0,4.671181142E-1,3.209106624E-2,6.605966091E-1
4.335241788E0,4.884233773E-1,4.487423226E-2,6.957502961E-1
4.337729497E0,5.022718310E-1,5.978792161E-2,7.309040427E-1
4.340217205E0,5.065328479E-1,7.363634557E-2,7.639271617E-1
4.342704913E0,5.022718310E-1,8.641951531E-2,7.958850861E-1
4.345192622E0,4.894886315E-1,9.920267761E-2,8.246471882E-1
4.347680330E0,4.692486227E-1,1.109205782E-1,8.523440957E-1
4.350168038E0,4.404865205E-1,1.215732098E-1,8.768451214E-1
4.352655747E0,4.053328037E-1,1.311605871E-1,8.981503844E-1
4.355143455E0,3.637875319E-1,1.386174262E-1,9.141293764E-1
4.357631163E0,3.179811835E-1,1.450090110E-1,9.269125462E-1
4.360118872E0,2.668485343E-1,1.482048035E-1,9.343693852E-1
4.362606580E0,2.135853618E-1,1.503353268E-1,9.386304021E-1
4.365094288E0,1.592569202E-1,1.514005959E-1,9.375651479E-1
4.367581997E0,1.049284711E-1,1.514005959E-1,9.333041310E-1
4.370069705E0,5.166528746E-2,1.535311192E-1,9.247819781E-1
4.372557413E0,-5.326318205E-4,1.545963883E-1,9.141293764E-1
4.375045122E0,-4.740423337E-2,1.567269117E-1,8.981503844E-1
4.377532830E0,-9.108003974E-2,1.567269117E-1,8.811061978E-1
4.380020538E0,-1.272990108E-1,1.545963883E-1,8.598009348E-1
4.382508247E0,-1.571263820E-1,1.482048035E-1,8.384956717E-1
4.384995955E0,-1.794969290E-1,1.386174262E-1,8.150598407E-1
4.387483663E0,-1.944106072E-1,1.268995255E-1,7.937545776E-1
4.389971372E0,-2.018674612E-1,1.141163707E-1,7.735145688E-1
4.392459080E0,-2.008021921E-1,9.920267761E-2,7.575356364E-1
4.394946788E0,-1.933453530E-1,8.322372288E-2,7.447524667E-1
4.397434497E0,-1.784316599E-1,6.724476814E-2,7.372955680E-1
4.399922205E0,-1.571263820E-1,5.233107507E-2,7.330345511E-1
4.402409913E0,-1.304948032E-1,3.741738573E-2,7.319692969E-1
4.404897622E0,-9.747162461E-2,2.463422157E-2,7.340998054E-1
4.407385330E0,-5.912213027E-2,1.398158539E-2,7.394261360E-1
4.409873038E0,-1.757685095E-2,5.459476262E-3,7.490134835E-1
4.412360747E0,2.716422267E-2,1.331579551E-4,7.596661448E-1
4.414848455E0,7.190529257E-2,-9.321057005E-4,7.745798230E-1
4.417336163E0,1.166463718E-1,1.198421582E-3,7.916240692E-1
4.419823872E0,1.603221744E-1,4.394212738E-3,8.107987642E-1
4.422311580E0,1.997369379E-1,9.720530361E-3,8.310387731E-1
4.424799340E0,2.359558940E-1,1.611211337E-2,8.512787819E-1
4.427287101E0,2.679138184E-1,2.037316747E-2,8.715187907E-1
4.429774861E0,2.945453823E-1,2.356895804E-2,8.928241134E-1
4.432262622E0,3.158506751E-1,2.356895804E-2,9.141293764E-1
4.434750382E0,3.339601457E-1,2.250369452E-2,9.364998937E-1
4.437238142E0,3.467433155E-1,1.824264042E-2,9.588704109E-1
4.439725903E0,3.563306928E-1,1.291632187E-2,9.823062420E-1
4.442213663E0,3.637875319E-1,5.459476262E-3,1.004676819E0
4.444701424E0,3.669833243E-1,-9.321057005E-4,1.024916768E0
4.447189184E0,3.680485785E-1,-6.258423906E-3,1.043026209E0
4.449676945E0,3.659180701E-1,-9.454214945E-3,1.056874633E0
4.452164705E0,3.605917394E-1,-8.388951421E-3,1.065396786E0
4.454652465E0,3.520696461E-1,-5.193160381E-3,1.069657803E0
4.457140226E0,3.424822688E-1,1.331579551E-4,1.068592548E0
4.459627986E0,3.307643533E-1,8.655266836E-3,1.063266277E0
4.462115747E0,3.158506751E-1,1.717737690E-2,1.053678870E0
4.464603507E0,2.966759205E-1,2.783001214E-2,1.043026209E0
4.467091267E0,2.764359117E-1,3.954791278E-2,1.028112531E0
4.469579028E0,2.530001104E-1,5.126581341E-2,1.011068344E0
4.472066788E0,2.242379934E-1,6.404897571E-2,9.918935895E-1
4.474554549E0,1.901495606E-1,7.576687634E-2,9.695230722E-1
4.477042309E0,1.528653353E-1,8.641951531E-2,9.460873008E-1
4.479530070E0,1.102547869E-1,9.387636185E-2,9.226514697E-1
4.482017830E0,6.551371515E-2,9.813741595E-2,9.013462067E-1
4.484505590E0,1.970737800E-2,9.813741595E-2,8.811061978E-1
4.486993351E0,-2.716422267E-2,9.387636185E-2,8.640619516E-1
4.489481111E0,-7.510108501E-2,8.535424620E-2,8.491482735E-1
4.491968872E0,-1.219726875E-1,7.470161468E-2,8.352998495E-1
4.494456632E0,-1.677790284E-1,6.085318699E-2,8.257125020E-1
4.496944392E0,-2.093243003E-1,4.487423226E-2,8.171903491E-1
4.499432153E0,-2.487390637E-1,2.676474862E-2,8.118640780E-1
4.501919913E0,-2.817622423E-1,6.524739787E-3,8.086682558E-1
4.504407674E0,-3.094590902E-1,-1.584579609E-2,8.076030016E-1
4.506895434E0,-3.275685608E-1,-4.034686089E-2,8.086682558E-1
4.509383195E0,-3.382211924E-1,-6.804371625E-2,8.118640780E-1
4.511870955E0,-3.382211924E-1,-9.680583328E-2,8.182556629E-1
4.514358715E0,-3.265033066E-1,-1.287637353E-1,8.267777562E-1
4.516846476E0,-3.051980436E-1,-1.596563905E-1,8.374303579E-1
4.519334236E0,-2.711096108E-1,-1.916143000E-1,8.491482735E-1
4.521821997E0,-2.284990549E-1,-2.225069404E-1,8.619314432E-1
4.524309757E0,-1.763011366E-1,-2.502037883E-1,8.736493587E-1
4.526797517E0,-1.166463718E-1,-2.736395895E-1,8.864325285E-1
4.529285278E0,-4.953476042E-2,-2.938795984E-1,8.960198760E-1
4.531773038E0,2.290316857E-2,-3.087933064E-1,9.045419693E-1
4.534260799E0,9.960214794E-2,-3.194459379E-1,9.088030457E-1
4.536748559E0,1.763011366E-1,-3.226417303E-1,9.098683000E-1
4.539236320E0,2.519348562E-1,-3.215764761E-1,9.077377915E-1
4.541724080E0,3.233075142E-1,-3.130543530E-1,9.034767151E-1
4.544211840E0,3.893538713E-1,-3.013364673E-1,8.970851302E-1
4.546699601E0,4.447475672E-1,-2.864227593E-1,8.896282911E-1
4.549187361E0,4.916191697E-1,-2.683132887E-1,8.821714520E-1
4.551675122E0,5.246423483E-1,-2.512690723E-1,8.747146130E-1
4.554162882E0,5.448823571E-1,-2.320943177E-1,8.661925197E-1
4.556650642E0,5.491434336E-1,-2.129195631E-1,8.587356806E-1
4.559138403E0,5.395560265E-1,-1.926795542E-1,8.502135277E-1
4.561626163E0,5.107939243E-1,-1.724395454E-1,8.427566886E-1
4.564113924E0,4.671181142E-1,-1.532648057E-1,8.342345953E-1
4.566601684E0,4.074633420E-1,-1.351553202E-1,8.246471882E-1
4.569089445E0,3.307643533E-1,-1.181111038E-1,8.150598407E-1
4.571577205E0,2.391516864E-1,-1.042626798E-1,8.065377474E-1
4.574064965E0,1.336905807E-1,-9.467530251E-2,7.980156541E-1
4.576552726E0,1.864211448E-2,-8.828372508E-2,7.894935012E-1
4.579040486E0,-1.059937328E-1,-8.615319431E-2,7.820366621E-1
4.581528247E0,-2.359558940E-1,-8.721846342E-2,7.745798230E-1
4.584016007E0,-3.669833243E-1,-9.254477918E-2,7.681882381E-1
4.586503767E0,-4.969455004E-1,-1.010668874E-1,7.639271617E-1
4.588991528E0,-6.237118840E-1,-1.117195264E-1,7.575356364E-1
4.591479288E0,-7.430213690E-1,-1.234374270E-1,7.511440516E-1
4.593967049E0,-8.527435660E-1,-1.362205893E-1,7.447524667E-1
4.596454809E0,-9.507477880E-1,-1.511342824E-1,7.394261360E-1
4.598942570E0,-1.033838391E0,-1.671132296E-1,7.330345511E-1
4.601430590E0,-1.096688867E0,-1.852227151E-1,7.266429663E-1
4.603918247E0,-1.140364766E0,-2.054627240E-1,7.213166356E-1
4.606405903E0,-1.163800478E0,-2.267680019E-1,7.149250507E-1
4.608893559E0,-1.164865732E0,-2.491385341E-1,7.074682117E-1
4.611381215E0,-1.143560529E0,-2.704437971E-1,6.989461184E-1
4.613868872E0,-1.102015257E0,-2.906838059E-1,6.893587112E-1
4.616356528E0,-1.040229917E0,-3.098585606E-1,6.776408553E-1
4.618844184E0,-9.592698812E-1,-3.269027770E-1,6.659229398E-1
4.621331840E0,-8.612656593E-1,-3.418164849E-1,6.531397700E-1
4.623819497E0,-7.462171912E-1,-3.535343707E-1,6.392913461E-1
4.626307153E0,-6.173202991E-1,-3.620564938E-1,6.243776679E-1
4.628794809E0,-4.788360000E-1,-3.684480488E-1,6.094639897E-1
4.631282465E0,-3.318296373E-1,-3.716438413E-1,5.956155062E-1
4.633770122E0,-1.805621833E-1,-3.705785871E-1,5.785713196E-1
4.636257778E0,-2.822948620E-2,-3.663175404E-1,5.636576414E-1
4.638745434E0,1.187768951E-1,-3.588607013E-1,5.476786494E-1
4.641233142E0,2.593916953E-1,-3.503385782E-1,5.306344628E-1
4.643720903E0,3.904191256E-1,-3.396859467E-1,5.135902166E-1
4.646208663E0,5.086634159E-1,-3.279680312E-1,4.965460002E-1
4.648696424E0,6.130592227E-1,-3.162501454E-1,4.805670679E-1
4.651184184E0,7.014760971E-1,-3.034669757E-1,4.667186439E-1
4.653671945E0,7.739140391E-1,-2.917490900E-1,4.539354742E-1
4.656159705E0,8.293077350E-1,-2.789659202E-1,4.411523044E-1
4.658647465E0,8.655267358E-1,-2.672480047E-1,4.294344187E-1
4.661135226E0,8.847014308E-1,-2.555301189E-1,4.187817574E-1
4.663622986E0,8.847014308E-1,-2.438122183E-1,4.070638716E-1
4.666110747E0,8.665919900E-1,-2.331595868E-1,3.974764943E-1
4.668598507E0,8.314382434E-1,-2.225069404E-1,3.868238628E-1
4.671086267E0,7.803056240E-1,-2.129195631E-1,3.729754388E-1
4.673574028E0,7.163897753E-1,-2.065279931E-1,3.580617309E-1
4.676061788E0,6.396908164E-1,-2.022669315E-1,3.410175145E-1
4.678549549E0,5.534044504E-1,-2.022669315E-1,3.207775056E-1
4.681037309E0,4.596612751E-1,-2.065279931E-1,2.984069884E-1
4.683525070E0,3.616569936E-1,-2.139848322E-1,2.739059031E-1
4.686012830E0,2.636527419E-1,-2.267680019E-1,2.504701018E-1
4.688500590E0,1.688442826E-1,-2.416816950E-1,2.249037921E-1
4.690988351E0,7.829687744E-2,-2.576606572E-1,1.993374527E-1
4.693476111E0,-2.663159044E-3,-2.747048736E-1,1.727058738E-1
4.695963872E0,-7.510108501E-2,-2.885532975E-1,1.460742801E-1
4.698451632E0,-1.379516423E-1,-3.002711833E-1,1.215732098E-1
4.700939392E0,-1.890842915E-1,-3.098585606E-1,9.920267761E-2
4.703427153E0,-2.284990549E-1,-3.173153996E-1,8.002793044E-2
4.705914913E0,-2.540653646E-1,-3.194459379E-1,6.511423737E-2
4.708402674E0,-2.679138184E-1,-3.205111921E-1,5.446160212E-2
4.710890434E0,-2.668485343E-1,-3.194459379E-1,4.807002097E-2
4.713378195E0,-2.551306486E-1,-3.162501454E-1,4.487423226E-2
4.715865955E0,-2.316948473E-1,-3.098585606E-1,4.487423226E-2
4.718353715E0,-1.976063997E-1,-3.013364673E-1,4.593949392E-2
4.720841476E0,-1.571263820E-1,-2.906838059E-1,4.913528636E-2
4.723329236E0,-1.091895252E-1,-2.789659202E-1,5.233107507E-2
4.725816997E0,-5.699160323E-2,-2.651174963E-1,5.446160212E-2
4.728304757E0,-2.663159044E-3,-2.491385341E-1,5.659212917E-2
4.730792517E0,5.166528746E-2,-2.352901101E-1,5.659212917E-2
4.733280278E0,1.070589945E-1,-2.214416862E-1,5.659212917E-2
4.735768038E0,1.592569202E-1,-2.086585164E-1,5.552686751E-2
4.738255799E0,2.093243003E-1,-1.969406158E-1,5.552686751E-2
4.740743559E0,2.540653646E-1,-1.884185076E-1,5.446160212E-2
4.743231320E0,2.966759205E-1,-1.820269227E-1,5.446160212E-2
4.745719080E0,3.339601457E-1,-1.798963994E-1,5.339634046E-2
4.748206840E0,3.669833243E-1,-1.798963994E-1,5.020054802E-2
4.750694601E0,3.946801722E-1,-1.841574460E-1,4.487423226E-2
4.753182361E0,4.181159735E-1,-1.884185076E-1,3.635212034E-2
4.755670122E0,4.340949357E-1,-1.926795542E-1,2.569948509E-2
4.758157882E0,4.458128214E-1,-1.958753467E-1,1.078579482E-2
4.760645642E0,4.522044063E-1,-1.969406158E-1,-7.323687430E-3
4.763133403E0,4.543349445E-1,-1.948100924E-1,-2.756369673E-2
4.765621163E0,4.532696903E-1,-1.916143000E-1,-4.993423447E-2
4.768108924E0,4.468781054E-1,-1.873532385E-1,-7.550056279E-2
4.770596684E0,4.372907281E-1,-1.830921918E-1,-1.031974182E-1
4.773084445E0,4.255728126E-1,-1.756353378E-1,-1.340900660E-1
4.775572205E0,4.117243886E-1,-1.681784987E-1,-1.660479754E-1
4.778059965E0,3.957454562E-1,-1.585911214E-1,-1.980058849E-1
4.780547726E0,3.797664940E-1,-1.511342824E-1,-2.299637944E-1
4.783035486E0,3.637875319E-1,-1.426121742E-1,-2.587259114E-1
4.785523247E0,3.499391079E-1,-1.351553202E-1,-2.864227593E-1
4.788011007E0,3.392864764E-1,-1.287637353E-1,-3.098585606E-1
4.790498767E0,3.286338449E-1,-1.234374270E-1,-3.279680312E-1
4.792986528E0,3.190464675E-1,-1.170458421E-1,-3.428817391E-1
4.795474288E0,3.115896285E-1,-1.106542572E-1,-3.524691164E-1
4.797962049E0,3.041327596E-1,-1.021321490E-1,-3.588607013E-1
4.800449809E0,2.956106663E-1,-9.361004084E-2,-3.599259555E-1
4.802937570E0,2.881538272E-1,-8.508793265E-2,-3.588607013E-1
4.805425330E0,2.806969583E-1,-7.550056279E-2,-3.556649089E-1
4.807913090E0,2.721748650E-1,-6.591318548E-2,-3.482080400E-1
4.810400851E0,2.636527419E-1,-5.632581562E-2,-3.386206925E-1
4.812888611E0,2.551306486E-1,-4.780370742E-2,-3.279680312E-1
4.815376372E0,2.455432713E-1,-4.034686089E-2,-3.141196072E-1
4.817864132E0,2.359558940E-1,-3.289001435E-2,-2.992059290E-1
4.820351892E0,2.253032625E-1,-2.862896025E-2,-2.821617126E-1
4.822839653E0,2.135853618E-1,-2.649843320E-2,-2.651174963E-1
4.825327413E0,2.039979845E-1,-2.649843320E-2,-2.491385341E-1
4.827815174E0,1.954758763E-1,-3.075948730E-2,-2.331595868E-1
4.830302934E0,1.880190372E-1,-3.821633384E-2,-2.193111479E-1
4.832790695E0,1.858884990E-1,-4.886896908E-2,-2.075932473E-1
4.835278455E0,1.858884990E-1,-6.271740049E-2,-2.001364082E-1
4.837766215E0,1.912148297E-1,-7.976161689E-2,-1.926795542E-1
4.840253976E0,2.008021921E-1,-9.680583328E-2,-1.894837767E-1
4.842741736E0,2.125200927E-1,-1.138500497E-1,-1.894837767E-1
4.845229497E0,2.284990549E-1,-1.276984811E-1,-1.916143000E-1
4.847717257E0,2.476737946E-1,-1.404816359E-1,-1.980058849E-1
4.850205017E0,2.689790726E-1,-1.500690132E-1,-2.075932473E-1
4.852692778E0,2.924148738E-1,-1.585911214E-1,-2.214416862E-1
4.855180486E0,3.158506751E-1,-1.660479754E-1,-2.384859025E-1
4.857668195E0,3.403517306E-1,-1.724395454E-1,-2.587259114E-1
4.860155903E0,3.648527861E-1,-1.788311303E-1,-2.810964286E-1
4.862643611E0,3.882885873E-1,-1.852227151E-1,-3.034669757E-1
4.865131320E0,4.106591344E-1,-1.905490309E-1,-3.258375227E-1
4.867619028E0,4.319643974E-1,-1.958753467E-1,-3.482080400E-1
4.870106736E0,4.522044063E-1,-2.001364082E-1,-3.695133328E-1
4.872594445E0,4.703139067E-1,-2.054627240E-1,-3.886880577E-1
4.875082153E0,4.841623306E-1,-2.097237855E-1,-4.057323039E-1
4.877569861E0,4.969455004E-1,-2.139848322E-1,-4.206459820E-1
4.880057570E0,5.065328479E-1,-2.193111479E-1,-4.323638678E-1
4.882545278E0,5.129244328E-1,-2.225069404E-1,-4.408859909E-1
4.885032986E0,5.161202550E-1,-2.246374637E-1,-4.462123215E-1
4.887520695E0,5.171855092E-1,-2.257027328E-1,-4.483428299E-1
4.890008403E0,5.161202550E-1,-2.257027328E-1,-4.462123215E-1
4.892496111E0,5.118591785E-1,-2.246374637E-1,-4.408859909E-1
4.894983820E0,5.065328479E-1,-2.225069404E-1,-4.323638678E-1
4.897471528E0,5.001412630E-1,-2.214416862E-1,-4.206459820E-1
4.899959236E0,4.937497079E-1,-2.203764170E-1,-4.067975581E-1
4.902446945E0,4.852275848E-1,-2.193111479E-1,-3.918838501E-1
4.904934653E0,4.777707458E-1,-2.203764170E-1,-3.769701719E-1
4.907422361E0,4.703139067E-1,-2.225069404E-1,-3.620564938E-1
4.909910070E0,4.639223218E-1,-2.267680019E-1,-3.471427858E-1
4.912397778E0,4.585959911E-1,-2.331595868E-1,-3.343596160E-1
4.914885486E0,4.564654827E-1,-2.395511568E-1,-3.247722387E-1
4.917373195E0,4.564654827E-1,-2.480732650E-1,-3.162501454E-1
4.919860903E0,4.585959911E-1,-2.565953732E-1,-3.119890988E-1
4.922348611E0,4.639223218E-1,-2.619217038E-1,-3.087933064E-1
4.924836320E0,4.724444151E-1,-2.651174963E-1,-3.066627681E-1
4.927324028E0,4.820317924E-1,-2.640522122E-1,-3.055975139E-1
4.929811736E0,4.926844239E-1,-2.597911656E-1,-3.045322299E-1
4.932299445E0,5.044023395E-1,-2.523343265E-1,-3.024017215E-1
4.934787153E0,5.139896870E-1,-2.427469492E-1,-2.992059290E-1
4.937274861E0,5.214465261E-1,-2.310290486E-1,-2.981406748E-1
4.939762570E0,5.267728567E-1,-2.182458937E-1,-2.970753908E-1
4.942250330E0,5.299686790E-1,-2.054627240E-1,-2.970753908E-1
4.944738090E0,5.289034247E-1,-1.948100924E-1,-2.970753908E-1
4.947225851E0,5.235770941E-1,-1.841574460E-1,-2.992059290E-1
4.949713611E0,5.129244328E-1,-1.767006069E-1,-3.024017215E-1
4.952201372E0,4.958802164E-1,-1.724395454E-1,-3.066627681E-1
4.954689132E0,4.745749533E-1,-1.713742912E-1,-3.119890988E-1
4.957176892E0,4.479433596E-1,-1.724395454E-1,-3.173153996E-1
