"Time (s)","Acceleration x (m/s^2)","Acceleration y (m/s^2)","Acceleration z (m/s^2)"
3.974390900E-2,-1.094988155E1,-2.818573952E0,1.224035621E0
4.221437800E-2,-1.085411358E1,-3.115454912E0,1.075595140E0
4.468620100E-2,-1.074398041E1,-3.426701069E0,9.558850527E-1
4.715995100E-2,-1.060990524E1,-3.699640274E0,8.888474107E-1
4.963370100E-2,-1.047104073E1,-3.943848848E0,8.601169586E-1
5.211042000E-2,-1.038963795E1,-4.121019840E0,8.409633636E-1
5.459042000E-2,-1.031781197E1,-4.255095005E0,8.457517624E-1
5.707390900E-2,-1.028429317E1,-4.350862980E0,8.313865662E-1
5.956088800E-2,-1.024598598E1,-4.408323765E0,8.696937561E-1
6.205125300E-2,-1.024119759E1,-4.432265759E0,8.936358094E-1
6.454479500E-2,-1.026513958E1,-4.456207752E0,9.558850527E-1
6.704114900E-2,-1.031781197E1,-4.460996151E0,1.022922635E0
6.953984700E-2,-1.039442635E1,-4.427477360E0,1.142632723E0
7.204036800E-2,-1.049977112E1,-4.370016575E0,1.267131209E0
7.454213800E-2,-1.062905884E1,-4.283825397E0,1.405994892E0
7.704453400E-2,-1.079186440E1,-4.168903828E0,1.540070295E0
7.954693000E-2,-1.094509315E1,-4.015674591E0,1.688510776E0
8.203557600E-2,-1.108395672E1,-3.862445831E0,1.846528053E0
8.452333600E-2,-1.121324348E1,-3.709217072E0,1.990180135E0
8.701104500E-2,-1.132337666E1,-3.527257681E0,2.090736628E0
8.949875300E-2,-1.143350983E1,-3.359663486E0,2.157774210E0
9.198646100E-2,-1.152449036E1,-3.206434727E0,2.243965626E0
9.447417000E-2,-1.160589314E1,-3.072359324E0,2.301426411E0
9.696187800E-2,-1.170644951E1,-2.909553528E0,2.411559582E0
9.944958600E-2,-1.179264069E1,-2.756324768E0,2.497750998E0
1.019372950E-1,-1.190277386E1,-2.598307371E0,2.583942175E0
1.044250030E-1,-1.202727222E1,-2.425924778E0,2.665344954E0
1.069127110E-1,-1.217571259E1,-2.248754025E0,2.722805977E0
1.094004200E-1,-1.235288334E1,-2.095525026E0,2.761113167E0
1.118881280E-1,-1.254442024E1,-1.932719350E0,2.722805977E0
1.143758360E-1,-1.271680260E1,-1.803432465E0,2.679710150E0
1.168635450E-1,-1.289397335E1,-1.707664371E0,2.598307371E0
1.193512530E-1,-1.303762531E1,-1.583165884E0,2.507327795E0
1.218389610E-1,-1.320043087E1,-1.487397790E0,2.425924778E0
1.243266700E-1,-1.336323643E1,-1.401206493E0,2.363675594E0
1.268143780E-1,-1.351167774E1,-1.343745708E0,2.306214809E0
1.293020860E-1,-1.365532970E1,-1.324592113E0,2.311003208E0
1.317897950E-1,-1.379419327E1,-1.377264500E0,2.282272816E0
1.342775030E-1,-1.391390324E1,-1.496974587E0,2.282272816E0
1.367652110E-1,-1.400967121E1,-1.674145579E0,2.282272816E0
1.392529200E-1,-1.403840160E1,-1.927930951E0,2.287061214E0
1.417406280E-1,-1.394742203E1,-2.181716204E0,2.301426411E0
1.442283360E-1,-1.378940487E1,-2.473809004E0,2.349310398E0
1.467160450E-1,-1.357392693E1,-2.746747971E0,2.397194386E0
1.492037530E-1,-1.332971764E1,-3.029263735E0,2.469020605E0
1.516914610E-1,-1.300889492E1,-3.306991100E0,2.588730574E0
1.541791700E-1,-1.265455341E1,-3.594295263E0,2.741959572E0
1.566668780E-1,-1.227626896E1,-3.828927040E0,2.866457939E0
1.591545860E-1,-1.189798546E1,-4.087501049E0,3.014898539E0
1.616422950E-1,-1.155800915E1,-4.331709385E0,3.129820108E0
1.641300030E-1,-1.125633907E1,-4.575918198E0,3.225588322E0
1.666177110E-1,-1.097861195E1,-4.777030945E0,3.316567898E0
1.691054720E-1,-1.075834560E1,-4.954201698E0,3.436278105E0
1.715932320E-1,-1.058596325E1,-5.040393353E0,3.570353270E0
1.740809930E-1,-1.049019432E1,-5.045181751E0,3.685275078E0
1.765687530E-1,-1.045667553E1,-4.997297287E0,3.781043053E0
1.790565130E-1,-1.047582912E1,-4.920682907E0,3.838503838E0
1.815442740E-1,-1.052850151E1,-4.820126534E0,3.848080635E0
1.840320340E-1,-1.060032845E1,-4.681262970E0,3.790619850E0
1.865197950E-1,-1.065300083E1,-4.513668537E0,3.709217072E0
1.890075550E-1,-1.069130802E1,-4.346074581E0,3.618237257E0
1.914953160E-1,-1.074876881E1,-4.173692226E0,3.517680883E0
1.939830760E-1,-1.083974838E1,-4.001309395E0,3.383605480E0
1.964708360E-1,-1.096424675E1,-3.785831451E0,3.263895512E0
1.989585970E-1,-1.113662910E1,-3.551199675E0,3.158550501E0
2.014463570E-1,-1.131858826E1,-3.306991100E0,3.053205729E0
2.039341180E-1,-1.151970100E1,-3.029263735E0,2.957437754E0
2.064218780E-1,-1.171123791E1,-2.765901566E0,2.866457939E0
2.089096380E-1,-1.191235065E1,-2.526481390E0,2.775478363E0
2.113973990E-1,-1.210388660E1,-2.334945202E0,2.674921751E0
2.138851590E-1,-1.230021095E1,-2.172139406E0,2.579153776E0
2.163729200E-1,-1.248695850E1,-2.042852640E0,2.449866772E0
2.188606800E-1,-1.263539982E1,-1.918354154E0,2.315791607E0
2.213484410E-1,-1.270243740E1,-1.765125155E0,2.196081400E0
2.238362010E-1,-1.273595619E1,-1.578377485E0,2.081159830E0
2.263239610E-1,-1.271201420E1,-1.477820992E0,1.990180135E0
2.288117220E-1,-1.265934181E1,-1.453878999E0,1.894412041E0
2.312994820E-1,-1.259709263E1,-1.492186189E0,1.822586060E0
2.337872430E-1,-1.249174690E1,-1.654991984E0,1.745971560E0
2.362750030E-1,-1.234809494E1,-1.846528053E0,1.674145579E0
2.387627630E-1,-1.215177059E1,-2.076371431E0,1.616684675E0
2.412505240E-1,-1.192671585E1,-2.287061214E0,1.564012289E0
2.437382840E-1,-1.169687271E1,-2.449866772E0,1.540070295E0
2.462260450E-1,-1.146224022E1,-2.550423384E0,1.530493379E0
2.487138050E-1,-1.118930149E1,-2.617460966E0,1.573589087E0
2.512015660E-1,-1.095466995E1,-2.674921751E0,1.678933978E0
2.536893260E-1,-1.076313400E1,-2.746747971E0,1.803432465E0
2.561770860E-1,-1.060511684E1,-2.823362350E0,1.942296147E0
2.586648470E-1,-1.048540592E1,-2.904765129E0,2.081159830E0
2.611526070E-1,-1.042315674E1,-2.981379747E0,2.234388828E0
2.636403680E-1,-1.037527275E1,-3.038840532E0,2.406771183E0
2.661281280E-1,-1.033696556E1,-3.105878115E0,2.545634985E0
2.686158880E-1,-1.031302357E1,-3.110666513E0,2.679710150E0
2.711036490E-1,-1.033696556E1,-3.086724520E0,2.780266762E0
2.735914090E-1,-1.042315674E1,-3.034052134E0,2.866457939E0
2.760791700E-1,-1.054286766E1,-2.952649355E0,2.923918724E0
2.785669300E-1,-1.069609642E1,-2.813785553E0,2.952649355E0
2.810546910E-1,-1.086847878E1,-2.674921751E0,2.957437754E0
2.835424510E-1,-1.102170753E1,-2.526481390E0,2.967014551E0
2.860302110E-1,-1.116057110E1,-2.382829189E0,2.957437754E0
2.885179720E-1,-1.129943466E1,-2.220023632E0,2.947860956E0
2.910057320E-1,-1.142393303E1,-2.033275843E0,2.938283920E0
2.934934930E-1,-1.156279755E1,-1.836951256E0,2.928707123E0
2.959812530E-1,-1.168250751E1,-1.640626669E0,2.943072557E0
2.984690130E-1,-1.180700588E1,-1.458667397E0,2.943072557E0
3.009567740E-1,-1.189319706E1,-1.310226917E0,2.890399933E0
3.034445340E-1,-1.190756226E1,-1.204882026E0,2.823362350E0
3.059322950E-1,-1.187883186E1,-1.109113932E0,2.698863983E0
3.084200550E-1,-1.181658268E1,-1.008557439E0,2.536058187E0
3.109078160E-1,-1.173517990E1,-8.840589523E-1,2.354098797E0
3.133955760E-1,-1.163941193E1,-7.739257216E-1,2.162562609E0
3.158833360E-1,-1.156279755E1,-6.877344251E-1,1.994968534E0
3.183710970E-1,-1.151012421E1,-6.015431881E-1,1.817797661E0
3.208588570E-1,-1.147181702E1,-5.392939448E-1,1.683722377E0
3.233466180E-1,-1.151012421E1,-4.770447016E-1,1.568800688E0
3.258343780E-1,-1.158673954E1,-4.052186310E-1,1.463455796E0
3.283221380E-1,-1.167293072E1,-3.381809890E-1,1.415571809E0
3.308098990E-1,-1.177827549E1,-2.759317458E-1,1.405994892E0
3.332976590E-1,-1.186925507E1,-2.424129248E-1,1.420360208E0
3.357854200E-1,-1.194586945E1,-2.232593149E-1,1.439513803E0
3.382731800E-1,-1.202248383E1,-2.136825025E-1,1.473032594E0
3.407609410E-1,-1.209430981E1,-2.328361124E-1,1.511339784E0
3.432487010E-1,-1.216134739E1,-2.615665495E-1,1.549647093E0
3.457364610E-1,-1.222838497E1,-3.094505668E-1,1.568800688E0
3.482242220E-1,-1.225711536E1,-3.477577865E-1,1.602319479E0
3.507119820E-1,-1.227148056E1,-3.956418335E-1,1.587954283E0
3.531997430E-1,-1.223796177E1,-4.195838571E-1,1.516128182E0
3.556875030E-1,-1.214219379E1,-4.243722558E-1,1.453878999E0
3.581752630E-1,-1.203206062E1,-4.483142793E-1,1.367687702E0
3.606630240E-1,-1.189798546E1,-4.961982965E-1,1.267131209E0
3.631507840E-1,-1.177827549E1,-5.728127360E-1,1.204882026E0
3.656385450E-1,-1.167771912E1,-6.590040326E-1,1.147421122E0
3.681263050E-1,-1.158195114E1,-7.499836683E-1,1.070806742E0
3.706140660E-1,-1.151491261E1,-8.265981078E-1,9.941922426E-1
3.731018260E-1,-1.147660542E1,-8.696937561E-1,9.223662019E-1
3.755895860E-1,-1.147181702E1,-8.601169586E-1,8.888474107E-1
3.780773470E-1,-1.151970100E1,-8.170213103E-1,9.175778031E-1
3.805651070E-1,-1.158673954E1,-7.116764784E-1,9.702502489E-1
3.830528680E-1,-1.165856552E1,-5.632359385E-1,9.989806414E-1
3.855406280E-1,-1.175912189E1,-3.812766075E-1,1.046864748E0
3.880283880E-1,-1.184052467E1,-2.088941038E-1,1.056441545E0
3.905161490E-1,-1.191713905E1,-1.179144308E-1,1.051653147E0
3.930039090E-1,-1.204163742E1,-2.693476900E-2,1.022922635E0
3.954916700E-1,-1.217092419E1,6.404489279E-2,1.032499433E0
3.979794300E-1,-1.229063416E1,1.358709484E-1,1.046864748E0
4.004671910E-1,-1.243428612E1,2.268506140E-1,1.051653147E0
4.029549510E-1,-1.254920864E1,3.034650683E-1,1.037287831E0
4.054427110E-1,-1.262582302E1,3.752911091E-1,1.022922635E0
4.079304720E-1,-1.266891861E1,4.183867574E-1,1.003769040E0
4.104182320E-1,-1.270243740E1,4.231751561E-1,9.989806414E-1
4.129059930E-1,-1.270722580E1,4.135983288E-1,1.013345838E0
4.153937530E-1,-1.269286060E1,3.465606868E-1,1.032499433E0
4.178815130E-1,-1.263539982E1,2.507926226E-1,1.032499433E0
4.203692740E-1,-1.252047825E1,1.215057373E-1,1.008557439E0
4.228570340E-1,-1.234330654E1,-4.129998013E-2,9.606734514E-1
4.253447950E-1,-1.207994461E1,-2.328361124E-1,9.175778031E-1
4.278325550E-1,-1.178306389E1,-4.435258508E-1,8.888474107E-1
4.303203160E-1,-1.144787502E1,-6.302735806E-1,8.888474107E-1
4.328080760E-1,-1.109832191E1,-8.313865662E-1,8.553285599E-1
4.352958360E-1,-1.075355721E1,-1.042076349E0,8.601169586E-1
4.377835970E-1,-1.041836834E1,-1.228824019E0,8.840589523E-1
4.402713570E-1,-1.013106441E1,-1.386841297E0,9.127894044E-1
4.427591180E-1,-9.891644478E0,-1.501762986E0,9.654618502E-1
4.452468780E-1,-9.695320129E0,-1.587954283E0,1.018134236E0
4.477346380E-1,-9.537302017E0,-1.650203466E0,1.046864748E0
4.502223990E-1,-9.412803650E0,-1.712452769E0,1.113902330E0
4.527101590E-1,-9.302670479E0,-1.793855667E0,1.185728431E0
4.551979200E-1,-9.206902504E0,-1.880046844E0,1.271919608E0
4.576856800E-1,-9.120711327E0,-1.956661344E0,1.386841297E0
4.601734410E-1,-9.053673744E0,-1.980603337E0,1.516128182E0
4.626612010E-1,-9.034520149E0,-1.966238141E0,1.678933978E0
4.651489610E-1,-9.034520149E0,-1.903988957E0,1.808220863E0
4.676367220E-1,-9.120711327E0,-1.793855667E0,1.942296147E0
4.701244820E-1,-9.245209694E0,-1.659780383E0,2.090736628E0
4.726122430E-1,-9.364919662E0,-1.492186189E0,2.205658197E0
4.751000030E-1,-9.489418030E0,-1.315015316E0,2.315791607E0
4.775877630E-1,-9.604340553E0,-1.123479128E0,2.435501575E0
4.800755240E-1,-9.704896927E0,-9.463081956E-1,2.531269789E0
4.825632840E-1,-9.767146111E0,-7.643488646E-1,2.612672567E0
4.850510450E-1,-9.791088104E0,-6.015431881E-1,2.674921751E0
4.875388050E-1,-9.795876503E0,-4.722562730E-1,2.708440781E0
4.900265660E-1,-9.771934509E0,-3.286041915E-1,2.727594376E0
4.925143260E-1,-9.690531731E0,-1.945288926E-1,2.689286947E0
4.950020860E-1,-9.609128952E0,-9.876082093E-2,2.646191359E0
4.974898470E-1,-9.532513618E0,1.616086066E-2,2.607884169E0
4.999776070E-1,-9.484629631E0,1.406593472E-1,2.560000181E0
5.024653680E-1,-9.436745644E0,2.268506140E-1,2.512116194E0
5.049531280E-1,-9.417592049E0,2.747346461E-1,2.502539396E0
5.074408880E-1,-9.388861656E0,3.226186931E-1,2.507327795E0
5.099286490E-1,-9.379284859E0,3.513490856E-1,2.488174200E0
5.124164090E-1,-9.384073257E0,3.752911091E-1,2.497750998E0
5.149041700E-1,-9.369708061E0,3.944447339E-1,2.516904593E0
5.173919300E-1,-9.336189270E0,4.040215313E-1,2.545634985E0
5.198796910E-1,-9.312247276E0,3.896563351E-1,2.583942175E0
5.223674510E-1,-9.288305283E0,3.321954906E-1,2.579153776E0
5.248552110E-1,-9.235632896E0,2.124854028E-1,2.588730574E0
5.273429720E-1,-9.187748909E0,5.925649032E-2,2.655768156E0
5.298307320E-1,-9.115922928E0,-1.083376259E-1,2.718017578E0
5.323184930E-1,-8.972270966E0,-2.902969420E-1,2.780266762E0
5.348062530E-1,-8.795100212E0,-4.722562730E-1,2.789843559E0
5.372940130E-1,-8.665813446E0,-6.302735806E-1,2.770689964E0
5.397817740E-1,-8.570044518E0,-7.595604658E-1,2.761113167E0
5.422695340E-1,-8.488641739E0,-9.032126069E-1,2.785055161E0
5.447572950E-1,-8.459911346E0,-1.042076349E0,2.852092743E0
5.472450550E-1,-8.503006935E0,-1.152209520E0,2.986168146E0
5.497327630E-1,-8.613141060E0,-1.291073322E0,3.105878115E0
5.522204720E-1,-8.823830605E0,-1.391629696E0,3.249530315E0
5.547081800E-1,-9.044096947E0,-1.458667397E0,3.421912670E0
5.571958880E-1,-9.259574890E0,-1.487397790E0,3.546411276E0
5.596835970E-1,-9.455899239E0,-1.482609391E0,3.632602453E0
5.621713050E-1,-9.637859344E0,-1.439513803E0,3.670909643E0
5.646590130E-1,-9.800664902E0,-1.396418095E0,3.680486679E0
5.671467220E-1,-9.949105263E0,-1.353322506E0,3.646967649E0
5.696344300E-1,-1.004008484E1,-1.338957310E0,3.551199675E0
5.721221380E-1,-1.011669922E1,-1.315015316E0,3.460220098E0
5.746098470E-1,-1.021246719E1,-1.243189216E0,3.302202702E0
5.770975550E-1,-1.030344677E1,-1.152209520E0,3.115454912E0
5.795852630E-1,-1.040400314E1,-1.032499433E0,2.880823135E0
5.820729720E-1,-1.047104073E1,-9.175778031E-1,2.636614561E0
5.845606800E-1,-1.049498272E1,-8.074445128E-1,2.339733601E0
5.870483880E-1,-1.051892471E1,-7.116764784E-1,2.057217836E0
5.895360970E-1,-1.049019432E1,-6.111199856E-1,1.789067268E0
5.920238050E-1,-1.042794514E1,-5.249287486E-1,1.535281897E0
5.945115130E-1,-1.036569595E1,-4.195838571E-1,1.315015316E0
5.969992220E-1,-1.027950478E1,-3.621230125E-1,1.099537134E0
5.994869300E-1,-1.022683239E1,-2.902969420E-1,9.223662019E-1
6.019746380E-1,-1.015979481E1,-2.424129248E-1,7.882909179E-1
6.044623470E-1,-1.005445004E1,-2.663549483E-1,6.542156339E-1
6.069500550E-1,-9.915586472E0,-2.950853705E-1,5.153518915E-1
6.094377630E-1,-9.791088104E0,-3.142389655E-1,3.573346138E-1
6.119254720E-1,-9.647436142E0,-3.429693878E-1,2.184709013E-1
6.144132320E-1,-9.484629631E0,-3.621230125E-1,1.131260321E-1
6.169009930E-1,-9.302670479E0,-3.812766075E-1,4.129998013E-2
6.193887530E-1,-9.135076523E0,-4.243722558E-1,1.735796221E-2
6.218765130E-1,-9.001001358E0,-4.866214991E-1,-1.795651275E-3
6.243642740E-1,-8.895656586E0,-5.871779919E-1,3.651157767E-2
6.268520340E-1,-8.790311813E0,-7.212532759E-1,5.566519126E-2
6.293397950E-1,-8.661025047E0,-9.223662019E-1,8.439560980E-2
6.318275550E-1,-8.531737328E0,-1.152209520E0,1.227028370E-1
6.343153160E-1,-8.383296967E0,-1.405994892E0,1.179144308E-1
6.368030760E-1,-8.263586998E0,-1.626261473E0,1.370680481E-1
6.392908360E-1,-8.182184219E0,-1.808220863E0,1.562216580E-1
6.417785970E-1,-8.163030624E0,-1.985391736E0,2.472013235E-1
6.442663570E-1,-8.230068207E0,-2.129043818E0,3.860650361E-1
6.467541180E-1,-8.402450562E0,-2.239177227E0,5.632359385E-1
6.492418780E-1,-8.646659851E0,-2.349310398E0,7.068880796E-1
6.517296380E-1,-9.024943352E0,-2.445078373E0,8.170213103E-1
6.542173990E-1,-9.350554466E0,-2.569576979E0,9.510966539E-1
6.567051590E-1,-9.609128952E0,-2.607884169E0,1.195305228E0
6.591929200E-1,-9.886856079E0,-2.641402960E0,1.267131209E0
6.616806800E-1,-1.012627602E1,-2.761113167E0,1.238400817E0
6.641684410E-1,-1.028908157E1,-2.856881142E0,1.089960337E0
6.666562010E-1,-1.040879154E1,-2.928707123E0,8.361749649E-1
6.691439610E-1,-1.045667553E1,-2.976591349E0,5.392939448E-1
6.716317220E-1,-1.046625233E1,-2.986168146E0,2.136825025E-1
6.741194820E-1,-1.042315674E1,-2.967014551E0,-1.262941360E-1
6.766072430E-1,-1.034175396E1,-2.928707123E0,-4.566939771E-1
6.790950030E-1,-1.017416000E1,-2.866457939E0,-7.487865686E-1
6.815827630E-1,-9.987412453E0,-2.761113167E0,-9.546879530E-1
6.840705240E-1,-9.762357712E0,-2.650979757E0,-1.131858826E0
6.865582840E-1,-9.513360023E0,-2.536058187E0,-1.289876223E0
6.890460450E-1,-9.302670479E0,-2.421136379E0,-1.438316703E0
6.915338050E-1,-9.125499725E0,-2.263119221E0,-1.548449993E0
6.940215660E-1,-8.948328972E0,-2.133832216E0,-1.620275974E0
6.965093260E-1,-8.756793022E0,-2.009333849E0,-1.692102075E0
6.989970860E-1,-8.574832916E0,-1.932719350E0,-1.730409265E0
7.014848470E-1,-8.445546150E0,-1.851316452E0,-1.706467271E0
7.039726070E-1,-8.321047783E0,-1.745971560E0,-1.658583283E0
7.064603680E-1,-8.163030624E0,-1.645415068E0,-1.586757183E0
7.089481280E-1,-7.981071472E0,-1.544858694E0,-1.514931083E0
7.114358880E-1,-7.746439457E0,-1.444302201E0,-1.467047095E0
7.139236490E-1,-7.487865925E0,-1.382052898E0,-1.385644197E0
7.164114090E-1,-7.248445511E0,-1.358110905E0,-1.342548609E0
7.188991700E-1,-7.032967567E0,-1.367687702E0,-1.246780515E0
7.213869300E-1,-6.860584736E0,-1.362899303E0,-1.098340034E0
7.238746910E-1,-6.726509571E0,-1.300650120E0,-8.684966564E-1
7.263624510E-1,-6.597222805E0,-1.204882026E0,-6.003460884E-1
7.288502110E-1,-6.439205647E0,-1.137844324E0,-2.986766696E-1
7.313379720E-1,-6.242880821E0,-1.089960337E0,-3.531447425E-2
7.338257320E-1,-6.008249283E0,-1.061229944E0,1.945288926E-1
7.363134930E-1,-5.768828869E0,-1.066018343E0,3.908534348E-1
7.388012530E-1,-5.519832134E0,-1.037287831E0,6.015431881E-1
7.412890130E-1,-5.251681328E0,-1.027711034E0,7.882909179E-1
7.437767740E-1,-4.950012207E0,-1.003769040E0,9.750386477E-1
7.462645340E-1,-4.586093426E0,-9.989806414E-1,1.118690729E0
7.487522950E-1,-4.193444252E0,-1.013345838E0,1.195305228E0
7.512400550E-1,-3.733757496E0,-1.056441545E0,1.286284804E0
7.537278160E-1,-3.235763550E0,-1.099537134E0,1.372476101E0
7.562155760E-1,-2.694674015E0,-1.147421122E0,1.444302201E0
7.587033360E-1,-2.134430885E0,-1.180940032E0,1.501762986E0
7.611911490E-1,-1.626860023E0,-1.185728431E0,1.554435492E0
7.636789610E-1,-1.171961784E0,-1.137844324E0,1.616684675E0
7.661667740E-1,-8.319851160E-1,-9.989806414E-1,1.683722377E0
7.686545860E-1,-6.069301367E-1,-7.882909179E-1,1.765125155E0
7.711423990E-1,-3.722983599E-1,-5.728127360E-1,1.808220863E0
7.736302110E-1,-1.185129806E-1,-3.764882088E-1,1.765125155E0
7.761180240E-1,1.640028208E-1,-2.088941038E-1,1.674145579E0
7.786058360E-1,4.321534038E-1,-5.087678507E-2,1.578377485E0
7.810936490E-1,7.050924301E-1,7.362170517E-2,1.434725404E0
7.835814610E-1,9.493009448E-1,1.837549806E-1,1.257554412E0
7.860692740E-1,1.136048675E0,2.986766696E-1,1.037287831E0
7.885570860E-1,1.279700756E0,4.710591733E-1,8.361749649E-1
7.910448990E-1,1.370680451E0,6.434416771E-1,6.542156339E-1
7.935327110E-1,1.375468850E0,8.589198589E-1,5.105634928E-1
7.960205240E-1,1.337161660E0,1.083974838E0,4.100070298E-1
7.985083360E-1,1.227028370E0,1.323395014E0,3.333925903E-1
8.009961490E-1,1.059434295E0,1.548449993E0,2.950853705E-1
8.034839610E-1,8.631097078E-1,1.778293371E0,2.998737693E-1
8.059717740E-1,6.284779310E-1,1.969829440E0,3.142389655E-1
8.084595860E-1,3.699041605E-1,2.132635117E0,3.381809890E-1
8.109473990E-1,9.696517140E-2,2.257133722E0,3.094505668E-1
8.134352110E-1,-1.807622313E-1,2.314594507E0,2.136825025E-1
8.159230240E-1,-4.537012279E-1,2.305017710E0,9.876082093E-2
8.184108360E-1,-6.739677787E-1,2.228403330E0,-4.967968538E-2
8.208986490E-1,-8.750807047E-1,2.103904724E0,-1.837549806E-1
8.233864610E-1,-1.028309584E0,1.955464244E0,-3.226186931E-1
8.258742220E-1,-1.148019671E0,1.792658567E0,-4.710591733E-1
8.283619820E-1,-1.258152962E0,1.586757183E0,-6.147112846E-1
8.308497430E-1,-1.411381960E0,1.366490602E0,-7.679402232E-1
8.333375030E-1,-1.655590534E0,1.160589218E0,-8.876502514E-1
8.358252630E-1,-1.942894697E0,9.929951429E-1,-1.007360339E0
8.383130240E-1,-2.254140854E0,7.775170207E-1,-1.165377736E0
8.408007840E-1,-2.565387011E0,4.902127981E-1,-1.352125406E0
8.432885450E-1,-2.857479811E0,1.167173311E-1,-1.572391987E0
8.457763050E-1,-3.125630379E0,-2.902969420E-1,-1.783081770E0
8.482640660E-1,-3.374627352E0,-7.308300734E-1,-2.003348351E0
8.507518260E-1,-3.575740337E0,-1.176151633E0,-2.209249735E0
8.532395860E-1,-3.719392300E0,-1.621473074E0,-2.410362482E0
8.557273470E-1,-3.824737310E0,-2.009333849E0,-2.601898670E0
8.582151070E-1,-3.920505285E0,-2.368463993E0,-2.764704466E0
8.607028680E-1,-3.987542868E0,-2.660556555E0,-2.879626036E0
8.631906280E-1,-4.035427094E0,-2.943072557E0,-2.970605850E0
8.656783880E-1,-4.097676277E0,-3.206434727E0,-3.047220230E0
8.681661490E-1,-4.159925461E0,-3.455431700E0,-3.075950623E0
8.706539090E-1,-4.207809448E0,-3.694851875E0,-3.109469414E0
8.731416700E-1,-4.279635429E0,-3.915118217E0,-3.162141800E0
8.756294300E-1,-4.303577423E0,-4.144961834E0,-3.224391222E0
8.781171910E-1,-4.341884613E0,-4.355651379E0,-3.257910013E0
8.806049510E-1,-4.384980202E0,-4.537611008E0,-3.277063608E0
8.830927110E-1,-4.437653065E0,-4.724358559E0,-3.315370798E0
8.855804720E-1,-4.552574635E0,-4.853645325E0,-3.334524393E0
8.880682320E-1,-4.729745388E0,-4.930259705E0,-3.329735994E0
8.905559930E-1,-4.954800606E0,-4.968566895E0,-3.315370798E0
8.930437530E-1,-5.256469727E0,-4.935048103E0,-3.310582399E0
8.955315130E-1,-5.601234913E0,-4.882375717E0,-3.305794001E0
8.980192740E-1,-5.993884087E0,-4.777030945E0,-3.281852007E0
9.005070340E-1,-6.463147640E0,-4.652532578E0,-3.253121614E0
9.029947950E-1,-6.965929985E0,-4.532822132E0,-3.224391222E0
9.054825550E-1,-7.492654324E0,-4.370016575E0,-3.257910013E0
9.079703160E-1,-7.961917877E0,-4.240729809E0,-3.315370798E0
9.104580760E-1,-8.426392555E0,-4.116231441E0,-3.411138773E0
9.129458360E-1,-8.895656586E0,-3.996521235E0,-3.482964993E0
9.154335970E-1,-9.360131264E0,-3.848080635E0,-3.588309765E0
9.179213570E-1,-9.776722908E0,-3.685275078E0,-3.679289579E0
9.204091180E-1,-1.016937160E1,-3.536834478E0,-3.775057554E0
9.228968780E-1,-1.050934792E1,-3.397970676E0,-3.880402327E0
9.253846380E-1,-1.075355721E1,-3.273472309E0,-3.985747337E0
9.278723990E-1,-1.090199757E1,-3.158550501E0,-4.105457306E0
9.303601590E-1,-1.097382355E1,-3.024475336E0,-4.201225281E0
9.328479200E-1,-1.097382355E1,-2.871246338E0,-4.325724125E0
9.353356800E-1,-1.090199757E1,-2.698863983E0,-4.397550106E0
9.378234410E-1,-1.080144119E1,-2.583942175E0,-4.445434093E0
9.403112010E-1,-1.064342403E1,-2.502539396E0,-4.402338505E0
9.427989610E-1,-1.042794514E1,-2.473809004E0,-4.320935726E0
9.452867220E-1,-1.025077438E1,-2.473809004E0,-4.201225281E0
9.477744820E-1,-1.003529644E1,-2.469020605E0,-4.024054527E0
9.502622430E-1,-9.843760490E0,-2.449866772E0,-3.837306738E0
9.527500030E-1,-9.637859344E0,-2.411559582E0,-3.588309765E0
9.552377630E-1,-9.451110840E0,-2.363675594E0,-3.324947596E0
9.577255240E-1,-9.254786491E0,-2.320580006E0,-3.090315819E0
9.602132840E-1,-9.077615738E0,-2.258330822E0,-2.836530447E0
9.627010450E-1,-8.919598579E0,-2.181716204E0,-2.577956676E0
9.651888050E-1,-8.771158218E0,-2.152985811E0,-2.285864115E0
9.676765660E-1,-8.641871452E0,-2.124255419E0,-1.974617839E0
9.701643260E-1,-8.507795334E0,-2.105101824E0,-1.629852772E0
9.726520860E-1,-8.392873764E0,-2.085948229E0,-1.285087705E0
9.751398470E-1,-8.311470985E0,-2.038064241E0,-9.355342984E-1
9.776276070E-1,-8.263586998E0,-1.980603337E0,-6.051344872E-1
9.801153680E-1,-8.234856606E0,-1.932719350E0,-2.843114436E-1
9.826035970E-1,-8.263586998E0,-1.918354154E0,-1.795651275E-3
9.850912530E-1,-8.364143372E0,-1.875258446E0,2.567781210E-1
9.875789090E-1,-8.526948929E0,-1.803432465E0,5.057750940E-1
9.900665660E-1,-8.713697433E0,-1.741183162E0,7.068880796E-1
9.925542220E-1,-8.886079788E0,-1.688510776E0,8.553285599E-1
9.950418780E-1,-9.072827339E0,-1.611896276E0,9.798270464E-1
9.975295340E-1,-9.283516884E0,-1.535281897E0,1.089960337E0
1.000017191E0,-9.599552155E0,-1.425148606E0,1.190516829E0
1.002504847E0,-9.934740067E0,-1.295861721E0,1.295861721E0
1.004992503E0,-1.023640919E1,-1.166574836E0,1.348534107E0
1.007480159E0,-1.046146393E1,-1.061229944E0,1.329380512E0
1.009967816E0,-1.063863564E1,-1.003769040E0,1.247977614E0
1.012455472E0,-1.078707600E1,-9.750386477E-1,1.089960337E0
1.014943180E0,-1.092115116E1,-9.510966539E-1,8.936358094E-1
1.017430941E0,-1.104086113E1,-9.558850527E-1,6.590040326E-1
1.019918753E0,-1.112705231E1,-9.989806414E-1,3.860650361E-1
1.022406566E0,-1.112226391E1,-1.080383539E0,1.179144308E-1
1.024894378E0,-1.103607273E1,-1.204882026E0,-1.167173311E-1
1.027382191E0,-1.086369038E1,-1.382052898E0,-3.321954906E-1
1.029870003E0,-1.060990524E1,-1.535281897E0,-4.854243994E-1
1.032357816E0,-1.036090755E1,-1.645415068E0,-5.955576897E-1
1.034845628E0,-1.007360363E1,-1.731606364E0,-6.578069329E-1
1.037333441E0,-9.776722908E0,-1.803432465E0,-7.104793787E-1
1.039821253E0,-9.518148422E0,-1.841739655E0,-7.487865686E-1
1.042309066E0,-9.264363289E0,-1.903988957E0,-7.727286220E-1
1.044796878E0,-9.020154953E0,-1.942296147E0,-7.392097712E-1
1.047284691E0,-8.795100212E0,-1.966238141E0,-6.817489266E-1
1.049772503E0,-8.613141060E0,-1.999756932E0,-5.907692909E-1
1.052260316E0,-8.469488144E0,-2.033275843E0,-4.614823759E-1
1.054748128E0,-8.373720169E0,-2.038064241E0,-3.130418658E-1
1.057235941E0,-8.306682587E0,-2.028487444E0,-1.550245583E-1
1.059723753E0,-8.263586998E0,-1.999756932E0,-1.137245819E-2
1.062211566E0,-8.297105789E0,-1.947084546E0,1.322796494E-1
1.064699378E0,-8.349778175E0,-1.908777356E0,2.567781210E-1
1.067187191E0,-8.431180954E0,-1.870470047E0,3.381809890E-1
1.069675003E0,-8.541314125E0,-1.856104851E0,3.956418335E-1
1.072162816E0,-8.689755440E0,-1.903988957E0,4.531026781E-1
1.074650628E0,-8.890868187E0,-1.975814939E0,5.297171474E-1
1.077138441E0,-9.139864922E0,-2.090736628E0,6.446388364E-1
1.079626253E0,-9.427168846E0,-2.196081400E0,7.547720671E-1
1.082114066E0,-9.676166534E0,-2.306214809E0,8.505401611E-1
1.084601878E0,-9.848548889E0,-2.397194386E0,8.936358094E-1
1.087089691E0,-9.925163269E0,-2.497750998E0,9.080010056E-1
1.089577503E0,-9.963470459E0,-2.564788580E0,8.984242082E-1
1.092065316E0,-9.992200851E0,-2.617460966E0,8.457517624E-1
1.094553128E0,-1.002093124E1,-2.612672567E0,7.787141204E-1
1.097040888E0,-1.007360363E1,-2.583942175E0,6.733692288E-1
1.099528649E0,-1.010233402E1,-2.564788580E0,5.345055461E-1
1.102016409E0,-1.010233402E1,-2.555211782E0,3.812766075E-1
1.104504170E0,-1.007839203E1,-2.564788580E0,1.945288926E-1
1.106991930E0,-1.001135445E1,-2.569576979E0,3.172317147E-2
1.109479691E0,-9.915586472E0,-2.550423384E0,-1.837549806E-1
1.111967451E0,-9.805453300E0,-2.526481390E0,-3.848679364E-1
1.114455211E0,-9.671378136E0,-2.483385801E0,-5.907692909E-1
1.116942972E0,-9.527725220E0,-2.449866772E0,-8.158242106E-1
1.119430732E0,-9.384073257E0,-2.411559582E0,-1.012148738E0
1.121918493E0,-9.245209694E0,-2.373252392E0,-1.174954534E0
1.124406253E0,-9.111134529E0,-2.315791607E0,-1.294664621E0
1.126894013E0,-9.010578156E0,-2.282272816E0,-1.404797792E0
1.129381774E0,-8.905233383E0,-2.234388828E0,-1.490989089E0
1.131869534E0,-8.795100212E0,-2.152985811E0,-1.577180386E0
1.134357295E0,-8.670601845E0,-2.076371431E0,-1.649006367E0
1.136845055E0,-8.526948929E0,-2.004545450E0,-1.711255670E0
1.139332816E0,-8.388085365E0,-1.961449742E0,-1.744774461E0
1.141820576E0,-8.287528992E0,-1.913565755E0,-1.778293371E0
1.144308336E0,-8.239645004E0,-1.899200439E0,-1.754351258E0
1.146796097E0,-8.234856606E0,-1.937507749E0,-1.692102075E0
1.149283857E0,-8.254010201E0,-2.023699045E0,-1.610699177E0
1.151771618E0,-8.268375397E0,-2.124255419E0,-1.534084797E0
1.154259378E0,-8.277952194E0,-2.243965626E0,-1.428739905E0
1.156747138E0,-8.249221802E0,-2.334945202E0,-1.332971811E0
1.159234899E0,-8.220491409E0,-2.397194386E0,-1.299453020E0
1.161722659E0,-8.201337814E0,-2.473809004E0,-1.251568913E0
1.164210420E0,-8.177395821E0,-2.550423384E0,-1.189319730E0
1.166698180E0,-8.172607422E0,-2.607884169E0,-1.131858826E0
1.169185941E0,-8.206126213E0,-2.650979757E0,-1.074398041E0
1.171673701E0,-8.292317390E0,-2.660556555E0,-1.007360339E0
1.174161461E0,-8.426392555E0,-2.627037764E0,-9.594763517E-1
1.176649222E0,-8.584410667E0,-2.569576979E0,-9.259575009E-1
1.179136982E0,-8.723274231E0,-2.497750998E0,-9.546879530E-1
1.181624743E0,-8.819042206E0,-2.425924778E0,-1.012148738E0
1.184112503E0,-8.862137794E0,-2.349310398E0,-1.050456047E0
1.186600263E0,-8.833407402E0,-2.243965626E0,-1.079186440E0
1.189088024E0,-8.766369820E0,-2.124255419E0,-1.165377736E0
1.191575784E0,-8.651448250E0,-2.018910646E0,-1.251568913E0
1.194063545E0,-8.546102524E0,-1.927930951E0,-1.332971811E0
1.196551305E0,-8.431180954E0,-1.841739655E0,-1.457470298E0
1.199039066E0,-8.354566574E0,-1.803432465E0,-1.572391987E0
1.201526826E0,-8.301894188E0,-1.803432465E0,-1.658583283E0
1.204014586E0,-8.282740593E0,-1.808220863E0,-1.720832467E0
1.206502347E0,-8.273163795E0,-1.832162857E0,-1.720832467E0
1.208990107E0,-8.282740593E0,-1.822586060E0,-1.677736878E0
1.211477868E0,-8.306682587E0,-1.789067268E0,-1.581968784E0
1.213965628E0,-8.359354973E0,-1.731606364E0,-1.505354285E0
1.216453388E0,-8.392873764E0,-1.645415068E0,-1.433528304E0
1.218941149E0,-8.421604156E0,-1.568800688E0,-1.352125406E0
1.221428909E0,-8.498218536E0,-1.506551385E0,-1.265934110E0
1.223916670E0,-8.574832916E0,-1.511339784E0,-1.127070427E0
1.226404430E0,-8.665813446E0,-1.602319479E0,-9.642647505E-1
1.228892191E0,-8.761581421E0,-1.726817966E0,-7.727286220E-1
1.231379951E0,-8.862137794E0,-1.856104851E0,-5.524620414E-1
1.233867711E0,-8.957905769E0,-2.009333849E0,-3.800795078E-1
1.236355472E0,-9.039308548E0,-2.114678621E0,-1.885433793E-1
1.238843232E0,-9.125499725E0,-2.167351007E0,-1.137245819E-2
1.241330993E0,-9.216479301E0,-2.148197412E0,1.705868691E-1
1.243818753E0,-9.297882080E0,-2.085948229E0,3.812766075E-1
1.246306513E0,-9.393650055E0,-1.985391736E0,5.728127360E-1
1.248794274E0,-9.518148422E0,-1.865681648E0,7.164648771E-1
1.251282034E0,-9.661801338E0,-1.717241168E0,8.457517624E-1
1.253769795E0,-9.786299706E0,-1.573589087E0,9.319429994E-1
1.256257555E0,-9.882067680E0,-1.449090600E0,9.750386477E-1
1.258745316E0,-9.987412453E0,-1.358110905E0,9.894038439E-1
1.261233076E0,-1.007839203E1,-1.281496406E0,9.558850527E-1
1.263720836E0,-1.016458321E1,-1.195305228E0,8.984242082E-1
1.266208597E0,-1.023162079E1,-1.075595140E0,7.787141204E-1
1.268696357E0,-1.023162079E1,-9.319429994E-1,6.206967831E-1
1.271184118E0,-1.016458321E1,-8.122329116E-1,4.100070298E-1
1.273671878E0,-1.004008484E1,-7.020996213E-1,1.562216580E-1
1.276159638E0,-9.901221275E0,-6.925228238E-1,-1.406593472E-1
1.278647399E0,-9.791088104E0,-8.026561141E-1,-4.183867574E-1
1.281135159E0,-9.695320129E0,-9.941922426E-1,-6.625953317E-1
1.283622920E0,-9.642647743E0,-1.243189216E0,-8.349778652E-1
1.286110680E0,-9.537302017E0,-1.535281897E0,-9.786299467E-1
1.288598441E0,-9.436745644E0,-1.827374458E0,-1.136647224E0
1.291086201E0,-9.317035675E0,-2.066794634E0,-1.270722508E0
1.293573961E0,-9.202114105E0,-2.220023632E0,-1.356913805E0
1.296061722E0,-9.063250542E0,-2.325368404E0,-1.443105102E0
1.298549482E0,-8.924386978E0,-2.378040791E0,-1.495777488E0
1.301037243E0,-8.790311813E0,-2.401982784E0,-1.524507880E0
1.303525003E0,-8.694543839E0,-2.378040791E0,-1.538873196E0
1.306012763E0,-8.646659851E0,-2.354098797E0,-1.562815189E0
1.308500524E0,-8.646659851E0,-2.330156803E0,-1.562815189E0
1.310988284E0,-8.665813446E0,-2.301426411E0,-1.519719481E0
1.313476045E0,-8.708909035E0,-2.272696018E0,-1.490989089E0
1.315963805E0,-8.756793022E0,-2.234388828E0,-1.423951507E0
1.318451618E0,-8.804677010E0,-2.210446835E0,-1.356913805E0
1.320939430E0,-8.819042206E0,-2.186504602E0,-1.294664621E0
1.323427243E0,-8.819042206E0,-2.109890223E0,-1.218050122E0
1.325915055E0,-8.866926193E0,-2.004545450E0,-1.127070427E0
1.328402868E0,-8.948328972E0,-1.798644066E0,-1.026513934E0
1.330890680E0,-9.034520149E0,-1.549647093E0,-9.211691022E-1
1.333378493E0,-9.111134529E0,-1.271919608E0,-8.254010081E-1
1.335866305E0,-9.111134529E0,-1.008557439E0,-7.679402232E-1
1.338354118E0,-9.087192535E0,-7.882909179E-1,-7.439981699E-1
1.340841930E0,-9.130288124E0,-6.063315868E-1,-7.056909800E-1
1.343329743E0,-9.264363289E0,-4.866214991E-1,-6.865373254E-1
1.345817555E0,-9.522936821E0,-4.339490533E-1,-6.194996834E-1
1.348305368E0,-9.838972092E0,-5.057750940E-1,-5.380968451E-1
1.350793180E0,-1.015021801E1,-6.733692288E-1,-4.423287511E-1
1.353280993E0,-1.034654236E1,-8.984242082E-1,-3.848679364E-1
1.355768805E0,-1.041357994E1,-1.137844324E0,-3.992331326E-1
1.358256618E0,-1.034654236E1,-1.319803715E0,-4.950011969E-1
1.360744430E0,-1.019810200E1,-1.425148606E0,-6.434416771E-1
1.363232243E0,-9.987412453E0,-1.487397790E0,-7.679402232E-1
1.365720055E0,-9.767146111E0,-1.516128182E0,-8.780734539E-1
1.368207868E0,-9.532513618E0,-1.549647093E0,-9.355342984E-1
1.370695680E0,-9.302670479E0,-1.583165884E0,-9.307458997E-1
1.373183493E0,-9.144653320E0,-1.631049871E0,-9.355342984E-1
1.375671305E0,-9.010578156E0,-1.664568782E0,-9.355342984E-1
1.378159118E0,-8.905233383E0,-1.674145579E0,-9.211691022E-1
1.380646930E0,-8.809465408E0,-1.626261473E0,-9.307458997E-1
1.383134743E0,-8.704120636E0,-1.564012289E0,-9.307458997E-1
1.385622555E0,-8.641871452E0,-1.468244195E0,-9.403226972E-1
1.388110368E0,-8.608352661E0,-1.353322506E0,-9.259575009E-1
1.390598180E0,-8.617929459E0,-1.243189216E0,-8.637082577E-1
1.393085993E0,-8.651448250E0,-1.113902330E0,-7.775170207E-1
1.395573805E0,-8.675390244E0,-9.894038439E-1,-6.913257241E-1
1.398061618E0,-8.713697433E0,-8.984242082E-1,-6.099228859E-1
1.400549430E0,-8.708909035E0,-8.218097091E-1,-5.620388389E-1
1.403037243E0,-8.684967041E0,-7.930793166E-1,-5.620388389E-1
1.405525055E0,-8.632294655E0,-7.835025191E-1,-5.907692909E-1
1.408012868E0,-8.603564262E0,-8.026561141E-1,-5.716156363E-1
1.410500680E0,-8.608352661E0,-8.170213103E-1,-5.189431906E-1
1.412988441E0,-8.689755440E0,-8.170213103E-1,-4.662707746E-1
1.415476201E0,-8.876502991E0,-8.074445128E-1,-3.657143116E-1
1.417963961E0,-9.163806915E0,-7.595604658E-1,-2.364274114E-1
1.420451722E0,-9.532513618E0,-6.877344251E-1,-5.446808785E-2
1.422939743E0,-9.929951668E0,-6.063315868E-1,1.227028370E-1
1.425427347E0,-1.033696556E1,-5.345055461E-1,2.711433470E-1
1.427914951E0,-1.066257763E1,-4.578910768E-1,3.860650361E-1
1.430402555E0,-1.095945835E1,-4.100070298E-1,4.722562730E-1
1.432890159E0,-1.120366669E1,-3.860650361E-1,5.297171474E-1
1.435377763E0,-1.141435623E1,-3.573346138E-1,5.680243373E-1
1.437865368E0,-1.159152794E1,-3.142389655E-1,5.584475398E-1
1.440352972E0,-1.168250751E1,-2.567781210E-1,5.440823436E-1
1.442840576E0,-1.169208431E1,-1.993172914E-1,4.626794755E-1
1.445328232E0,-1.164898872E1,-1.610100716E-1,4.100070298E-1
1.447815941E0,-1.156758595E1,-1.514332592E-1,3.238157928E-1
1.450303701E0,-1.148139381E1,-1.370680481E-1,2.615665495E-1
1.452791513E0,-1.137604904E1,-1.227028370E-1,1.801636815E-1
1.455279378E0,-1.126112747E1,-1.227028370E-1,1.179144308E-1
1.457767243E0,-1.115099430E1,-1.370680481E-1,6.524199992E-2
1.460255107E0,-1.099776554E1,-1.418564469E-1,-1.795651275E-3
1.462742972E0,-1.082059479E1,-1.418564469E-1,-7.362170517E-2
1.465230836E0,-1.062905884E1,-1.657984704E-1,-1.454477459E-1
1.467718701E0,-1.043273354E1,-1.610100716E-1,-2.507926226E-1
1.470206566E0,-1.021725559E1,-1.705868691E-1,-3.034650683E-1
1.472694430E0,-9.992200851E0,-1.418564469E-1,-3.848679364E-1
1.475182295E0,-9.752780914E0,-7.960720360E-2,-4.423287511E-1
1.477670159E0,-9.532513618E0,-1.256955881E-2,-4.758476019E-1
1.480158024E0,-9.321824074E0,6.404489279E-2,-5.093663931E-1
1.482645888E0,-9.163806915E0,1.023521200E-1,-5.237316489E-1
1.485133753E0,-8.977059364E0,1.502361596E-1,-5.189431906E-1
1.487621618E0,-8.799888611E0,1.933317930E-1,-4.902127981E-1
1.490109482E0,-8.646659851E0,2.076970041E-1,-4.758476019E-1
1.492597347E0,-8.555679321E0,1.837549806E-1,-4.710591733E-1
1.495085211E0,-8.565256119E0,1.137245819E-2,-4.950011969E-1
1.497572972E0,-8.713697433E0,-3.046621680E-1,-4.662707746E-1
1.500060732E0,-8.938752174E0,-7.404068708E-1,-3.082534671E-1
1.502548493E0,-9.168595314E0,-1.161786318E0,-9.756372124E-2
1.505036253E0,-9.340977669E0,-1.439513803E0,1.179144308E-1
1.507524013E0,-9.441534042E0,-1.549647093E0,2.615665495E-1
1.510011774E0,-9.522936821E0,-1.506551385E0,3.381809890E-1
1.512499534E0,-9.604340553E0,-1.348534107E0,3.190273643E-1
1.514987295E0,-9.700108528E0,-1.156997919E0,2.711433470E-1
1.517475055E0,-9.819818497E0,-9.846154451E-1,2.567781210E-1
1.519962816E0,-9.977835655E0,-8.170213103E-1,2.232593149E-1
1.522450576E0,-1.020289040E1,-6.637924314E-1,2.088941038E-1
1.524938336E0,-1.042794514E1,-5.536591411E-1,2.041056901E-1
1.527426097E0,-1.067694283E1,-4.674678743E-1,2.136825025E-1
1.529913857E0,-1.089720917E1,-3.764882088E-1,1.945288926E-1
1.532401618E0,-1.107437992E1,-2.807201445E-1,1.849520802E-1
1.534889378E0,-1.123239708E1,-1.753752679E-1,1.610100716E-1
1.537377138E0,-1.135210705E1,-9.397241473E-2,1.753752679E-1
1.539864899E0,-1.139520264E1,-1.735796221E-2,2.232593149E-1
1.542352659E0,-1.144308662E1,5.925649032E-2,2.615665495E-1
1.544840420E0,-1.139041424E1,1.167173311E-1,2.950853705E-1
1.547328180E0,-1.129464626E1,1.262941360E-1,3.286041915E-1
1.549815941E0,-1.114620590E1,1.119289324E-1,3.621230125E-1
1.552303701E0,-1.098340034E1,7.362170517E-2,4.004302323E-1
1.554791461E0,-1.076313400E1,3.531447425E-2,3.956418335E-1
1.557279222E0,-1.049019432E1,-7.781155407E-3,3.908534348E-1
1.559766982E0,-1.018852520E1,-7.481880486E-2,3.716998100E-1
1.562254743E0,-9.886856079E0,-1.322796494E-1,3.621230125E-1
1.564742503E0,-9.580398560E0,-1.610100716E-1,3.669114113E-1
1.567230263E0,-9.249998093E0,-1.562216580E-1,4.052186310E-1
1.569718024E0,-8.967482567E0,-1.514332592E-1,4.578910768E-1
1.572205784E0,-8.737639427E0,-1.753752679E-1,5.297171474E-1
1.574693545E0,-8.641871452E0,-2.950853705E-1,6.159083843E-1
1.577181305E0,-8.646659851E0,-5.105634928E-1,7.595604658E-1
1.579669066E0,-8.694543839E0,-8.361749649E-1,9.175778031E-1
1.582156826E0,-8.752004623E0,-1.195305228E0,1.070806742E0
1.584644586E0,-8.790311813E0,-1.506551385E0,1.233612418E0
1.587132347E0,-8.785523415E0,-1.750759959E0,1.319803715E0
1.589620107E0,-8.766369820E0,-1.923142552E0,1.329380512E0
1.592107868E0,-8.795100212E0,-1.994968534E0,1.310226917E0
1.594595628E0,-8.890868187E0,-1.966238141E0,1.286284804E0
1.597083388E0,-9.029731750E0,-1.875258446E0,1.257554412E0
1.599571149E0,-9.221267700E0,-1.712452769E0,1.219247222E0
1.602058909E0,-9.451110840E0,-1.525704980E0,1.156997919E0
1.604546670E0,-9.676166534E0,-1.319803715E0,1.066018343E0
1.607034430E0,-9.882067680E0,-1.133055925E0,9.558850527E-1
1.609522191E0,-1.009275723E1,-9.798270464E-1,8.313865662E-1
1.612009951E0,-1.029386997E1,-8.696937561E-1,6.829460263E-1
1.614497711E0,-1.050934792E1,-7.739257216E-1,5.392939448E-1
1.616985472E0,-1.071525002E1,-6.590040326E-1,4.004302323E-1
1.619473232E0,-1.092593956E1,-5.728127360E-1,2.663549483E-1
1.621960993E0,-1.115099430E1,-4.626794755E-1,1.753752679E-1
1.624448753E0,-1.133295345E1,-3.190273643E-1,9.397241473E-2
1.626936513E0,-1.144787502E1,-1.753752679E-1,6.045359373E-2
1.629424274E0,-1.148618221E1,-7.003039867E-2,5.087678507E-2
1.631912034E0,-1.145745182E1,1.137245819E-2,5.087678507E-2
1.634399795E0,-1.135689545E1,8.798690885E-2,2.214636654E-2
1.636887607E0,-1.120845509E1,1.358709484E-1,1.256955881E-2
1.639375420E0,-1.100255394E1,1.598129570E-1,1.256955881E-2
1.641863232E0,-1.074876881E1,1.741781682E-1,7.781155407E-3
1.644351045E0,-1.046146393E1,1.598129570E-1,2.992752008E-3
1.646838857E0,-1.017894840E1,1.358709484E-1,2.992752008E-3
1.649326670E0,-9.872490883E0,9.756372124E-2,2.992752008E-3
1.651814482E0,-9.633070946E0,3.052607179E-2,7.781155407E-3
1.654302295E0,-9.441534042E0,-1.227028370E-1,2.214636654E-2
1.656790107E0,-9.360131264E0,-3.764882088E-1,4.608838260E-2
1.659277920E0,-9.340977669E0,-7.068880796E-1,1.418564469E-1
1.661765732E0,-9.379284859E0,-1.109113932E0,3.094505668E-1
1.664253545E0,-9.403226852E0,-1.492186189E0,4.961982965E-1
1.666741357E0,-9.393650055E0,-1.817797661E0,6.637924314E-1
1.669229170E0,-9.312247276E0,-2.033275843E0,8.026561141E-1
1.671716982E0,-9.211690903E0,-2.162562609E0,8.744821548E-1
1.674204795E0,-9.087192535E0,-2.186504602E0,8.696937561E-1
1.676692607E0,-8.991424561E0,-2.133832216E0,8.218097091E-1
1.679180420E0,-8.919598579E0,-2.042852640E0,7.739257216E-1
1.681668232E0,-8.871714592E0,-1.923142552E0,6.877344251E-1
1.684156045E0,-8.890868187E0,-1.803432465E0,6.302735806E-1
1.686643857E0,-8.991424561E0,-1.702875972E0,5.680243373E-1
1.689131670E0,-9.168595314E0,-1.621473074E0,5.536591411E-1
1.691619482E0,-9.446322441E0,-1.496974587E0,5.440823436E-1
1.694107295E0,-9.771934509E0,-1.348534107E0,5.728127360E-1
1.696595107E0,-1.016458321E1,-1.180940032E0,6.494272351E-1
1.699082920E0,-1.061469364E1,-1.013345838E0,7.643488646E-1
1.701570732E0,-1.105522633E1,-8.170213103E-1,9.080010056E-1
1.704058545E0,-1.141914463E1,-5.823895931E-1,1.061229944E0
1.706546357E0,-1.173039150E1,-3.573346138E-1,1.209670424E0
1.709034170E0,-1.197938824E1,-1.801636815E-1,1.310226917E0
1.711521982E0,-1.210867500E1,-4.129998013E-2,1.362899303E0
1.714009795E0,-1.215655899E1,2.094926499E-2,1.353322506E0
1.716497607E0,-1.213740540E1,2.573766746E-2,1.319803715E0
1.718985420E0,-1.203684902E1,-2.693476900E-2,1.276708007E0
1.721473232E0,-1.185010147E1,-8.439560980E-2,1.219247222E0
1.723961045E0,-1.159152794E1,-1.705868691E-1,1.118690729E0
1.726448857E0,-1.129464626E1,-2.711433470E-1,9.846154451E-1
1.728936670E0,-1.095466995E1,-3.956418335E-1,8.122329116E-1
1.731424482E0,-1.062905884E1,-5.201402903E-1,6.398503780E-1
1.733912295E0,-1.031781197E1,-6.829460263E-1,4.961982965E-1
1.736400107E0,-1.010712242E1,-8.984242082E-1,3.812766075E-1
1.738887920E0,-9.958682060E0,-1.147421122E0,3.238157928E-1
1.741375732E0,-9.886856079E0,-1.410783410E0,3.094505668E-1
1.743863545E0,-9.862914085E0,-1.688510776E0,3.573346138E-1
1.746351357E0,-9.877279282E0,-1.942296147E0,3.860650361E-1
1.748839170E0,-9.944316864E0,-2.129043818E0,4.195838571E-1
1.751326982E0,-9.982624054E0,-2.248754025E0,4.435258508E-1
1.753814795E0,-1.003529644E1,-2.306214809E0,4.291606545E-1
1.756302607E0,-1.008318043E1,-2.291849613E0,3.908534348E-1
1.758790368E0,-1.010233402E1,-2.239177227E0,2.759317458E-1
1.761278128E0,-1.009754562E1,-2.114678621E0,1.466448605E-1
1.763765888E0,-1.010233402E1,-1.985391736E0,2.214636654E-2
1.766253649E0,-1.013106441E1,-1.836951256E0,-7.841010392E-2
1.768741409E0,-1.016937160E1,-1.683722377E0,-1.885433793E-1
1.771229170E0,-1.024119759E1,-1.559223890E0,-2.555810213E-1
1.773716930E0,-1.029865837E1,-1.444302201E0,-2.986766696E-1
1.776204691E0,-1.036090755E1,-1.338957310E0,-3.178302646E-1
1.778692451E0,-1.043752193E1,-1.243189216E0,-3.034650683E-1
1.781180211E0,-1.048061752E1,-1.133055925E0,-2.603694201E-1
1.783667972E0,-1.051413631E1,-1.027711034E0,-1.933317930E-1
1.786155732E0,-1.047104073E1,-9.606734514E-1,-1.215057373E-1
1.788643493E0,-1.037527275E1,-8.984242082E-1,-3.531447425E-2
1.791131253E0,-1.021246719E1,-8.457517624E-1,4.608838260E-2
1.793619013E0,-1.001614285E1,-8.170213103E-1,1.514332592E-1
1.796106774E0,-9.838972092E0,-8.313865662E-1,2.472013235E-1
1.798594534E0,-9.666589737E0,-9.080010056E-1,3.429693878E-1
1.801082295E0,-9.513360023E0,-9.941922426E-1,4.674678743E-1
1.803570055E0,-9.374496460E0,-1.142632723E0,6.494272351E-1
1.806057816E0,-9.264363289E0,-1.286284804E0,8.361749649E-1
1.808545576E0,-9.139864922E0,-1.487397790E0,1.013345838E0
1.811033336E0,-9.082404137E0,-1.698087573E0,1.219247222E0
1.813521097E0,-9.068038940E0,-1.923142552E0,1.506551385E0
1.816008857E0,-9.063250542E0,-2.152985811E0,1.798644066E0
1.818496618E0,-9.091980934E0,-2.392405987E0,2.081159830E0
1.820984378E0,-9.144653320E0,-2.622249365E0,2.373252392E0
1.823472138E0,-9.240421295E0,-2.799420357E0,2.679710150E0
1.825959899E0,-9.317035675E0,-2.952649355E0,2.914341927E0
1.828447659E0,-9.451110840E0,-3.057994127E0,3.096301317E0
1.830935420E0,-9.604340553E0,-3.129820108E0,3.196857929E0
1.833423180E0,-9.781511307E0,-3.139396906E0,3.216011524E0
1.835910941E0,-9.958682060E0,-3.091512918E0,3.139396906E0
1.838398701E0,-1.011191082E1,-3.019686937E0,2.962226152E0
1.840886461E0,-1.028908157E1,-2.909553528E0,2.722805977E0
1.843374222E0,-1.047582912E1,-2.780266762E0,2.435501575E0
1.845861982E0,-1.068651962E1,-2.622249365E0,2.119467020E0
1.848349743E0,-1.094988155E1,-2.435501575E0,1.841739655E0
1.850837503E0,-1.124197388E1,-2.200869799E0,1.583165884E0
1.853325263E0,-1.153885555E1,-1.961449742E0,1.300650120E0
1.855813024E0,-1.181179428E1,-1.726817966E0,1.018134236E0
1.858300784E0,-1.203684902E1,-1.477820992E0,7.356184721E-1
1.860788545E0,-1.218050098E1,-1.276708007E0,4.770447016E-1
1.863276305E0,-1.228105736E1,-1.089960337E0,1.945288926E-1
1.865764066E0,-1.230978775E1,-9.463081956E-1,-6.883329898E-2
1.868251826E0,-1.226669216E1,-8.457517624E-1,-3.178302646E-1
1.870739586E0,-1.219007778E1,-7.882909179E-1,-5.572504401E-1
1.873227399E0,-1.209909821E1,-7.930793166E-1,-7.392097712E-1
1.875715211E0,-1.197938824E1,-8.265981078E-1,-8.541314602E-1
1.878203024E0,-1.180700588E1,-9.080010056E-1,-9.307458997E-1
1.880690836E0,-1.166335392E1,-1.003769040E0,-9.163807034E-1
1.883178649E0,-1.149097061E1,-1.118690729E0,-8.445546627E-1
1.885666461E0,-1.133774185E1,-1.271919608E0,-7.009025216E-1
1.888154274E0,-1.123239708E1,-1.401206493E0,-5.045779943E-1
1.890642086E0,-1.117972469E1,-1.559223890E0,-2.412158251E-1
1.893129899E0,-1.117014790E1,-1.726817966E0,7.003039867E-2
1.895617711E0,-1.120845509E1,-1.913565755E0,4.435258508E-1
1.898105524E0,-1.130422306E1,-2.066794634E0,8.361749649E-1
1.900593336E0,-1.137604904E1,-2.215235233E0,1.238400817E0
1.903081149E0,-1.144308662E1,-2.315791607E0,1.564012289E0
1.905568961E0,-1.149097061E1,-2.382829189E0,1.817797661E0
1.908056774E0,-1.148139381E1,-2.406771183E0,1.971026540E0
1.910544586E0,-1.147660542E1,-2.373252392E0,2.028487444E0
1.913032399E0,-1.148139381E1,-2.325368404E0,2.004545450E0
1.915520211E0,-1.148618221E1,-2.229600430E0,1.918354154E0
1.918008024E0,-1.151491261E1,-2.152985811E0,1.813009262E0
1.920495836E0,-1.154364395E1,-2.124255419E0,1.631049871E0
1.922983649E0,-1.153406715E1,-2.129043818E0,1.415571809E0
1.925471461E0,-1.150054741E1,-2.176927805E0,1.200093627E0
1.927959274E0,-1.141914463E1,-2.248754025E0,9.367313981E-1
1.930447086E0,-1.130901146E1,-2.354098797E0,6.733692288E-1
1.932934899E0,-1.121324348E1,-2.454655409E0,3.956418335E-1
1.935422711E0,-1.107916832E1,-2.569576979E0,1.705868691E-1
1.937910524E0,-1.092593956E1,-2.660556555E0,2.214636654E-2
1.940398336E0,-1.081580639E1,-2.756324768E0,-5.446808785E-2
1.942886149E0,-1.073919201E1,-2.852092743E0,-5.925649032E-2
1.945373961E0,-1.066257763E1,-2.938283920E0,6.045359373E-2
1.947861774E0,-1.063863564E1,-3.024475336E0,2.136825025E-1
1.950349586E0,-1.061948204E1,-3.086724520E0,4.195838571E-1
1.952837399E0,-1.061469364E1,-3.139396906E0,6.446388364E-1
1.955325211E0,-1.061469364E1,-3.168127298E0,8.696937561E-1
1.957813024E0,-1.064821243E1,-3.187281132E0,1.056441545E0
1.960300836E0,-1.068173122E1,-3.211223125E0,1.243189216E0
1.962788649E0,-1.074398041E1,-3.201646328E0,1.434725404E0
1.965276461E0,-1.082538319E1,-3.187281132E0,1.654991984E0
1.967764274E0,-1.089242077E1,-3.144185305E0,1.908777356E0
1.970252086E0,-1.091636276E1,-3.101089716E0,2.148197412E0
1.972739899E0,-1.089242077E1,-3.072359324E0,2.349310398E0
1.975227711E0,-1.083017159E1,-3.034052134E0,2.531269789E0
1.977715524E0,-1.074398041E1,-3.014898539E0,2.665344954E0
1.980203336E0,-1.062427044E1,-2.990956545E0,2.746747971E0
1.982691149E0,-1.045667553E1,-2.971802950E0,2.761113167E0
1.985178961E0,-1.027950478E1,-2.957437754E0,2.713229179E0
1.987666774E0,-1.012148762E1,-2.904765129E0,2.665344954E0
1.990154586E0,-9.996989250E0,-2.842515945E0,2.598307371E0
1.992642399E0,-9.925163269E0,-2.785055161E0,2.560000181E0
1.995130211E0,-9.934740067E0,-2.703652382E0,2.593518972E0
1.997618024E0,-9.992200851E0,-2.603095770E0,2.579153776E0
2.000105836E0,-1.012148762E1,-2.531269789E0,2.550423384E0
2.002593649E0,-1.024598598E1,-2.469020605E0,2.497750998E0
2.005081461E0,-1.036090755E1,-2.459443808E0,2.382829189E0
2.007569274E0,-1.044709873E1,-2.440289974E0,2.152985811E0
2.010057086E0,-1.054286766E1,-2.425924778E0,1.808220863E0
2.012544899E0,-1.065300083E1,-2.416347980E0,1.429937005E0
2.015032711E0,-1.094030476E1,-2.574365377E0,1.262342811E0
2.017520524E0,-1.070567322E1,-2.794631958E0,1.439513803E0
2.020008336E0,-1.040400314E1,-2.737171173E0,1.233612418E0
2.022496149E0,-1.047104073E1,-2.387617588E0,6.781576276E-1
2.024983961E0,-1.063384724E1,-2.066794634E0,2.136825025E-1
2.027471722E0,-1.072961521E1,-1.899200439E0,-1.406593472E-1
2.029959482E0,-1.073440361E1,-1.851316452E0,-4.231751561E-1
2.032447243E0,-1.074398041E1,-1.908777356E0,-6.099228859E-1
2.034935003E0,-1.083974838E1,-1.990180135E0,-6.769605279E-1
2.037422763E0,-1.094509315E1,-2.057217836E0,-6.721721292E-1
2.039910524E0,-1.107916832E1,-2.100313425E0,-6.051344872E-1
2.042398284E0,-1.122760868E1,-2.143409014E0,-4.566939771E-1
2.044886045E0,-1.133774185E1,-2.143409014E0,-2.412158251E-1
2.047373805E0,-1.140956783E1,-2.090736628E0,3.651157767E-2
2.049861566E0,-1.144787502E1,-2.014122248E0,3.333925903E-1
2.052349326E0,-1.145266342E1,-1.908777356E0,6.111199856E-1
2.054837086E0,-1.140477943E1,-1.784278870E0,8.696937561E-1
2.057324847E0,-1.132337666E1,-1.669357181E0,1.070806742E0
2.059812607E0,-1.127549267E1,-1.559223890E0,1.204882026E0
2.062300368E0,-1.119887829E1,-1.473032594E0,1.291073322E0
2.064788128E0,-1.114141750E1,-1.425148606E0,1.372476101E0
2.067275888E0,-1.107916832E1,-1.415571809E0,1.463455796E0
2.069763649E0,-1.099297714E1,-1.439513803E0,1.540070295E0
2.072251409E0,-1.091157436E1,-1.501762986E0,1.650203466E0
2.074739170E0,-1.076313400E1,-1.564012289E0,1.774701953E0
2.077226930E0,-1.062905884E1,-1.587954283E0,1.875258446E0
2.079714691E0,-1.050934792E1,-1.587954283E0,1.956661344E0
2.082202451E0,-1.042315674E1,-1.568800688E0,2.033275843E0
2.084690211E0,-1.037048435E1,-1.568800688E0,2.109890223E0
2.087177972E0,-1.032260036E1,-1.583165884E0,2.186504602E0
2.089665732E0,-1.029386997E1,-1.626261473E0,2.234388828E0
2.092153493E0,-1.028429317E1,-1.698087573E0,2.306214809E0
2.094641253E0,-1.021725559E1,-1.769913554E0,2.330156803E0
2.097129013E0,-1.018852520E1,-1.827374458E0,2.325368404E0
2.099616774E0,-1.017416000E1,-1.894412041E0,2.344521999E0
2.102104534E0,-1.020767879E1,-1.927930951E0,2.387617588E0
2.104592295E0,-1.025556278E1,-1.942296147E0,2.473809004E0
2.107080055E0,-1.029865837E1,-1.947084546E0,2.574365377E0
2.109567816E0,-1.031781197E1,-1.913565755E0,2.665344954E0
2.112055576E0,-1.030344677E1,-1.870470047E0,2.718017578E0
2.114543336E0,-1.027950478E1,-1.827374458E0,2.727594376E0
2.117031097E0,-1.025077438E1,-1.789067268E0,2.689286947E0
2.119518857E0,-1.023640919E1,-1.769913554E0,2.593518972E0
2.122006670E0,-1.021725559E1,-1.736394763E0,2.473809004E0
2.124494482E0,-1.020289040E1,-1.726817966E0,2.382829189E0
2.126982295E0,-1.020289040E1,-1.702875972E0,2.263119221E0
2.129470107E0,-1.016458321E1,-1.678933978E0,2.114678621E0
2.131957920E0,-1.013106441E1,-1.654991984E0,1.990180135E0
2.134445732E0,-1.010233402E1,-1.640626669E0,1.856104851E0
2.136933545E0,-1.005445004E1,-1.645415068E0,1.707664371E0
2.139421357E0,-1.001614285E1,-1.640626669E0,1.530493379E0
2.141909170E0,-9.992200851E0,-1.659780383E0,1.343745708E0
2.144396982E0,-9.977835655E0,-1.731606364E0,1.113902330E0
2.146884795E0,-9.973047256E0,-1.827374458E0,8.888474107E-1
2.149372607E0,-9.929951668E0,-1.980603337E0,6.590040326E-1
2.151860420E0,-9.819818497E0,-2.157774210E0,4.387374520E-1
2.154348232E0,-9.589975357E0,-2.311003208E0,1.897404790E-1
2.156836045E0,-9.408015251E0,-2.334945202E0,-2.460042238E-1
2.159323857E0,-9.345766068E0,-2.272696018E0,-7.775170207E-1
2.161811670E0,-9.269151688E0,-2.239177227E0,-1.232415318E0
2.164299482E0,-9.178172112E0,-2.239177227E0,-1.519719481E0
2.166787295E0,-9.087192535E0,-2.287061214E0,-1.639429569E0
2.169275107E0,-9.029731750E0,-2.363675594E0,-1.634641171E0
2.171762920E0,-9.044096947E0,-2.454655409E0,-1.538873196E0
2.174250732E0,-9.087192535E0,-2.531269789E0,-1.361702204E0
2.176738545E0,-9.168595314E0,-2.588730574E0,-1.131858826E0
2.179226357E0,-9.226056099E0,-2.612672567E0,-8.589198589E-1
2.181714170E0,-9.254786491E0,-2.617460966E0,-5.907692909E-1
2.184201982E0,-9.283516884E0,-2.612672567E0,-3.082534671E-1
2.186689795E0,-9.312247276E0,-2.583942175E0,-5.925649032E-2
2.189177607E0,-9.350554466E0,-2.521692991E0,1.753752679E-1
2.191665420E0,-9.379284859E0,-2.454655409E0,3.860650361E-1
2.194153232E0,-9.408015251E0,-2.397194386E0,5.584475398E-1
2.196641045E0,-9.431957245E0,-2.306214809E0,7.164648771E-1
2.199128857E0,-9.451110840E0,-2.224812031E0,8.505401611E-1
2.201616670E0,-9.451110840E0,-2.109890223E0,9.941922426E-1
2.204104482E0,-9.422380447E0,-1.994968534E0,1.109113932E0
2.206592295E0,-9.388861656E0,-1.894412041E0,1.190516829E0
2.209080107E0,-9.384073257E0,-1.774701953E0,1.324592113E0
2.211567920E0,-9.388861656E0,-1.678933978E0,1.434725404E0
2.214055732E0,-9.393650055E0,-1.607107878E0,1.540070295E0
2.216543545E0,-9.431957245E0,-1.544858694E0,1.654991984E0
2.219031357E0,-9.479841232E0,-1.520916581E0,1.745971560E0
2.221519170E0,-9.546878815E0,-1.520916581E0,1.827374458E0
2.224006982E0,-9.585186958E0,-1.549647093E0,1.899200439E0
2.226494795E0,-9.604340553E0,-1.573589087E0,1.961449742E0
2.228982607E0,-9.599552155E0,-1.611896276E0,2.014122248E0
2.231470420E0,-9.570821762E0,-1.645415068E0,2.057217836E0
2.233958232E0,-9.532513618E0,-1.678933978E0,2.090736628E0
2.236446045E0,-9.489418030E0,-1.707664371E0,2.129043818E0
2.238933857E0,-9.441534042E0,-1.784278870E0,2.133832216E0
2.241421670E0,-9.369708061E0,-1.880046844E0,2.162562609E0
2.243909482E0,-9.302670479E0,-1.980603337E0,2.205658197E0
2.246397295E0,-9.226056099E0,-2.105101824E0,2.243965626E0
2.248885107E0,-9.168595314E0,-2.229600430E0,2.306214809E0
2.251372920E0,-9.101557732E0,-2.373252392E0,2.330156803E0
2.253860732E0,-9.020154953E0,-2.512116194E0,2.368463993E0
2.256348545E0,-8.890868187E0,-2.665344954E0,2.401982784E0
2.258836357E0,-8.704120636E0,-2.775478363E0,2.425924778E0
2.261324170E0,-8.474276543E0,-2.847304344E0,2.454655409E0
2.263811982E0,-8.234856606E0,-2.904765129E0,2.492962599E0
2.266299795E0,-8.028955460E0,-2.923918724E0,2.531269789E0
2.268787607E0,-7.866149902E0,-2.938283920E0,2.569576979E0
2.271275420E0,-7.760804653E0,-2.904765129E0,2.698863983E0
2.273763232E0,-7.708132267E0,-2.842515945E0,2.765901566E0
2.276251045E0,-7.688978672E0,-2.765901566E0,2.799420357E0
2.278738857E0,-7.746439457E0,-2.641402960E0,2.813785553E0
2.281226670E0,-7.846996307E0,-2.488174200E0,2.765901566E0
2.283714482E0,-8.000225067E0,-2.296638012E0,2.684498549E0
2.286202295E0,-8.220491409E0,-2.066794634E0,2.560000181E0
2.288690107E0,-8.455122948E0,-1.808220863E0,2.445078373E0
2.291177920E0,-8.747216225E0,-1.568800688E0,2.315791607E0
2.293665732E0,-9.091980934E0,-1.315015316E0,2.191293001E0
2.296153545E0,-9.431957245E0,-1.080383539E0,2.028487444E0
2.298641357E0,-9.776722908E0,-8.696937561E-1,1.856104851E0
2.301129170E0,-1.015500641E1,-7.164648771E-1,1.654991984E0
2.303616982E0,-1.047582912E1,-5.488707423E-1,1.434725404E0
2.306104795E0,-1.075355721E1,-4.147954583E-1,1.190516829E0
2.308592607E0,-1.096424675E1,-3.046621680E-1,9.415197968E-1
2.311080420E0,-1.109353352E1,-2.088941038E-1,6.350619793E-1
2.313568232E0,-1.116057110E1,-1.514332592E-1,3.190273643E-1
2.316056045E0,-1.112705231E1,-1.418564469E-1,4.129998013E-2
2.318543857E0,-1.100734234E1,-1.610100716E-1,-2.076970041E-1
2.321031670E0,-1.083974838E1,-2.328361124E-1,-3.848679364E-1
2.323519482E0,-1.065778923E1,-3.190273643E-1,-5.093663931E-1
2.326007295E0,-1.043752193E1,-4.531026781E-1,-5.716156363E-1
2.328495055E0,-1.020289040E1,-6.254851818E-1,-5.907692909E-1
2.330982816E0,-9.987412453E0,-8.265981078E-1,-6.003460884E-1
2.333470576E0,-9.733627319E0,-1.056441545E0,-5.524620414E-1
2.335958336E0,-9.489418030E0,-1.286284804E0,-5.093663931E-1
2.338446097E0,-9.269151688E0,-1.492186189E0,-4.375403523E-1
2.340933857E0,-9.063250542E0,-1.698087573E0,-3.417722881E-1
2.343421618E0,-8.890868187E0,-1.875258446E0,-2.220622003E-1
2.345909378E0,-8.742427826E0,-1.990180135E0,-4.967968538E-2
2.348397138E0,-8.617929459E0,-2.062006235E0,1.466448605E-1
2.350884899E0,-8.503006935E0,-2.133832216E0,3.525462151E-1
2.353372659E0,-8.412027359E0,-2.152985811E0,5.919663906E-1
2.355860420E0,-8.364143372E0,-2.143409014E0,7.930793166E-1
2.358348180E0,-8.359354973E0,-2.109890223E0,9.846154451E-1
2.360835941E0,-8.407238960E0,-2.057217836E0,1.142632723E0
2.363323701E0,-8.522160530E0,-1.971026540E0,1.267131209E0
2.365811461E0,-8.665813446E0,-1.880046844E0,1.362899303E0
2.368299222E0,-8.814253807E0,-1.755548358E0,1.458667397E0
2.370786982E0,-9.005789757E0,-1.621473074E0,1.520916581E0
2.373274743E0,-9.211690903E0,-1.477820992E0,1.544858694E0
2.375762503E0,-9.422380447E0,-1.353322506E0,1.587954283E0
2.378250263E0,-9.633070946E0,-1.233612418E0,1.602319479E0
2.380738024E0,-9.838972092E0,-1.142632723E0,1.573589087E0
2.383225784E0,-9.987412453E0,-1.085171938E0,1.540070295E0
2.385713545E0,-1.009275723E1,-1.080383539E0,1.492186189E0
2.388201305E0,-1.012148762E1,-1.152209520E0,1.444302201E0
2.390689066E0,-1.008796883E1,-1.281496406E0,1.444302201E0
2.393176826E0,-9.982624054E0,-1.449090600E0,1.453878999E0
2.395664586E0,-9.843760490E0,-1.626261473E0,1.477820992E0
2.398152347E0,-9.666589737E0,-1.860893250E0,1.520916581E0
2.400640107E0,-9.475052834E0,-2.066794634E0,1.607107878E0
2.403127868E0,-9.264363289E0,-2.258330822E0,1.717241168E0
2.405615628E0,-9.048885345E0,-2.445078373E0,1.832162857E0
2.408103441E0,-8.862137794E0,-2.555211782E0,1.971026540E0
2.410591253E0,-8.670601845E0,-2.694075346E0,2.081159830E0
2.413079066E0,-8.536525726E0,-2.751536369E0,2.186504602E0
2.415566878E0,-8.469488144E0,-2.808997154E0,2.306214809E0
2.418054691E0,-8.450334549E0,-2.804208755E0,2.435501575E0
2.420542503E0,-8.459911346E0,-2.799420357E0,2.521692991E0
2.423030316E0,-8.498218536E0,-2.770689964E0,2.583942175E0
2.425518128E0,-8.555679321E0,-2.751536369E0,2.646191359E0
2.428005941E0,-8.613141060E0,-2.713229179E0,2.684498549E0
2.430493753E0,-8.665813446E0,-2.641402960E0,2.670133352E0
2.432981566E0,-8.723274231E0,-2.569576979E0,2.655768156E0
2.435469378E0,-8.799888611E0,-2.459443808E0,2.617460966E0
2.437957191E0,-8.890868187E0,-2.315791607E0,2.545634985E0
2.440445003E0,-8.953117371E0,-2.167351007E0,2.449866772E0
2.442933284E0,-9.044096947E0,-2.004545450E0,2.349310398E0
2.445421566E0,-9.154230118E0,-1.836951256E0,2.239177227E0
2.447909482E0,-9.259574890E0,-1.678933978E0,2.114678621E0
2.450397295E0,-9.364919662E0,-1.554435492E0,1.985391736E0
2.452885107E0,-9.503783226E0,-1.434725404E0,1.851316452E0
2.455372868E0,-9.609128952E0,-1.329380512E0,1.722029567E0
2.457860628E0,-9.724050522E0,-1.233612418E0,1.607107878E0
2.460348388E0,-9.829395294E0,-1.171363235E0,1.501762986E0
2.462836618E0,-9.906009674E0,-1.104325533E0,1.415571809E0
2.465324118E0,-9.973047256E0,-1.046864748E0,1.310226917E0
2.467811618E0,-1.001614285E1,-9.989806414E-1,1.238400817E0
2.470299118E0,-1.004487324E1,-9.654618502E-1,1.200093627E0
2.472786618E0,-1.006402683E1,-9.558850527E-1,1.185728431E0
2.475274118E0,-1.007360363E1,-9.319429994E-1,1.238400817E0
2.477761670E0,-1.006881523E1,-9.080010056E-1,1.286284804E0
2.480249274E0,-1.010712242E1,-8.840589523E-1,1.334168911E0
2.482736930E0,-1.015500641E1,-8.744821548E-1,1.358110905E0
2.485224638E0,-1.018373680E1,-8.888474107E-1,1.367687702E0
2.487712399E0,-1.018852520E1,-9.032126069E-1,1.377264500E0
2.490200211E0,-1.015021801E1,-9.271546006E-1,1.377264500E0
2.492688076E0,-1.013585281E1,-9.415197968E-1,1.377264500E0
2.495175993E0,-1.013106441E1,-9.510966539E-1,1.358110905E0
2.497663961E0,-1.013585281E1,-9.510966539E-1,1.334168911E0
2.500151982E0,-1.012148762E1,-9.654618502E-1,1.348534107E0
2.502640003E0,-1.011669922E1,-9.702502489E-1,1.358110905E0
2.505128024E0,-1.008796883E1,-1.003769040E0,1.377264500E0
2.507616045E0,-1.005923843E1,-1.037287831E0,1.377264500E0
2.510104066E0,-1.004966164E1,-1.056441545E0,1.353322506E0
2.512592086E0,-1.003529644E1,-1.104325533E0,1.295861721E0
2.515080107E0,-1.002093124E1,-1.156997919E0,1.233612418E0
2.517567920E0,-1.000656605E1,-1.161786318E0,1.152209520E0
2.520055732E0,-9.958682060E0,-1.171363235E0,1.070806742E0
2.522543545E0,-9.925163269E0,-1.209670424E0,1.003769040E0
2.525031357E0,-9.867702484E0,-1.252766013E0,9.798270464E-1
2.527519170E0,-9.819818497E0,-1.300650120E0,9.367313981E-1
2.530006930E0,-9.786299706E0,-1.358110905E0,9.558850527E-1
2.532494691E0,-9.719262123E0,-1.415571809E0,9.846154451E-1
2.534982451E0,-9.680954933E0,-1.473032594E0,1.046864748E0
2.537470211E0,-9.676166534E0,-1.535281897E0,1.133055925E0
2.539957972E0,-9.637859344E0,-1.626261473E0,1.224035621E0
2.542445732E0,-9.628282547E0,-1.688510776E0,1.310226917E0
2.544933493E0,-9.613917351E0,-1.760336757E0,1.434725404E0
2.547421253E0,-9.594763756E0,-1.841739655E0,1.544858694E0
2.549909013E0,-9.556455612E0,-1.894412041E0,1.678933978E0
2.552396774E0,-9.498994827E0,-1.971026540E0,1.774701953E0
2.554884534E0,-9.417592049E0,-2.028487444E0,1.875258446E0
2.557372295E0,-9.321824074E0,-2.085948229E0,1.985391736E0
2.559860055E0,-9.226056099E0,-2.114678621E0,2.062006235E0
2.562347816E0,-9.115922928E0,-2.124255419E0,2.157774210E0
2.564835576E0,-9.063250542E0,-2.124255419E0,2.263119221E0
2.567323336E0,-9.063250542E0,-2.090736628E0,2.344521999E0
2.569811097E0,-9.091980934E0,-2.004545450E0,2.454655409E0
2.572298857E0,-9.125499725E0,-1.913565755E0,2.560000181E0
2.574786618E0,-9.211690903E0,-1.813009262E0,2.636614561E0
2.577274378E0,-9.331400871E0,-1.707664371E0,2.665344954E0
2.579762138E0,-9.451110840E0,-1.602319479E0,2.650979757E0
2.582249899E0,-9.556455612E0,-1.501762986E0,2.583942175E0
2.584737659E0,-9.676166534E0,-1.429937005E0,2.507327795E0
2.587225420E0,-9.781511307E0,-1.353322506E0,2.382829189E0
2.589713180E0,-9.886856079E0,-1.267131209E0,2.263119221E0
2.592200941E0,-9.987412453E0,-1.219247222E0,2.138620615E0
2.594688701E0,-1.007360363E1,-1.156997919E0,2.009333849E0
2.597176461E0,-1.015500641E1,-1.123479128E0,1.889623642E0
2.599664222E0,-1.021725559E1,-1.094748735E0,1.745971560E0
2.602151982E0,-1.025556278E1,-1.051653147E0,1.611896276E0
2.604639795E0,-1.025556278E1,-1.003769040E0,1.482609391E0
2.607127607E0,-1.023162079E1,-9.798270464E-1,1.396418095E0
2.609615420E0,-1.017416000E1,-9.558850527E-1,1.291073322E0
2.612103232E0,-1.010233402E1,-9.750386477E-1,1.219247222E0
2.614591045E0,-1.004008484E1,-1.022922635E0,1.161786318E0
2.617078857E0,-9.958682060E0,-1.066018343E0,1.123479128E0
2.619566670E0,-9.891644478E0,-1.133055925E0,1.104325533E0
2.622054482E0,-9.838972092E0,-1.195305228E0,1.133055925E0
2.624542295E0,-9.781511307E0,-1.243189216E0,1.156997919E0
2.627030107E0,-9.724050522E0,-1.310226917E0,1.185728431E0
2.629517920E0,-9.666589737E0,-1.367687702E0,1.219247222E0
2.632005732E0,-9.642647743E0,-1.434725404E0,1.276708007E0
2.634493545E0,-9.613917351E0,-1.477820992E0,1.334168911E0
2.636981357E0,-9.599552155E0,-1.549647093E0,1.401206493E0
2.639469170E0,-9.589975357E0,-1.621473074E0,1.482609391E0
2.641956982E0,-9.551667213E0,-1.688510776E0,1.549647093E0
2.644444795E0,-9.522936821E0,-1.722029567E0,1.602319479E0
2.646932607E0,-9.489418030E0,-1.731606364E0,1.631049871E0
2.649420420E0,-9.465476036E0,-1.722029567E0,1.640626669E0
2.651908232E0,-9.465476036E0,-1.693299174E0,1.631049871E0
2.654396045E0,-9.494206429E0,-1.664568782E0,1.597531080E0
2.656883857E0,-9.561244011E0,-1.631049871E0,1.530493379E0
2.659371670E0,-9.647436142E0,-1.611896276E0,1.477820992E0
2.661859482E0,-9.733627319E0,-1.559223890E0,1.434725404E0
2.664347295E0,-9.795876503E0,-1.525704980E0,1.382052898E0
2.666835107E0,-9.862914085E0,-1.482609391E0,1.291073322E0
2.669322920E0,-9.915586472E0,-1.449090600E0,1.243189216E0
2.671810732E0,-9.949105263E0,-1.439513803E0,1.152209520E0
2.674298545E0,-9.939528465E0,-1.415571809E0,1.089960337E0
2.676786357E0,-9.925163269E0,-1.391629696E0,1.008557439E0
2.679274170E0,-9.915586472E0,-1.386841297E0,9.606734514E-1
2.681761982E0,-9.929951668E0,-1.367687702E0,9.175778031E-1
2.684249795E0,-9.949105263E0,-1.343745708E0,9.175778031E-1
2.686737607E0,-9.939528465E0,-1.338957310E0,9.367313981E-1
2.689225420E0,-9.929951668E0,-1.353322506E0,9.463081956E-1
2.691713232E0,-9.867702484E0,-1.391629696E0,9.606734514E-1
2.694201045E0,-9.800664902E0,-1.439513803E0,9.702502489E-1
2.696688857E0,-9.738415718E0,-1.487397790E0,1.018134236E0
2.699176670E0,-9.690531731E0,-1.525704980E0,1.080383539E0
2.701664482E0,-9.661801338E0,-1.559223890E0,1.180940032E0
2.704152295E0,-9.613917351E0,-1.564012289E0,1.310226917E0
2.706640107E0,-9.604340553E0,-1.573589087E0,1.420360208E0
2.709127920E0,-9.594763756E0,-1.559223890E0,1.559223890E0
2.711615732E0,-9.594763756E0,-1.564012289E0,1.674145579E0
2.714103545E0,-9.594763756E0,-1.540070295E0,1.779490471E0
2.716591357E0,-9.623494148E0,-1.535281897E0,1.880046844E0
2.719079170E0,-9.647436142E0,-1.530493379E0,1.956661344E0
2.721566982E0,-9.680954933E0,-1.496974587E0,2.014122248E0
2.724054795E0,-9.709685326E0,-1.492186189E0,2.057217836E0
2.726542607E0,-9.724050522E0,-1.501762986E0,2.076371431E0
2.729030420E0,-9.747992516E0,-1.511339784E0,2.062006235E0
2.731518232E0,-9.771934509E0,-1.511339784E0,2.052429438E0
2.734006045E0,-9.791088104E0,-1.506551385E0,2.028487444E0
2.736493857E0,-9.805453300E0,-1.516128182E0,1.980603337E0
2.738981670E0,-9.771934509E0,-1.540070295E0,1.956661344E0
2.741469482E0,-9.728838921E0,-1.568800688E0,1.880046844E0
2.743957295E0,-9.680954933E0,-1.592742682E0,1.822586060E0
2.746445107E0,-9.666589737E0,-1.602319479E0,1.726817966E0
2.748932920E0,-9.642647743E0,-1.616684675E0,1.631049871E0
2.751420732E0,-9.628282547E0,-1.664568782E0,1.549647093E0
2.753908545E0,-9.599552155E0,-1.654991984E0,1.453878999E0
2.756396357E0,-9.566033363E0,-1.688510776E0,1.338957310E0
2.758884170E0,-9.513360023E0,-1.741183162E0,1.262342811E0
2.761371982E0,-9.460687637E0,-1.789067268E0,1.195305228E0
2.763859795E0,-9.422380447E0,-1.841739655E0,1.171363235E0
2.766347607E0,-9.388861656E0,-1.856104851E0,1.142632723E0
2.768835420E0,-9.345766068E0,-1.865681648E0,1.152209520E0
2.771323232E0,-9.326612473E0,-1.870470047E0,1.195305228E0
2.773811045E0,-9.307458878E0,-1.880046844E0,1.238400817E0
2.776298857E0,-9.297882080E0,-1.870470047E0,1.281496406E0
2.778786670E0,-9.307458878E0,-1.860893250E0,1.315015316E0
2.781274482E0,-9.312247276E0,-1.846528053E0,1.343745708E0
2.783762295E0,-9.317035675E0,-1.817797661E0,1.372476101E0
2.786250107E0,-9.345766068E0,-1.745971560E0,1.439513803E0
2.788737920E0,-9.384073257E0,-1.683722377E0,1.473032594E0
2.791225732E0,-9.427168846E0,-1.621473074E0,1.482609391E0
2.793713545E0,-9.460687637E0,-1.564012289E0,1.487397790E0
2.796201357E0,-9.494206429E0,-1.520916581E0,1.496974587E0
2.798689170E0,-9.518148422E0,-1.487397790E0,1.492186189E0
2.801176982E0,-9.575610161E0,-1.473032594E0,1.516128182E0
2.803664795E0,-9.623494148E0,-1.468244195E0,1.520916581E0
2.806152607E0,-9.676166534E0,-1.477820992E0,1.530493379E0
2.808640420E0,-9.709685326E0,-1.487397790E0,1.544858694E0
2.811128232E0,-9.752780914E0,-1.496974587E0,1.544858694E0
2.813616045E0,-9.786299706E0,-1.496974587E0,1.540070295E0
2.816103857E0,-9.815030098E0,-1.492186189E0,1.535281897E0
2.818591670E0,-9.853337288E0,-1.487397790E0,1.516128182E0
2.821079482E0,-9.882067680E0,-1.487397790E0,1.511339784E0
2.823567295E0,-9.877279282E0,-1.496974587E0,1.511339784E0
2.826055107E0,-9.843760490E0,-1.520916581E0,1.506551385E0
2.828542920E0,-9.786299706E0,-1.530493379E0,1.511339784E0
2.831030732E0,-9.714473724E0,-1.525704980E0,1.530493379E0
2.833518545E0,-9.613917351E0,-1.549647093E0,1.554435492E0
2.836006357E0,-9.518148422E0,-1.564012289E0,1.607107878E0
2.838494170E0,-9.412803650E0,-1.578377485E0,1.640626669E0
2.840981982E0,-9.331400871E0,-1.564012289E0,1.712452769E0
2.843469795E0,-9.264363289E0,-1.564012289E0,1.774701953E0
2.845957607E0,-9.216479301E0,-1.544858694E0,1.784278870E0
2.848445420E0,-9.206902504E0,-1.506551385E0,1.832162857E0
2.850933232E0,-9.206902504E0,-1.458667397E0,1.832162857E0
2.853421045E0,-9.240421295E0,-1.425148606E0,1.808220863E0
2.855908857E0,-9.283516884E0,-1.338957310E0,1.798644066E0
2.858396670E0,-9.336189270E0,-1.291073322E0,1.793855667E0
2.860884482E0,-9.379284859E0,-1.209670424E0,1.793855667E0
2.863372295E0,-9.427168846E0,-1.133055925E0,1.827374458E0
2.865860107E0,-9.498994827E0,-1.022922635E0,1.856104851E0
2.868347920E0,-9.566033363E0,-9.127894044E-1,1.894412041E0
2.870835732E0,-9.628282547E0,-8.265981078E-1,1.923142552E0
2.873323545E0,-9.719262123E0,-7.356184721E-1,1.951872945E0
2.875811357E0,-9.805453300E0,-6.733692288E-1,1.947084546E0
2.878299170E0,-9.901221275E0,-6.254851818E-1,1.913565755E0
2.880786982E0,-9.977835655E0,-6.015431881E-1,1.856104851E0
2.883274795E0,-1.005923843E1,-5.967547894E-1,1.798644066E0
2.885762607E0,-1.014064121E1,-6.015431881E-1,1.750759959E0
2.888250420E0,-1.020289040E1,-6.015431881E-1,1.678933978E0
2.890738232E0,-1.026035118E1,-6.446388364E-1,1.621473074E0
2.893226045E0,-1.032738876E1,-7.212532759E-1,1.583165884E0
2.895713857E0,-1.035133076E1,-8.074445128E-1,1.525704980E0
2.898201670E0,-1.036569595E1,-8.984242082E-1,1.482609391E0
2.900689482E0,-1.030823517E1,-1.032499433E0,1.439513803E0
2.903177295E0,-1.020767879E1,-1.166574836E0,1.367687702E0
2.905665107E0,-1.009275723E1,-1.295861721E0,1.295861721E0
2.908152920E0,-9.929951668E0,-1.453878999E0,1.228824019E0
2.910640732E0,-9.776722908E0,-1.626261473E0,1.176151633E0
2.913128545E0,-9.594763756E0,-1.774701953E0,1.171363235E0
2.915616357E0,-9.408015251E0,-1.894412041E0,1.224035621E0
2.918104170E0,-9.202114105E0,-1.999756932E0,1.267131209E0
2.920591982E0,-9.015366554E0,-2.114678621E0,1.319803715E0
2.923079795E0,-8.871714592E0,-2.181716204E0,1.372476101E0
2.925567607E0,-8.752004623E0,-2.258330822E0,1.429937005E0
2.928055420E0,-8.680178642E0,-2.315791607E0,1.473032594E0
2.930543232E0,-8.622717857E0,-2.349310398E0,1.525704980E0
2.933031045E0,-8.555679321E0,-2.363675594E0,1.587954283E0
2.935518857E0,-8.560467720E0,-2.339733601E0,1.669357181E0
2.938006670E0,-8.579621315E0,-2.287061214E0,1.736394763E0
2.940494482E0,-8.632294655E0,-2.200869799E0,1.803432465E0
2.942982295E0,-8.752004623E0,-2.085948229E0,1.966238141E0
2.945470107E0,-8.881291389E0,-1.971026540E0,2.062006235E0
2.947957920E0,-9.068038940E0,-1.856104851E0,2.124255419E0
2.950445732E0,-9.273940086E0,-1.707664371E0,2.196081400E0
2.952933545E0,-9.503783226E0,-1.587954283E0,2.224812031E0
2.955421357E0,-9.733627319E0,-1.482609391E0,2.210446835E0
2.957909170E0,-9.958682060E0,-1.382052898E0,2.157774210E0
2.960396982E0,-1.017416000E1,-1.262342811E0,2.129043818E0
2.962884795E0,-1.035133076E1,-1.137844324E0,2.076371431E0
2.965372607E0,-1.052371311E1,-9.941922426E-1,1.999756932E0
2.967860420E0,-1.066736603E1,-8.936358094E-1,1.889623642E0
2.970348232E0,-1.080144119E1,-8.457517624E-1,1.717241168E0
2.972836045E0,-1.090678596E1,-8.601169586E-1,1.540070295E0
2.975323857E0,-1.097382355E1,-9.510966539E-1,1.295861721E0
2.977811670E0,-1.097382355E1,-1.099537134E0,1.061229944E0
2.980299482E0,-1.089242077E1,-1.324592113E0,8.409633636E-1
2.982787295E0,-1.073919201E1,-1.602319479E0,6.302735806E-1
2.985275107E0,-1.050455952E1,-1.903988957E0,5.057750940E-1
2.987762920E0,-1.020289040E1,-2.215235233E0,4.531026781E-1
2.990250732E0,-9.843760490E0,-2.526481390E0,4.722562730E-1
2.992738545E0,-9.460687637E0,-2.799420357E0,5.680243373E-1
2.995226357E0,-9.072827339E0,-3.062782526E0,6.733692288E-1
2.997714170E0,-8.728062630E0,-3.330933094E0,8.361749649E-1
3.000201982E0,-8.407238960E0,-3.536834478E0,1.013345838E0
3.002689795E0,-8.134300232E0,-3.709217072E0,1.271919608E0
3.005177607E0,-7.914033890E0,-3.819350243E0,1.573589087E0
3.007665420E0,-7.741651058E0,-3.891176224E0,1.889623642E0
3.010153232E0,-7.645883083E0,-3.881599426E0,2.215235233E0
3.012641045E0,-7.621941090E0,-3.833715439E0,2.507327795E0
3.015128857E0,-7.660248280E0,-3.690063477E0,2.789843559E0
3.017616670E0,-7.770381451E0,-3.488950491E0,3.115454912E0
3.020104482E0,-7.923610687E0,-3.273472309E0,3.359663486E0
3.022592295E0,-8.091204643E0,-3.062782526E0,3.579930067E0
3.025080107E0,-8.321047783E0,-2.794631958E0,3.747524261E0
3.027567920E0,-8.565256119E0,-2.488174200E0,3.943848848E0
3.030055732E0,-8.795100212E0,-2.162562609E0,4.116231441E0
3.032543545E0,-9.034520149E0,-1.817797661E0,4.235941410E0
3.035031357E0,-9.293093681E0,-1.477820992E0,4.302978992E0
3.037519170E0,-9.561244011E0,-1.161786318E0,4.302978992E0
3.040006982E0,-9.829395294E0,-8.744821548E-1,4.274248600E0
3.042494795E0,-1.007839203E1,-6.063315868E-1,4.192845821E0
3.044982607E0,-1.032260036E1,-3.669114113E-1,4.068347454E0
3.047470420E0,-1.056680965E1,-1.418564469E-1,3.948637247E0
3.049958232E0,-1.079665279E1,4.967968538E-2,3.795408249E0
3.052446045E0,-1.100734234E1,2.124854028E-1,3.608660460E0
3.054933857E0,-1.119408989E1,3.417722881E-1,3.402759075E0
3.057421670E0,-1.135689545E1,3.992331326E-1,3.172915697E0
3.059909482E0,-1.148618221E1,3.609259129E-1,2.976591349E0
3.062397295E0,-1.153885555E1,2.843114436E-1,2.765901566E0
3.064885107E0,-1.155322075E1,1.358709484E-1,2.550423384E0
3.067372920E0,-1.149575901E1,-3.172317147E-2,2.387617588E0
3.069860732E0,-1.137126064E1,-2.136825025E-1,2.243965626E0
3.072348545E0,-1.119408989E1,-4.147954583E-1,2.143409014E0
3.074836357E0,-1.102649593E1,-6.063315868E-1,2.057217836E0
3.077324170E0,-1.079665279E1,-8.265981078E-1,2.009333849E0
3.079811982E0,-1.055723286E1,-1.046864748E0,1.990180135E0
3.082299795E0,-1.031781197E1,-1.262342811E0,1.985391736E0
3.084787607E0,-1.006881523E1,-1.463455796E0,1.975814939E0
3.087275420E0,-9.819818497E0,-1.640626669E0,1.956661344E0
3.089763232E0,-9.570821762E0,-1.789067268E0,1.971026540E0
3.092251045E0,-9.355342865E0,-1.903988957E0,1.956661344E0
3.094738857E0,-9.192537308E0,-1.985391736E0,1.923142552E0
3.097226670E0,-9.034520149E0,-2.042852640E0,1.880046844E0
3.099714482E0,-8.924386978E0,-2.033275843E0,1.827374458E0
3.102202295E0,-8.862137794E0,-1.985391736E0,1.774701953E0
3.104690107E0,-8.852560997E0,-1.937507749E0,1.736394763E0
3.107177920E0,-8.905233383E0,-1.846528053E0,1.664568782E0
3.109665732E0,-8.996212959E0,-1.741183162E0,1.573589087E0
3.112153545E0,-9.168595314E0,-1.631049871E0,1.487397790E0
3.114641357E0,-9.340977669E0,-1.496974587E0,1.391629696E0
3.117129170E0,-9.522936821E0,-1.396418095E0,1.267131209E0
3.119616982E0,-9.714473724E0,-1.252766013E0,1.147421122E0
3.122104795E0,-9.891644478E0,-1.147421122E0,9.989806414E-1
3.124592607E0,-1.006402683E1,-1.066018343E0,8.792705536E-1
3.127080420E0,-1.019810200E1,-1.046864748E0,7.451952696E-1
3.129568232E0,-1.026992798E1,-1.037287831E0,6.446388364E-1
3.132056045E0,-1.030823517E1,-1.051653147E0,5.823895931E-1
3.134543857E0,-1.031302357E1,-1.070806742E0,5.632359385E-1
3.137031670E0,-1.033217716E1,-1.094748735E0,6.063315868E-1
3.139519482E0,-1.033696556E1,-1.118690729E0,6.590040326E-1
3.142007295E0,-1.033696556E1,-1.133055925E0,7.308300734E-1
3.144495107E0,-1.030344677E1,-1.180940032E0,7.882909179E-1
3.146982920E0,-1.024598598E1,-1.257554412E0,8.170213103E-1
3.149470732E0,-1.019331360E1,-1.338957310E0,8.744821548E-1
3.151958545E0,-1.014064121E1,-1.434725404E0,9.319429994E-1
3.154446357E0,-1.010233402E1,-1.520916581E0,1.018134236E0
3.156934170E0,-1.005445004E1,-1.607107878E0,1.137844324E0
3.159421982E0,-1.003529644E1,-1.693299174E0,1.243189216E0
3.161909795E0,-1.002571964E1,-1.765125155E0,1.377264500E0
3.164397607E0,-1.003050804E1,-1.803432465E0,1.501762986E0
3.166885420E0,-1.002093124E1,-1.880046844E0,1.592742682E0
3.169373232E0,-1.001135445E1,-1.994968534E0,1.669357181E0
3.171861045E0,-9.968258858E0,-2.090736628E0,1.760336757E0
3.174348857E0,-9.910798073E0,-2.220023632E0,1.832162857E0
3.176836670E0,-9.819818497E0,-2.334945202E0,1.903988957E0
3.179324482E0,-9.676166534E0,-2.454655409E0,1.999756932E0
3.181812295E0,-9.537302017E0,-2.555211782E0,2.114678621E0
3.184300107E0,-9.398438454E0,-2.636614561E0,2.234388828E0
3.186787920E0,-9.245209694E0,-2.698863983E0,2.406771183E0
3.189275732E0,-9.115922928E0,-2.765901566E0,2.598307371E0
3.191763545E0,-9.010578156E0,-2.804208755E0,2.789843559E0
3.194251357E0,-8.957905769E0,-2.828150749E0,2.962226152E0
3.196739170E0,-8.919598579E0,-2.804208755E0,3.120243311E0
3.199226982E0,-8.914810181E0,-2.785055161E0,3.235165119E0
3.201714795E0,-8.948328972E0,-2.741959572E0,3.287837505E0
3.204202607E0,-9.001001358E0,-2.674921751E0,3.311779499E0
3.206690420E0,-9.082404137E0,-2.574365377E0,3.302202702E0
3.209178232E0,-9.163806915E0,-2.454655409E0,3.254318714E0
3.211666045E0,-9.307458878E0,-2.306214809E0,3.172915697E0
3.214153857E0,-9.465476036E0,-2.143409014E0,3.101089716E0
3.216641670E0,-9.628282547E0,-1.971026540E0,2.986168146E0
3.219129482E0,-9.824606895E0,-1.813009262E0,2.899976730E0
3.221617295E0,-1.000177765E1,-1.674145579E0,2.775478363E0
3.224105107E0,-1.020289040E1,-1.520916581E0,2.603095770E0
3.226592920E0,-1.040879154E1,-1.391629696E0,2.435501575E0
3.229080732E0,-1.059075165E1,-1.267131209E0,2.224812031E0
3.231568545E0,-1.074876881E1,-1.190516829E0,2.018910646E0
3.234056357E0,-1.089720917E1,-1.123479128E0,1.765125155E0
3.236544170E0,-1.105522633E1,-1.123479128E0,1.482609391E0
3.239031982E0,-1.119408989E1,-1.185728431E0,1.156997919E0
3.241519795E0,-1.128028107E1,-1.257554412E0,8.505401611E-1
3.244007607E0,-1.133774185E1,-1.334168911E0,5.584475398E-1
3.246495420E0,-1.132816505E1,-1.420360208E0,2.855085433E-1
3.248983232E0,-1.128985786E1,-1.525704980E0,7.003039867E-2
3.251471045E0,-1.118930149E1,-1.650203466E0,-1.262941360E-1
3.253958857E0,-1.107916832E1,-1.798644066E0,-2.890998423E-1
3.256446670E0,-1.094509315E1,-1.985391736E0,-3.896563351E-1
3.258934482E0,-1.081580639E1,-2.186504602E0,-4.327519536E-1
3.261422295E0,-1.066257763E1,-2.421136379E0,-4.231751561E-1
3.263910107E0,-1.045667553E1,-2.670133352E0,-3.944447339E-1
3.266397920E0,-1.024598598E1,-2.923918724E0,-3.178302646E-1
3.268885732E0,-1.002571964E1,-3.177704096E0,-1.885433793E-1
3.271373545E0,-9.795876503E0,-3.378817081E0,-1.795651275E-3
3.273861357E0,-9.566033363E0,-3.541622877E0,2.280477136E-1
3.276349170E0,-9.388861656E0,-3.694851875E0,4.722562730E-1
3.278836982E0,-9.254786491E0,-3.804985046E0,7.404068708E-1
3.281324795E0,-9.159018517E0,-3.900753021E0,1.042076349E0
3.283812607E0,-9.077615738E0,-3.953425646E0,1.353322506E0
3.286300420E0,-9.015366554E0,-4.001309395E0,1.650203466E0
3.288788232E0,-8.981847763E0,-4.030039787E0,1.932719350E0
3.291276045E0,-9.024943352E0,-3.996521235E0,2.210446835E0
3.293763857E0,-9.115922928E0,-3.895964622E0,2.497750998E0
3.296251670E0,-9.273940086E0,-3.699640274E0,2.780266762E0
3.298739482E0,-9.503783226E0,-3.465008497E0,3.029263735E0
3.301227295E0,-9.795876503E0,-3.163338900E0,3.244741917E0
3.303715107E0,-1.013106441E1,-2.828150749E0,3.388393879E0
3.306202920E0,-1.049977112E1,-2.478597403E0,3.498527288E0
3.308690732E0,-1.089242077E1,-2.129043818E0,3.536834478E0
3.311178545E0,-1.130901146E1,-1.760336757E0,3.522469282E0
3.313666357E0,-1.173996830E1,-1.358110905E0,3.469796896E0
3.316154170E0,-1.217571259E1,-9.415197968E-1,3.374028683E0
3.318641982E0,-1.264497662E1,-4.914098978E-1,3.244741917E0
3.321129795E0,-1.313339329E1,-4.608838260E-2,3.091512918E0
3.323617607E0,-1.364096451E1,4.231751561E-1,2.895188332E0
3.326105420E0,-1.418205357E1,8.924387097E-1,2.660556555E0
3.328593232E0,-1.470398998E1,1.318606615E0,2.378040791E0
3.331081045E0,-1.519240665E1,1.672948480E0,2.023699045E0
3.333568857E0,-1.555153751E1,1.965041041E0,1.602319479E0
3.336056670E0,-1.573828506E1,2.166153908E0,1.204882026E0
3.338544482E0,-1.577659225E1,2.295440912E0,8.984242082E-1
3.341032295E0,-1.564251709E1,2.300229311E0,7.020996213E-1
3.343520107E0,-1.532169342E1,2.017713547E0,4.387374520E-1
3.346007920E0,-1.486679554E1,1.653794765E0,3.477577865E-1
3.348495732E0,-1.425387955E1,1.218050122E0,4.770447016E-1
3.350983545E0,-1.347336960E1,6.913257241E-1,8.218097091E-1
3.353471357E0,-1.263539982E1,2.573766746E-2,1.295861721E0
3.355959170E0,-1.177348709E1,-7.116764784E-1,1.803432465E0
3.358446982E0,-1.095945835E1,-1.501762986E0,2.339733601E0
3.360934795E0,-1.015021801E1,-2.296638012E0,2.890399933E0
3.363422607E0,-9.297882080E0,-3.067570925E0,3.450643301E0
3.365910420E0,-8.426392555E0,-3.766677856E0,3.972579241E0
3.368398232E0,-7.564480305E0,-4.374804974E0,4.451419353E0
3.370886045E0,-6.783970356E0,-4.891952515E0,4.815338135E0
3.373373857E0,-6.032191277E0,-5.322908878E0,5.107430935E0
3.375861670E0,-5.404910564E0,-5.634155273E0,5.294178486E0
3.378349482E0,-4.892550945E0,-5.849633217E0,5.389946461E0
3.380837295E0,-4.547786236E0,-5.940612793E0,5.399523258E0
3.383325107E0,-4.361038208E0,-5.959766388E0,5.332485676E0
3.385812920E0,-4.341884613E0,-5.878363609E0,5.184045315E0
3.388300732E0,-4.480748653E0,-5.739500046E0,4.958990097E0
3.390788545E0,-4.768052578E0,-5.567117691E0,4.647744179E0
3.393276357E0,-5.165490150E0,-5.375581264E0,4.250306606E0
3.395764170E0,-5.697002888E0,-5.164891720E0,3.776254654E0
3.398251982E0,-6.386533260E0,-4.901529312E0,3.220799923E0
3.400739795E0,-7.167042732E0,-4.566341400E0,2.641402960E0
3.403227607E0,-7.957129478E0,-4.130596638E0,2.066794634E0
3.405715420E0,-8.742427826E0,-3.632602453E0,1.501762986E0
3.408203232E0,-9.431957245E0,-3.096301317E0,9.654618502E-1
3.410691045E0,-1.000177765E1,-2.564788580E0,4.004302323E-1
3.413178857E0,-1.051892471E1,-2.057217836E0,-2.316390127E-1
3.415666670E0,-1.101213074E1,-1.578377485E0,-8.445546627E-1
3.418154482E0,-1.145745182E1,-1.137844324E0,-1.428739905E0
3.420642295E0,-1.177348709E1,-7.356184721E-1,-1.898003340E0
3.423130107E0,-1.201290703E1,-3.573346138E-1,-2.214038134E0
3.425617920E0,-1.224753857E1,-4.129998013E-2,-2.376843691E0
3.428105732E0,-1.246780491E1,1.933317930E-1,-2.410362482E0
3.430593545E0,-1.259709263E1,4.088099301E-1,-2.376843691E0
3.433081357E0,-1.259709263E1,5.428852439E-1,-2.324171305E0
3.435569170E0,-1.247738171E1,6.147112846E-1,-2.252345324E0
3.438056982E0,-1.232415295E1,6.338648796E-1,-2.103904724E0
3.440544795E0,-1.207515621E1,5.955576897E-1,-1.926733851E0
3.443032607E0,-1.177348709E1,5.524620414E-1,-1.725620866E0
3.445520420E0,-1.146224022E1,4.950011969E-1,-1.443105102E0
3.448008232E0,-1.121324348E1,3.896563351E-1,-1.103128433E0
3.450496045E0,-1.102170753E1,2.603694201E-1,-6.769605279E-1
3.452983857E0,-1.083017159E1,1.071405262E-1,-2.220622003E-1
3.455471670E0,-1.063384724E1,-1.131260321E-1,1.945288926E-1
3.457959482E0,-1.045188713E1,-3.573346138E-1,5.728127360E-1
3.460447295E0,-1.026513958E1,-5.919663906E-1,8.505401611E-1
3.462935107E0,-1.007360363E1,-8.122329116E-1,1.037287831E0
3.465422920E0,-9.886856079E0,-1.008557439E0,1.204882026E0
3.467910732E0,-9.676166534E0,-1.209670424E0,1.334168911E0
3.470398545E0,-9.484629631E0,-1.425148606E0,1.453878999E0
3.472886357E0,-9.355342865E0,-1.645415068E0,1.621473074E0
3.475374170E0,-9.293093681E0,-1.808220863E0,1.822586060E0
3.477861982E0,-9.273940086E0,-1.937507749E0,2.014122248E0
3.480349795E0,-9.273940086E0,-2.071583033E0,2.172139406E0
3.482837868E0,-9.321824074E0,-2.239177227E0,2.287061214E0
3.485325941E0,-9.484629631E0,-2.401982784E0,2.315791607E0
3.487813909E0,-9.714473724E0,-2.531269789E0,2.272696018E0
3.490301722E0,-9.968258858E0,-2.598307371E0,2.109890223E0
3.492789534E0,-1.024119759E1,-2.593518972E0,1.932719350E0
3.495277347E0,-1.050934792E1,-2.492962599E0,1.683722377E0
3.497765159E0,-1.075834560E1,-2.373252392E0,1.362899303E0
3.500252972E0,-1.098340034E1,-2.248754025E0,9.463081956E-1
3.502740784E0,-1.119408989E1,-2.148197412E0,5.009866953E-1
3.505228597E0,-1.138562584E1,-2.071583033E0,4.129998013E-2
3.507716409E0,-1.154843235E1,-2.014122248E0,-3.321954906E-1
3.510204222E0,-1.166335392E1,-1.990180135E0,-6.003460884E-1
3.512692034E0,-1.175433350E1,-1.994968534E0,-7.439981699E-1
3.515179847E0,-1.180700588E1,-1.999756932E0,-7.775170207E-1
3.517667659E0,-1.175433350E1,-2.038064241E0,-7.392097712E-1
3.520155472E0,-1.162983513E1,-2.109890223E0,-6.721721292E-1
3.522644013E0,-1.142872143E1,-2.243965626E0,-5.285200477E-1
3.525131149E0,-1.113184071E1,-2.392405987E0,-3.369838893E-1
3.527618284E0,-1.079665279E1,-2.598307371E0,-1.023521200E-1
3.530105472E0,-1.045188713E1,-2.832939148E0,1.514332592E-1
3.532592711E0,-1.012627602E1,-3.057994127E0,4.866214991E-1
3.535080003E0,-9.858125687E0,-3.278260708E0,9.223662019E-1
3.537567399E0,-9.618705750E0,-3.445854902E0,1.444302201E0
3.540054899E0,-9.369708061E0,-3.589506865E0,2.014122248E0
3.542542503E0,-9.163806915E0,-3.651756048E0,2.579153776E0
3.545030211E0,-9.053673744E0,-3.651756048E0,3.134608507E0
3.547518024E0,-8.996212959E0,-3.594295263E0,3.651756048E0
3.550005941E0,-8.991424561E0,-3.479373693E0,4.130596638E0
3.552493961E0,-9.034520149E0,-3.340509892E0,4.580706596E0
3.554982086E0,-9.178172112E0,-3.225588322E0,4.978143692E0
3.557470316E0,-9.331400871E0,-3.125031710E0,5.265448093E0
3.559958597E0,-9.522936821E0,-3.062782526E0,5.433042049E0
3.562446930E0,-9.738415718E0,-3.024475336E0,5.476137638E0
3.564935263E0,-9.958682060E0,-3.000533342E0,5.361216068E0
3.567423597E0,-1.017416000E1,-2.943072557E0,5.126584530E0
3.569911878E0,-1.040400314E1,-2.823362350E0,4.839280128E0
3.572399691E0,-1.069609642E1,-2.627037764E0,4.508880138E0
3.574887503E0,-1.104564953E1,-2.421136379E0,4.159327030E0
3.577375316E0,-1.149575901E1,-2.224812031E0,3.785831451E0
3.579863128E0,-1.202248383E1,-2.042852640E0,3.383605480E0
3.582350941E0,-1.256836224E1,-1.932719350E0,2.923918724E0
3.584838753E0,-1.305677891E1,-1.884835243E0,2.368463993E0
3.587326566E0,-1.343506241E1,-1.865681648E0,1.789067268E0
3.589814378E0,-1.368884850E1,-1.817797661E0,1.171363235E0
3.592302191E0,-1.388517284E1,-1.745971560E0,5.584475398E-1
3.594790003E0,-1.407192039E1,-1.583165884E0,-1.795651275E-3
3.597277816E0,-1.425387955E1,-1.367687702E0,-4.806360006E-1
3.599765628E0,-1.437358952E1,-1.128267527E0,-8.589198589E-1
3.602253441E0,-1.439274311E1,-9.702502489E-1,-1.165377736E0
3.604741253E0,-1.430176353E1,-9.175778031E-1,-1.395220995E0
3.607229066E0,-1.409107399E1,-1.008557439E0,-1.524507880E0
3.609716878E0,-1.377503967E1,-1.147421122E0,-1.577180386E0
3.612204691E0,-1.333450603E1,-1.358110905E0,-1.591545582E0
3.614692503E0,-1.279341698E1,-1.607107878E0,-1.543661594E0
3.617180316E0,-1.219965458E1,-1.851316452E0,-1.395220995E0
3.619668128E0,-1.162504673E1,-2.143409014E0,-1.170166135E0
3.622155941E0,-1.107916832E1,-2.464232206E0,-8.254010081E-1
3.624643753E0,-1.062427044E1,-2.770689964E0,-4.088099301E-1
3.627131566E0,-1.022204399E1,-3.029263735E0,7.960720360E-2
3.629619378E0,-9.910798073E0,-3.235165119E0,5.967547894E-1
3.632107191E0,-9.680954933E0,-3.402759075E0,1.142632723E0
3.634595003E0,-9.546878815E0,-3.517680883E0,1.669357181E0
3.637082816E0,-9.503783226E0,-3.589506865E0,2.224812031E0
3.639570628E0,-9.551667213E0,-3.589506865E0,2.794631958E0
3.642058441E0,-9.743204117E0,-3.527257681E0,3.388393879E0
3.644546253E0,-1.001135445E1,-3.407547474E0,3.943848848E0
3.647034066E0,-1.039442635E1,-3.206434727E0,4.441842556E0
3.649521878E0,-1.083495998E1,-3.014898539E0,4.815338135E0
3.652009691E0,-1.130422306E1,-2.794631958E0,5.088277340E0
3.654497503E0,-1.177827549E1,-2.545634985E0,5.260659695E0
3.656985316E0,-1.229063416E1,-2.311003208E0,5.332485676E0
3.659473128E0,-1.275989819E1,-2.057217836E0,5.337274075E0
3.661960941E0,-1.323394966E1,-1.793855667E0,5.294178486E0
3.664448753E0,-1.370800209E1,-1.540070295E0,5.198410511E0
3.666936566E0,-1.415332317E1,-1.281496406E0,5.045181751E0
3.669424378E0,-1.456512642E1,-1.070806742E0,4.791396141E0
3.671912191E0,-1.489552593E1,-9.415197968E-1,4.465784550E0
3.674400003E0,-1.514452267E1,-8.792705536E-1,4.058770657E0
3.676887816E0,-1.527380943E1,-8.840589523E-1,3.589506865E0
3.679375628E0,-1.527859783E1,-9.798270464E-1,3.043628931E0
3.681863441E0,-1.515409946E1,-1.137844324E0,2.416347980E0
3.684351253E0,-1.485721874E1,-1.310226917E0,1.745971560E0
3.686839066E0,-1.450287724E1,-1.496974587E0,1.022922635E0
3.689326878E0,-1.408149719E1,-1.731606364E0,3.238157928E-1
3.691814691E0,-1.363617611E1,-1.942296147E0,-3.417722881E-1
3.694302503E0,-1.315733528E1,-2.124255419E0,-9.307458997E-1
3.696790316E0,-1.262582302E1,-2.287061214E0,-1.414374709E0
3.699278128E0,-1.202248383E1,-2.454655409E0,-1.802235365E0
3.701765941E0,-1.146702862E1,-2.674921751E0,-2.084751129E0
3.704253753E0,-1.098818874E1,-2.976591349E0,-2.290652514E0
3.706741566E0,-1.060032845E1,-3.326144695E0,-2.372055292E0
3.709229378E0,-1.025077438E1,-3.714005470E0,-2.343324900E0
3.711717191E0,-9.886856079E0,-4.135385036E0,-2.218826532E0
3.714205003E0,-9.489418030E0,-4.513668537E0,-1.941099048E0
3.716692816E0,-9.077615738E0,-4.786607742E0,-1.500565886E0
3.719180628E0,-8.651448250E0,-4.954201698E0,-9.738415480E-1
3.721668441E0,-8.230068207E0,-5.097854137E0,-4.183867574E-1
3.724156253E0,-7.851784706E0,-5.193622112E0,1.705868691E-1
3.726644066E0,-7.535749912E0,-5.289390087E0,8.457517624E-1
3.729131878E0,-7.349001884E0,-5.380369663E0,1.544858694E0
3.731619691E0,-7.334636688E0,-5.433042049E0,2.272696018E0
3.734107503E0,-7.454347134E0,-5.447407246E0,3.014898539E0
3.736595316E0,-7.684190273E0,-5.303755283E0,3.771466255E0
3.739083128E0,-8.067262650E0,-4.992508888E0,4.465784550E0
3.741570941E0,-8.555679321E0,-4.528033733E0,5.073912144E0
3.744058753E0,-9.149441719E0,-3.972579241E0,5.595848083E0
3.746546566E0,-9.767146111E0,-3.421912670E0,5.954977989E0
3.749034378E0,-1.037048435E1,-2.909553528E0,6.223128796E0
3.751522191E0,-1.094988155E1,-2.421136379E0,6.366780758E0
3.754010003E0,-1.151491261E1,-1.937507749E0,6.361992359E0
3.756497816E0,-1.208952141E1,-1.425148606E0,6.199186802E0
3.758985628E0,-1.262582302E1,-8.888474107E-1,5.873575211E0
3.761473441E0,-1.311902809E1,-3.190273643E-1,5.423465252E0
3.763961253E0,-1.359308052E1,2.460042238E-1,4.853645325E0
3.766449066E0,-1.397136402E1,7.918822169E-1,4.226364613E0
3.768936878E0,-1.425387955E1,1.241992116E0,3.527257681E0
3.771424691E0,-1.446456909E1,1.601122379E0,2.789843559E0
3.773912503E0,-1.462737560E1,1.840542555E0,1.990180135E0
3.776400316E0,-1.464652920E1,1.965041041E0,1.176151633E0
3.778888128E0,-1.451724243E1,1.941099048E0,2.902969420E-1
3.781375941E0,-1.422514915E1,1.802235365E0,-6.386532784E-1
3.783863753E0,-1.378461647E1,1.596333981E0,-1.543661594E0
3.786351566E0,-1.325789165E1,1.332971811E0,-2.376843691E0
3.788839378E0,-1.267849541E1,1.040879130E0,-3.147776604E0
3.791327191E0,-1.207036781E1,7.679402232E-1,-3.770269156E0
3.793815003E0,-1.149097061E1,4.662707746E-1,-4.215590477E0
3.796302816E0,-1.100255394E1,1.502361596E-1,-4.536413670E0
3.798790628E0,-1.058117485E1,-1.753752679E-1,-4.727949619E0
3.801278441E0,-1.023162079E1,-4.961982965E-1,-4.790199280E0
3.803766253E0,-9.953893661E0,-7.978677154E-1,-4.766256809E0
3.806254066E0,-9.700108528E0,-1.032499433E0,-4.632181644E0
3.808741878E0,-9.513360023E0,-1.214458823E0,-4.387973309E0
3.811229691E0,-9.393650055E0,-1.362899303E0,-4.009689331E0
3.813717503E0,-9.374496460E0,-1.449090600E0,-3.459022999E0
3.816205316E0,-9.431957245E0,-1.520916581E0,-2.774281263E0
3.818693128E0,-9.518148422E0,-1.592742682E0,-2.003348351E0
3.821180941E0,-9.652224541E0,-1.640626669E0,-1.198896527E0
3.823668753E0,-9.733627319E0,-1.683722377E0,-4.183867574E-1
3.826156566E0,-9.709685326E0,-1.750759959E0,3.046621680E-1
3.828644378E0,-9.623494148E0,-1.798644066E0,9.175778031E-1
3.831132191E0,-9.542090416E0,-1.793855667E0,1.487397790E0
3.833620003E0,-9.503783226E0,-1.717241168E0,2.038064241E0
3.836107816E0,-9.479841232E0,-1.554435492E0,2.502539396E0
3.838595628E0,-9.422380447E0,-1.372476101E0,2.847304344E0
3.841083441E0,-9.360131264E0,-1.180940032E0,3.038840532E0
3.843571253E0,-9.312247276E0,-1.046864748E0,3.096301317E0
3.846059066E0,-9.273940086E0,-9.367313981E-1,3.091512918E0
3.848546878E0,-9.321824074E0,-8.361749649E-1,3.048417330E0
3.851034691E0,-9.388861656E0,-7.547720671E-1,2.938283920E0
3.853522503E0,-9.455899239E0,-6.494272351E-1,2.799420357E0
3.856010316E0,-9.522936821E0,-5.009866953E-1,2.607884169E0
3.858498128E0,-9.589975357E0,-3.142389655E-1,2.382829189E0
3.860985941E0,-9.666589737E0,-1.035492271E-1,2.133832216E0
3.863473753E0,-9.747992516E0,9.756372124E-2,1.817797661E0
3.865961566E0,-9.810241699E0,2.699462473E-1,1.468244195E0
3.868449378E0,-9.858125687E0,4.088099301E-1,1.032499433E0
3.870937191E0,-9.891644478E0,5.093663931E-1,5.249287486E-1
3.873425003E0,-9.906009674E0,5.716156363E-1,2.693476900E-2
3.875912816E0,-9.896432877E0,5.907692909E-1,-4.566939771E-1
3.878400628E0,-9.896432877E0,6.147112846E-1,-8.541314602E-1
3.880888441E0,-9.934740067E0,6.769605279E-1,-1.170166135E0
3.883376253E0,-1.001614285E1,7.487865686E-1,-1.414374709E0
3.885864066E0,-1.010233402E1,8.254010081E-1,-1.615487576E0
3.888351878E0,-1.019331360E1,8.828618526E-1,-1.821388960E0
3.890839691E0,-1.022683239E1,8.924387097E-1,-1.993771434E0
3.893327503E0,-1.022204399E1,8.158242106E-1,-2.156577110E0
3.895815316E0,-1.014542961E1,6.625953317E-1,-2.343324900E0
3.898303128E0,-1.001135445E1,4.566939771E-1,-2.482188702E0
3.900790941E0,-9.848548889E0,2.795230448E-1,-2.611475468E0
3.903278753E0,-9.743204117E0,1.933317930E-1,-2.659359455E0
3.905766566E0,-9.633070946E0,1.454477459E-1,-2.630629063E0
3.908254378E0,-9.503783226E0,1.358709484E-1,-2.534861088E0
3.910742191E0,-9.321824074E0,1.119289324E-1,-2.400785685E0
3.913230003E0,-9.135076523E0,4.489128292E-2,-2.271498919E0
3.915717816E0,-8.938752174E0,-2.214636654E-2,-2.089539528E0
3.918205628E0,-8.742427826E0,-1.322796494E-1,-1.898003340E0
3.920693441E0,-8.550890923E0,-2.136825025E-1,-1.672948480E0
3.923181253E0,-8.412027359E0,-2.998737693E-1,-1.380855799E0
3.925669066E0,-8.344989777E0,-3.764882088E-1,-1.021725535E0
3.928156878E0,-8.301894188E0,-4.339490533E-1,-6.673837304E-1
3.930644691E0,-8.225279808E0,-4.866214991E-1,-3.274070919E-1
3.933132503E0,-8.110358238E0,-5.297171474E-1,-3.052607179E-2
3.935620316E0,-8.019378662E0,-5.488707423E-1,2.663549483E-1
3.938108128E0,-7.923610687E0,-5.728127360E-1,5.488707423E-1
3.940595941E0,-7.846996307E0,-5.871779919E-1,8.122329116E-1
3.943083753E0,-7.799111843E0,-5.488707423E-1,1.042076349E0
3.945571566E0,-7.756016254E0,-5.009866953E-1,1.233612418E0
3.948059378E0,-7.765593052E0,-4.531026781E-1,1.377264500E0
3.950547191E0,-7.861361504E0,-4.004302323E-1,1.501762986E0
3.953035003E0,-8.048109055E0,-3.477577865E-1,1.611896276E0
3.955522816E0,-8.292317390E0,-2.950853705E-1,1.707664371E0
3.958010628E0,-8.565256119E0,-2.759317458E-1,1.760336757E0
3.960498493E0,-8.838195801E0,-2.759317458E-1,1.784278870E0
3.962986357E0,-9.101557732E0,-2.567781210E-1,1.765125155E0
3.965474222E0,-9.326612473E0,-2.711433470E-1,1.683722377E0
3.967962086E0,-9.513360023E0,-2.950853705E-1,1.578377485E0
3.970449951E0,-9.680954933E0,-3.046621680E-1,1.468244195E0
3.972937816E0,-9.886856079E0,-2.567781210E-1,1.396418095E0
3.975425680E0,-1.008796883E1,-1.610100716E-1,1.319803715E0
3.977913545E0,-1.026513958E1,-6.524199992E-2,1.238400817E0
3.980401409E0,-1.034175396E1,-1.735796221E-2,1.128267527E0
3.982889951E0,-1.033696556E1,1.795651275E-3,9.894038439E-1
3.985377972E0,-1.028908157E1,-3.651157767E-2,7.930793166E-1
3.987865784E0,-1.018852520E1,-8.439560980E-2,5.823895931E-1
3.990353597E0,-1.004966164E1,-1.610100716E-1,3.908534348E-1
3.992841409E0,-9.862914085E0,-2.567781210E-1,2.280477136E-1
3.995329222E0,-9.623494148E0,-3.812766075E-1,7.960720360E-2
3.997817034E0,-9.350554466E0,-5.249287486E-1,-1.616086066E-2
4.000304847E0,-9.058462143E0,-6.494272351E-1,-5.925649032E-2
4.002792659E0,-8.766369820E0,-7.691373229E-1,-1.167173311E-1
4.005280472E0,-8.488641739E0,-9.032126069E-1,-1.981201917E-1
4.007768284E0,-8.239645004E0,-1.051653147E0,-2.507926226E-1
4.010256097E0,-8.019378662E0,-1.228824019E0,-2.890998423E-1
4.012743909E0,-7.827842236E0,-1.386841297E0,-2.986766696E-1
4.015231722E0,-7.655459881E0,-1.530493379E0,-3.274070919E-1
4.017719534E0,-7.526173115E0,-1.626261473E0,-3.274070919E-1
4.020207347E0,-7.444770336E0,-1.640626669E0,-2.843114436E-1
4.022695159E0,-7.420828342E0,-1.621473074E0,-1.789665818E-1
4.025182972E0,-7.430405140E0,-1.621473074E0,-7.841010392E-2
4.027670784E0,-7.511807919E0,-1.616684675E0,2.214636654E-2
4.030158597E0,-7.621941090E0,-1.616684675E0,1.466448605E-1
4.032646409E0,-7.751227856E0,-1.626261473E0,2.567781210E-1
4.035134222E0,-7.894880295E0,-1.587954283E0,4.195838571E-1
4.037622034E0,-8.091204643E0,-1.568800688E0,5.488707423E-1
4.040109847E0,-8.349778175E0,-1.544858694E0,6.925228238E-1
4.042597659E0,-8.617929459E0,-1.463455796E0,8.792705536E-1
4.045085472E0,-8.914810181E0,-1.353322506E0,1.094748735E0
4.047573284E0,-9.135076523E0,-1.243189216E0,1.286284804E0
4.050061097E0,-9.264363289E0,-1.195305228E0,1.425148606E0
4.052548909E0,-9.312247276E0,-1.204882026E0,1.578377485E0
4.055036722E0,-9.331400871E0,-1.257554412E0,1.693299174E0
4.057524534E0,-9.374496460E0,-1.315015316E0,1.817797661E0
4.060012347E0,-9.388861656E0,-1.425148606E0,1.956661344E0
4.062500159E0,-9.374496460E0,-1.535281897E0,2.062006235E0
4.064987972E0,-9.427168846E0,-1.674145579E0,2.157774210E0
4.067475784E0,-9.312247276E0,-1.832162857E0,2.378040791E0
4.069963597E0,-9.216479301E0,-1.937507749E0,2.607884169E0
4.072451409E0,-9.072827339E0,-2.143409014E0,2.703652382E0
4.074939222E0,-8.895656586E0,-2.363675594E0,2.718017578E0
4.077427034E0,-8.708909035E0,-2.588730574E0,2.650979757E0
4.079914847E0,-8.503006935E0,-2.804208755E0,2.540846586E0
4.082402659E0,-8.277952194E0,-3.043628931E0,2.401982784E0
4.084890472E0,-8.072051048E0,-3.268683910E0,2.267907619E0
4.087378284E0,-7.928399086E0,-3.465008497E0,2.138620615E0
4.089866097E0,-7.813477039E0,-3.623025656E0,2.033275843E0
4.092353909E0,-7.751227856E0,-3.742735863E0,1.923142552E0
4.094841722E0,-7.717709064E0,-3.838503838E0,1.832162857E0
4.097329534E0,-7.665036678E0,-3.934272051E0,1.717241168E0
4.099817347E0,-7.574057102E0,-4.010886192E0,1.564012289E0
4.102305159E0,-7.507019520E0,-4.058770657E0,1.386841297E0
4.104792972E0,-7.449558735E0,-4.073135853E0,1.176151633E0
4.107280784E0,-7.406463146E0,-4.087501049E0,9.750386477E-1
4.109768597E0,-7.262810707E0,-4.135385036E0,7.595604658E-1
4.112256409E0,-7.119158745E0,-4.216787815E0,5.345055461E-1
4.114744222E0,-6.946776390E0,-4.279036999E0,3.046621680E-1
4.117232034E0,-6.822277546E0,-4.259883404E0,1.370680481E-1
4.119719847E0,-6.740874767E0,-4.144961834E0,7.781155407E-3
4.122207659E0,-6.750451565E0,-3.963002443E0,-5.446808785E-2
4.124695472E0,-6.783970356E0,-3.752312660E0,-8.798690885E-2
4.127183284E0,-6.803123951E0,-3.546411276E0,-8.319851011E-2
4.129671097E0,-6.779181957E0,-3.388393879E0,-1.262941360E-1
4.132158909E0,-6.692990780E0,-3.259107113E0,-2.029085904E-1
4.134646722E0,-6.534973621E0,-3.168127298E0,-3.130418658E-1
4.137134534E0,-6.333860397E0,-3.096301317E0,-4.854243994E-1
4.139622347E0,-6.075286865E0,-3.038840532E0,-6.530185342E-1
4.142110159E0,-5.792770863E0,-2.995744944E0,-7.775170207E-1
4.144597972E0,-5.524620533E0,-2.890399933E0,-8.972271085E-1
4.147085784E0,-5.304353714E0,-2.756324768E0,-1.007360339E0
4.149573597E0,-5.160701752E0,-2.598307371E0,-1.117493629E0
4.152061409E0,-5.122394562E0,-2.440289974E0,-1.261145711E0
4.154549222E0,-5.103240967E0,-2.306214809E0,-1.414374709E0
4.157037034E0,-5.093664169E0,-2.186504602E0,-1.572391987E0
4.159524847E0,-5.112817764E0,-2.076371431E0,-1.778293371E0
4.162012659E0,-5.189432144E0,-1.961449742E0,-1.979406238E0
4.164500472E0,-5.328295708E0,-1.851316452E0,-2.151788712E0
4.166988284E0,-5.457582951E0,-1.698087573E0,-2.266710520E0
4.169476097E0,-5.515043736E0,-1.540070295E0,-2.362478495E0
4.171963909E0,-5.543774128E0,-1.391629696E0,-2.486977100E0
4.174451722E0,-5.524620533E0,-1.315015316E0,-2.577956676E0
4.176939534E0,-5.476736546E0,-1.271919608E0,-2.668936253E0
4.179427347E0,-5.428852558E0,-1.262342811E0,-2.769492865E0
4.181915159E0,-5.404910564E0,-1.247977614E0,-2.898779631E0
4.184402972E0,-5.366602898E0,-1.243189216E0,-2.956240654E0
4.186890784E0,-5.337872505E0,-1.185728431E0,-3.018489838E0
4.189378597E0,-5.289988518E0,-1.080383539E0,-3.052008629E0
4.191866409E0,-5.218162537E0,-9.415197968E-1,-3.008913040E0
4.194354222E0,-5.136759758E0,-7.930793166E-1,-2.922721624E0
4.196842034E0,-5.021838188E0,-6.350619793E-1,-2.774281263E0
4.199329847E0,-4.921281815E0,-4.866214991E-1,-2.582745075E0
4.201817659E0,-4.796782970E0,-3.477577865E-1,-2.381632090E0
4.204305472E0,-4.662707806E0,-2.041056901E-1,-2.170942307E0
4.206793284E0,-4.509479046E0,-7.481880486E-2,-1.984194636E0
4.209281097E0,-4.327519417E0,6.883329898E-2,-1.826177359E0
4.211768909E0,-4.179079056E0,2.364274114E-1,-1.677736878E0
4.214256722E0,-4.030638695E0,3.992331326E-1,-1.524507880E0
4.216744534E0,-3.915716887E0,5.955576897E-1,-1.352125406E0
4.219232347E0,-3.776853085E0,7.535749674E-1,-1.194108129E0
4.221720159E0,-3.705027103E0,9.211691022E-1,-1.079186440E0
4.224207972E0,-3.647566319E0,1.036090732E0,-9.882067442E-1
4.226695784E0,-3.633201122E0,1.117493629E0,-8.780734539E-1
4.229183597E0,-3.685873508E0,1.194108129E0,-7.009025216E-1
4.231671409E0,-3.819948912E0,1.237203717E0,-4.854243994E-1
4.234159222E0,-4.102464676E0,1.318606615E0,-2.124854028E-1
4.236647034E0,-4.495113850E0,1.467047095E0,3.172317147E-2
4.239134847E0,-4.945223808E0,1.696890473E0,2.472013235E-1
4.241622659E0,-5.361814499E0,1.926733851E0,4.387374520E-1
4.244110472E0,-5.725733280E0,2.065597534E0,5.728127360E-1
4.246598284E0,-6.032191277E0,2.099116325E0,6.446388364E-1
4.249086097E0,-6.338648796E0,2.094327927E0,6.350619793E-1
4.251573909E0,-6.602011204E0,2.017713547E0,5.776011348E-1
4.254061722E0,-6.788758755E0,1.898003340E0,4.387374520E-1
4.256549586E0,-6.908469200E0,1.692102075E0,2.232593149E-1
4.259037451E0,-6.941987991E0,1.428739905E0,-6.883329898E-2
4.261525316E0,-6.927622795E0,1.103128433E0,-3.896563351E-1
4.264013180E0,-6.822277546E0,7.631517649E-1,-7.487865686E-1
4.266501045E0,-6.673837185E0,3.513490856E-1,-1.174954534E0
4.268988909E0,-6.487089634E0,-7.003039867E-2,-1.625064373E0
4.271476774E0,-6.305130005E0,-4.866214991E-1,-2.123058319E0
4.273964638E0,-6.171054840E0,-8.649053574E-1,-2.587533474E0
4.276452503E0,-6.118382454E0,-1.247977614E0,-3.075950623E0
4.278940368E0,-6.008249283E0,-1.568800688E0,-3.521272182E0
4.281428232E0,-5.878962040E0,-1.913565755E0,-3.923498154E0
4.283916097E0,-5.754463673E0,-2.272696018E0,-4.325724125E0
4.286403961E0,-5.649118900E0,-2.650979757E0,-4.699219227E0
4.288891826E0,-5.529408932E0,-2.986168146E0,-5.039196014E0
4.291379691E0,-5.400122166E0,-3.292625904E0,-5.292981625E0
4.293867555E0,-5.328295708E0,-3.594295263E0,-5.599439144E0
4.296355420E0,-5.179855347E0,-3.781043053E0,-5.800552368E0
4.298843284E0,-5.026626587E0,-3.967790842E0,-5.872378349E0
4.301331149E0,-4.921281815E0,-4.149750233E0,-5.872378349E0
4.303819013E0,-4.811148167E0,-4.298190594E0,-5.714360714E0
4.306306878E0,-4.720168591E0,-4.427477360E0,-5.489305973E0
4.308794743E0,-4.648342609E0,-4.513668537E0,-5.221155167E0
4.311282607E0,-4.662707806E0,-4.556764603E0,-4.914697647E0
4.313770472E0,-4.806359768E0,-4.542399406E0,-4.579509258E0
4.316258336E0,-5.021838188E0,-4.470572948E0,-4.201225281E0
4.318746201E0,-5.285200119E0,-4.403535366E0,-3.842095137E0
4.321234066E0,-5.534197330E0,-4.331709385E0,-3.550002575E0
4.323721930E0,-5.720944881E0,-4.255095005E0,-3.315370798E0
4.326209795E0,-5.907692909E0,-4.144961834E0,-3.195660830E0
4.328697659E0,-6.070498466E0,-4.044404984E0,-3.128623009E0
4.331185524E0,-6.233304024E0,-3.986944437E0,-3.099892616E0
4.333673388E0,-6.396110058E0,-3.943848848E0,-3.109469414E0
4.336161253E0,-6.544550419E0,-3.891176224E0,-3.186083794E0
4.338649066E0,-6.611588001E0,-3.876811028E0,-3.296217203E0
4.341136878E0,-6.640318394E0,-3.881599426E0,-3.473388195E0
4.343624691E0,-6.645106792E0,-3.919906616E0,-3.664924145E0
4.346112503E0,-6.597222805E0,-3.967790842E0,-3.889979124E0
4.348600316E0,-6.602011204E0,-4.006097794E0,-4.115034103E0
4.351088128E0,-6.597222805E0,-4.034828186E0,-4.330512524E0
4.353575941E0,-6.616376400E0,-4.049193859E0,-4.536413670E0
4.356063753E0,-6.640318394E0,-4.077924252E0,-4.723161221E0
4.358551566E0,-6.654683590E0,-4.039616585E0,-4.881178856E0
4.361039378E0,-6.640318394E0,-3.996521235E0,-5.058349609E0
4.363527191E0,-6.664260387E0,-3.939060450E0,-5.206789970E0
4.366015003E0,-6.707355976E0,-3.857657433E0,-5.312135220E0
4.368502816E0,-6.755239964E0,-3.747524261E0,-5.364807606E0
4.370990628E0,-6.817489147E0,-3.608660460E0,-5.321712017E0
4.373478441E0,-6.865373611E0,-3.450643301E0,-5.249885559E0
4.375966253E0,-6.922834396E0,-3.259107113E0,-5.125387192E0
4.378454066E0,-6.994660378E0,-3.062782526E0,-4.943428040E0
4.380941878E0,-7.037755966E0,-2.866457939E0,-4.780622005E0
4.383429691E0,-7.090428352E0,-2.694075346E0,-4.584297657E0
4.385917503E0,-7.095216751E0,-2.579153776E0,-4.330512524E0
4.388405316E0,-7.100005150E0,-2.440289974E0,-4.043208122E0
4.390893128E0,-7.143100739E0,-2.301426411E0,-3.688866377E0
4.393380941E0,-7.234080315E0,-2.148197412E0,-3.277063608E0
4.395868753E0,-7.363367558E0,-1.971026540E0,-2.831742048E0
4.398356566E0,-7.483077526E0,-1.793855667E0,-2.352901697E0
4.400844378E0,-7.602787495E0,-1.616684675E0,-1.926733851E0
4.403332191E0,-7.746439457E0,-1.434725404E0,-1.519719481E0
4.405820003E0,-7.904457092E0,-1.247977614E0,-1.146224022E0
4.408307816E0,-8.139088631E0,-1.051653147E0,-7.727286220E-1
4.410795628E0,-8.440757751E0,-8.026561141E-1,-3.944447339E-1
4.413283441E0,-8.732851028E0,-5.632359385E-1,-5.446808785E-2
4.415771253E0,-9.015366554E0,-3.429693878E-1,2.424129248E-1
4.418259066E0,-9.216479301E0,-1.753752679E-1,4.435258508E-1
4.420746878E0,-9.441534042E0,-3.172317147E-2,6.063315868E-1
4.423234691E0,-9.570821762E0,4.010287672E-2,7.164648771E-1
4.425722503E0,-9.594763756E0,5.446808785E-2,7.308300734E-1
4.428210316E0,-9.518148422E0,1.616086066E-2,6.829460263E-1
4.430698128E0,-9.350554466E0,-9.876082093E-2,5.488707423E-1
4.433185941E0,-9.115922928E0,-2.472013235E-1,3.573346138E-1
4.435673753E0,-8.847772598E0,-3.956418335E-1,1.227028370E-1
4.438161566E0,-8.541314125E0,-5.345055461E-1,-6.404489279E-2
4.440649378E0,-8.234856606E0,-6.685808301E-1,-2.316390127E-1
4.443137191E0,-7.937975883E0,-7.978677154E-1,-4.088099301E-1
4.445625003E0,-7.645883083E0,-9.271546006E-1,-5.955576897E-1
4.448112816E0,-7.377732754E0,-1.051653147E0,-7.775170207E-1
4.450600628E0,-7.133523941E0,-1.180940032E0,-9.307458997E-1
4.453088441E0,-6.913257599E0,-1.295861721E0,-1.069609642E0
4.455576253E0,-6.755239964E0,-1.382052898E0,-1.184531331E0
4.458064066E0,-6.616376400E0,-1.439513803E0,-1.270722508E0
4.460551878E0,-6.491878033E0,-1.477820992E0,-1.304241419E0
4.463039691E0,-6.415263653E0,-1.487397790E0,-1.289876223E0
4.465527503E0,-6.348225594E0,-1.453878999E0,-1.237203717E0
4.468015316E0,-6.295553207E0,-1.401206493E0,-1.208473325E0
4.470503128E0,-6.257246017E0,-1.391629696E0,-1.174954534E0
4.472990941E0,-6.233304024E0,-1.401206493E0,-1.103128433E0
4.475478753E0,-6.238092422E0,-1.453878999E0,-9.977835417E-1
4.477966566E0,-6.223727226E0,-1.482609391E0,-8.589198589E-1
4.480454378E0,-6.266822815E0,-1.506551385E0,-6.721721292E-1
4.482942191E0,-6.424840450E0,-1.449090600E0,-4.614823759E-1
4.485430003E0,-6.760028362E0,-1.300650120E0,-1.550245583E-1
4.487917816E0,-7.205349922E0,-1.046864748E0,2.041056901E-1
4.490405628E0,-7.717709064E0,-7.499836683E-1,5.967547894E-1
4.492893441E0,-8.273163795E0,-4.578910768E-1,9.319429994E-1
4.495381253E0,-8.871714592E0,-1.274912357E-1,1.214458823E0
4.497869066E0,-9.522936821E0,2.460042238E-1,1.429937005E0
4.500356878E0,-1.012627602E1,6.147112846E-1,1.597531080E0
4.502844743E0,-1.062905884E1,9.451110959E-1,1.688510776E0
4.505332607E0,-1.097382355E1,1.194108129E0,1.664568782E0
4.507820472E0,-1.114141750E1,1.328183413E0,1.525704980E0
4.510308336E0,-1.115099430E1,1.318606615E0,1.276708007E0
4.512796201E0,-1.098818874E1,1.208473325E0,9.271546006E-1
4.515284066E0,-1.072482681E1,9.977835417E-1,5.249287486E-1
4.517771930E0,-1.038963795E1,6.769605279E-1,1.370680481E-1
4.520259795E0,-1.000656605E1,3.561375141E-1,-2.172738016E-1
4.522747659E0,-9.594763756E0,4.010287672E-2,-5.093663931E-1
4.525235524E0,-9.192537308E0,-2.759317458E-1,-7.727286220E-1
4.527723388E0,-8.852560997E0,-5.776011348E-1,-1.012148738E0
4.530211253E0,-8.570044518E0,-8.792705536E-1,-1.213261724E0
4.532699118E0,-8.335412979E0,-1.180940032E0,-1.380855799E0
4.535186982E0,-8.148665428E0,-1.458667397E0,-1.500565886E0
4.537674847E0,-8.014590263E0,-1.683722377E0,-1.572391987E0
4.540162711E0,-7.933187485E0,-1.865681648E0,-1.605910778E0
4.542650941E0,-7.861361504E0,-1.999756932E0,-1.586757183E0
4.545138753E0,-7.779958248E0,-2.057217836E0,-1.505354285E0
4.547626566E0,-7.722497463E0,-2.076371431E0,-1.428739905E0
4.550114378E0,-7.684190273E0,-2.071583033E0,-1.337760210E0
4.552602191E0,-7.621941090E0,-2.038064241E0,-1.241992116E0
4.555090003E0,-7.554903507E0,-2.009333849E0,-1.141435623E0
4.557577816E0,-7.459135532E0,-1.966238141E0,-1.083974838E0
4.560065628E0,-7.325059891E0,-1.937507749E0,-1.079186440E0
4.562553441E0,-7.143100739E0,-1.918354154E0,-1.155800819E0
4.565041253E0,-6.941987991E0,-1.908777356E0,-1.222838521E0
4.567529066E0,-6.807912350E0,-1.889623642E0,-1.270722508E0
4.570016878E0,-6.750451565E0,-1.808220863E0,-1.241992116E0
4.572504691E0,-6.860584736E0,-1.621473074E0,-1.083974838E0
4.574992503E0,-7.157465935E0,-1.348534107E0,-8.110358119E-1
4.577480316E0,-7.621941090E0,-9.702502489E-1,-4.854243994E-1
4.579968128E0,-8.210914612E0,-5.297171474E-1,-1.789665818E-1
4.582455941E0,-8.833407402E0,-1.035492271E-1,5.087678507E-2
4.584943753E0,-9.436745644E0,2.747346461E-1,1.993172914E-1
4.587431566E0,-1.007839203E1,5.811924338E-1,2.567781210E-1
4.589919378E0,-1.074398041E1,7.248445749E-1,2.615665495E-1
4.592407191E0,-1.134731865E1,7.152677774E-1,2.376245260E-1
4.594895003E0,-1.185488987E1,6.386532784E-1,1.897404790E-1
4.597382816E0,-1.218050098E1,4.997895956E-1,1.227028370E-1
4.599870628E0,-1.230499935E1,3.609259129E-1,-1.137245819E-2
4.602358441E0,-1.223317337E1,2.460042238E-1,-2.460042238E-1
4.604846253E0,-1.209909821E1,1.262941360E-1,-5.093663931E-1
4.607334066E0,-1.185967827E1,6.584054790E-3,-7.727286220E-1
4.609821878E0,-1.155800915E1,-1.179144308E-1,-9.977835417E-1
4.612309691E0,-1.127549267E1,-2.615665495E-1,-1.174954534E0
4.614797503E0,-1.105522633E1,-4.052186310E-1,-1.261145711E0
4.617285316E0,-1.085890198E1,-5.776011348E-1,-1.289876223E0
4.619773128E0,-1.068651962E1,-7.882909179E-1,-1.265934110E0
4.622260941E0,-1.052850151E1,-9.846154451E-1,-1.213261724E0
4.624748753E0,-1.036090755E1,-1.142632723E0,-1.112705231E0
4.627236566E0,-1.021725559E1,-1.286284804E0,-9.929951429E-1
4.629724378E0,-1.005923843E1,-1.372476101E0,-8.684966564E-1
4.632212191E0,-9.901221275E0,-1.405994892E0,-7.727286220E-1
4.634700003E0,-9.743204117E0,-1.401206493E0,-6.961141229E-1
4.637187816E0,-9.546878815E0,-1.386841297E0,-6.530185342E-1
4.639675628E0,-9.331400871E0,-1.353322506E0,-6.578069329E-1
4.642163441E0,-9.115922928E0,-1.305438519E0,-6.721721292E-1
4.644651253E0,-8.876502991E0,-1.224035621E0,-7.104793787E-1
4.647139066E0,-8.622717857E0,-1.128267527E0,-7.727286220E-1
4.649626878E0,-8.368931770E0,-1.018134236E0,-8.445546627E-1
4.652114691E0,-8.105569839E0,-8.888474107E-1,-9.355342984E-1
4.654602503E0,-7.866149902E0,-7.835025191E-1,-1.069609642E0
4.657090316E0,-7.674613476E0,-7.020996213E-1,-1.241992116E0
4.659578128E0,-7.540538311E0,-7.020996213E-1,-1.400009394E0
4.662065941E0,-7.516596317E0,-7.978677154E-1,-1.486200690E0
4.664553753E0,-7.554903507E0,-9.846154451E-1,-1.495777488E0
4.667041566E0,-7.631517887E0,-1.190516829E0,-1.500565886E0
4.669529378E0,-7.818265438E0,-1.329380512E0,-1.462258697E0
4.672017191E0,-8.177395821E0,-1.444302201E0,-1.390432596E0
4.674505003E0,-8.699332237E0,-1.453878999E0,-1.265934110E0
4.676992816E0,-9.321824074E0,-1.401206493E0,-1.093551636E0
4.679480628E0,-9.925163269E0,-1.300650120E0,-9.451110959E-1
4.681968441E0,-1.045188713E1,-1.190516829E0,-8.589198589E-1
4.684456253E0,-1.094509315E1,-1.075595140E0,-8.589198589E-1
4.686944066E0,-1.135689545E1,-9.941922426E-1,-9.355342984E-1
4.689431878E0,-1.176869869E1,-8.792705536E-1,-1.002571940E0
4.691919691E0,-1.223317337E1,-7.308300734E-1,-1.098340034E0
4.694407503E0,-1.261145782E1,-5.680243373E-1,-1.251568913E0
4.696895316E0,-1.289397335E1,-4.339490533E-1,-1.414374709E0
4.699383128E0,-1.308550930E1,-3.621230125E-1,-1.610699177E0
4.701870941E0,-1.313818169E1,-3.333925903E-1,-1.830965757E0
4.704358753E0,-1.307593250E1,-3.381809890E-1,-2.046443939E0
4.706846566E0,-1.288439655E1,-3.621230125E-1,-2.237980127E0
4.709334378E0,-1.260666943E1,-4.100070298E-1,-2.391208887E0
4.711822191E0,-1.223796177E1,-4.914098978E-1,-2.491765499E0
4.714310003E0,-1.183094788E1,-5.584475398E-1,-2.573168278E0
4.716797816E0,-1.139520264E1,-6.302735806E-1,-2.592321873E0
4.719285628E0,-1.094030476E1,-7.068880796E-1,-2.568379879E0
4.721773441E0,-1.048061752E1,-7.787141204E-1,-2.520495892E0
4.724261253E0,-1.003050804E1,-8.218097091E-1,-2.448669672E0
4.726749066E0,-9.618705750E0,-8.601169586E-1,-2.372055292E0
4.729236878E0,-9.269151688E0,-9.032126069E-1,-2.266710520E0
4.731724743E0,-8.991424561E0,-1.051653147E0,-2.108693123E0
4.734212607E0,-8.766369820E0,-1.252766013E0,-1.898003340E0
4.736700472E0,-8.546102524E0,-1.458667397E0,-1.629852772E0
4.739188336E0,-8.359354973E0,-1.650203466E0,-1.342548609E0
4.741676201E0,-8.172607422E0,-1.817797661E0,-1.083974838E0
4.744164066E0,-8.052897453E0,-1.956661344E0,-8.349778652E-1
4.746651930E0,-7.966706276E0,-2.124255419E0,-6.051344872E-1
4.749139795E0,-7.928399086E0,-2.282272816E0,-3.800795078E-1
4.751627659E0,-7.966706276E0,-2.454655409E0,-1.262941360E-1
4.754115524E0,-8.081627846E0,-2.579153776E0,1.179144308E-1
4.756603388E0,-8.258798599E0,-2.646191359E0,3.860650361E-1
4.759091253E0,-8.479064941E0,-2.665344954E0,5.967547894E-1
4.761579118E0,-8.766369820E0,-2.593518972E0,7.547720671E-1
4.764066982E0,-9.135076523E0,-2.459443808E0,8.361749649E-1
4.766554847E0,-9.561244011E0,-2.248754025E0,8.744821548E-1
4.769042711E0,-9.982624054E0,-1.980603337E0,8.840589523E-1
4.771530576E0,-1.034654236E1,-1.717241168E0,8.505401611E-1
4.774018441E0,-1.063863564E1,-1.487397790E0,7.499836683E-1
4.776506305E0,-1.088763237E1,-1.271919608E0,5.919663906E-1
4.778994170E0,-1.109832191E1,-1.051653147E0,3.525462151E-1
4.781482034E0,-1.127070427E1,-8.218097091E-1,1.274912357E-1
4.783969899E0,-1.140477943E1,-6.111199856E-1,-1.358709484E-1
4.786457763E0,-1.149097061E1,-4.052186310E-1,-4.135983288E-1
4.788945628E0,-1.152449036E1,-2.280477136E-1,-7.200561762E-1
4.791433493E0,-1.148618221E1,-9.397241473E-2,-1.021725535E0
4.793921357E0,-1.140956783E1,2.573766746E-2,-1.294664621E0
4.796409222E0,-1.129943466E1,1.215057373E-1,-1.543661594E0
4.798897086E0,-1.115099430E1,2.316390127E-1,-1.778293371E0
4.801384951E0,-1.098340034E1,3.369838893E-1,-2.003348351E0
4.803872816E0,-1.080622959E1,3.896563351E-1,-2.185307503E0
4.806360680E0,-1.063863564E1,4.183867574E-1,-2.343324900E0
4.808848545E0,-1.045667553E1,4.040215313E-1,-2.443881273E0
4.811336409E0,-1.028429317E1,3.513490856E-1,-2.472611904E0
4.813824274E0,-1.010233402E1,2.699462473E-1,-2.458246708E0
4.816312138E0,-9.925163269E0,1.693897694E-1,-2.424727678E0
4.818800003E0,-9.767146111E0,6.404489279E-2,-2.309806108E0
4.821287868E0,-9.671378136E0,-6.524199992E-2,-2.170942307E0
4.823775680E0,-9.613917351E0,-2.376245260E-1,-1.998559833E0
4.826263493E0,-9.613917351E0,-4.818331003E-1,-1.759139657E0
4.828751305E0,-9.623494148E0,-7.499836683E-1,-1.476623893E0
4.831239118E0,-9.647436142E0,-9.941922426E-1,-1.160589218E0
4.833726930E0,-9.647436142E0,-1.219247222E0,-8.876502514E-1
4.836214743E0,-9.661801338E0,-1.420360208E0,-5.955576897E-1
4.838702555E0,-9.661801338E0,-1.616684675E0,-3.465606868E-1
4.841190368E0,-9.685743332E0,-1.779490471E0,-1.167173311E-1
4.843678180E0,-9.724050522E0,-1.903988957E0,9.876082093E-2
4.846165993E0,-9.800664902E0,-2.023699045E0,3.238157928E-1
4.848653805E0,-9.891644478E0,-2.081159830E0,5.392939448E-1
4.851141618E0,-9.973047256E0,-2.090736628E0,7.212532759E-1
4.853629430E0,-1.010233402E1,-2.062006235E0,8.936358094E-1
4.856117243E0,-1.025077438E1,-1.990180135E0,1.056441545E0
4.858605055E0,-1.044231033E1,-1.856104851E0,1.195305228E0
4.861092868E0,-1.071046162E1,-1.698087573E0,1.324592113E0
4.863580680E0,-1.099776554E1,-1.487397790E0,1.401206493E0
4.866068493E0,-1.125633907E1,-1.243189216E0,1.429937005E0
4.868556305E0,-1.144308662E1,-1.042076349E0,1.391629696E0
4.871044118E0,-1.156758595E1,-8.744821548E-1,1.286284804E0
4.873531930E0,-1.161546993E1,-7.308300734E-1,1.147421122E0
4.876019743E0,-1.162025833E1,-5.967547894E-1,9.367313981E-1
4.878507555E0,-1.161068153E1,-4.722562730E-1,7.308300734E-1
4.880995368E0,-1.153885555E1,-3.477577865E-1,4.866214991E-1
4.883483180E0,-1.144308662E1,-2.424129248E-1,2.711433470E-1
4.885970993E0,-1.133295345E1,-1.514332592E-1,7.960720360E-2
4.888458805E0,-1.119408989E1,-7.481880486E-2,-1.262941360E-1
4.890946618E0,-1.101213074E1,-4.608838260E-2,-3.082534671E-1
4.893434430E0,-1.086369038E1,-6.524199992E-2,-5.141547918E-1
4.895922243E0,-1.074876881E1,-1.370680481E-1,-6.673837304E-1
4.898410055E0,-1.069609642E1,-3.142389655E-1,-7.870938182E-1
4.900897868E0,-1.064821243E1,-5.632359385E-1,-8.637082577E-1
4.903385680E0,-1.064342403E1,-8.170213103E-1,-9.546879530E-1
4.905873493E0,-1.061469364E1,-1.046864748E0,-1.050456047E0
4.908361305E0,-1.056680965E1,-1.233612418E0,-1.160589218E0
4.910849118E0,-1.048061752E1,-1.377264500E0,-1.304241419E0
4.913336930E0,-1.037048435E1,-1.487397790E0,-1.481412292E0
4.915824743E0,-1.026513958E1,-1.559223890E0,-1.634641171E0
4.918312555E0,-1.017894840E1,-1.626261473E0,-1.768716455E0
4.920800368E0,-1.010233402E1,-1.717241168E0,-1.888426542E0
4.923288180E0,-1.007360363E1,-1.813009262E0,-1.960252643E0
4.925775993E0,-1.006402683E1,-1.913565755E0,-2.008136749E0
4.928263805E0,-1.007360363E1,-1.994968534E0,-2.036867142E0
4.930751618E0,-1.009275723E1,-2.052429438E0,-2.032078743E0
4.933239430E0,-1.014542961E1,-2.100313425E0,-2.008136749E0
4.935727243E0,-1.019810200E1,-2.105101824E0,-1.902791858E0
4.938215055E0,-1.026513958E1,-2.066794634E0,-1.754351258E0
4.940702868E0,-1.036569595E1,-2.009333849E0,-1.615487576E0
4.943190680E0,-1.049977112E1,-1.923142552E0,-1.471835494E0
4.945678493E0,-1.067215443E1,-1.817797661E0,-1.366490602E0
4.948166305E0,-1.091636276E1,-1.678933978E0,-1.265934110E0
4.950654118E0,-1.117493629E1,-1.492186189E0,-1.189319730E0
4.953141930E0,-1.139041424E1,-1.300650120E0,-1.146224022E0
4.955629743E0,-1.153885555E1,-1.113902330E0,-1.122282028E0
4.958117555E0,-1.164420033E1,-9.654618502E-1,-1.127070427E0
4.960605368E0,-1.170166111E1,-8.505401611E-1,-1.160589218E0
4.963093180E0,-1.172081470E1,-7.164648771E-1,-1.218050122E0
4.965580993E0,-1.169687271E1,-6.206967831E-1,-1.275510907E0
4.968068805E0,-1.160110474E1,-5.536591411E-1,-1.342548609E0
4.970556618E0,-1.144787502E1,-5.345055461E-1,-1.366490602E0
4.973044430E0,-1.124676228E1,-5.440823436E-1,-1.371279001E0
4.975532243E0,-1.105522633E1,-6.063315868E-1,-1.366490602E0
4.978020055E0,-1.086847878E1,-7.068880796E-1,-1.309029818E0
4.980507868E0,-1.072003841E1,-8.218097091E-1,-1.189319730E0
4.982995680E0,-1.063384724E1,-9.223662019E-1,-9.834183455E-1
4.985483493E0,-1.058596325E1,-1.003769040E0,-7.439981699E-1
4.987971305E0,-1.054765606E1,-1.075595140E0,-5.045779943E-1
4.990459170E0,-1.053807831E1,-1.152209520E0,-2.795230448E-1
4.992947034E0,-1.052371311E1,-1.224035621E0,-1.071405262E-1
4.995434899E0,-1.052371311E1,-1.286284804E0,1.735796221E-2
4.997922763E0,-1.051413631E1,-1.338957310E0,9.876082093E-2
5.000410628E0,-1.050934792E1,-1.396418095E0,1.514332592E-1
5.002898909E0,-1.047104073E1,-1.458667397E0,1.945288926E-1
5.005387191E0,-1.043273354E1,-1.511339784E0,2.424129248E-1
5.007875263E0,-1.038963795E1,-1.568800688E0,2.759317458E-1
5.010363076E0,-1.034654236E1,-1.573589087E0,2.855085433E-1
5.012850888E0,-1.031781197E1,-1.544858694E0,2.902969420E-1
5.015338701E0,-1.033696556E1,-1.520916581E0,2.424129248E-1
5.017826513E0,-1.036569595E1,-1.487397790E0,2.088941038E-1
5.020314326E0,-1.044231033E1,-1.468244195E0,1.418564469E-1
5.022802138E0,-1.050455952E1,-1.401206493E0,7.481880486E-2
5.025289951E0,-1.059554005E1,-1.315015316E0,-3.052607179E-2
5.027777763E0,-1.074398041E1,-1.204882026E0,-1.262941360E-1
5.030265576E0,-1.095945835E1,-1.032499433E0,-1.933317930E-1
5.032753388E0,-1.123239708E1,-8.074445128E-1,-2.555810213E-1
5.035241201E0,-1.144308662E1,-5.967547894E-1,-2.890998423E-1
5.037729013E0,-1.159631634E1,-3.956418335E-1,-3.465606868E-1
5.040216826E0,-1.170166111E1,-2.567781210E-1,-4.231751561E-1
5.042704638E0,-1.176869869E1,-1.897404790E-1,-4.758476019E-1
5.045192451E0,-1.177348709E1,-1.274912357E-1,-5.428852439E-1
5.047680263E0,-1.170644951E1,-9.876082093E-2,-6.147112846E-1
5.050168076E0,-1.157237434E1,-9.397241473E-2,-6.769605279E-1
5.052655888E0,-1.139041424E1,-1.179144308E-1,-7.583633661E-1
5.055143701E0,-1.117493629E1,-1.514332592E-1,-7.870938182E-1
5.057631513E0,-1.094509315E1,-2.088941038E-1,-8.301894665E-1
5.060119326E0,-1.074876881E1,-2.567781210E-1,-8.014590144E-1
5.062607138E0,-1.057159805E1,-3.238157928E-1,-7.487865686E-1
5.065094951E0,-1.042315674E1,-4.387374520E-1,-6.290764809E-1
5.067582763E0,-1.030344677E1,-5.440823436E-1,-4.614823759E-1
5.070070576E0,-1.019810200E1,-6.302735806E-1,-2.172738016E-1
5.072558388E0,-1.010712242E1,-7.020996213E-1,1.735796221E-2
5.075046201E0,-1.004008484E1,-7.739257216E-1,2.519897223E-1
5.077534013E0,-9.987412453E0,-8.457517624E-1,4.818331003E-1
5.080021826E0,-9.968258858E0,-9.223662019E-1,7.020996213E-1
5.082509638E0,-9.920374870E0,-9.846154451E-1,9.032126069E-1
5.084997451E0,-9.882067680E0,-1.056441545E0,1.104325533E0
