"Time (s)","Gyroscope x (rad/s)","Gyroscope y (rad/s)","Gyroscope z (rad/s)"
4.715995100E-2,-1.262337416E-1,-3.854922652E-1,3.282343447E-1
4.963370100E-2,-1.283642650E-1,-3.663175404E-1,3.420827985E-1
5.211042000E-2,-1.262337416E-1,-3.418164849E-1,3.516701460E-1
5.459042000E-2,-1.219726875E-1,-3.109238148E-1,3.569964767E-1
5.707390900E-2,-1.155811027E-1,-2.747048736E-1,3.580617309E-1
5.956088800E-2,-1.059937328E-1,-2.331595868E-1,3.548659384E-1
6.205125300E-2,-9.534109384E-2,-1.884185076E-1,3.495396376E-1
6.454479500E-2,-8.255793154E-2,-1.415469050E-1,3.431480527E-1
6.704114900E-2,-6.870950758E-2,-9.041424841E-2,3.346259296E-1
6.953984700E-2,-5.592634156E-2,-4.034686089E-2,3.261038363E-1
7.204036800E-2,-4.420844093E-2,9.720530361E-3,3.154512048E-1
7.454213800E-2,-3.355580568E-2,5.765739456E-2,3.058638275E-1
7.704453400E-2,-2.609895915E-2,1.023984700E-1,2.973417044E-1
7.954693000E-2,-2.077264152E-2,1.396826953E-1,2.909501195E-1
8.203557600E-2,-1.970737800E-2,1.716406047E-1,2.866890728E-1
8.452333600E-2,-2.183790505E-2,1.961416751E-1,2.834932804E-1
8.701104500E-2,-2.716422267E-2,2.110553533E-1,2.824280262E-1
8.949875300E-2,-3.675159439E-2,2.195774615E-1,2.834932804E-1
9.198646100E-2,-4.953476042E-2,2.206427306E-1,2.866890728E-1
9.447417000E-2,-6.764423847E-2,2.153164148E-1,2.909501195E-1
9.696187800E-2,-8.788424730E-2,2.035985142E-1,2.962764502E-1
9.944958600E-2,-1.113200486E-1,1.854890287E-1,3.026680350E-1
1.019372950E-1,-1.368863732E-1,1.609879732E-1,3.090596199E-1
1.044250030E-1,-1.624527127E-1,1.322258562E-1,3.154512048E-1
1.069127110E-1,-1.901495606E-1,1.002679393E-1,3.218427896E-1
1.094004200E-1,-2.167811543E-1,6.404897571E-2,3.292996287E-1
1.118881280E-1,-2.434127480E-1,2.676474862E-2,3.367564678E-1
1.143758360E-1,-2.668485343E-1,-9.454214945E-3,3.452785909E-1
1.168635450E-1,-2.892190814E-1,-4.567318037E-2,3.559312224E-1
1.193512530E-1,-3.083938360E-1,-7.656582445E-2,3.687143922E-1
1.218389610E-1,-3.265033066E-1,-1.021321490E-1,3.836280704E-1
1.243266700E-1,-3.403517306E-1,-1.213068962E-1,4.006722867E-1
1.268143780E-1,-3.520696461E-1,-1.351553202E-1,4.209122956E-1
1.293020860E-1,-3.595264852E-1,-1.404816359E-1,4.443480968E-1
1.317897950E-1,-3.637875319E-1,-1.383511126E-1,4.699144363E-1
1.342775030E-1,-3.648527861E-1,-1.287637353E-1,5.008070469E-1
1.367652110E-1,-3.627222776E-1,-1.106542572E-1,5.348954797E-1
1.392529200E-1,-3.605917394E-1,-8.615319431E-2,5.711144805E-1
1.417406280E-1,-3.552654386E-1,-5.632581562E-2,6.115944982E-1
1.442283360E-1,-3.510043621E-1,-2.436790615E-2,6.531397700E-1
1.467160450E-1,-3.467433155E-1,9.720530361E-3,6.957502961E-1
1.492037530E-1,-3.424822688E-1,4.274370521E-2,7.383608818E-1
1.516914610E-1,-3.392864764E-1,7.576687634E-2,7.777756453E-1
1.541791700E-1,-3.371559381E-1,1.077247858E-1,8.139945865E-1
1.566668780E-1,-3.339601457E-1,1.375521719E-1,8.438219428E-1
1.591545860E-1,-3.318296373E-1,1.631184965E-1,8.651272058E-1
1.616422950E-1,-3.275685608E-1,1.854890287E-1,8.789756894E-1
1.641300030E-1,-3.233075142E-1,2.035985142E-1,8.832367063E-1
1.666177110E-1,-3.190464675E-1,2.174469382E-1,8.789756894E-1
1.691054720E-1,-3.126548827E-1,2.270343155E-1,8.651272058E-1
1.715932320E-1,-3.041327596E-1,2.344911546E-1,8.416914344E-1
1.740809930E-1,-2.924148738E-1,2.366216928E-1,8.139945865E-1
1.765687530E-1,-2.796317041E-1,2.355564237E-1,7.788408995E-1
1.790565130E-1,-2.636527419E-1,2.302301079E-1,7.394261360E-1
1.815442740E-1,-2.466085255E-1,2.217079997E-1,6.957502961E-1
1.840320340E-1,-2.263685167E-1,2.110553533E-1,6.510092616E-1
1.865197950E-1,-2.061285079E-1,1.982721984E-1,6.052029133E-1
1.890075550E-1,-1.858884990E-1,1.833585054E-1,5.604618192E-1
1.914953160E-1,-1.667137593E-1,1.673795432E-1,5.157207847E-1
1.939830760E-1,-1.507348120E-1,1.492700726E-1,4.720449448E-1
1.964708360E-1,-1.368863732E-1,1.290300637E-1,4.294344187E-1
1.989585970E-1,-1.283642650E-1,1.087900475E-1,3.878891170E-1
2.014463570E-1,-1.219726875E-1,8.535424620E-2,3.495396376E-1
2.039341180E-1,-1.209074259E-1,6.191844866E-2,3.154512048E-1
2.064218780E-1,-1.219726875E-1,3.741738573E-2,2.856238186E-1
2.089096380E-1,-1.262337416E-1,1.398158539E-2,2.611227632E-1
2.113973990E-1,-1.326253265E-1,-8.388951421E-3,2.408827394E-1
2.138851590E-1,-1.390169114E-1,-2.756369673E-2,2.270343155E-1
2.163729200E-1,-1.475390196E-1,-4.247738793E-2,2.195774615E-1
2.188606800E-1,-1.539305896E-1,-5.206476152E-2,2.174469382E-1
2.213484410E-1,-1.592569202E-1,-5.419528857E-2,2.217079997E-1
2.238362010E-1,-1.645832360E-1,-4.886896908E-2,2.302301079E-1
2.263239610E-1,-1.677790284E-1,-3.608580679E-2,2.440785319E-1
2.288117220E-1,-1.699095517E-1,-1.478053257E-2,2.611227632E-1
2.312994820E-1,-1.699095517E-1,1.291632187E-2,2.813627720E-1
2.337872430E-1,-1.688442826E-1,4.807002097E-2,3.016027808E-1
2.362750030E-1,-1.667137593E-1,8.748477697E-2,3.229080439E-1
2.387627630E-1,-1.656484902E-1,1.290300637E-1,3.420827985E-1
2.412505240E-1,-1.656484902E-1,1.727058738E-1,3.601922691E-1
2.437382840E-1,-1.667137593E-1,2.163816839E-1,3.751059473E-1
2.462260450E-1,-1.699095517E-1,2.600574791E-1,3.868238628E-1
2.487138050E-1,-1.752358675E-1,3.016027808E-1,3.942807019E-1
2.512015660E-1,-1.837579757E-1,3.431480527E-1,3.985417485E-1
2.536893260E-1,-1.944106072E-1,3.793670237E-1,3.953459561E-1
2.561770860E-1,-2.061285079E-1,4.113249183E-1,3.878891170E-1
2.586648470E-1,-2.199769467E-1,4.379565120E-1,3.751059473E-1
2.611526070E-1,-2.359558940E-1,4.581965208E-1,3.569964767E-1
2.636403680E-1,-2.540653646E-1,4.709796906E-1,3.356912136E-1
2.661281280E-1,-2.711096108E-1,4.773712754E-1,3.111901283E-1
2.686158880E-1,-2.902843356E-1,4.763059914E-1,2.802974880E-1
2.711036490E-1,-3.105243444E-1,4.699144363E-1,2.472743243E-1
2.735914090E-1,-3.286338449E-1,4.560659826E-1,2.099900991E-1
2.760791700E-1,-3.478085697E-1,4.379565120E-1,1.716406047E-1
2.785669300E-1,-3.659180701E-1,4.177165031E-1,1.322258562E-1
2.810546910E-1,-3.829622865E-1,3.942807019E-1,9.281109273E-2
2.835424510E-1,-3.978759646E-1,3.697796464E-1,5.552686751E-2
2.860302110E-1,-4.106591344E-1,3.463438451E-1,1.930790395E-2
2.885179720E-1,-4.213117659E-1,3.207775056E-1,-1.371526904E-2
2.910057320E-1,-4.298338890E-1,2.973417044E-1,-4.354264960E-2
2.934934930E-1,-4.351601899E-1,2.760364413E-1,-6.910897791E-2
2.959812530E-1,-4.362254739E-1,2.568616867E-1,-9.254477918E-2
2.984690130E-1,-4.330296814E-1,2.398174703E-1,-1.127847880E-1
3.009567740E-1,-4.255728126E-1,2.270343155E-1,-1.298290044E-1
3.034445340E-1,-4.149201810E-1,2.185122073E-1,-1.436774284E-1
3.059322950E-1,-4.000065029E-1,2.142511457E-1,-1.543300748E-1
3.084200550E-1,-3.818970025E-1,2.142511457E-1,-1.639174372E-1
3.109078160E-1,-3.616569936E-1,2.195774615E-1,-1.713742912E-1
3.133955760E-1,-3.392864764E-1,2.312953621E-1,-1.788311303E-1
3.158833360E-1,-3.179811835E-1,2.483395934E-1,-1.862879843E-1
3.183710970E-1,-2.956106663E-1,2.696448565E-1,-1.916143000E-1
3.208588570E-1,-2.753706574E-1,2.952111959E-1,-1.980058849E-1
3.233466180E-1,-2.561959028E-1,3.239732981E-1,-2.033322006E-1
3.258343780E-1,-2.380864173E-1,3.559312224E-1,-2.075932473E-1
3.283221380E-1,-2.221074700E-1,3.910849094E-1,-2.107890397E-1
3.308098990E-1,-2.061285079E-1,4.273038805E-1,-2.118543088E-1
3.332976590E-1,-1.922800839E-1,4.635228515E-1,-2.107890397E-1
3.357854200E-1,-1.794969290E-1,4.997417927E-1,-2.086585164E-1
3.382731800E-1,-1.667137593E-1,5.348954797E-1,-2.043974549E-1
3.407609410E-1,-1.549958587E-1,5.689839721E-1,-2.012016773E-1
3.432487010E-1,-1.454084814E-1,6.009418368E-1,-1.969406158E-1
3.457364610E-1,-1.368863732E-1,6.275734305E-1,-1.926795542E-1
3.482242220E-1,-1.315600574E-1,6.499440074E-1,-1.873532385E-1
3.507119820E-1,-1.262337416E-1,6.669881940E-1,-1.830921918E-1
3.531997430E-1,-1.241032109E-1,6.787061095E-1,-1.777658761E-1
3.556875030E-1,-1.262337416E-1,6.872282028E-1,-1.724395454E-1
3.581752630E-1,-1.304948032E-1,6.936197877E-1,-1.671132296E-1
3.606630240E-1,-1.379516423E-1,6.978808641E-1,-1.617869139E-1
3.631507840E-1,-1.496695429E-1,7.010766268E-1,-1.607216448E-1
3.656385450E-1,-1.667137593E-1,7.021418810E-1,-1.607216448E-1
3.681263050E-1,-1.880190372E-1,7.021418810E-1,-1.649827063E-1
3.706140660E-1,-2.125200927E-1,7.000113726E-1,-1.735048145E-1
3.731018260E-1,-2.423474789E-1,6.978808641E-1,-1.841574460E-1
3.755895860E-1,-2.753706574E-1,6.936197877E-1,-1.958753467E-1
3.780773470E-1,-3.105243444E-1,6.882934570E-1,-2.075932473E-1
3.805651070E-1,-3.488738537E-1,6.819018722E-1,-2.193111479E-1
3.830528680E-1,-3.861580789E-1,6.755102873E-1,-2.288985252E-1
3.855406280E-1,-4.234423041E-1,6.691187024E-1,-2.363553643E-1
3.880283880E-1,-4.575307369E-1,6.637924314E-1,-2.406164259E-1
3.905161490E-1,-4.916191697E-1,6.616618633E-1,-2.406164259E-1
3.930039090E-1,-5.214465261E-1,6.616618633E-1,-2.374206334E-1
3.954916700E-1,-5.480781198E-1,6.637924314E-1,-2.310290486E-1
3.979794300E-1,-5.736444592E-1,6.691187024E-1,-2.225069404E-1
4.004671910E-1,-5.949497223E-1,6.744450331E-1,-2.118543088E-1
4.029549510E-1,-6.130592227E-1,6.840324402E-1,-1.980058849E-1
4.054427110E-1,-6.279729009E-1,6.946850419E-1,-1.798963994E-1
4.079304720E-1,-6.396908164E-1,7.095987201E-1,-1.596563905E-1
4.104182320E-1,-6.482129097E-1,7.266429663E-1,-1.372858584E-1
4.129059930E-1,-6.524739861E-1,7.468829751E-1,-1.127847880E-1
4.153937530E-1,-6.535392404E-1,7.692534924E-1,-8.828372508E-2
4.178815130E-1,-6.503434777E-1,7.948198318E-1,-6.165213138E-2
4.203692740E-1,-6.428865790E-1,8.235819340E-1,-3.502054140E-2
4.228570340E-1,-6.322339773E-1,8.534093499E-1,-1.051947847E-2
4.253447950E-1,-6.183855534E-1,8.874977827E-1,1.291632187E-2
4.278325550E-1,-6.013413072E-1,9.226514697E-1,3.422159329E-2
4.303203160E-1,-5.821665525E-1,9.588704109E-1,5.126581341E-2
4.328080760E-1,-5.629918575E-1,9.972199202E-1,6.404897571E-2
4.352958360E-1,-5.438171029E-1,1.034504175E0,7.257108390E-2
4.377835970E-1,-5.225118399E-1,1.071788430E0,7.470161468E-2
4.402713570E-1,-5.033370852E-1,1.109072566E0,7.150582224E-2
4.427591180E-1,-4.852275848E-1,1.143161058E0,6.404897571E-2
4.452468780E-1,-4.713791609E-1,1.174053669E0,5.126581341E-2
4.477346380E-1,-4.575307369E-1,1.199620008E0,3.528685868E-2
4.502223990E-1,-4.490086138E-1,1.221990585E0,1.717737690E-2
4.527101590E-1,-4.436823130E-1,1.237969518E0,-4.127896391E-3
4.551979200E-1,-4.426170290E-1,1.248622179E0,-2.756369673E-2
4.576856800E-1,-4.458128214E-1,1.253948450E0,-5.419528857E-2
4.601734410E-1,-4.522044063E-1,1.253948450E0,-8.402267098E-2
4.626612010E-1,-4.617917836E-1,1.247556925E0,-1.149153188E-1
4.651489610E-1,-4.724444151E-1,1.236904263E0,-1.479384899E-1
4.676367220E-1,-4.852275848E-1,1.223055840E0,-1.809616536E-1
4.701244820E-1,-4.980107546E-1,1.204946280E0,-2.129195631E-1
4.726122430E-1,-5.107939243E-1,1.183641076E0,-2.427469492E-1
4.751000030E-1,-5.214465261E-1,1.162335753E0,-2.693785429E-1
4.775877630E-1,-5.310339332E-1,1.138900042E0,-2.928143442E-1
4.800755240E-1,-5.384907722E-1,1.116529465E0,-3.119890988E-1
4.825632840E-1,-5.416865349E-1,1.093093634E0,-3.279680312E-1
4.850510450E-1,-5.416865349E-1,1.071788430E0,-3.418164849E-1
4.875388050E-1,-5.395560265E-1,1.051548362E0,-3.535343707E-1
4.900265660E-1,-5.331644416E-1,1.031308413E0,-3.641870022E-1
4.925143260E-1,-5.235770941E-1,1.014264107E0,-3.727091253E-1
4.950020860E-1,-5.118591785E-1,9.993504286E-1,-3.812312186E-1
4.974898470E-1,-4.980107546E-1,9.876325727E-1,-3.886880577E-1
4.999776070E-1,-4.809665382E-1,9.801757336E-1,-3.950796425E-1
5.024653680E-1,-4.639223218E-1,9.780451655E-1,-4.014712274E-1
5.049531280E-1,-4.447475672E-1,9.801757336E-1,-4.057323039E-1
5.074408880E-1,-4.255728126E-1,9.855020046E-1,-4.099933505E-1
5.099286490E-1,-4.063980877E-1,9.929588437E-1,-4.131891429E-1
5.124164090E-1,-3.872233331E-1,1.001480937E0,-4.153196514E-1
5.149041700E-1,-3.691138625E-1,1.011068344E0,-4.163849354E-1
5.173919300E-1,-3.531349003E-1,1.019590497E0,-4.163849354E-1
5.198796910E-1,-3.371559381E-1,1.024916768E0,-4.142543972E-1
5.223674510E-1,-3.243727684E-1,1.029177785E0,-4.121238589E-1
5.248552110E-1,-3.137201369E-1,1.032373667E0,-4.078628123E-1
5.273429720E-1,-3.062632978E-1,1.031308413E0,-4.046670198E-1
5.298307320E-1,-3.009369671E-1,1.027047276E0,-4.025365114E-1
5.323184930E-1,-2.988064587E-1,1.019590497E0,-4.014712274E-1
5.348062530E-1,-2.988064587E-1,1.005742073E0,-4.014712274E-1
5.372940130E-1,-3.030675054E-1,9.876325727E-1,-4.025365114E-1
5.397817740E-1,-3.094590902E-1,9.652619958E-1,-4.089280665E-1
5.422695340E-1,-3.201117218E-1,9.386304021E-1,-4.185154438E-1
5.447572950E-1,-3.318296373E-1,9.109335542E-1,-4.312986135E-1
5.472450550E-1,-3.446127772E-1,8.800409436E-1,-4.494080842E-1
5.497327630E-1,-3.573959470E-1,8.448871970E-1,-4.696480930E-1
5.522204720E-1,-3.701791167E-1,8.086682558E-1,-4.930838943E-1
5.547081800E-1,-3.787012100E-1,7.692534924E-1,-5.175849795E-1
5.571958880E-1,-3.829622865E-1,7.266429663E-1,-5.420860648E-1
5.596835970E-1,-3.829622865E-1,6.829671264E-1,-5.644565821E-1
5.621713050E-1,-3.765707016E-1,6.392913461E-1,-5.878923535E-1
5.646590130E-1,-3.648527861E-1,5.945502520E-1,-6.091976166E-1
5.671467220E-1,-3.467433155E-1,5.508744717E-1,-6.315681934E-1
5.696344300E-1,-3.222422600E-1,5.103944540E-1,-6.539387107E-1
5.721221380E-1,-2.924148738E-1,4.752407372E-1,-6.752439737E-1
5.746098470E-1,-2.551306486E-1,4.432828426E-1,-6.976145506E-1
5.770975550E-1,-2.125200927E-1,4.187817574E-1,-7.199850678E-1
5.795852630E-1,-1.656484902E-1,4.017375410E-1,-7.412903309E-1
5.820729720E-1,-1.134505793E-1,3.921501637E-1,-7.604650855E-1
5.845606800E-1,-5.805686861E-2,3.900196552E-1,-7.775092721E-1
5.870483880E-1,-2.663159044E-3,3.974764943E-1,-7.902924418E-1
5.895360970E-1,5.273054913E-2,4.113249183E-1,-8.020103574E-1
5.920238050E-1,1.049284711E-1,4.326302111E-1,-8.094671965E-1
5.945115130E-1,1.549958587E-1,4.571312666E-1,-8.137282729E-1
5.969992220E-1,2.008021921E-1,4.858933687E-1,-8.147935271E-1
5.994869300E-1,2.391516864E-1,5.167860389E-1,-8.137282729E-1
6.019746380E-1,2.721748650E-1,5.476786494E-1,-8.115977645E-1
6.044623470E-1,2.977411747E-1,5.764408112E-1,-8.073366880E-1
6.069500550E-1,3.126548827E-1,5.998765826E-1,-8.009451032E-1
6.094377630E-1,3.190464675E-1,6.179860830E-1,-7.934882641E-1
6.119254720E-1,3.147853911E-1,6.307692528E-1,-7.849661708E-1
6.144132320E-1,3.020022511E-1,6.382260919E-1,-7.764440179E-1
6.169009930E-1,2.806969583E-1,6.403566003E-1,-7.657914162E-1
6.193887530E-1,2.508696020E-1,6.382260919E-1,-7.562040091E-1
6.218765130E-1,2.135853618E-1,6.328997612E-1,-7.466166615E-1
6.243642740E-1,1.720400751E-1,6.233124137E-1,-7.391598225E-1
6.268520340E-1,1.241032109E-1,6.094639897E-1,-7.338334918E-1
6.293397950E-1,7.510108501E-2,5.924197435E-1,-7.317029834E-1
6.318275550E-1,2.396843210E-2,5.721797347E-1,-7.348987460E-1
6.343153160E-1,-2.929474972E-2,5.508744717E-1,-7.412903309E-1
6.368030760E-1,-8.362319320E-2,5.285038948E-1,-7.540735006E-1
6.392908360E-1,-1.379516423E-1,5.061333776E-1,-7.721830010E-1
6.417785970E-1,-1.912148297E-1,4.837628603E-1,-7.945535183E-1
6.442663570E-1,-2.423474789E-1,4.603270590E-1,-8.222503662E-1
6.467541180E-1,-2.892190814E-1,4.358259737E-1,-8.542082906E-1
6.492418780E-1,-3.318296373E-1,4.134554565E-1,-8.914924860E-1
6.517296380E-1,-3.669833243E-1,3.921501637E-1,-9.287767410E-1
6.542173990E-1,-3.936149180E-1,3.740406930E-1,-9.660609365E-1
6.567051590E-1,-4.127896726E-1,3.569964767E-1,-1.002279878E0
6.591929200E-1,-4.213117659E-1,3.399522603E-1,-1.040629387E0
6.616806800E-1,-4.202465117E-1,3.229080439E-1,-1.076848388E0
6.641684410E-1,-4.117243886E-1,3.079943359E-1,-1.112002134E0
6.666562010E-1,-3.957454562E-1,2.962764502E-1,-1.143959999E0
6.691439610E-1,-3.755054474E-1,2.877543271E-1,-1.173787355E0
6.716317220E-1,-3.531349003E-1,2.845585644E-1,-1.202549458E0
6.741194820E-1,-3.286338449E-1,2.866890728E-1,-1.228115797E0
6.766072430E-1,-3.051980436E-1,2.962764502E-1,-1.250486374E0
6.790950030E-1,-2.838927507E-1,3.133206666E-1,-1.271791577E0
6.815827630E-1,-2.657832801E-1,3.356912136E-1,-1.290966392E0
6.840705240E-1,-2.508696020E-1,3.623228073E-1,-1.308010578E0
6.865582840E-1,-2.402169555E-1,3.921501637E-1,-1.322924256E0
6.890460450E-1,-2.359558940E-1,4.219775498E-1,-1.336772680E0
6.915338050E-1,-2.370211631E-1,4.518049359E-1,-1.348490596E0
6.940215660E-1,-2.455432713E-1,4.784365296E-1,-1.359143257E0
6.965093260E-1,-2.604569495E-1,5.029376149E-1,-1.367665410E0
6.989970860E-1,-2.828274965E-1,5.231776237E-1,-1.374056935E0
7.014848470E-1,-3.115896285E-1,5.402218103E-1,-1.378317952E0
7.039726070E-1,-3.446127772E-1,5.519397259E-1,-1.382579088E0
7.064603680E-1,-3.850927949E-1,5.593965650E-1,-1.384709597E0
7.089481280E-1,-4.287686050E-1,5.615270734E-1,-1.385774851E0
7.114358880E-1,-4.745749533E-1,5.604618192E-1,-1.383644342E0
7.139236490E-1,-5.235770941E-1,5.562008023E-1,-1.380448580E0
7.164114090E-1,-5.747097135E-1,5.519397259E-1,-1.376187444E0
7.188991700E-1,-6.279729009E-1,5.476786494E-1,-1.371926427E0
7.213869300E-1,-6.833665967E-1,5.455481410E-1,-1.367665410E0
7.238746910E-1,-7.398256063E-1,5.434176326E-1,-1.363404274E0
7.263624510E-1,-7.962845564E-1,5.402218103E-1,-1.359143257E0
7.288502110E-1,-8.516782522E-1,5.338302255E-1,-1.350621104E0
7.313379720E-1,-9.049414396E-1,5.242428780E-1,-1.342099071E0
7.338257320E-1,-9.571393728E-1,5.135902166E-1,-1.330381155E0
7.363134930E-1,-1.007206798E0,4.997417927E-1,-1.319728494E0
7.388012530E-1,-1.056208849E0,4.848281145E-1,-1.306945324E0
7.412890130E-1,-1.103080511E0,4.656533599E-1,-1.292031646E0
7.437767740E-1,-1.146756291E0,4.464786351E-1,-1.274987459E0
7.462645340E-1,-1.190432072E0,4.230428338E-1,-1.256877899E0
7.487522950E-1,-1.229846835E0,3.985417485E-1,-1.234507442E0
7.512400550E-1,-1.266065836E0,3.729754388E-1,-1.208941102E0
7.537278160E-1,-1.299088955E0,3.474090993E-1,-1.184440017E0
7.562155760E-1,-1.328916430E0,3.218427896E-1,-1.158873677E0
7.587033360E-1,-1.354482770E0,2.962764502E-1,-1.134372592E0
7.611911490E-1,-1.373657465E0,2.707101107E-1,-1.113067389E0
7.636789610E-1,-1.387505889E0,2.440785319E-1,-1.093892574E0
7.661667740E-1,-1.394962788E0,2.206427306E-1,-1.076848388E0
7.686545860E-1,-1.393897533E0,1.993374527E-1,-1.060869455E0
7.711423990E-1,-1.382179618E0,1.790974438E-1,-1.043825269E0
7.736302110E-1,-1.360874295E0,1.631184965E-1,-1.025715709E0
7.761180240E-1,-1.327851176E0,1.524658650E-1,-1.007606268E0
7.786058360E-1,-1.285240531E0,1.471395344E-1,-9.884315133E-1
7.810936490E-1,-1.233042717E0,1.482048035E-1,-9.692567587E-1
7.835814610E-1,-1.175518394E0,1.545963883E-1,-9.522125125E-1
7.860692740E-1,-1.111602664E0,1.663142890E-1,-9.362335801E-1
7.885570860E-1,-1.045556307E0,1.833585054E-1,-9.213199019E-1
7.910448990E-1,-9.784446359E-1,2.025332451E-1,-9.085367322E-1
7.935327110E-1,-9.134635925E-1,2.238385230E-1,-8.946883082E-1
7.960205240E-1,-8.506129980E-1,2.451438010E-1,-8.797746301E-1
7.985083360E-1,-7.920235395E-1,2.653838098E-1,-8.637956381E-1
8.009961490E-1,-7.366297841E-1,2.824280262E-1,-8.446208835E-1
8.034839610E-1,-6.876276731E-1,2.920154035E-1,-8.211851120E-1
8.059717740E-1,-6.428865790E-1,2.962764502E-1,-7.934882641E-1
8.084595860E-1,-6.024065614E-1,2.930806577E-1,-7.615303397E-1
8.109473990E-1,-5.672528744E-1,2.813627720E-1,-7.253113985E-1
8.134352110E-1,-5.363602638E-1,2.611227632E-1,-6.837661266E-1
8.159230240E-1,-5.129244328E-1,2.334259003E-1,-6.368945241E-1
8.184108360E-1,-4.937497079E-1,2.004027218E-1,-5.857618451E-1
8.208986490E-1,-4.799012840E-1,1.599227041E-1,-5.303681493E-1
8.233864610E-1,-4.692486227E-1,1.162468940E-1,-4.707133770E-1
8.258742220E-1,-4.617917836E-1,6.937529147E-2,-4.089280665E-1
8.283619820E-1,-4.564654827E-1,2.143843099E-2,-3.450122476E-1
8.308497430E-1,-4.522044063E-1,-2.756369673E-2,-2.789659202E-1
8.333375030E-1,-4.468781054E-1,-7.550056279E-2,-2.129195631E-1
8.358252630E-1,-4.383559823E-1,-1.213068962E-1,-1.458079666E-1
8.383130240E-1,-4.277033508E-1,-1.617869139E-1,-7.656582445E-2
8.408007840E-1,-4.138549268E-1,-1.980058849E-1,-8.388951421E-3
8.432885450E-1,-3.968107104E-1,-2.257027328E-1,5.872265995E-2
8.457763050E-1,-3.755054474E-1,-2.459427416E-1,1.258342713E-1
8.482640660E-1,-3.520696461E-1,-2.576606572E-1,1.897500902E-1
8.507518260E-1,-3.275685608E-1,-2.640522122E-1,2.526006401E-1
8.532395860E-1,-3.020022511E-1,-2.651174963E-1,3.101248741E-1
8.557273470E-1,-2.764359117E-1,-2.597911656E-1,3.623228073E-1
8.582151070E-1,-2.508696020E-1,-2.512690723E-1,4.102596641E-1
8.607028680E-1,-2.253032625E-1,-2.395511568E-1,4.528702199E-1
8.631906280E-1,-1.997369379E-1,-2.257027328E-1,4.880239069E-1
8.656783880E-1,-1.752358675E-1,-2.097237855E-1,5.189165473E-1
8.681661490E-1,-1.518000662E-1,-1.937448233E-1,5.434176326E-1
8.706539090E-1,-1.272990108E-1,-1.788311303E-1,5.625923872E-1
8.731416700E-1,-1.038632020E-1,-1.639174372E-1,5.764408112E-1
8.756294300E-1,-8.042740822E-2,-1.511342824E-1,5.838976502E-1
8.781171910E-1,-5.699160323E-2,-1.404816359E-1,5.860281587E-1
8.806049510E-1,-3.568633273E-2,-1.330247968E-1,5.828323960E-1
8.830927110E-1,-1.544632297E-2,-1.287637353E-1,5.721797347E-1
8.855804720E-1,2.663159044E-3,-1.287637353E-1,5.562008023E-1
8.880682320E-1,1.970737800E-2,-1.319595277E-1,5.348954797E-1
8.905559930E-1,3.568633273E-2,-1.383511126E-1,5.103944540E-1
8.930437530E-1,5.166528746E-2,-1.468732208E-1,4.837628603E-1
8.955315130E-1,6.764423847E-2,-1.564605981E-1,4.539354742E-1
8.980192740E-1,8.255793154E-2,-1.660479754E-1,4.230428338E-1
9.005070340E-1,9.747162461E-2,-1.756353378E-1,3.932154477E-1
9.029947950E-1,1.145158410E-1,-1.862879843E-1,3.644533157E-1
9.054825550E-1,1.315600574E-1,-1.948100924E-1,3.378217220E-1
9.079703160E-1,1.496695429E-1,-2.022669315E-1,3.154512048E-1
9.104580760E-1,1.656484902E-1,-2.097237855E-1,2.962764502E-1
9.129458360E-1,1.805621833E-1,-2.129195631E-1,2.802974880E-1
9.154335970E-1,1.944106072E-1,-2.139848322E-1,2.685796022E-1
9.179213570E-1,2.050632536E-1,-2.118543088E-1,2.611227632E-1
9.204091180E-1,2.135853618E-1,-2.054627240E-1,2.568616867E-1
9.228968780E-1,2.199769467E-1,-1.980058849E-1,2.589922249E-1
9.253846380E-1,2.231727391E-1,-1.862879843E-1,2.653838098E-1
9.278723990E-1,2.221074700E-1,-1.713742912E-1,2.760364413E-1
9.303601590E-1,2.189116776E-1,-1.521995366E-1,2.909501195E-1
9.328479200E-1,2.125200927E-1,-1.287637353E-1,3.101248741E-1
9.353356800E-1,2.018674612E-1,-1.010668874E-1,3.324954212E-1
9.378234410E-1,1.858884990E-1,-6.804371625E-2,3.559312224E-1
9.403112010E-1,1.667137593E-1,-3.182475269E-2,3.793670237E-1
9.427989610E-1,1.411474347E-1,5.459476262E-3,4.038680792E-1
9.452867220E-1,1.113200486E-1,4.167843983E-2,4.241080880E-1
9.477744820E-1,7.723161578E-2,7.683213800E-2,4.422175586E-1
9.502622430E-1,4.101264849E-2,1.087900475E-1,4.581965208E-1
9.527500030E-1,5.326318205E-4,1.375521719E-1,4.699144363E-1
9.552377630E-1,-4.207791388E-2,1.609879732E-1,4.805670679E-1
9.577255240E-1,-8.575372398E-2,1.769669205E-1,4.880239069E-1
9.602132840E-1,-1.294295341E-1,1.897500902E-1,4.901544452E-1
9.627010450E-1,-1.731053442E-1,1.961416751E-1,4.912196994E-1
9.651888050E-1,-2.157158852E-1,1.972069293E-1,4.912196994E-1
9.676765660E-1,-2.561959028E-1,1.929458827E-1,4.880239069E-1
9.701643260E-1,-2.924148738E-1,1.844237745E-1,4.826975763E-1
9.726520860E-1,-3.233075142E-1,1.705753356E-1,4.752407372E-1
9.751398470E-1,-3.478085697E-1,1.524658650E-1,4.656533599E-1
9.776276070E-1,-3.659180701E-1,1.322258562E-1,4.528702199E-1
9.801153680E-1,-3.755054474E-1,1.109205782E-1,4.400870502E-1
9.826035970E-1,-3.755054474E-1,8.961530030E-2,4.241080880E-1
9.850912530E-1,-3.680485785E-1,6.831002980E-2,4.081291258E-1
9.875789090E-1,-3.499391079E-1,4.700475931E-2,3.910849094E-1
9.900665660E-1,-3.233075142E-1,2.996053919E-2,3.751059473E-1
9.925542220E-1,-2.860232890E-1,1.611211337E-2,3.612575233E-1
9.950418780E-1,-2.423474789E-1,4.394212738E-3,3.506048918E-1
9.975295340E-1,-1.922800839E-1,-1.997369342E-3,3.420827985E-1
1.000017191E0,-1.347558498E-1,-4.127896391E-3,3.367564678E-1
1.002504847E0,-7.403582335E-2,-4.127896391E-3,3.367564678E-1
1.004992503E0,-9.054740891E-3,-1.997369342E-3,3.420827985E-1
1.007480159E0,5.699160323E-2,2.263685223E-3,3.527354300E-1
1.009967816E0,1.230379492E-1,6.524739787E-3,3.697796464E-1
1.012455472E0,1.858884990E-1,1.291632187E-2,3.932154477E-1
1.014943180E0,2.444780022E-1,1.930790395E-2,4.209122956E-1
1.017430941E0,2.966759205E-1,2.783001214E-2,4.518049359E-1
1.019918753E0,3.424822688E-1,3.741738573E-2,4.880239069E-1
1.022406566E0,3.776359558E-1,4.807002097E-2,5.253081322E-1
1.024894378E0,4.042675495E-1,5.978792161E-2,5.657881498E-1
1.027382191E0,4.213117659E-1,7.150582224E-2,6.062681675E-1
1.029870003E0,4.266380966E-1,8.322372288E-2,6.435524225E-1
1.032357816E0,4.213117659E-1,9.174583107E-2,6.787061095E-1
1.034845628E0,4.053328037E-1,9.600688517E-2,7.106640339E-1
1.037333441E0,3.808317482E-1,9.494162351E-2,7.372955680E-1
1.039821253E0,3.467433155E-1,8.855003864E-2,7.586008906E-1
1.042309066E0,3.051980436E-1,7.683213800E-2,7.767103314E-1
1.044796878E0,2.583264410E-1,5.978792161E-2,7.905587554E-1
1.047284691E0,2.061285079E-1,3.741738573E-2,8.001461625E-1
1.049772503E0,1.518000662E-1,1.078579482E-2,8.044071794E-1
1.052260316E0,9.747162461E-2,-2.117211558E-2,8.044071794E-1
1.054748128E0,4.314317927E-2,-5.526055023E-2,8.022766709E-1
1.057235941E0,-6.924213842E-3,-9.147951752E-2,7.958850861E-1
1.059723753E0,-5.166528746E-2,-1.308942735E-1,7.873629928E-1
1.062211566E0,-9.108003974E-2,-1.703090221E-1,7.767103314E-1
1.064699378E0,-1.230379492E-1,-2.086585164E-1,7.660577297E-1
1.067187191E0,-1.454084814E-1,-2.448774725E-1,7.554050684E-1
1.069675003E0,-1.603221744E-1,-2.768353820E-1,7.447524667E-1
1.072162816E0,-1.656484902E-1,-3.024017215E-1,7.351650596E-1
1.074650628E0,-1.624527127E-1,-3.215764761E-1,7.255777121E-1
1.077138441E0,-1.496695429E-1,-3.343596160E-1,7.191861272E-1
1.079626253E0,-1.294295341E-1,-3.428817391E-1,7.138597965E-1
1.082114066E0,-1.017326787E-1,-3.471427858E-1,7.106640339E-1
1.084601878E0,-6.657897681E-2,-3.514038324E-1,7.095987201E-1
1.087089691E0,-2.609895915E-2,-3.535343707E-1,7.106640339E-1
1.089577503E0,1.757685095E-2,-3.545996249E-1,7.138597965E-1
1.092065316E0,6.444845349E-2,-3.545996249E-1,7.170555592E-1
1.094553128E0,1.113200486E-1,-3.545996249E-1,7.213166356E-1
1.097040888E0,1.581916511E-1,-3.535343707E-1,7.245124578E-1
1.099528649E0,2.039979845E-1,-3.535343707E-1,7.287734747E-1
1.102016409E0,2.466085255E-1,-3.535343707E-1,7.340998054E-1
1.104504170E0,2.860232890E-1,-3.535343707E-1,7.404913902E-1
1.106991930E0,3.222422600E-1,-3.545996249E-1,7.479482293E-1
1.109479691E0,3.520696461E-1,-3.556649089E-1,7.543398142E-1
1.111967451E0,3.776359558E-1,-3.567301631E-1,7.628619075E-1
1.114455211E0,3.978759646E-1,-3.577954173E-1,7.703187466E-1
1.116942972E0,4.117243886E-1,-3.588607013E-1,7.777756453E-1
1.119430732E0,4.191812575E-1,-3.588607013E-1,7.862977386E-1
1.121918493E0,4.213117659E-1,-3.588607013E-1,7.926893234E-1
1.124406253E0,4.170507193E-1,-3.588607013E-1,7.980156541E-1
1.126894013E0,4.074633420E-1,-3.588607013E-1,8.022766709E-1
1.129381774E0,3.936149180E-1,-3.588607013E-1,8.044071794E-1
1.131869534E0,3.755054474E-1,-3.588607013E-1,8.086682558E-1
1.134357295E0,3.531349003E-1,-3.620564938E-1,8.118640780E-1
1.136845055E0,3.265033066E-1,-3.652522564E-1,8.139945865E-1
1.139332816E0,2.966759205E-1,-3.695133328E-1,8.161250949E-1
1.141820576E0,2.647180259E-1,-3.727091253E-1,8.171903491E-1
1.144308336E0,2.306295782E-1,-3.769701719E-1,8.193209171E-1
1.146796097E0,1.965411454E-1,-3.812312186E-1,8.214514256E-1
1.149283857E0,1.624527127E-1,-3.844270110E-1,8.225166798E-1
1.151771618E0,1.294295341E-1,-3.886880577E-1,8.246471882E-1
1.154259378E0,9.960214794E-2,-3.918838501E-1,8.257125020E-1
1.156747138E0,7.084003091E-2,-3.961449265E-1,8.267777562E-1
1.159234899E0,4.740423337E-2,-4.004059732E-1,8.257125020E-1
1.161722659E0,2.609895915E-2,-4.046670198E-1,8.235819340E-1
1.164210420E0,7.989477366E-3,-4.089280665E-1,8.214514256E-1
1.166698180E0,-6.924213842E-3,-4.110586047E-1,8.171903491E-1
1.169185941E0,-1.651158556E-2,-4.121238589E-1,8.129293323E-1
1.171673701E0,-2.396843210E-2,-4.121238589E-1,8.076030016E-1
1.174161461E0,-2.609895915E-2,-4.099933505E-1,8.001461625E-1
1.176649222E0,-2.609895915E-2,-4.067975581E-1,7.937545776E-1
1.179136982E0,-2.290316857E-2,-4.014712274E-1,7.873629928E-1
1.181624743E0,-1.757685095E-2,-3.950796425E-1,7.820366621E-1
1.184112503E0,-1.012000442E-2,-3.886880577E-1,7.788408995E-1
1.186600263E0,-3.728422802E-3,-3.812312186E-1,7.767103314E-1
1.189088024E0,2.663159044E-3,-3.727091253E-1,7.777756453E-1
1.191575784E0,7.989477366E-3,-3.652522564E-1,7.788408995E-1
1.194063545E0,1.225053146E-2,-3.556649089E-1,7.799061537E-1
1.196551305E0,1.331579592E-2,-3.460775316E-1,7.809714079E-1
1.199039066E0,1.118526794E-2,-3.354249001E-1,7.809714079E-1
1.201526826E0,4.793686327E-3,-3.237069845E-1,7.788408995E-1
1.204014586E0,-5.858949851E-3,-3.109238148E-1,7.745798230E-1
1.206502347E0,-2.077264152E-2,-2.981406748E-1,7.671229839E-1
1.208990107E0,-3.994738683E-2,-2.885532975E-1,7.564703226E-1
1.211477868E0,-6.231792271E-2,-2.800311744E-1,7.447524667E-1
1.213965628E0,-8.681898564E-2,-2.747048736E-1,7.309040427E-1
1.216453388E0,-1.134505793E-1,-2.715090811E-1,7.159903049E-1
1.218941149E0,-1.411474347E-1,-2.704437971E-1,7.000113726E-1
1.221428909E0,-1.699095517E-1,-2.715090811E-1,6.840324402E-1
1.223916670E0,-1.976063997E-1,-2.725743353E-1,6.680534482E-1
1.226404430E0,-2.242379934E-1,-2.747048736E-1,6.531397700E-1
1.228892191E0,-2.476737946E-1,-2.768353820E-1,6.371608377E-1
1.231379951E0,-2.679138184E-1,-2.800311744E-1,6.211818457E-1
1.233867711E0,-2.849580348E-1,-2.832269669E-1,6.041376591E-1
1.236355472E0,-2.966759205E-1,-2.864227593E-1,5.870934129E-1
1.238843232E0,-3.030675054E-1,-2.917490900E-1,5.679186583E-1
1.241330993E0,-3.041327596E-1,-2.960101366E-1,5.487439036E-1
1.243818753E0,-2.998717129E-1,-3.013364673E-1,5.295692086E-1
1.246306513E0,-2.902843356E-1,-3.077280223E-1,5.125249624E-1
1.248794274E0,-2.743053734E-1,-3.151848912E-1,4.976112843E-1
1.251282034E0,-2.540653646E-1,-3.237069845E-1,4.848281145E-1
1.253769795E0,-2.284990549E-1,-3.332943618E-1,4.763059914E-1
1.256257555E0,-1.986716688E-1,-3.439469934E-1,4.731102288E-1
1.258745316E0,-1.667137593E-1,-3.556649089E-1,4.731102288E-1
1.261233076E0,-1.315600574E-1,-3.663175404E-1,4.763059914E-1
1.263720836E0,-9.534109384E-2,-3.769701719E-1,4.848281145E-1
1.266208597E0,-5.592634156E-2,-3.876228034E-1,4.976112843E-1
1.268696357E0,-1.651158556E-2,-3.972101808E-1,5.146554708E-1
1.271184118E0,2.290316857E-2,-4.067975581E-1,5.359607935E-1
1.273671878E0,6.125266105E-2,-4.121238589E-1,5.615270734E-1
1.276159638E0,9.960214794E-2,-4.153196514E-1,5.892239809E-1
1.278647399E0,1.336905807E-1,-4.131891429E-1,6.179860830E-1
1.281135159E0,1.635179669E-1,-4.067975581E-1,6.446176767E-1
1.283622920E0,1.880190372E-1,-3.972101808E-1,6.691187024E-1
1.286110680E0,2.071937770E-1,-3.865575492E-1,6.882934570E-1
1.288598441E0,2.199769467E-1,-3.748396337E-1,7.010766268E-1
1.291086201E0,2.274337858E-1,-3.652522564E-1,7.085334659E-1
1.293573961E0,2.284990549E-1,-3.567301631E-1,7.085334659E-1
1.296061722E0,2.253032625E-1,-3.503385782E-1,7.010766268E-1
1.298549482E0,2.167811543E-1,-3.450122476E-1,6.872282028E-1
1.301037243E0,2.061285079E-1,-3.428817391E-1,6.669881940E-1
1.303525003E0,1.922800839E-1,-3.396859467E-1,6.414218545E-1
1.306012763E0,1.773663908E-1,-3.364901543E-1,6.115944982E-1
1.308500524E0,1.624527127E-1,-3.322291076E-1,5.785713196E-1
1.310988284E0,1.475390196E-1,-3.269027770E-1,5.434176326E-1
1.313476045E0,1.336905807E-1,-3.205111921E-1,5.082638860E-1
1.315963805E0,1.209074259E-1,-3.119890988E-1,4.731102288E-1
1.318451618E0,1.091895252E-1,-3.045322299E-1,4.390217662E-1
1.320939430E0,9.853688627E-2,-2.960101366E-1,4.059986174E-1
1.323427243E0,9.001477808E-2,-2.874880135E-1,3.751059473E-1
1.325915055E0,8.362319320E-2,-2.800311744E-1,3.452785909E-1
1.328402868E0,7.723161578E-2,-2.736395895E-1,3.197122514E-1
1.330890680E0,7.190529257E-2,-2.672480047E-1,2.984069884E-1
1.333378493E0,6.764423847E-2,-2.640522122E-1,2.834932804E-1
1.335866305E0,6.444845349E-2,-2.619217038E-1,2.739059031E-1
1.338354118E0,6.231792271E-2,-2.619217038E-1,2.717753947E-1
1.340841930E0,5.912213027E-2,-2.629869580E-1,2.760364413E-1
1.343329743E0,5.699160323E-2,-2.640522122E-1,2.866890728E-1
1.345817555E0,5.273054913E-2,-2.651174963E-1,3.016027808E-1
1.348305368E0,4.953476042E-2,-2.651174963E-1,3.218427896E-1
1.350793180E0,4.846949503E-2,-2.661827505E-1,3.474090993E-1
1.353280993E0,4.953476042E-2,-2.693785429E-1,3.751059473E-1
1.355768805E0,5.166528746E-2,-2.736395895E-1,4.038680792E-1
1.358256618E0,5.486107618E-2,-2.800311744E-1,4.304996729E-1
1.360744430E0,5.912213027E-2,-2.853575051E-1,4.550007284E-1
1.363232243E0,6.338318437E-2,-2.896185517E-1,4.741754830E-1
1.365720055E0,6.657897681E-2,-2.896185517E-1,4.890891612E-1
1.368207868E0,6.977476925E-2,-2.874880135E-1,4.976112843E-1
1.370695680E0,7.297056168E-2,-2.821617126E-1,4.997417927E-1
1.373183493E0,7.616634667E-2,-2.747048736E-1,4.944154918E-1
1.375671305E0,7.936213911E-2,-2.651174963E-1,4.826975763E-1
1.378159118E0,8.362319320E-2,-2.533995807E-1,4.645881057E-1
1.380646930E0,8.575372398E-2,-2.416816950E-1,4.411523044E-1
1.383134743E0,8.788424730E-2,-2.299637944E-1,4.145207107E-1
1.385622555E0,8.894951642E-2,-2.182458937E-1,3.846933246E-1
1.388110368E0,8.894951642E-2,-2.075932473E-1,3.527354300E-1
1.390598180E0,8.788424730E-2,-1.969406158E-1,3.197122514E-1
1.393085993E0,8.468846232E-2,-1.873532385E-1,2.877543271E-1
1.395573805E0,8.255793154E-2,-1.788311303E-1,2.557964325E-1
1.398061618E0,7.936213911E-2,-1.745700836E-1,2.259690464E-1
1.400549430E0,7.510108501E-2,-1.703090221E-1,1.982721984E-1
1.403037243E0,7.084003091E-2,-1.692437679E-1,1.727058738E-1
1.405525055E0,6.444845349E-2,-1.671132296E-1,1.482048035E-1
1.408012868E0,5.592634156E-2,-1.671132296E-1,1.258342713E-1
1.410500680E0,4.420844093E-2,-1.671132296E-1,1.045289934E-1
1.412988441E0,3.142527863E-2,-1.681784987E-1,8.322372288E-2
1.415476201E0,1.757685095E-2,-1.692437679E-1,6.404897571E-2
1.417963961E0,2.663159044E-3,-1.724395454E-1,4.807002097E-2
1.420451722E0,-1.225053146E-2,-1.767006069E-1,3.528685868E-2
1.422939743E0,-2.503369562E-2,-1.841574460E-1,2.463422157E-2
1.425427347E0,-3.568633273E-2,-1.916143000E-1,2.037316747E-2
1.427914951E0,-4.101264849E-2,-2.012016773E-1,2.250369452E-2
1.430402555E0,-4.527370632E-2,-2.118543088E-1,2.889527567E-2
1.432890159E0,-4.420844093E-2,-2.225069404E-1,4.061317816E-2
1.435377763E0,-3.994738683E-2,-2.320943177E-1,5.552686751E-2
1.437865368E0,-3.142527863E-2,-2.416816950E-1,7.470161468E-2
1.440352972E0,-1.970737800E-2,-2.491385341E-1,9.707214683E-2
1.442840576E0,-4.793686327E-3,-2.565953732E-1,1.226384789E-1
1.445328232E0,1.331579592E-2,-2.608564198E-1,1.482048035E-1
1.447815941E0,3.249054030E-2,-2.629869580E-1,1.748363972E-1
1.450303701E0,5.166528746E-2,-2.619217038E-1,2.014679909E-1
1.452791513E0,7.190529257E-2,-2.597911656E-1,2.259690464E-1
1.455279378E0,9.214530140E-2,-2.544648647E-1,2.472743243E-1
1.457767243E0,1.134505793E-1,-2.480732650E-1,2.653838098E-1
1.460255107E0,1.336905807E-1,-2.406164259E-1,2.813627720E-1
1.462742972E0,1.518000662E-1,-2.320943177E-1,2.952111959E-1
1.465230836E0,1.699095517E-1,-2.235722095E-1,3.047985733E-1
1.467718701E0,1.848232448E-1,-2.150501013E-1,3.122554123E-1
1.470206566E0,1.976063997E-1,-2.075932473E-1,3.154512048E-1
1.472694430E0,2.061285079E-1,-2.012016773E-1,3.165164590E-1
1.475182295E0,2.114548385E-1,-1.980058849E-1,3.143859208E-1
1.477670159E0,2.114548385E-1,-1.969406158E-1,3.111901283E-1
1.480158024E0,2.071937770E-1,-1.980058849E-1,3.058638275E-1
1.482645888E0,1.986716688E-1,-2.033322006E-1,2.984069884E-1
1.485133753E0,1.869537681E-1,-2.097237855E-1,2.909501195E-1
1.487621618E0,1.720400751E-1,-2.203764170E-1,2.834932804E-1
1.490109482E0,1.560611278E-1,-2.320943177E-1,2.749711871E-1
1.492597347E0,1.379516423E-1,-2.448774725E-1,2.664490640E-1
1.495085211E0,1.177116334E-1,-2.576606572E-1,2.579269707E-1
1.497572972E0,9.747162461E-2,-2.672480047E-1,2.462090552E-1
1.500060732E0,7.723161578E-2,-2.757701278E-1,2.280995846E-1
1.502548493E0,5.699160323E-2,-2.842922211E-1,2.057290375E-1
1.505036253E0,3.781685978E-2,-2.960101366E-1,1.769669205E-1
1.507524013E0,2.183790505E-2,-3.109238148E-1,1.439437568E-1
1.510011774E0,7.989477366E-3,-3.300985694E-1,1.098553166E-1
1.512499534E0,-1.597895520E-3,-3.503385782E-1,7.470161468E-2
1.514987295E0,-7.989477366E-3,-3.684480488E-1,4.167843983E-2
1.517475055E0,-1.012000442E-2,-3.822965026E-1,8.655266836E-3
1.519962816E0,-7.989477366E-3,-3.897533417E-1,-1.904158667E-2
1.522450576E0,-3.728422802E-3,-3.918838501E-1,-4.460791498E-2
1.524938336E0,4.793686327E-3,-3.876228034E-1,-6.697845459E-2
1.527426097E0,1.438105945E-2,-3.801659644E-1,-8.402267098E-2
1.529913857E0,2.609895915E-2,-3.705785871E-1,-9.680583328E-2
1.532401618E0,3.675159439E-2,-3.588607013E-1,-1.031974182E-1
1.534889378E0,4.740423337E-2,-3.460775316E-1,-1.063932031E-1
1.537377138E0,5.592634156E-2,-3.343596160E-1,-1.021321490E-1
1.539864899E0,6.231792271E-2,-3.237069845E-1,-9.467530251E-2
1.542352659E0,6.764423847E-2,-3.141196072E-1,-8.295740932E-2
1.544840420E0,7.190529257E-2,-3.066627681E-1,-6.697845459E-2
1.547328180E0,7.510108501E-2,-3.002711833E-1,-4.993423447E-2
1.549815941E0,7.616634667E-2,-2.960101366E-1,-2.969422378E-2
1.552303701E0,7.510108501E-2,-2.949448824E-1,-9.454214945E-3
1.554791461E0,7.190529257E-2,-2.960101366E-1,1.291632187E-2
1.557279222E0,6.764423847E-2,-2.981406748E-1,3.209106624E-2
1.559766982E0,6.338318437E-2,-3.002711833E-1,5.020054802E-2
1.562254743E0,5.699160323E-2,-3.045322299E-1,6.724476814E-2
1.564742503E0,4.953476042E-2,-3.087933064E-1,8.215846121E-2
1.567230263E0,4.207791388E-2,-3.130543530E-1,9.494162351E-2
1.569718024E0,3.462106735E-2,-3.162501454E-1,1.055942550E-1
1.572205784E0,2.929474972E-2,-3.183806837E-1,1.130511016E-1
1.574693545E0,2.716422267E-2,-3.183806837E-1,1.173121557E-1
1.577181305E0,2.609895915E-2,-3.162501454E-1,1.183774248E-1
1.579669066E0,2.822948620E-2,-3.119890988E-1,1.151816323E-1
1.582156826E0,3.462106735E-2,-3.098585606E-1,1.077247858E-1
1.584644586E0,4.420844093E-2,-3.077280223E-1,9.387636185E-2
1.587132347E0,5.912213027E-2,-3.098585606E-1,7.470161468E-2
1.589620107E0,7.510108501E-2,-3.162501454E-1,5.126581341E-2
1.592107868E0,9.427583218E-2,-3.247722387E-1,2.356895804E-2
1.594595628E0,1.145158410E-1,-3.332943618E-1,-8.388951421E-3
1.597083388E0,1.368863732E-1,-3.428817391E-1,-4.141212255E-2
1.599571149E0,1.624527127E-1,-3.492733240E-1,-7.337003201E-2
1.602058909E0,1.890842915E-1,-3.524691164E-1,-1.042626798E-1
1.604546670E0,2.189116776E-1,-3.524691164E-1,-1.298290044E-1
1.607034430E0,2.476737946E-1,-3.482080400E-1,-1.521995366E-1
1.609522191E0,2.764359117E-1,-3.407512009E-1,-1.692437679E-1
1.612009951E0,3.041327596E-1,-3.311638236E-1,-1.798963994E-1
1.614497711E0,3.275685608E-1,-3.205111921E-1,-1.852227151E-1
1.616985472E0,3.478085697E-1,-3.077280223E-1,-1.852227151E-1
1.619473232E0,3.616569936E-1,-2.960101366E-1,-1.798963994E-1
1.621960993E0,3.701791167E-1,-2.842922211E-1,-1.692437679E-1
1.624448753E0,3.744401634E-1,-2.757701278E-1,-1.521995366E-1
1.626936513E0,3.755054474E-1,-2.661827505E-1,-1.308942735E-1
1.629424274E0,3.712443709E-1,-2.597911656E-1,-1.042626798E-1
1.631912034E0,3.669833243E-1,-2.533995807E-1,-7.337003201E-2
1.634399795E0,3.595264852E-1,-2.470080107E-1,-3.928159550E-2
1.636887607E0,3.520696461E-1,-2.406164259E-1,-3.062632866E-3
1.639375420E0,3.424822688E-1,-2.342248410E-1,3.315633163E-2
1.641863232E0,3.318296373E-1,-2.288985252E-1,6.937529147E-2
1.644351045E0,3.201117218E-1,-2.246374637E-1,1.023984700E-1
1.646838857E0,3.073285520E-1,-2.203764170E-1,1.322258562E-1
1.649326670E0,2.934801280E-1,-2.161153555E-1,1.609879732E-1
1.651814482E0,2.796317041E-1,-2.118543088E-1,1.865542978E-1
1.654302295E0,2.657832801E-1,-2.065279931E-1,2.067943066E-1
1.656790107E0,2.519348562E-1,-1.980058849E-1,2.227732539E-1
1.659277920E0,2.391516864E-1,-1.862879843E-1,2.334259003E-1
1.661765732E0,2.295643091E-1,-1.724395454E-1,2.344911546E-1
1.664253545E0,2.210422009E-1,-1.596563905E-1,2.291648388E-1
1.666741357E0,2.157158852E-1,-1.500690132E-1,2.142511457E-1
1.669229170E0,2.135853618E-1,-1.458079666E-1,1.908153445E-1
1.671716982E0,2.114548385E-1,-1.479384899E-1,1.599227041E-1
1.674204795E0,2.114548385E-1,-1.543300748E-1,1.215732098E-1
1.676692607E0,2.114548385E-1,-1.649827063E-1,7.789740711E-2
1.679180420E0,2.114548385E-1,-1.777658761E-1,2.996053919E-2
1.681668232E0,2.103895694E-1,-1.884185076E-1,-1.904158667E-2
1.684156045E0,2.082590461E-1,-1.990711391E-1,-7.017423958E-2
1.686643857E0,2.039979845E-1,-2.075932473E-1,-1.202416345E-1
1.689131670E0,1.986716688E-1,-2.139848322E-1,-1.692437679E-1
1.691619482E0,1.912148297E-1,-2.182458937E-1,-2.150501013E-1
1.694107295E0,1.816274524E-1,-2.214416862E-1,-2.565953732E-1
1.696595107E0,1.699095517E-1,-2.235722095E-1,-2.928143442E-1
1.699082920E0,1.592569202E-1,-2.267680019E-1,-3.215764761E-1
1.701570732E0,1.486042738E-1,-2.278332561E-1,-3.407512009E-1
1.704058545E0,1.422126889E-1,-2.299637944E-1,-3.503385782E-1
1.706546357E0,1.400821656E-1,-2.299637944E-1,-3.492733240E-1
1.709034170E0,1.443432271E-1,-2.310290486E-1,-3.375554085E-1
1.711521982E0,1.518000662E-1,-2.299637944E-1,-3.173153996E-1
1.714009795E0,1.645832360E-1,-2.267680019E-1,-2.896185517E-1
1.716497607E0,1.816274524E-1,-2.225069404E-1,-2.544648647E-1
1.718985420E0,2.018674612E-1,-2.171806246E-1,-2.150501013E-1
1.721473232E0,2.231727391E-1,-2.118543088E-1,-1.735048145E-1
1.723961045E0,2.466085255E-1,-2.075932473E-1,-1.308942735E-1
1.726448857E0,2.700443268E-1,-2.043974549E-1,-8.934898674E-2
1.728936670E0,2.913496196E-1,-2.001364082E-1,-5.099949613E-2
1.731424482E0,3.094590902E-1,-1.948100924E-1,-1.584579609E-2
1.733912295E0,3.254380524E-1,-1.884185076E-1,1.185105834E-2
1.736400107E0,3.382211924E-1,-1.798963994E-1,3.422159329E-2
1.738887920E0,3.488738537E-1,-1.681784987E-1,4.700475931E-2
1.741375732E0,3.573959470E-1,-1.553953290E-1,5.233107507E-2
1.743863545E0,3.627222776E-1,-1.404816359E-1,4.700475931E-2
1.746351357E0,3.680485785E-1,-1.276984811E-1,3.422159329E-2
1.748839170E0,3.723096550E-1,-1.191763729E-1,1.078579482E-2
1.751326982E0,3.755054474E-1,-1.149153188E-1,-1.904158667E-2
1.753814795E0,3.797664940E-1,-1.181111038E-1,-5.419528857E-2
1.756302607E0,3.840275407E-1,-1.255679578E-1,-9.361004084E-2
1.758790368E0,3.872233331E-1,-1.351553202E-1,-1.362205893E-1
1.761278128E0,3.893538713E-1,-1.458079666E-1,-1.767006069E-1
1.763765888E0,3.925496638E-1,-1.553953290E-1,-2.182458937E-1
1.766253649E0,3.936149180E-1,-1.628521830E-1,-2.565953732E-1
1.768741409E0,3.936149180E-1,-1.671132296E-1,-2.906838059E-1
1.771229170E0,3.925496638E-1,-1.671132296E-1,-3.215764761E-1
1.773716930E0,3.904191256E-1,-1.639174372E-1,-3.471427858E-1
1.776204691E0,3.850927949E-1,-1.564605981E-1,-3.684480488E-1
1.778692451E0,3.797664940E-1,-1.479384899E-1,-3.844270110E-1
1.781180211E0,3.712443709E-1,-1.362205893E-1,-3.940143883E-1
1.783667972E0,3.605917394E-1,-1.245026886E-1,-3.982754350E-1
1.786155732E0,3.488738537E-1,-1.127847880E-1,-3.961449265E-1
1.788643493E0,3.360906839E-1,-1.000016257E-1,-3.886880577E-1
1.791131253E0,3.201117218E-1,-8.721846342E-2,-3.769701719E-1
1.793619013E0,3.041327596E-1,-7.337003201E-2,-3.609912097E-1
1.796106774E0,2.870885432E-1,-6.058686972E-2,-3.428817391E-1
1.798594534E0,2.679138184E-1,-4.460791498E-2,-3.247722387E-1
1.801082295E0,2.476737946E-1,-2.969422378E-2,-3.055975139E-1
1.803570055E0,2.274337858E-1,-1.371526904E-2,-2.885532975E-1
1.806057816E0,2.050632536E-1,1.331579551E-4,-2.715090811E-1
1.808545576E0,1.848232448E-1,1.185105834E-2,-2.576606572E-1
1.811033336E0,1.645832360E-1,2.250369452E-2,-2.480732650E-1
1.813521097E0,1.464737505E-1,2.996053919E-2,-2.438122183E-1
1.816008857E0,1.304948032E-1,3.315633163E-2,-2.448774725E-1
1.818496618E0,1.187768951E-1,2.996053919E-2,-2.512690723E-1
1.820984378E0,1.134505793E-1,2.143843099E-2,-2.640522122E-1
1.823472138E0,1.134505793E-1,3.328948980E-3,-2.832269669E-1
1.825959899E0,1.230379492E-1,-2.436790615E-2,-3.087933064E-1
1.828447659E0,1.390169114E-1,-6.058686972E-2,-3.418164849E-1
1.830935420E0,1.624527127E-1,-1.042626798E-1,-3.801659644E-1
1.833423180E0,1.965411454E-1,-1.532648057E-1,-4.238417745E-1
1.835910941E0,2.359558940E-1,-2.075932473E-1,-4.707133770E-1
1.838398701E0,2.806969583E-1,-2.651174963E-1,-5.186502337E-1
1.840886461E0,3.328948915E-1,-3.215764761E-1,-5.676523447E-1
1.843374222E0,3.872233331E-1,-3.748396337E-1,-6.145239472E-1
1.845861982E0,4.447475672E-1,-4.217112362E-1,-6.603302956E-1
1.848349743E0,5.054675937E-1,-4.611259997E-1,-7.008103132E-1
1.850837503E0,5.661876202E-1,-4.909533858E-1,-7.359640002E-1
1.853325263E0,6.269076467E-1,-5.111933947E-1,-7.636608481E-1
1.855813024E0,6.886929274E-1,-5.207807422E-1,-7.828356028E-1
1.858300784E0,7.494129539E-1,-5.207807422E-1,-7.913577557E-1
1.860788545E0,8.080024719E-1,-5.090628862E-1,-7.913577557E-1
1.863276305E0,8.655267358E-1,-4.877575934E-1,-7.828356028E-1
1.865764066E0,9.177246094E-1,-4.568649530E-1,-7.657914162E-1
1.868251826E0,9.635309577E-1,-4.174501896E-1,-7.412903309E-1
1.870739586E0,1.002945662E0,-3.727091253E-1,-7.103977203E-1
1.873227399E0,1.033838391E0,-3.215764761E-1,-6.763092279E-1
1.875715211E0,1.055143595E0,-2.672480047E-1,-6.390250325E-1
1.878203024E0,1.067926764E0,-2.107890397E-1,-5.974797606E-1
1.880690836E0,1.070057273E0,-1.532648057E-1,-5.569997430E-1
1.883178649E0,1.063665748E0,-9.787109494E-2,-5.165197253E-1
1.885666461E0,1.048752069E0,-4.460791498E-2,-4.771049619E-1
1.888154274E0,1.026381493E0,4.394212738E-3,-4.430165291E-1
1.890642086E0,9.986846447E-1,4.700475931E-2,-4.131891429E-1
1.893129899E0,9.688572884E-1,8.322372288E-2,-3.897533417E-1
1.895617711E0,9.358341098E-1,1.119858399E-1,-3.737743795E-1
1.898105524E0,9.038761854E-1,1.290300637E-1,-3.631217480E-1
1.900593336E0,8.729835749E-1,1.332911104E-1,-3.588607013E-1
1.903081149E0,8.463519812E-1,1.237037405E-1,-3.599259555E-1
1.905568961E0,8.239814043E-1,9.920267761E-2,-3.652522564E-1
1.908056774E0,8.058719635E-1,6.298371404E-2,-3.737743795E-1
1.910544586E0,7.941540480E-1,1.717737690E-2,-3.854922652E-1
1.913032399E0,7.888277173E-1,-3.502054140E-2,-3.982754350E-1
1.915520211E0,7.866972089E-1,-8.934898674E-2,-4.110586047E-1
1.918008024E0,7.877624631E-1,-1.404816359E-1,-4.238417745E-1
1.920495836E0,7.941540480E-1,-1.873532385E-1,-4.334291518E-1
1.922983649E0,8.026761413E-1,-2.278332561E-1,-4.398207366E-1
1.925471461E0,8.122635484E-1,-2.608564198E-1,-4.419512451E-1
1.927959274E0,8.229161501E-1,-2.874880135E-1,-4.419512451E-1
1.930447086E0,8.303729892E-1,-3.055975139E-1,-4.387554526E-1
1.932934899E0,8.367645741E-1,-3.141196072E-1,-4.323638678E-1
1.935422711E0,8.378298283E-1,-3.151848912E-1,-4.238417745E-1
1.937910524E0,8.335688114E-1,-3.066627681E-1,-4.142543972E-1
1.940398336E0,8.239814043E-1,-2.896185517E-1,-4.036017656E-1
1.942886149E0,8.101329803E-1,-2.651174963E-1,-3.918838501E-1
1.945373961E0,7.920235395E-1,-2.363553643E-1,-3.801659644E-1
1.947861774E0,7.707182169E-1,-2.043974549E-1,-3.684480488E-1
1.950349586E0,7.472824454E-1,-1.703090221E-1,-3.556649089E-1
1.952837399E0,7.249119282E-1,-1.394163817E-1,-3.450122476E-1
1.955325211E0,7.025413513E-1,-1.095889956E-1,-3.354249001E-1
1.957813024E0,6.823013425E-1,-8.295740932E-2,-3.258375227E-1
1.960300836E0,6.631265879E-1,-5.845634267E-2,-3.173153996E-1
1.962788649E0,6.482129097E-1,-3.715106845E-2,-3.098585606E-1
1.965276461E0,6.375603080E-1,-1.904158667E-2,-3.013364673E-1
1.967764274E0,6.322339773E-1,-4.127896391E-3,-2.906838059E-1
1.970252086E0,6.332992315E-1,7.590003312E-3,-2.789659202E-1
1.972739899E0,6.418213248E-1,1.611211337E-2,-2.672480047E-1
1.975227711E0,6.588655710E-1,2.356895804E-2,-2.544648647E-1
1.977715524E0,6.844319105E-1,2.676474862E-2,-2.416816950E-1
1.980203336E0,7.153245211E-1,2.889527567E-2,-2.299637944E-1
1.982691149E0,7.526087761E-1,3.209106624E-2,-2.214416862E-1
1.985178961E0,7.952193022E-1,3.528685868E-2,-2.129195631E-1
1.987666774E0,8.410256505E-1,4.167843983E-2,-2.097237855E-1
1.990154586E0,8.878972530E-1,4.913528636E-2,-2.097237855E-1
1.992642399E0,9.358341098E-1,6.085318699E-2,-2.129195631E-1
1.995130211E0,9.848362207E-1,7.257108390E-2,-2.193111479E-1
1.997618024E0,1.032773137E0,8.428898454E-2,-2.288985252E-1
2.000105836E0,1.080709934E0,9.387636185E-2,-2.406164259E-1
2.002593649E0,1.126516342E0,9.813741595E-2,-2.544648647E-1
2.005081461E0,1.169126868E0,9.707214683E-2,-2.704437971E-1
2.007569274E0,1.206411123E0,8.855003864E-2,-2.874880135E-1
2.010057086E0,1.237303734E0,7.363634557E-2,-3.045322299E-1
2.012544899E0,1.259674311E0,5.446160212E-2,-3.226417303E-1
2.015032711E0,1.271392107E0,3.209106624E-2,-3.386206925E-1
2.017520524E0,1.273522735E0,1.331579551E-4,-3.492733240E-1
2.020008336E0,1.271392107E0,-4.247738793E-2,-3.577954173E-1
2.022496149E0,1.265000582E0,-8.189214021E-2,-3.673827946E-1
2.024983961E0,1.250086904E0,-1.106542572E-1,-3.759049177E-1
2.027471722E0,1.224520564E0,-1.266332120E-1,-3.822965026E-1
2.029959482E0,1.187236309E0,-1.330247968E-1,-3.854922652E-1
2.032447243E0,1.140364766E0,-1.330247968E-1,-3.854922652E-1
2.034935003E0,1.082840443E0,-1.287637353E-1,-3.812312186E-1
2.037422763E0,1.019989967E0,-1.245026886E-1,-3.748396337E-1
2.039910524E0,9.518130422E-1,-1.191763729E-1,-3.631217480E-1
2.042398284E0,8.793751597E-1,-1.159805804E-1,-3.482080400E-1
2.044886045E0,8.058719635E-1,-1.159805804E-1,-3.311638236E-1
2.047373805E0,7.344992757E-1,-1.159805804E-1,-3.119890988E-1
2.049861566E0,6.663224101E-1,-1.181111038E-1,-2.938795984E-1
2.052349326E0,6.034718752E-1,-1.213068962E-1,-2.757701278E-1
2.054837086E0,5.470128655E-1,-1.255679578E-1,-2.565953732E-1
2.057324847E0,4.990760088E-1,-1.319595277E-1,-2.384859025E-1
2.059812607E0,4.585959911E-1,-1.394163817E-1,-2.171806246E-1
2.062300368E0,4.255728126E-1,-1.458079666E-1,-1.958753467E-1
2.064788128E0,4.000065029E-1,-1.500690132E-1,-1.724395454E-1
2.067275888E0,3.808317482E-1,-1.500690132E-1,-1.468732208E-1
2.069763649E0,3.680485785E-1,-1.458079666E-1,-1.202416345E-1
2.072251409E0,3.605917394E-1,-1.362205893E-1,-9.361004084E-2
2.074739170E0,3.584612012E-1,-1.245026886E-1,-6.591318548E-2
2.077226930E0,3.605917394E-1,-1.106542572E-1,-4.034686089E-2
2.079714691E0,3.669833243E-1,-9.467530251E-2,-1.797632314E-2
2.082202451E0,3.755054474E-1,-7.656582445E-2,1.198421582E-3
2.084690211E0,3.872233331E-1,-5.845634267E-2,1.504684892E-2
2.087177972E0,4.000065029E-1,-4.034686089E-2,2.783001214E-2
2.089665732E0,4.138549268E-1,-2.436790615E-2,3.741738573E-2
2.092153493E0,4.277033508E-1,-9.454214945E-3,4.487423226E-2
2.094641253E0,4.415517747E-1,1.198421582E-3,5.126581341E-2
2.097129013E0,4.543349445E-1,8.655266836E-3,5.659212917E-2
2.099616774E0,4.660528302E-1,1.291632187E-2,5.978792161E-2
2.102104534E0,4.745749533E-1,1.504684892E-2,6.298371404E-2
2.104592295E0,4.830970466E-1,1.504684892E-2,6.617950648E-2
2.107080055E0,4.894886315E-1,1.185105834E-2,6.831002980E-2
2.109567816E0,4.958802164E-1,4.394212738E-3,7.150582224E-2
2.112055576E0,5.012065172E-1,-8.388951421E-3,7.363634557E-2
2.114543336E0,5.054675937E-1,-2.543316968E-2,7.576687634E-2
2.117031097E0,5.097286701E-1,-4.673844203E-2,8.002793044E-2
2.119518857E0,5.139896870E-1,-7.337003201E-2,8.428898454E-2
2.122006670E0,5.171855092E-1,-1.021321490E-1,8.961530030E-2
2.124494482E0,5.193160176E-1,-1.330247968E-1,9.600688517E-2
2.126982295E0,5.214465261E-1,-1.639174372E-1,1.045289934E-1
2.129470107E0,5.225118399E-1,-1.937448233E-1,1.119858399E-1
2.131957920E0,5.235770941E-1,-2.235722095E-1,1.226384789E-1
2.134445732E0,5.246423483E-1,-2.502037883E-1,1.311605871E-1
2.136933545E0,5.257076025E-1,-2.757701278E-1,1.418132186E-1
2.139421357E0,5.267728567E-1,-2.992059290E-1,1.503353268E-1
2.141909170E0,5.267728567E-1,-3.215764761E-1,1.588574350E-1
2.144396982E0,5.257076025E-1,-3.407512009E-1,1.663142890E-1
2.146884795E0,5.235770941E-1,-3.588607013E-1,1.737711281E-1
2.149372607E0,5.182507634E-1,-3.780354261E-1,1.801627129E-1
2.151860420E0,5.118591785E-1,-3.961449265E-1,1.865542978E-1
2.154348232E0,5.044023395E-1,-4.142543972E-1,1.918806136E-1
2.156836045E0,4.948149621E-1,-4.270375669E-1,1.972069293E-1
2.159323857E0,4.799012840E-1,-4.281028211E-1,1.993374527E-1
2.161811670E0,4.585959911E-1,-4.142543972E-1,2.014679909E-1
2.164299482E0,4.287686050E-1,-3.865575492E-1,2.025332451E-1
2.166787295E0,3.914843798E-1,-3.460775316E-1,2.035985142E-1
2.169275107E0,3.488738537E-1,-2.981406748E-1,2.046637833E-1
2.171762920E0,3.009369671E-1,-2.470080107E-1,2.057290375E-1
2.174250732E0,2.519348562E-1,-1.937448233E-1,2.067943066E-1
2.176738545E0,2.029327303E-1,-1.404816359E-1,2.067943066E-1
2.179226357E0,1.560611278E-1,-9.147951752E-2,2.057290375E-1
2.181714170E0,1.091895252E-1,-4.780370742E-2,2.046637833E-1
2.184201982E0,6.657897681E-2,-9.454214945E-3,2.014679909E-1
2.186689795E0,2.822948620E-2,2.250369452E-2,1.961416751E-1
2.189177607E0,-7.989477366E-3,4.807002097E-2,1.886848211E-1
2.191665420E0,-3.994738683E-2,6.831002980E-2,1.801627129E-1
2.194153232E0,-6.870950758E-2,8.428898454E-2,1.705753356E-1
2.196641045E0,-9.214530140E-2,9.494162351E-2,1.609879732E-1
2.199128857E0,-1.113200486E-1,1.034637317E-1,1.524658650E-1
2.201616670E0,-1.272990108E-1,1.087900475E-1,1.460742801E-1
2.204104482E0,-1.400821656E-1,1.109205782E-1,1.407479644E-1
2.206592295E0,-1.496695429E-1,1.130511016E-1,1.375521719E-1
2.209080107E0,-1.571263820E-1,1.141163707E-1,1.343563795E-1
2.211567920E0,-1.624527127E-1,1.151816323E-1,1.332911104E-1
2.214055732E0,-1.667137593E-1,1.162468940E-1,1.332911104E-1
2.216543545E0,-1.688442826E-1,1.162468940E-1,1.322258562E-1
2.219031357E0,-1.688442826E-1,1.151816323E-1,1.332911104E-1
2.221519170E0,-1.667137593E-1,1.130511016E-1,1.343563795E-1
2.224006982E0,-1.645832360E-1,1.098553166E-1,1.364869028E-1
2.226494795E0,-1.613874435E-1,1.045289934E-1,1.407479644E-1
2.228982607E0,-1.571263820E-1,9.600688517E-2,1.439437568E-1
2.231470420E0,-1.528653353E-1,8.535424620E-2,1.503353268E-1
2.233958232E0,-1.486042738E-1,7.257108390E-2,1.567269117E-1
2.236446045E0,-1.443432271E-1,5.765739456E-2,1.652490199E-1
2.238933857E0,-1.411474347E-1,4.167843983E-2,1.727058738E-1
2.241421670E0,-1.379516423E-1,2.569948509E-2,1.812279820E-1
2.243909482E0,-1.326253265E-1,9.720530361E-3,1.886848211E-1
2.246397295E0,-1.283642650E-1,-7.323687430E-3,1.961416751E-1
2.248885107E0,-1.219726875E-1,-2.436790615E-2,1.993374527E-1
2.251372920E0,-1.155811027E-1,-4.034686089E-2,2.025332451E-1
2.253860732E0,-1.081242561E-1,-5.739107728E-2,2.025332451E-1
2.256348545E0,-9.640636295E-2,-7.230477035E-2,2.014679909E-1
2.258836357E0,-8.255793154E-2,-8.721846342E-2,1.972069293E-1
2.261324170E0,-6.444845349E-2,-1.010668874E-1,1.908153445E-1
2.263811982E0,-4.314317927E-2,-1.117195264E-1,1.812279820E-1
2.266299795E0,-1.651158556E-2,-1.202416345E-1,1.673795432E-1
2.268787607E0,1.438105945E-2,-1.245026886E-1,1.482048035E-1
2.271275420E0,5.060002208E-2,-1.255679578E-1,1.226384789E-1
2.273763232E0,9.001477808E-2,-1.245026886E-1,9.174583107E-2
2.276251045E0,1.347558498E-1,-1.223721579E-1,5.552686751E-2
2.278738857E0,1.826927215E-1,-1.191763729E-1,1.504684892E-2
2.281226670E0,2.348906398E-1,-1.159805804E-1,-2.862896025E-2
2.283714482E0,2.881538272E-1,-1.127847880E-1,-7.230477035E-2
2.286202295E0,3.414169848E-1,-1.095889956E-1,-1.170458421E-1
2.288690107E0,3.936149180E-1,-1.063932031E-1,-1.585911214E-1
2.291177920E0,4.458128214E-1,-1.021321490E-1,-1.980058849E-1
2.293665732E0,4.937497079E-1,-9.787109494E-2,-2.320943177E-1
2.296153545E0,5.374255180E-1,-9.361004084E-2,-2.619217038E-1
2.298641357E0,5.757750273E-1,-9.041424841E-2,-2.832269669E-1
2.301129170E0,6.077328920E-1,-9.041424841E-2,-2.992059290E-1
2.303616982E0,6.322339773E-1,-9.254477918E-2,-3.066627681E-1
2.306104795E0,6.492781639E-1,-9.893636405E-2,-3.055975139E-1
2.308592607E0,6.578003168E-1,-1.074584723E-1,-2.960101366E-1
2.311080420E0,6.567350626E-1,-1.191763729E-1,-2.768353820E-1
2.313568232E0,6.471476555E-1,-1.308942735E-1,-2.470080107E-1
2.316056045E0,6.279729009E-1,-1.415469050E-1,-2.097237855E-1
2.318543857E0,6.002760530E-1,-1.490037590E-1,-1.639174372E-1
2.321031670E0,5.661876202E-1,-1.521995366E-1,-1.138500497E-1
2.323519482E0,5.246423483E-1,-1.532648057E-1,-6.165213138E-2
2.326007295E0,4.777707458E-1,-1.500690132E-1,-8.388951421E-3
2.328495055E0,4.255728126E-1,-1.436774284E-1,4.167843983E-2
2.330982816E0,3.723096550E-1,-1.362205893E-1,8.748477697E-2
2.333470576E0,3.169159293E-1,-1.266332120E-1,1.290300637E-1
2.335958336E0,2.615222335E-1,-1.170458421E-1,1.641837656E-1
2.338446097E0,2.071937770E-1,-1.063932031E-1,1.940111369E-1
2.340933857E0,1.539305896E-1,-9.361004084E-2,2.174469382E-1
2.343421618E0,1.038632020E-1,-7.976161689E-2,2.355564237E-1
2.345909378E0,5.912213027E-2,-6.271740049E-2,2.472743243E-1
2.348397138E0,1.864211448E-2,-4.460791498E-2,2.536658943E-1
2.350884899E0,-1.651158556E-2,-2.436790615E-2,2.547311783E-1
2.353372659E0,-4.527370632E-2,-5.193160381E-3,2.504701018E-1
2.355860420E0,-6.977476925E-2,1.291632187E-2,2.398174703E-1
2.358348180E0,-8.788424730E-2,2.889527567E-2,2.249037921E-1
2.360835941E0,-1.017326787E-1,4.380896688E-2,2.057290375E-1
2.363323701E0,-1.102547869E-1,5.552686751E-2,1.833585054E-1
2.365811461E0,-1.155811027E-1,6.724476814E-2,1.599227041E-1
2.368299222E0,-1.187768951E-1,7.576687634E-2,1.343563795E-1
2.370786982E0,-1.209074259E-1,8.215846121E-2,1.109205782E-1
2.373274743E0,-1.209074259E-1,8.535424620E-2,8.855003864E-2
2.375762503E0,-1.209074259E-1,8.641951531E-2,6.937529147E-2
2.378250263E0,-1.209074259E-1,8.535424620E-2,5.446160212E-2
2.380738024E0,-1.219726875E-1,8.109319210E-2,4.487423226E-2
2.383225784E0,-1.262337416E-1,7.363634557E-2,4.167843983E-2
2.385713545E0,-1.315600574E-1,6.511423737E-2,4.274370521E-2
2.388201305E0,-1.400821656E-1,5.552686751E-2,5.126581341E-2
2.390689066E0,-1.486042738E-1,4.700475931E-2,6.404897571E-2
2.393176826E0,-1.592569202E-1,3.741738573E-2,8.109319210E-2
2.395664586E0,-1.731053442E-1,2.996053919E-2,9.920267761E-2
2.398152347E0,-1.858884990E-1,2.356895804E-2,1.173121557E-1
2.400640107E0,-1.976063997E-1,1.611211337E-2,1.332911104E-1
2.403127868E0,-2.103895694E-1,8.655266836E-3,1.471395344E-1
2.405615628E0,-2.199769467E-1,1.198421582E-3,1.556616426E-1
2.408103441E0,-2.274337858E-1,-6.258423906E-3,1.588574350E-1
2.410591253E0,-2.306295782E-1,-1.371526904E-2,1.577921808E-1
2.413079066E0,-2.295643091E-1,-2.117211558E-2,1.514005959E-1
2.415566878E0,-2.231727391E-1,-2.649843320E-2,1.396826953E-1
2.418054691E0,-2.103895694E-1,-3.075948730E-2,1.237037405E-1
2.420542503E0,-1.933453530E-1,-3.395527974E-2,1.034637317E-1
2.423030316E0,-1.699095517E-1,-3.502054140E-2,7.896266878E-2
2.425518128E0,-1.422126889E-1,-3.502054140E-2,5.233107507E-2
2.428005941E0,-1.081242561E-1,-3.395527974E-2,2.356895804E-2
2.430493753E0,-7.084003091E-2,-3.182475269E-2,-5.193160381E-3
2.432981566E0,-3.036001325E-2,-2.862896025E-2,-3.395527974E-2
2.435469378E0,1.225053146E-2,-2.543316968E-2,-6.271740049E-2
2.437957191E0,5.486107618E-2,-2.010685205E-2,-8.934898674E-2
2.440445003E0,9.640636295E-2,-1.478053257E-2,-1.149153188E-1
2.442933284E0,1.368863732E-1,-8.388951421E-3,-1.404816359E-1
2.445421566E0,1.741705984E-1,-3.062632866E-3,-1.628521830E-1
2.447909482E0,2.071937770E-1,3.328948980E-3,-1.830921918E-1
2.450397295E0,2.370211631E-1,7.590003312E-3,-2.012016773E-1
2.452885107E0,2.615222335E-1,1.078579482E-2,-2.161153555E-1
2.455372868E0,2.796317041E-1,1.398158539E-2,-2.278332561E-1
2.457860628E0,2.924148738E-1,1.504684892E-2,-2.352901101E-1
2.460348388E0,2.998717129E-1,1.398158539E-2,-2.395511568E-1
2.462836618E0,3.020022511E-1,1.291632187E-2,-2.406164259E-1
2.465324118E0,2.998717129E-1,9.720530361E-3,-2.363553643E-1
2.467811618E0,2.924148738E-1,7.590003312E-3,-2.288985252E-1
2.470299118E0,2.828274965E-1,5.459476262E-3,-2.182458937E-1
2.472786618E0,2.689790726E-1,3.328948980E-3,-2.043974549E-1
2.475274118E0,2.540653646E-1,2.263685223E-3,-1.905490309E-1
2.477761670E0,2.359558940E-1,1.331579551E-4,-1.756353378E-1
2.480249274E0,2.189116776E-1,-1.997369342E-3,-1.617869139E-1
2.482736930E0,2.018674612E-1,-4.127896391E-3,-1.490037590E-1
2.485224638E0,1.848232448E-1,-7.323687430E-3,-1.362205893E-1
2.487712399E0,1.688442826E-1,-9.454214945E-3,-1.245026886E-1
2.490200211E0,1.539305896E-1,-1.158474199E-2,-1.117195264E-1
2.492688076E0,1.411474347E-1,-1.158474199E-2,-1.000016257E-1
2.495175993E0,1.294295341E-1,-1.158474199E-2,-9.041424841E-2
2.497663961E0,1.177116334E-1,-9.454214945E-3,-7.976161689E-2
2.500151982E0,1.081242561E-1,-6.258423906E-3,-7.017423958E-2
2.502640003E0,9.853688627E-2,-9.321057005E-4,-6.058686972E-2
2.505128024E0,9.108003974E-2,3.328948980E-3,-5.206476152E-2
2.507616045E0,8.362319320E-2,7.590003312E-3,-4.354264960E-2
2.510104066E0,7.510108501E-2,1.078579482E-2,-3.608580679E-2
2.512592086E0,6.870950758E-2,1.398158539E-2,-2.969422378E-2
2.515080107E0,6.018739566E-2,1.611211337E-2,-2.436790615E-2
2.517567920E0,5.166528746E-2,1.930790395E-2,-1.904158667E-2
2.520055732E0,4.101264849E-2,2.037316747E-2,-1.371526904E-2
2.522543545E0,2.822948620E-2,2.356895804E-2,-8.388951421E-3
2.525031357E0,1.438105945E-2,2.676474862E-2,-3.062632866E-3
2.527519170E0,-5.326318205E-4,3.102580272E-2,3.328948980E-3
2.530006930E0,-1.651158556E-2,3.741738573E-2,9.720530361E-3
2.532494691E0,-3.355580568E-2,4.380896688E-2,1.717737690E-2
2.534982451E0,-5.166528746E-2,5.233107507E-2,2.463422157E-2
2.537470211E0,-6.870950758E-2,5.978792161E-2,3.209106624E-2
2.539957972E0,-8.681898564E-2,6.831002980E-2,3.954791278E-2
2.542445732E0,-1.038632020E-1,7.576687634E-2,4.593949392E-2
2.544933493E0,-1.198421568E-1,8.215846121E-2,5.126581341E-2
2.547421253E0,-1.358211190E-1,8.855003864E-2,5.446160212E-2
2.549909013E0,-1.486042738E-1,9.068056941E-2,5.659212917E-2
2.552396774E0,-1.603221744E-1,9.068056941E-2,5.659212917E-2
2.554884534E0,-1.709748209E-1,8.855003864E-2,5.552686751E-2
2.557372295E0,-1.784316599E-1,8.428898454E-2,5.233107507E-2
2.559860055E0,-1.826927215E-1,7.896266878E-2,4.913528636E-2
2.562347816E0,-1.848232448E-1,7.044056058E-2,4.167843983E-2
2.564835576E0,-1.837579757E-1,6.191844866E-2,3.315633163E-2
2.567323336E0,-1.784316599E-1,5.552686751E-2,2.250369452E-2
2.569811097E0,-1.709748209E-1,4.807002097E-2,8.655266836E-3
2.572298857E0,-1.581916511E-1,4.061317816E-2,-8.388951421E-3
2.574786618E0,-1.411474347E-1,3.315633163E-2,-2.649843320E-2
2.577274378E0,-1.198421568E-1,2.569948509E-2,-4.567318037E-2
2.579762138E0,-9.534109384E-2,1.930790395E-2,-6.378266215E-2
2.582249899E0,-6.870950758E-2,1.291632187E-2,-8.082687855E-2
2.584737659E0,-3.888212144E-2,7.590003312E-3,-9.467530251E-2
2.587225420E0,-1.012000442E-2,3.328948980E-3,-1.063932031E-1
2.589713180E0,1.864211448E-2,1.331579551E-4,-1.170458421E-1
2.592200941E0,4.527370632E-2,-9.321057005E-4,-1.234374270E-1
2.594688701E0,6.870950758E-2,-3.062632866E-3,-1.287637353E-1
2.597176461E0,9.001477808E-2,-7.323687430E-3,-1.319595277E-1
2.599664222E0,1.070589945E-1,-1.051947847E-2,-1.308942735E-1
2.602151982E0,1.198421568E-1,-1.478053257E-2,-1.276984811E-1
2.604639795E0,1.283642650E-1,-2.010685205E-2,-1.234374270E-1
2.607127607E0,1.326253265E-1,-2.543316968E-2,-1.159805804E-1
2.609615420E0,1.326253265E-1,-2.862896025E-2,-1.053279415E-1
2.612103232E0,1.294295341E-1,-3.182475269E-2,-9.361004084E-2
2.614591045E0,1.241032109E-1,-3.395527974E-2,-8.082687855E-2
2.617078857E0,1.155811027E-1,-3.502054140E-2,-6.804371625E-2
2.619566670E0,1.049284711E-1,-3.502054140E-2,-5.632581562E-2
2.622054482E0,9.534109384E-2,-3.395527974E-2,-4.567318037E-2
2.624542295E0,8.362319320E-2,-3.182475269E-2,-3.715106845E-2
2.627030107E0,7.297056168E-2,-2.862896025E-2,-2.969422378E-2
2.629517920E0,6.338318437E-2,-2.543316968E-2,-2.330264263E-2
2.632005732E0,5.486107618E-2,-2.117211558E-2,-1.904158667E-2
2.634493545E0,4.846949503E-2,-1.584579609E-2,-1.478053257E-2
2.636981357E0,4.314317927E-2,-1.158474199E-2,-1.265000552E-2
2.639469170E0,4.101264849E-2,-6.258423906E-3,-1.158474199E-2
2.641956982E0,3.994738683E-2,-9.321057005E-4,-1.158474199E-2
2.644444795E0,4.207791388E-2,4.394212738E-3,-1.371526904E-2
2.646932607E0,4.633896798E-2,7.590003312E-3,-1.691105962E-2
2.649420420E0,5.166528746E-2,9.720530361E-3,-2.330264263E-2
2.651908232E0,5.699160323E-2,1.078579482E-2,-3.075948730E-2
2.654396045E0,6.338318437E-2,1.185105834E-2,-4.034686089E-2
2.656883857E0,6.977476925E-2,1.185105834E-2,-5.099949613E-2
2.659371670E0,7.510108501E-2,1.185105834E-2,-6.165213138E-2
2.661859482E0,7.829687744E-2,1.291632187E-2,-7.017423958E-2
2.664347295E0,8.042740822E-2,1.185105834E-2,-7.869634777E-2
2.666835107E0,8.042740822E-2,9.720530361E-3,-8.508793265E-2
2.669322920E0,7.829687744E-2,7.590003312E-3,-9.041424841E-2
2.671810732E0,7.403582335E-2,3.328948980E-3,-9.361004084E-2
2.674298545E0,6.657897681E-2,-9.321057005E-4,-9.467530251E-2
2.676786357E0,5.592634156E-2,-6.258423906E-3,-9.361004084E-2
2.679274170E0,4.420844093E-2,-1.051947847E-2,-9.254477918E-2
2.681761982E0,2.929474972E-2,-1.371526904E-2,-8.934898674E-2
2.684249795E0,1.331579592E-2,-1.584579609E-2,-8.402267098E-2
2.686737607E0,-2.663159044E-3,-1.797632314E-2,-7.763108611E-2
2.689225420E0,-1.970737800E-2,-1.691105962E-2,-7.017423958E-2
2.691713232E0,-3.568633273E-2,-1.584579609E-2,-6.165213138E-2
2.694201045E0,-5.060002208E-2,-1.265000552E-2,-5.313002318E-2
2.696688857E0,-6.551371515E-2,-8.388951421E-3,-4.354264960E-2
2.699176670E0,-7.829687744E-2,-1.997369342E-3,-3.608580679E-2
2.701664482E0,-9.001477808E-2,6.524739787E-3,-2.862896025E-2
2.704152295E0,-9.960214794E-2,1.611211337E-2,-2.223737910E-2
2.706640107E0,-1.059937328E-1,2.676474862E-2,-1.691105962E-2
2.709127920E0,-1.102547869E-1,3.635212034E-2,-1.265000552E-2
2.711615732E0,-1.123853177E-1,4.487423226E-2,-1.051947847E-2
2.714103545E0,-1.123853177E-1,5.233107507E-2,-9.454214945E-3
2.716591357E0,-1.102547869E-1,5.872265995E-2,-9.454214945E-3
2.719079170E0,-1.059937328E-1,6.298371404E-2,-1.051947847E-2
2.721566982E0,-9.960214794E-2,6.617950648E-2,-1.265000552E-2
2.724054795E0,-9.321057051E-2,6.617950648E-2,-1.371526904E-2
2.726542607E0,-8.681898564E-2,6.511423737E-2,-1.478053257E-2
2.729030420E0,-8.042740822E-2,6.085318699E-2,-1.584579609E-2
2.731518232E0,-7.403582335E-2,5.552686751E-2,-1.691105962E-2
2.734006045E0,-6.764423847E-2,4.807002097E-2,-1.797632314E-2
2.736493857E0,-6.231792271E-2,3.954791278E-2,-1.797632314E-2
2.738981670E0,-5.805686861E-2,2.783001214E-2,-1.691105962E-2
2.741469482E0,-5.273054913E-2,1.611211337E-2,-1.584579609E-2
2.743957295E0,-4.953476042E-2,3.328948980E-3,-1.584579609E-2
2.746445107E0,-4.740423337E-2,-1.051947847E-2,-1.584579609E-2
2.748932920E0,-4.633896798E-2,-2.436790615E-2,-1.584579609E-2
2.751420732E0,-4.527370632E-2,-3.608580679E-2,-1.691105962E-2
2.753908545E0,-4.527370632E-2,-4.780370742E-2,-1.691105962E-2
2.756396357E0,-4.420844093E-2,-5.845634267E-2,-1.691105962E-2
2.758884170E0,-4.527370632E-2,-6.591318548E-2,-1.584579609E-2
2.761371982E0,-4.527370632E-2,-7.230477035E-2,-1.478053257E-2
2.763859795E0,-4.314317927E-2,-7.550056279E-2,-1.371526904E-2
2.766347607E0,-4.101264849E-2,-7.443529367E-2,-1.371526904E-2
2.768835420E0,-3.888212144E-2,-6.910897791E-2,-1.265000552E-2
2.771323232E0,-3.462106735E-2,-6.165213138E-2,-1.371526904E-2
2.773811045E0,-2.716422267E-2,-5.099949613E-2,-1.478053257E-2
2.776298857E0,-1.970737800E-2,-3.928159550E-2,-1.691105962E-2
2.778786670E0,-9.054740891E-3,-2.649843320E-2,-2.010685205E-2
2.781274482E0,2.663159044E-3,-1.265000552E-2,-2.330264263E-2
2.783762295E0,1.438105945E-2,1.198421582E-3,-2.756369673E-2
2.786250107E0,2.822948620E-2,1.504684892E-2,-3.182475269E-2
2.788737920E0,4.101264849E-2,2.783001214E-2,-3.715106845E-2
2.791225732E0,5.273054913E-2,3.954791278E-2,-4.247738793E-2
2.793713545E0,6.551371515E-2,4.913528636E-2,-4.567318037E-2
2.796201357E0,7.616634667E-2,5.659212917E-2,-4.886896908E-2
2.798689170E0,8.468846232E-2,6.298371404E-2,-5.206476152E-2
2.801176982E0,9.214530140E-2,6.831002980E-2,-5.313002318E-2
2.803664795E0,9.747162461E-2,7.257108390E-2,-5.526055023E-2
2.806152607E0,1.006674170E-1,7.576687634E-2,-5.632581562E-2
2.808640420E0,1.006674170E-1,7.789740711E-2,-5.739107728E-2
2.811128232E0,9.853688627E-2,7.789740711E-2,-5.845634267E-2
2.813616045E0,9.427583218E-2,7.470161468E-2,-5.952160433E-2
2.816103857E0,8.681898564E-2,7.044056058E-2,-5.952160433E-2
2.818591670E0,7.723161578E-2,6.298371404E-2,-6.058686972E-2
2.821079482E0,6.551371515E-2,5.339634046E-2,-6.058686972E-2
2.823567295E0,5.166528746E-2,4.167843983E-2,-6.058686972E-2
2.826055107E0,3.675159439E-2,2.783001214E-2,-5.952160433E-2
2.828542920E0,2.183790505E-2,1.398158539E-2,-5.632581562E-2
2.831030732E0,6.924213842E-3,1.331579551E-4,-5.206476152E-2
2.833518545E0,-6.924213842E-3,-1.265000552E-2,-4.780370742E-2
2.836006357E0,-1.864211448E-2,-2.330264263E-2,-4.354264960E-2
2.838494170E0,-2.716422267E-2,-3.075948730E-2,-3.928159550E-2
2.840981982E0,-3.355580568E-2,-3.715106845E-2,-3.715106845E-2
2.843469795E0,-3.568633273E-2,-4.141212255E-2,-3.715106845E-2
2.845957607E0,-3.568633273E-2,-4.247738793E-2,-3.928159550E-2
2.848445420E0,-3.036001325E-2,-4.354264960E-2,-4.247738793E-2
2.850933232E0,-2.290316857E-2,-4.247738793E-2,-4.673844203E-2
2.853421045E0,-1.331579592E-2,-3.928159550E-2,-5.206476152E-2
2.855908857E0,-1.597895520E-3,-3.502054140E-2,-5.739107728E-2
2.858396670E0,1.118526794E-2,-2.862896025E-2,-6.271740049E-2
2.860884482E0,2.609895915E-2,-2.223737910E-2,-6.697845459E-2
2.863372295E0,4.101264849E-2,-1.265000552E-2,-6.910897791E-2
2.865860107E0,5.486107618E-2,-3.062632866E-3,-7.123950869E-2
2.868347920E0,6.977476925E-2,5.459476262E-3,-7.230477035E-2
2.870835732E0,8.468846232E-2,1.504684892E-2,-7.230477035E-2
2.873323545E0,9.747162461E-2,2.250369452E-2,-7.230477035E-2
2.875811357E0,1.091895252E-1,2.783001214E-2,-7.123950869E-2
2.878299170E0,1.198421568E-1,3.102580272E-2,-7.017423958E-2
2.880786982E0,1.283642650E-1,3.102580272E-2,-6.484792382E-2
2.883274795E0,1.326253265E-1,2.996053919E-2,-5.952160433E-2
2.885762607E0,1.347558498E-1,2.569948509E-2,-5.206476152E-2
2.888250420E0,1.326253265E-1,2.143843099E-2,-4.247738793E-2
2.890738232E0,1.272990108E-1,1.504684892E-2,-3.182475269E-2
2.893226045E0,1.198421568E-1,8.655266836E-3,-2.010685205E-2
2.895713857E0,1.081242561E-1,1.331579551E-4,-7.323687430E-3
2.898201670E0,9.534109384E-2,-9.454214945E-3,6.524739787E-3
2.900689482E0,7.936213911E-2,-2.117211558E-2,2.143843099E-2
2.903177295E0,6.231792271E-2,-3.395527974E-2,3.528685868E-2
2.905665107E0,4.420844093E-2,-4.780370742E-2,5.233107507E-2
2.908152920E0,2.609895915E-2,-6.165213138E-2,6.617950648E-2
2.910640732E0,6.924213842E-3,-7.337003201E-2,7.896266878E-2
2.913128545E0,-1.118526794E-2,-8.189214021E-2,9.068056941E-2
2.915616357E0,-2.716422267E-2,-8.828372508E-2,9.920267761E-2
2.918104170E0,-4.207791388E-2,-9.254477918E-2,1.045289934E-1
2.920591982E0,-5.486107618E-2,-9.361004084E-2,1.045289934E-1
2.923079795E0,-6.338318437E-2,-9.254477918E-2,1.023984700E-1
2.925567607E0,-6.870950758E-2,-8.828372508E-2,9.600688517E-2
2.928055420E0,-7.190529257E-2,-8.402267098E-2,8.535424620E-2
2.930543232E0,-7.190529257E-2,-7.656582445E-2,7.257108390E-2
2.933031045E0,-6.870950758E-2,-6.804371625E-2,5.659212917E-2
2.935518857E0,-6.444845349E-2,-5.845634267E-2,3.954791278E-2
2.938006670E0,-5.699160323E-2,-4.567318037E-2,2.037316747E-2
2.940494482E0,-4.846949503E-2,-2.969422378E-2,1.198421582E-3
2.942982295E0,-3.994738683E-2,-1.478053257E-2,-2.010685205E-2
2.945470107E0,-2.822948620E-2,-9.321057005E-4,-4.247738793E-2
2.947957920E0,-1.651158556E-2,1.078579482E-2,-6.378266215E-2
2.950445732E0,-4.793686327E-3,1.930790395E-2,-8.402267098E-2
2.952933545E0,5.858949851E-3,2.356895804E-2,-1.021321490E-1
2.955421357E0,1.438105945E-2,2.356895804E-2,-1.181111038E-1
2.957909170E0,1.970737800E-2,1.930790395E-2,-1.298290044E-1
2.960396982E0,2.396843210E-2,1.185105834E-2,-1.372858584E-1
2.962884795E0,2.396843210E-2,1.331579551E-4,-1.426121742E-1
2.965372607E0,2.077264152E-2,-1.478053257E-2,-1.415469050E-1
2.967860420E0,1.331579592E-2,-3.289001435E-2,-1.383511126E-1
2.970348232E0,3.728422802E-3,-5.526055023E-2,-1.287637353E-1
2.972836045E0,-1.118526794E-2,-7.869634777E-2,-1.138500497E-1
2.975323857E0,-2.822948620E-2,-1.021321490E-1,-9.467530251E-2
2.977811670E0,-5.166528746E-2,-1.234374270E-1,-7.017423958E-2
2.980299482E0,-7.829687744E-2,-1.426121742E-1,-4.034686089E-2
2.982787295E0,-1.091895252E-1,-1.575258672E-1,-7.323687430E-3
2.985275107E0,-1.432779580E-1,-1.671132296E-1,2.676474862E-2
2.987762920E0,-1.794969290E-1,-1.713742912E-1,6.191844866E-2
2.990250732E0,-2.178464085E-1,-1.681784987E-1,9.281109273E-2
2.992738545E0,-2.561959028E-1,-1.628521830E-1,1.194426864E-1
2.995226357E0,-2.934801280E-1,-1.521995366E-1,1.407479644E-1
2.997714170E0,-3.286338449E-1,-1.383511126E-1,1.535311192E-1
3.000201982E0,-3.605917394E-1,-1.213068962E-1,1.577921808E-1
3.002689795E0,-3.861580789E-1,-1.010668874E-1,1.545963883E-1
3.005177607E0,-4.074633420E-1,-7.976161689E-2,1.418132186E-1
3.007665420E0,-4.213117659E-1,-5.845634267E-2,1.215732098E-1
3.010153232E0,-4.287686050E-1,-3.821633384E-2,9.281109273E-2
3.012641045E0,-4.287686050E-1,-1.904158667E-2,5.765739456E-2
3.015128857E0,-4.213117659E-1,-3.062632866E-3,1.824264042E-2
3.017616670E0,-4.074633420E-1,9.720530361E-3,-2.543316968E-2
3.020104482E0,-3.882885873E-1,2.037316747E-2,-7.123950869E-2
3.022592295E0,-3.616569936E-1,2.676474862E-2,-1.170458421E-1
3.025080107E0,-3.318296373E-1,2.889527567E-2,-1.628521830E-1
3.027567920E0,-2.977411747E-1,2.783001214E-2,-2.065279931E-1
3.030055732E0,-2.593916953E-1,2.250369452E-2,-2.470080107E-1
3.032543545E0,-2.189116776E-1,1.398158539E-2,-2.832269669E-1
3.035031357E0,-1.784316599E-1,1.331579551E-4,-3.151848912E-1
3.037519170E0,-1.368863732E-1,-1.691105962E-2,-3.428817391E-1
3.040006982E0,-9.534109384E-2,-3.821633384E-2,-3.631217480E-1
3.042494795E0,-5.486107618E-2,-6.378266215E-2,-3.780354261E-1
3.044982607E0,-1.544632297E-2,-9.041424841E-2,-3.865575492E-1
3.047470420E0,2.077264152E-2,-1.191763729E-1,-3.876228034E-1
3.049958232E0,5.379581451E-2,-1.490037590E-1,-3.812312186E-1
3.052446045E0,8.575372398E-2,-1.788311303E-1,-3.684480488E-1
3.054933857E0,1.134505793E-1,-2.075932473E-1,-3.492733240E-1
3.057421670E0,1.390169114E-1,-2.331595868E-1,-3.237069845E-1
3.059909482E0,1.613874435E-1,-2.565953732E-1,-2.928143442E-1
3.062397295E0,1.805621833E-1,-2.757701278E-1,-2.555301189E-1
3.064885107E0,1.976063997E-1,-2.906838059E-1,-2.139848322E-1
3.067372920E0,2.125200927E-1,-3.024017215E-1,-1.703090221E-1
3.069860732E0,2.253032625E-1,-3.087933064E-1,-1.245026886E-1
3.072348545E0,2.370211631E-1,-3.098585606E-1,-8.082687855E-2
3.074836357E0,2.487390637E-1,-3.066627681E-1,-3.821633384E-2
3.077324170E0,2.604569495E-1,-2.992059290E-1,1.331579551E-4
3.079811982E0,2.721748650E-1,-2.896185517E-1,3.315633163E-2
3.082299795E0,2.838927507E-1,-2.757701278E-1,6.298371404E-2
3.084787607E0,2.966759205E-1,-2.597911656E-1,8.535424620E-2
3.087275420E0,3.094590902E-1,-2.438122183E-1,1.023984700E-1
3.089763232E0,3.233075142E-1,-2.278332561E-1,1.141163707E-1
3.092251045E0,3.360906839E-1,-2.118543088E-1,1.215732098E-1
3.094738857E0,3.488738537E-1,-1.969406158E-1,1.215732098E-1
3.097226670E0,3.616569936E-1,-1.820269227E-1,1.183774248E-1
3.099714482E0,3.723096550E-1,-1.681784987E-1,1.109205782E-1
3.102202295E0,3.818970025E-1,-1.543300748E-1,9.813741595E-2
3.104690107E0,3.872233331E-1,-1.426121742E-1,8.215846121E-2
3.107177920E0,3.904191256E-1,-1.319595277E-1,6.404897571E-2
3.109665732E0,3.893538713E-1,-1.223721579E-1,4.593949392E-2
3.112153545E0,3.840275407E-1,-1.159805804E-1,2.783001214E-2
3.114641357E0,3.723096550E-1,-1.127847880E-1,1.078579482E-2
3.117129170E0,3.552654386E-1,-1.127847880E-1,-4.127896391E-3
3.119616982E0,3.318296373E-1,-1.170458421E-1,-1.691105962E-2
3.122104795E0,3.030675054E-1,-1.245026886E-1,-2.436790615E-2
3.124592607E0,2.668485343E-1,-1.340900660E-1,-2.756369673E-2
3.127080420E0,2.242379934E-1,-1.468732208E-1,-2.543316968E-2
3.129568232E0,1.741705984E-1,-1.596563905E-1,-2.010685205E-2
3.132056045E0,1.198421568E-1,-1.724395454E-1,-1.051947847E-2
3.134543857E0,6.125266105E-2,-1.852227151E-1,1.198421582E-3
3.137031670E0,-5.326318205E-4,-1.990711391E-1,1.717737690E-2
3.139519482E0,-6.231792271E-2,-2.139848322E-1,3.422159329E-2
3.142007295E0,-1.251684725E-1,-2.267680019E-1,5.339634046E-2
3.144495107E0,-1.848232448E-1,-2.416816950E-1,7.257108390E-2
3.146982920E0,-2.434127480E-1,-2.533995807E-1,9.281109273E-2
3.149470732E0,-2.988064587E-1,-2.651174963E-1,1.130511016E-1
3.151958545E0,-3.488738537E-1,-2.736395895E-1,1.322258562E-1
3.154446357E0,-3.946801722E-1,-2.800311744E-1,1.503353268E-1
3.156934170E0,-4.351601899E-1,-2.810964286E-1,1.673795432E-1
3.159421982E0,-4.692486227E-1,-2.800311744E-1,1.812279820E-1
3.161909795E0,-4.969455004E-1,-2.757701278E-1,1.950764060E-1
3.164397607E0,-5.182507634E-1,-2.704437971E-1,2.067943066E-1
3.166885420E0,-5.320991874E-1,-2.629869580E-1,2.174469382E-1
3.169373232E0,-5.395560265E-1,-2.544648647E-1,2.280995846E-1
3.171861045E0,-5.416865349E-1,-2.448774725E-1,2.366216928E-1
3.174348857E0,-5.384907722E-1,-2.352901101E-1,2.440785319E-1
3.176836670E0,-5.310339332E-1,-2.246374637E-1,2.504701018E-1
3.179324482E0,-5.193160176E-1,-2.129195631E-1,2.547311783E-1
3.181812295E0,-5.044023395E-1,-2.012016773E-1,2.579269707E-1
3.184300107E0,-4.841623306E-1,-1.873532385E-1,2.579269707E-1
3.186787920E0,-4.607265294E-1,-1.724395454E-1,2.557964325E-1
3.189275732E0,-4.340949357E-1,-1.575258672E-1,2.504701018E-1
3.191763545E0,-4.021370113E-1,-1.426121742E-1,2.419480085E-1
3.194251357E0,-3.659180701E-1,-1.276984811E-1,2.291648388E-1
3.196739170E0,-3.265033066E-1,-1.159805804E-1,2.121206224E-1
3.199226982E0,-2.828274965E-1,-1.074584723E-1,1.918806136E-1
3.201714795E0,-2.380864173E-1,-1.031974182E-1,1.684448123E-1
3.204202607E0,-1.901495606E-1,-1.021321490E-1,1.439437568E-1
3.206690420E0,-1.411474347E-1,-1.031974182E-1,1.183774248E-1
3.209178232E0,-9.321057051E-2,-1.085237339E-1,9.281109273E-2
3.211666045E0,-4.633896798E-2,-1.159805804E-1,6.937529147E-2
3.214153857E0,-5.326318205E-4,-1.245026886E-1,4.593949392E-2
3.216641670E0,4.420844093E-2,-1.351553202E-1,2.569948509E-2
3.219129482E0,8.575372398E-2,-1.479384899E-1,7.590003312E-3
3.221617295E0,1.241032109E-1,-1.607216448E-1,-7.323687430E-3
3.224105107E0,1.592569202E-1,-1.767006069E-1,-2.010685205E-2
3.226592920E0,1.901495606E-1,-1.937448233E-1,-2.756369673E-2
3.229080732E0,2.167811543E-1,-2.129195631E-1,-3.182475269E-2
3.231568545E0,2.370211631E-1,-2.331595868E-1,-3.182475269E-2
3.234056357E0,2.519348562E-1,-2.533995807E-1,-2.756369673E-2
3.236544170E0,2.604569495E-1,-2.757701278E-1,-1.904158667E-2
3.239031982E0,2.615222335E-1,-2.949448824E-1,-6.258423906E-3
3.241519795E0,2.561959028E-1,-3.141196072E-1,8.655266836E-3
3.244007607E0,2.434127480E-1,-3.300985694E-1,2.783001214E-2
3.246495420E0,2.242379934E-1,-3.418164849E-1,5.126581341E-2
3.248983232E0,1.986716688E-1,-3.503385782E-1,7.683213800E-2
3.251471045E0,1.677790284E-1,-3.535343707E-1,1.045289934E-1
3.253958857E0,1.304948032E-1,-3.514038324E-1,1.343563795E-1
3.256446670E0,9.108003974E-2,-3.450122476E-1,1.620532274E-1
3.258934482E0,4.953476042E-2,-3.332943618E-1,1.886848211E-1
3.261422295E0,6.924213842E-3,-3.151848912E-1,2.153164148E-1
3.263910107E0,-3.675159439E-2,-2.928143442E-1,2.398174703E-1
3.266397920E0,-7.936213911E-2,-2.661827505E-1,2.611227632E-1
3.268885732E0,-1.198421568E-1,-2.363553643E-1,2.781669796E-1
3.271373545E0,-1.581916511E-1,-2.022669315E-1,2.909501195E-1
3.273861357E0,-1.944106072E-1,-1.660479754E-1,2.984069884E-1
3.276349170E0,-2.263685167E-1,-1.298290044E-1,3.005374968E-1
3.278836982E0,-2.551306486E-1,-9.254477918E-2,2.973417044E-1
3.281324795E0,-2.796317041E-1,-5.632581562E-2,2.888196111E-1
3.283812607E0,-2.977411747E-1,-2.223737910E-2,2.760364413E-1
3.286300420E0,-3.105243444E-1,1.078579482E-2,2.579269707E-1
3.288788232E0,-3.179811835E-1,3.848264739E-2,2.344911546E-1
3.291276045E0,-3.201117218E-1,6.404897571E-2,2.089248300E-1
3.293763857E0,-3.169159293E-1,8.535424620E-2,1.801627129E-1
3.296251670E0,-3.094590902E-1,1.023984700E-1,1.492700726E-1
3.298739482E0,-2.988064587E-1,1.151816323E-1,1.183774248E-1
3.301227295E0,-2.849580348E-1,1.215732098E-1,8.855003864E-2
3.303715107E0,-2.679138184E-1,1.226384789E-1,6.298371404E-2
3.306202920E0,-2.498043180E-1,1.194426864E-1,3.848264739E-2
3.308690732E0,-2.295643091E-1,1.109205782E-1,2.037316747E-2
3.311178545E0,-2.103895694E-1,9.813741595E-2,7.590003312E-3
3.313666357E0,-1.933453530E-1,8.109319210E-2,2.263685223E-3
3.316154170E0,-1.805621833E-1,5.978792161E-2,4.394212738E-3
3.318641982E0,-1.699095517E-1,3.422159329E-2,1.398158539E-2
3.321129795E0,-1.645832360E-1,5.459476262E-3,3.315633163E-2
3.323617607E0,-1.656484902E-1,-2.862896025E-2,5.978792161E-2
3.326105420E0,-1.699095517E-1,-6.591318548E-2,9.813741595E-2
3.328593232E0,-1.805621833E-1,-1.063932031E-1,1.460742801E-1
3.331081045E0,-1.944106072E-1,-1.479384899E-1,2.057290375E-1
3.333568857E0,-2.146506310E-1,-1.841574460E-1,2.781669796E-1
3.336056670E0,-2.380864173E-1,-2.129195631E-1,3.623228073E-1
3.338544482E0,-2.657832801E-1,-2.278332561E-1,4.581965208E-1
3.341032295E0,-2.945453823E-1,-2.278332561E-1,5.657881498E-1
3.343520107E0,-3.243727684E-1,-2.097237855E-1,6.819018722E-1
3.346007920E0,-3.563306928E-1,-1.703090221E-1,8.012114167E-1
3.348495732E0,-3.861580789E-1,-1.149153188E-1,9.215862155E-1
3.350983545E0,-4.149201810E-1,-4.780370742E-2,1.038765192E0
3.353471357E0,-4.404865205E-1,2.569948509E-2,1.147422075E0
3.355959170E0,-4.607265294E-1,1.002679393E-1,1.243295789E0
3.358446982E0,-4.745749533E-1,1.716406047E-1,1.323190570E0
3.360934795E0,-4.799012840E-1,2.344911546E-1,1.383910656E0
3.363422607E0,-4.777707458E-1,2.877543271E-1,1.423325419E0
3.365910420E0,-4.649875760E-1,3.282343447E-1,1.441434860E0
3.368398232E0,-4.415517747E-1,3.569964767E-1,1.437173843E0
3.370886045E0,-4.063980877E-1,3.751059473E-1,1.411607504E0
3.373373857E0,-3.605917394E-1,3.836280704E-1,1.363670588E0
3.375861670E0,-3.041327596E-1,3.857586086E-1,1.296558976E0
3.378349482E0,-2.391516864E-1,3.814975321E-1,1.210272670E0
3.380837295E0,-1.688442826E-1,3.708449006E-1,1.108007312E0
3.383325107E0,-9.427583218E-2,3.559312224E-1,9.929588437E-1
3.385812920E0,-1.970737800E-2,3.356912136E-1,8.661925197E-1
3.388300732E0,5.273054913E-2,3.101248741E-1,7.340998054E-1
3.390788545E0,1.198421568E-1,2.771016955E-1,5.977460742E-1
3.393276357E0,1.773663908E-1,2.355564237E-1,4.613923132E-1
3.395764170E0,2.221074700E-1,1.844237745E-1,3.282343447E-1
3.398251982E0,2.530001104E-1,1.247690022E-1,1.993374527E-1
3.400739795E0,2.711096108E-1,5.552686751E-2,7.683213800E-2
3.403227607E0,2.721748650E-1,-1.904158667E-2,-3.395527974E-2
3.405715420E0,2.593916953E-1,-9.893636405E-2,-1.308942735E-1
3.408203232E0,2.338253707E-1,-1.798963994E-1,-2.118543088E-1
3.410691045E0,1.954758763E-1,-2.619217038E-1,-2.757701278E-1
3.413178857E0,1.475390196E-1,-3.418164849E-1,-3.226417303E-1
3.415666670E0,9.001477808E-2,-4.110586047E-1,-3.514038324E-1
3.418154482E0,2.396843210E-2,-4.675175846E-1,-3.641870022E-1
3.420642295E0,-4.740423337E-2,-5.058670640E-1,-3.620564938E-1
3.423130107E0,-1.219726875E-1,-5.271723270E-1,-3.460775316E-1
3.425617920E0,-1.944106072E-1,-5.303681493E-1,-3.173153996E-1
3.428105732E0,-2.668485343E-1,-5.165197253E-1,-2.779006660E-1
3.430593545E0,-3.328948915E-1,-4.866923392E-1,-2.310290486E-1
3.433081357E0,-3.936149180E-1,-4.430165291E-1,-1.788311303E-1
3.435569170E0,-4.479433596E-1,-3.876228034E-1,-1.223721579E-1
3.438056982E0,-4.937497079E-1,-3.226417303E-1,-6.378266215E-2
3.440544795E0,-5.299686790E-1,-2.480732650E-1,-5.193160381E-3
3.443032607E0,-5.587307811E-1,-1.671132296E-1,5.233107507E-2
3.445520420E0,-5.800360441E-1,-8.189214021E-2,1.066595241E-1
3.448008232E0,-5.928192139E-1,4.394212738E-3,1.556616426E-1
3.450496045E0,-5.970802903E-1,9.174583107E-2,2.004027218E-1
3.452983857E0,-5.938844681E-1,1.748363972E-1,2.398174703E-1
3.455471670E0,-5.832318664E-1,2.526006401E-1,2.728406489E-1
3.457959482E0,-5.651223660E-1,3.218427896E-1,2.994722426E-1
3.460447295E0,-5.406212807E-1,3.825628161E-1,3.186469972E-1
3.462935107E0,-5.107939243E-1,4.336954653E-1,3.335606754E-1
3.465422920E0,-4.777707458E-1,4.795017838E-1,3.410175145E-1
3.467910732E0,-4.426170290E-1,5.178512931E-1,3.442133069E-1
3.470398545E0,-4.053328037E-1,5.508744717E-1,3.410175145E-1
3.472886357E0,-3.691138625E-1,5.785713196E-1,3.335606754E-1
3.475374170E0,-3.339601457E-1,5.988113284E-1,3.207775056E-1
3.477861982E0,-3.020022511E-1,6.105292439E-1,3.037332892E-1
3.480349795E0,-2.711096108E-1,6.115944982E-1,2.813627720E-1
3.482837868E0,-2.423474789E-1,6.009418368E-1,2.568616867E-1
3.485325941E0,-2.178464085E-1,5.807018280E-1,2.291648388E-1
3.487813909E0,-1.986716688E-1,5.498092175E-1,1.993374527E-1
3.490301722E0,-1.848232448E-1,5.082638860E-1,1.705753356E-1
3.492789534E0,-1.784316599E-1,4.592617750E-1,1.428784877E-1
3.495277347E0,-1.794969290E-1,4.038680792E-1,1.173121557E-1
3.497765159E0,-1.869537681E-1,3.452785909E-1,9.600688517E-2
3.500252972E0,-2.029327303E-1,2.856238186E-1,8.109319210E-2
3.502740784E0,-2.253032625E-1,2.291648388E-1,7.363634557E-2
3.505228597E0,-2.561959028E-1,1.790974438E-1,7.257108390E-2
3.507716409E0,-2.956106663E-1,1.375521719E-1,7.896266878E-2
3.510204222E0,-3.403517306E-1,1.066595241E-1,9.068056941E-2
3.512692034E0,-3.914843798E-1,8.428898454E-2,1.087900475E-1
3.515179847E0,-4.436823130E-1,7.150582224E-2,1.311605871E-1
3.517667659E0,-4.980107546E-1,6.831002980E-2,1.577921808E-1
3.520155472E0,-5.512739420E-1,7.470161468E-2,1.876195520E-1
3.522644013E0,-6.024065614E-1,9.068056941E-2,2.174469382E-1
3.525131149E0,-6.482129097E-1,1.151816323E-1,2.462090552E-1
3.527618284E0,-6.897581816E-1,1.492700726E-1,2.728406489E-1
3.530105472E0,-7.259771824E-1,1.908153445E-1,2.962764502E-1
3.532592711E0,-7.558045387E-1,2.376869470E-1,3.133206666E-1
3.535080003E0,-7.813708782E-1,2.866890728E-1,3.239732981E-1
3.537567399E0,-8.016108871E-1,3.346259296E-1,3.282343447E-1
3.540054899E0,-8.122635484E-1,3.772364855E-1,3.261038363E-1
3.542542503E0,-8.175898194E-1,4.123901725E-1,3.165164590E-1
3.545030211E0,-8.133288026E-1,4.390217662E-1,3.005374968E-1
3.547518024E0,-7.994803786E-1,4.581965208E-1,2.802974880E-1
3.550005941E0,-7.760445476E-1,4.688491523E-1,2.547311783E-1
3.552493961E0,-7.419561148E-1,4.741754830E-1,2.259690464E-1
3.554982086E0,-6.972150803E-1,4.731102288E-1,1.940111369E-1
3.557470316E0,-6.396908164E-1,4.667186439E-1,1.599227041E-1
3.559958597E0,-5.736444592E-1,4.560659826E-1,1.247690022E-1
3.562446930E0,-5.001412630E-1,4.390217662E-1,8.748477697E-2
3.564935263E0,-4.213117659E-1,4.155859649E-1,4.913528636E-2
3.567423597E0,-3.403517306E-1,3.857586086E-1,8.655266836E-3
3.569911878E0,-2.604569495E-1,3.516701460E-1,-3.182475269E-2
3.572399691E0,-1.837579757E-1,3.133206666E-1,-7.123950869E-2
3.574887503E0,-1.113200486E-1,2.739059031E-1,-1.095889956E-1
3.577375316E0,-4.314317927E-2,2.344911546E-1,-1.468732208E-1
3.579863128E0,1.651158556E-2,1.950764060E-1,-1.788311303E-1
3.582350941E0,6.764423847E-2,1.577921808E-1,-2.075932473E-1
3.584838753E0,1.102547869E-1,1.215732098E-1,-2.299637944E-1
3.587326566E0,1.422126889E-1,8.748477697E-2,-2.459427416E-1
3.589814378E0,1.613874435E-1,5.659212917E-2,-2.544648647E-1
3.592302191E0,1.667137593E-1,2.889527567E-2,-2.565953732E-1
3.594790003E0,1.581916511E-1,4.394212738E-3,-2.512690723E-1
3.597277816E0,1.368863732E-1,-1.265000552E-2,-2.384859025E-1
3.599765628E0,1.038632020E-1,-2.330264263E-2,-2.182458937E-1
3.602253441E0,6.338318437E-2,-2.436790615E-2,-1.884185076E-1
3.604741253E0,1.544632297E-2,-1.478053257E-2,-1.500690132E-1
3.607229066E0,-3.675159439E-2,4.394212738E-3,-1.042626798E-1
3.609716878E0,-9.321057051E-2,3.528685868E-2,-5.313002318E-2
3.612204691E0,-1.528653353E-1,7.470161468E-2,1.198421582E-3
3.614692503E0,-2.135853618E-1,1.215732098E-1,5.446160212E-2
3.617180316E0,-2.785664499E-1,1.727058738E-1,1.045289934E-1
3.619668128E0,-3.424822688E-1,2.249037921E-1,1.482048035E-1
3.622155941E0,-4.074633420E-1,2.792322338E-1,1.833585054E-1
3.624643753E0,-4.724444151E-1,3.314301372E-1,2.099900991E-1
3.627131566E0,-5.342296958E-1,3.804322779E-1,2.259690464E-1
3.629619378E0,-5.928192139E-1,4.230428338E-1,2.312953621E-1
3.632107191E0,-6.471476555E-1,4.603270590E-1,2.259690464E-1
3.634595003E0,-6.950845122E-1,4.880239069E-1,2.110553533E-1
3.637082816E0,-7.355645299E-1,5.082638860E-1,1.854890287E-1
3.639570628E0,-7.696529627E-1,5.189165473E-1,1.524658650E-1
3.642058441E0,-7.962845564E-1,5.167860389E-1,1.119858399E-1
3.644546253E0,-8.143940568E-1,5.050681233E-1,6.724476814E-2
3.647034066E0,-8.218508959E-1,4.816323221E-1,1.930790395E-2
3.649521878E0,-8.186551332E-1,4.496744275E-1,-3.075948730E-2
3.652009691E0,-8.037413955E-1,4.113249183E-1,-7.976161689E-2
3.654497503E0,-7.781751156E-1,3.697796464E-1,-1.266332120E-1
3.656985316E0,-7.419561148E-1,3.261038363E-1,-1.692437679E-1
3.659473128E0,-6.972150803E-1,2.824280262E-1,-2.075932473E-1
3.661960941E0,-6.428865790E-1,2.408827394E-1,-2.416816950E-1
3.664448753E0,-5.789707899E-1,2.025332451E-1,-2.704437971E-1
3.666936566E0,-5.075981021E-1,1.695100814E-1,-2.906838059E-1
3.669424378E0,-4.319643974E-1,1.418132186E-1,-3.045322299E-1
3.671912191E0,-3.510043621E-1,1.205079481E-1,-3.098585606E-1
3.674400003E0,-2.689790726E-1,1.066595241E-1,-3.055975139E-1
3.676887816E0,-1.890842915E-1,9.813741595E-2,-2.938795984E-1
3.679375628E0,-1.145158410E-1,9.600688517E-2,-2.715090811E-1
3.681863441E0,-4.846949503E-2,9.600688517E-2,-2.427469492E-1
3.684351253E0,6.924213842E-3,1.002679393E-1,-2.075932473E-1
3.686839066E0,4.527370632E-2,1.087900475E-1,-1.671132296E-1
3.689326878E0,6.764423847E-2,1.205079481E-1,-1.255679578E-1
3.691814691E0,7.190529257E-2,1.375521719E-1,-8.295740932E-2
3.694302503E0,5.699160323E-2,1.599227041E-1,-3.928159550E-2
3.696790316E0,2.503369562E-2,1.865542978E-1,2.263685223E-3
3.699278128E0,-2.290316857E-2,2.195774615E-1,4.167843983E-2
3.701765941E0,-8.681898564E-2,2.568616867E-1,7.576687634E-2
3.704253753E0,-1.667137593E-1,2.973417044E-1,1.055942550E-1
3.706741566E0,-2.583264410E-1,3.410175145E-1,1.290300637E-1
3.709229378E0,-3.605917394E-1,3.857586086E-1,1.482048035E-1
3.711717191E0,-4.713791609E-1,4.294344187E-1,1.609879732E-1
3.714205003E0,-5.874928832E-1,4.699144363E-1,1.684448123E-1
3.716692816E0,-7.068024278E-1,5.061333776E-1,1.695100814E-1
3.719180628E0,-8.250467181E-1,5.380913019E-1,1.641837656E-1
3.721668441E0,-9.411604404E-1,5.636576414E-1,1.503353268E-1
3.724156253E0,-1.048752069E0,5.849629045E-1,1.279647946E-1
3.726644066E0,-1.148886800E0,6.009418368E-1,9.813741595E-2
3.729131878E0,-1.237303734E0,6.105292439E-1,5.659212917E-2
3.731619691E0,-1.312937379E0,6.137250066E-1,5.459476262E-3
3.734107503E0,-1.372592211E0,6.083986759E-1,-5.419528857E-2
3.736595316E0,-1.414137483E0,5.945502520E-1,-1.213068962E-1
3.739083128E0,-1.434377551E0,5.743102431E-1,-1.937448233E-1
3.741570941E0,-1.433312178E0,5.487439036E-1,-2.672480047E-1
3.744058753E0,-1.409876466E0,5.189165473E-1,-3.418164849E-1
3.746546566E0,-1.363004804E0,4.901544452E-1,-4.131891429E-1
3.749034378E0,-1.293762684E0,4.624575675E-1,-4.803007543E-1
3.751522191E0,-1.204280496E0,4.347607195E-1,-5.420860648E-1
3.754010003E0,-1.098819494E0,4.081291258E-1,-5.985450149E-1
3.756497816E0,-9.784446359E-1,3.804322779E-1,-6.496776342E-1
3.758985628E0,-8.495477438E-1,3.538006842E-1,-6.944187284E-1
3.761473441E0,-7.153245211E-1,3.303648829E-1,-7.306377292E-1
3.763961253E0,-5.789707899E-1,3.101248741E-1,-7.562040091E-1
3.766449066E0,-4.458128214E-1,2.962764502E-1,-7.711177468E-1
3.768936878E0,-3.169159293E-1,2.856238186E-1,-7.732482553E-1
3.771424691E0,-1.965411454E-1,2.813627720E-1,-7.668566704E-1
3.773912503E0,-8.681898564E-2,2.824280262E-1,-7.476819158E-1
3.776400316E0,7.989477366E-3,2.909501195E-1,-7.189198136E-1
3.778888128E0,8.681898564E-2,3.037332892E-1,-6.816355586E-1
3.781375941E0,1.464737505E-1,3.207775056E-1,-6.368945241E-1
3.783863753E0,1.848232448E-1,3.420827985E-1,-5.868270993E-1
3.786351566E0,1.997369379E-1,3.655185997E-1,-5.356944799E-1
3.788839378E0,1.912148297E-1,3.932154477E-1,-4.856270552E-1
3.791327191E0,1.581916511E-1,4.230428338E-1,-4.398207366E-1
3.793815003E0,1.017326787E-1,4.539354742E-1,-3.993407190E-1
3.796302816E0,2.609895915E-2,4.880239069E-1,-3.641870022E-1
3.798790628E0,-6.657897681E-2,5.221123695E-1,-3.375554085E-1
3.801278441E0,-1.741705984E-1,5.562008023E-1,-3.173153996E-1
3.803766253E0,-2.913496196E-1,5.881586671E-1,-3.024017215E-1
3.806254066E0,-4.159854650E-1,6.201165915E-1,-2.917490900E-1
3.808741878E0,-5.448823571E-1,6.499440074E-1,-2.853575051E-1
3.811229691E0,-6.737792492E-1,6.819018722E-1,-2.821617126E-1
3.813717503E0,-7.984151244E-1,7.149250507E-1,-2.800311744E-1
3.816205316E0,-9.145288467E-1,7.468829751E-1,-2.800311744E-1
3.818693128E0,-1.019989967E0,7.777756453E-1,-2.789659202E-1
3.821180941E0,-1.108406782E0,8.076030016E-1,-2.779006660E-1
3.823668753E0,-1.180844784E0,8.331693411E-1,-2.757701278E-1
3.826156566E0,-1.235173225E0,8.523440957E-1,-2.747048736E-1
3.828644378E0,-1.270326853E0,8.651272058E-1,-2.747048736E-1
3.831132191E0,-1.288436413E0,8.715187907E-1,-2.768353820E-1
3.833620003E0,-1.289501667E0,8.715187907E-1,-2.832269669E-1
3.836107816E0,-1.271392107E0,8.651272058E-1,-2.928143442E-1
3.838595628E0,-1.237303734E0,8.566051126E-1,-3.045322299E-1
3.841083441E0,-1.186171055E0,8.459525108E-1,-3.194459379E-1
3.843571253E0,-1.121189952E0,8.352998495E-1,-3.375554085E-1
3.846059066E0,-1.043425679E0,8.267777562E-1,-3.599259555E-1
3.848546878E0,-9.582046270E-1,8.214514256E-1,-3.833617568E-1
3.851034691E0,-8.644614220E-1,8.193209171E-1,-4.110586047E-1
3.853522503E0,-7.664572001E-1,8.182556629E-1,-4.398207366E-1
3.856010316E0,-6.641919017E-1,8.203861713E-1,-4.685828388E-1
3.858498128E0,-5.608612895E-1,8.246471882E-1,-4.973449707E-1
3.860985941E0,-4.585959911E-1,8.310387731E-1,-5.271723270E-1
3.863473753E0,-3.595264852E-1,8.395609260E-1,-5.548691750E-1
3.865961566E0,-2.657832801E-1,8.491482735E-1,-5.804355145E-1
3.868449378E0,-1.773663908E-1,8.608661890E-1,-6.038713455E-1
3.870937191E0,-1.006674170E-1,8.747146130E-1,-6.230461001E-1
3.873425003E0,-3.568633273E-2,8.885630369E-1,-6.379597783E-1
3.875912816E0,1.544632297E-2,9.045419693E-1,-6.486123800E-1
3.878400628E0,5.060002208E-2,9.183903933E-1,-6.539387107E-1
3.880888441E0,6.977476925E-2,9.311735630E-1,-6.560692191E-1
3.883376253E0,7.510108501E-2,9.407609701E-1,-6.539387107E-1
3.885864066E0,6.551371515E-2,9.482178092E-1,-6.486123800E-1
3.888351878E0,4.527370632E-2,9.524788260E-1,-6.379597783E-1
3.890839691E0,1.438105945E-2,9.567399025E-1,-6.219807863E-1
3.893327503E0,-2.503369562E-2,9.610009789E-1,-6.017407775E-1
3.895815316E0,-7.297056168E-2,9.663273096E-1,-5.783050060E-1
3.898303128E0,-1.272990108E-1,9.716535807E-1,-5.527386665E-1
3.900790941E0,-1.848232448E-1,9.769799113E-1,-5.250418186E-1
3.903278753E0,-2.487390637E-1,9.844367504E-1,-4.973449707E-1
3.905766566E0,-3.147853911E-1,9.929588437E-1,-4.685828388E-1
3.908254378E0,-3.818970025E-1,1.002546191E0,-4.387554526E-1
3.910742191E0,-4.490086138E-1,1.014264107E0,-4.121238589E-1
3.913230003E0,-5.129244328E-1,1.029177785E0,-3.865575492E-1
3.915717816E0,-5.768402815E-1,1.045156837E0,-3.652522564E-1
3.918205628E0,-6.375603080E-1,1.063266277E0,-3.450122476E-1
3.920693441E0,-6.950845122E-1,1.080310464E0,-3.300985694E-1
3.923181253E0,-7.472824454E-1,1.096289396E0,-3.183806837E-1
3.925669066E0,-7.962845564E-1,1.111203194E0,-3.109238148E-1
3.928156878E0,-8.388951421E-1,1.121855736E0,-3.066627681E-1
3.930644691E0,-8.761793375E-1,1.128247380E0,-3.077280223E-1
3.933132503E0,-9.060067534E-1,1.132508397E0,-3.119890988E-1
3.935620316E0,-9.305077791E-1,1.132508397E0,-3.205111921E-1
3.938108128E0,-9.475520253E-1,1.129312634E0,-3.332943618E-1
3.940595941E0,-9.582046270E-1,1.123986244E0,-3.503385782E-1
3.943083753E0,-9.603351951E-1,1.117594719E0,-3.705785871E-1
3.945571566E0,-9.550088644E-1,1.111203194E0,-3.940143883E-1
3.948059378E0,-9.432909489E-1,1.105876803E0,-4.206459820E-1
3.950547191E0,-9.230509400E-1,1.101615787E0,-4.483428299E-1
3.953035003E0,-8.953540921E-1,1.099485278E0,-4.749744236E-1
3.955522816E0,-8.612656593E-1,1.100550532E0,-5.005407333E-1
3.958010628E0,-8.218508959E-1,1.102681041E0,-5.239765644E-1
3.960498493E0,-7.781751156E-1,1.106942058E0,-5.431513190E-1
3.962986357E0,-7.302381992E-1,1.110137820E0,-5.591302514E-1
3.965474222E0,-6.812360883E-1,1.115464211E0,-5.708481669E-1
3.967962086E0,-6.322339773E-1,1.118659973E0,-5.793702602E-1
3.970449951E0,-5.842971206E-1,1.122920990E0,-5.836313367E-1
3.972937816E0,-5.384907722E-1,1.126116872E0,-5.836313367E-1
3.975425680E0,-4.958802164E-1,1.126116872E0,-5.793702602E-1
3.977913545E0,-4.564654827E-1,1.125051618E0,-5.697829127E-1
3.980401409E0,-4.202465117E-1,1.120790482E0,-5.548691750E-1
3.982889951E0,-3.861580789E-1,1.114398956E0,-5.346291661E-1
3.985377972E0,-3.563306928E-1,1.106942058E0,-5.111933947E-1
3.987865784E0,-3.296990991E-1,1.097354650E0,-4.856270552E-1
3.990353597E0,-3.051980436E-1,1.089897871E0,-4.568649530E-1
3.992841409E0,-2.849580348E-1,1.084571600E0,-4.270375669E-1
3.995329222E0,-2.657832801E-1,1.080310464E0,-3.972101808E-1
3.997817034E0,-2.476737946E-1,1.078179955E0,-3.684480488E-1
4.000304847E0,-2.316948473E-1,1.077114701E0,-3.428817391E-1
4.002792659E0,-2.167811543E-1,1.076049447E0,-3.205111921E-1
4.005280472E0,-2.029327303E-1,1.072853684E0,-3.024017215E-1
4.007768284E0,-1.890842915E-1,1.070723176E0,-2.896185517E-1
4.010256097E0,-1.763011366E-1,1.068592548E0,-2.810964286E-1
4.012743909E0,-1.645832360E-1,1.067527294E0,-2.779006660E-1
4.015231722E0,-1.528653353E-1,1.065396786E0,-2.810964286E-1
4.017719534E0,-1.432779580E-1,1.063266277E0,-2.885532975E-1
4.020207347E0,-1.347558498E-1,1.060070515E0,-3.002711833E-1
4.022695159E0,-1.283642650E-1,1.054744124E0,-3.141196072E-1
4.025182972E0,-1.219726875E-1,1.049417853E0,-3.311638236E-1
4.027670784E0,-1.166463718E-1,1.040895700E0,-3.492733240E-1
4.030158597E0,-1.134505793E-1,1.031308413E0,-3.684480488E-1
4.032646409E0,-1.113200486E-1,1.020655751E0,-3.865575492E-1
4.035134222E0,-1.113200486E-1,1.006807327E0,-4.025365114E-1
4.037622034E0,-1.145158410E-1,9.876325727E-1,-4.142543972E-1
4.040109847E0,-1.187768951E-1,9.631314874E-1,-4.238417745E-1
4.042597659E0,-1.241032109E-1,9.354346395E-1,-4.291680753E-1
4.045085472E0,-1.294295341E-1,9.045419693E-1,-4.291680753E-1
4.047573284E0,-1.347558498E-1,8.715187907E-1,-4.238417745E-1
4.050061097E0,-1.379516423E-1,8.374303579E-1,-4.121238589E-1
4.052548909E0,-1.379516423E-1,8.022766709E-1,-3.961449265E-1
4.055036722E0,-1.358211190E-1,7.681882381E-1,-3.769701719E-1
4.057524534E0,-1.315600574E-1,7.351650596E-1,-3.545996249E-1
4.060012347E0,-1.241032109E-1,7.021418810E-1,-3.322291076E-1
4.062500159E0,-1.123853177E-1,6.680534482E-1,-3.077280223E-1
4.064987972E0,-9.640636295E-2,6.350302696E-1,-2.821617126E-1
4.067475784E0,-7.723161578E-2,6.020070910E-1,-2.576606572E-1
4.069963597E0,-5.166528746E-2,5.679186583E-1,-2.352901101E-1
4.072451409E0,-2.077264152E-2,5.316997170E-1,-2.139848322E-1
4.074939222E0,1.438105945E-2,4.965460002E-1,-1.958753467E-1
4.077427034E0,5.486107618E-2,4.603270590E-1,-1.809616536E-1
4.079914847E0,9.534109384E-2,4.251733422E-1,-1.692437679E-1
4.082402659E0,1.379516423E-1,3.889544010E-1,-1.617869139E-1
4.084890472E0,1.794969290E-1,3.538006842E-1,-1.575258672E-1
4.087378284E0,2.199769467E-1,3.175817132E-1,-1.575258672E-1
4.089866097E0,2.593916953E-1,2.834932804E-1,-1.607216448E-1
4.092353909E0,2.966759205E-1,2.483395934E-1,-1.681784987E-1
4.094841722E0,3.307643533E-1,2.131858915E-1,-1.777658761E-1
4.097329534E0,3.637875319E-1,1.769669205E-1,-1.905490309E-1
4.099817347E0,3.914843798E-1,1.386174262E-1,-2.043974549E-1
4.102305159E0,4.159854650E-1,1.002679393E-1,-2.214416862E-1
4.104792972E0,4.351601899E-1,6.191844866E-2,-2.395511568E-1
4.107280784E0,4.490086138E-1,2.250369452E-2,-2.587259114E-1
4.109768597E0,4.564654827E-1,-1.478053257E-2,-2.779006660E-1
4.112256409E0,4.596612751E-1,-5.313002318E-2,-2.981406748E-1
4.114744222E0,4.575307369E-1,-8.721846342E-2,-3.205111921E-1
4.117232034E0,4.500738978E-1,-1.191763729E-1,-3.418164849E-1
4.119719847E0,4.404865205E-1,-1.479384899E-1,-3.652522564E-1
4.122207659E0,4.277033508E-1,-1.713742912E-1,-3.886880577E-1
4.124695472E0,4.138549268E-1,-1.894837767E-1,-4.110586047E-1
4.127183284E0,4.010717571E-1,-2.054627240E-1,-4.312986135E-1
4.129671097E0,3.882885873E-1,-2.171806246E-1,-4.494080842E-1
4.132158909E0,3.776359558E-1,-2.278332561E-1,-4.643217921E-1
4.134646722E0,3.669833243E-1,-2.374206334E-1,-4.771049619E-1
4.137134534E0,3.563306928E-1,-2.459427416E-1,-4.866923392E-1
4.139622347E0,3.446127772E-1,-2.533995807E-1,-4.952144325E-1
4.142110159E0,3.328948915E-1,-2.619217038E-1,-5.037365556E-1
4.144597972E0,3.179811835E-1,-2.704437971E-1,-5.122586489E-1
4.147085784E0,3.041327596E-1,-2.789659202E-1,-5.218459964E-1
4.149573597E0,2.892190814E-1,-2.864227593E-1,-5.335639119E-1
4.152061409E0,2.753706574E-1,-2.906838059E-1,-5.452818274E-1
4.154549222E0,2.615222335E-1,-2.928143442E-1,-5.569997430E-1
4.157037034E0,2.476737946E-1,-2.938795984E-1,-5.687175989E-1
4.159524847E0,2.316948473E-1,-2.906838059E-1,-5.772397518E-1
4.162012659E0,2.157158852E-1,-2.842922211E-1,-5.846965909E-1
4.164500472E0,1.986716688E-1,-2.736395895E-1,-5.889576077E-1
4.166988284E0,1.784316599E-1,-2.576606572E-1,-5.889576077E-1
4.169476097E0,1.571263820E-1,-2.406164259E-1,-5.868270993E-1
4.171963909E0,1.326253265E-1,-2.193111479E-1,-5.804355145E-1
4.174451722E0,1.070589945E-1,-1.948100924E-1,-5.729786754E-1
4.176939534E0,7.616634667E-2,-1.681784987E-1,-5.644565821E-1
4.179427347E0,4.314317927E-2,-1.404816359E-1,-5.548691750E-1
4.181915159E0,4.793686327E-3,-1.127847880E-1,-5.463470817E-1
4.184402972E0,-3.888212144E-2,-8.615319431E-2,-5.378249884E-1
4.186890784E0,-9.001477808E-2,-5.952160433E-2,-5.293028951E-1
4.189378597E0,-1.475390196E-1,-3.395527974E-2,-5.239765644E-1
4.191866409E0,-2.114548385E-1,-1.051947847E-2,-5.165197253E-1
4.194354222E0,-2.817622423E-1,9.720530361E-3,-5.111933947E-1
4.196842034E0,-3.563306928E-1,2.569948509E-2,-5.048018098E-1
4.199329847E0,-4.340949357E-1,3.741738573E-2,-4.994754791E-1
4.201817659E0,-5.139896870E-1,4.380896688E-2,-4.941491783E-1
4.204305472E0,-5.928192139E-1,4.487423226E-2,-4.909533858E-1
4.206793284E0,-6.705834866E-1,4.061317816E-2,-4.877575934E-1
4.209281097E0,-7.462171912E-1,3.102580272E-2,-4.845618010E-1
4.211768909E0,-8.197203875E-1,1.824264042E-2,-4.813660085E-1
4.214256722E0,-8.900277615E-1,1.198421582E-3,-4.792354703E-1
4.216744534E0,-9.550088644E-1,-2.010685205E-2,-4.760396779E-1
4.219232347E0,-1.014663577E0,-4.460791498E-2,-4.717786312E-1
4.221720159E0,-1.067926764E0,-7.123950869E-2,-4.664523304E-1
4.224207972E0,-1.112667918E0,-9.893636405E-2,-4.611259997E-1
4.226695784E0,-1.148886800E0,-1.223721579E-1,-4.547344148E-1
4.229183597E0,-1.174453139E0,-1.436774284E-1,-4.483428299E-1
4.231671409E0,-1.189366817E0,-1.607216448E-1,-4.419512451E-1
4.234159222E0,-1.190432072E0,-1.735048145E-1,-4.344944060E-1
4.236647034E0,-1.177648902E0,-1.830921918E-1,-4.259723127E-1
4.239134847E0,-1.149952054E0,-1.862879843E-1,-4.121238589E-1
4.241622659E0,-1.106276274E0,-1.852227151E-1,-3.929491341E-1
4.244110472E0,-1.048752069E0,-1.777658761E-1,-3.663175404E-1
4.246598284E0,-9.773793817E-1,-1.660479754E-1,-3.322291076E-1
4.249086097E0,-8.964193463E-1,-1.521995366E-1,-2.906838059E-1
4.251573909E0,-8.069372177E-1,-1.372858584E-1,-2.416816950E-1
4.254061722E0,-7.121287584E-1,-1.234374270E-1,-1.873532385E-1
4.256549586E0,-6.151897311E-1,-1.127847880E-1,-1.298290044E-1
4.259037451E0,-5.182507634E-1,-1.053279415E-1,-6.697845459E-2
4.261525316E0,-4.223770201E-1,-1.000016257E-1,-1.997369342E-3
4.264013180E0,-3.318296373E-1,-9.680583328E-2,6.298371404E-2
4.266501045E0,-2.466085255E-1,-9.680583328E-2,1.279647946E-1
4.268988909E0,-1.688442826E-1,-1.000016257E-1,1.897500902E-1
4.271476774E0,-9.853688627E-2,-1.042626798E-1,2.483395934E-1
4.273964638E0,-3.994738683E-2,-1.085237339E-1,3.016027808E-1
4.276452503E0,7.989477366E-3,-1.138500497E-1,3.506048918E-1
4.278940368E0,4.633896798E-2,-1.181111038E-1,3.953459561E-1
4.281428232E0,7.190529257E-2,-1.223721579E-1,4.358259737E-1
4.283916097E0,8.894951642E-2,-1.266332120E-1,4.720449448E-1
4.286403961E0,9.427583218E-2,-1.287637353E-1,5.008070469E-1
4.288891826E0,8.894951642E-2,-1.308942735E-1,5.253081322E-1
4.291379691E0,7.190529257E-2,-1.319595277E-1,5.434176326E-1
4.293867555E0,4.633896798E-2,-1.340900660E-1,5.562008023E-1
4.296355420E0,1.118526794E-2,-1.351553202E-1,5.668534040E-1
4.298843284E0,-2.929474972E-2,-1.383511126E-1,5.732449889E-1
4.301331149E0,-7.616634667E-2,-1.426121742E-1,5.764408112E-1
4.303819013E0,-1.241032109E-1,-1.458079666E-1,5.753754973E-1
4.306306878E0,-1.720400751E-1,-1.511342824E-1,5.711144805E-1
4.308794743E0,-2.167811543E-1,-1.575258672E-1,5.625923872E-1
4.311282607E0,-2.561959028E-1,-1.649827063E-1,5.498092175E-1
4.313770472E0,-2.892190814E-1,-1.756353378E-1,5.348954797E-1
4.316258336E0,-3.126548827E-1,-1.884185076E-1,5.199818015E-1
4.318746201E0,-3.265033066E-1,-2.043974549E-1,5.061333776E-1
4.321234066E0,-3.286338449E-1,-2.225069404E-1,4.954807460E-1
4.323721930E0,-3.201117218E-1,-2.395511568E-1,4.858933687E-1
4.326209795E0,-2.977411747E-1,-2.576606572E-1,4.784365296E-1
4.328697659E0,-2.657832801E-1,-2.715090811E-1,4.741754830E-1
4.331185524E0,-2.221074700E-1,-2.789659202E-1,4.709796906E-1
4.333673388E0,-1.688442826E-1,-2.800311744E-1,4.709796906E-1
4.336161253E0,-1.059937328E-1,-2.725743353E-1,4.731102288E-1
4.338649066E0,-3.781685978E-2,-2.576606572E-1,4.773712754E-1
4.341136878E0,3.462106735E-2,-2.374206334E-1,4.826975763E-1
4.343624691E0,1.102547869E-1,-2.118543088E-1,4.869586527E-1
4.346112503E0,1.848232448E-1,-1.798963994E-1,4.901544452E-1
4.348600316E0,2.551306486E-1,-1.447426975E-1,4.901544452E-1
4.351088128E0,3.201117218E-1,-1.053279415E-1,4.890891612E-1
4.353575941E0,3.776359558E-1,-6.484792382E-2,4.837628603E-1
4.356063753E0,4.277033508E-1,-2.223737910E-2,4.763059914E-1
4.358551566E0,4.681833684E-1,2.143843099E-2,4.667186439E-1
4.361039378E0,4.980107546E-1,6.404897571E-2,4.528702199E-1
4.363527191E0,5.161202550E-1,1.055942550E-1,4.379565120E-1
4.366015003E0,5.225118399E-1,1.482048035E-1,4.209122956E-1
4.368502816E0,5.171855092E-1,1.886848211E-1,4.028028250E-1
4.370990628E0,5.001412630E-1,2.259690464E-1,3.836280704E-1
4.373478441E0,4.713791609E-1,2.589922249E-1,3.644533157E-1
4.375966253E0,4.330296814E-1,2.866890728E-1,3.452785909E-1
4.378454066E0,3.850927949E-1,3.079943359E-1,3.282343447E-1
4.380941878E0,3.318296373E-1,3.261038363E-1,3.122554123E-1
4.383429691E0,2.711096108E-1,3.399522603E-1,2.962764502E-1
4.385917503E0,2.061285079E-1,3.495396376E-1,2.824280262E-1
4.388405316E0,1.379516423E-1,3.548659384E-1,2.696448565E-1
4.390893128E0,6.870950758E-2,3.559312224E-1,2.579269707E-1
4.393380941E0,5.326318205E-4,3.527354300E-1,2.472743243E-1
4.395868753E0,-6.444845349E-2,3.442133069E-1,2.387522161E-1
4.398356566E0,-1.241032109E-1,3.314301372E-1,2.323606312E-1
4.400844378E0,-1.763011366E-1,3.133206666E-1,2.291648388E-1
4.403332191E0,-2.210422009E-1,2.930806577E-1,2.302301079E-1
4.405820003E0,-2.572611570E-1,2.707101107E-1,2.323606312E-1
4.408307816E0,-2.828274965E-1,2.472743243E-1,2.398174703E-1
4.410795628E0,-2.977411747E-1,2.238385230E-1,2.515353858E-1
4.413283441E0,-3.009369671E-1,2.004027218E-1,2.675143182E-1
4.415771253E0,-2.945453823E-1,1.769669205E-1,2.909501195E-1
4.418259066E0,-2.764359117E-1,1.567269117E-1,3.218427896E-1
4.420746878E0,-2.466085255E-1,1.396826953E-1,3.591270149E-1
4.423234691E0,-2.071937770E-1,1.268995255E-1,4.028028250E-1
4.425722503E0,-1.592569202E-1,1.194426864E-1,4.518049359E-1
4.428210316E0,-1.049284711E-1,1.173121557E-1,5.050681233E-1
4.430698128E0,-4.420844093E-2,1.183774248E-1,5.593965650E-1
4.433185941E0,1.757685095E-2,1.268995255E-1,6.126597524E-1
4.435673753E0,7.723161578E-2,1.396826953E-1,6.616618633E-1
4.438161566E0,1.336905807E-1,1.545963883E-1,7.074682117E-1
4.440649378E0,1.837579757E-1,1.716406047E-1,7.468829751E-1
4.443137191E0,2.263685167E-1,1.876195520E-1,7.799061537E-1
4.445625003E0,2.604569495E-1,2.035985142E-1,8.054724932E-1
4.448112816E0,2.860232890E-1,2.174469382E-1,8.246471882E-1
4.450600628E0,3.030675054E-1,2.323606312E-1,8.374303579E-1
4.453088441E0,3.105243444E-1,2.451438010E-1,8.406261802E-1
4.455576253E0,3.083938360E-1,2.557964325E-1,8.384956717E-1
4.458064066E0,2.977411747E-1,2.643185556E-1,8.278430104E-1
4.460551878E0,2.796317041E-1,2.685796022E-1,8.118640780E-1
4.463039691E0,2.530001104E-1,2.707101107E-1,7.905587554E-1
4.465527503E0,2.210422009E-1,2.675143182E-1,7.649924755E-1
4.468015316E0,1.826927215E-1,2.589922249E-1,7.362303138E-1
4.470503128E0,1.411474347E-1,2.462090552E-1,7.042724490E-1
4.472990941E0,9.427583218E-2,2.302301079E-1,6.701840162E-1
4.475478753E0,4.740423337E-2,2.099900991E-1,6.350302696E-1
4.477966566E0,-2.663159044E-3,1.876195520E-1,5.966808200E-1
4.480454378E0,-5.060002208E-2,1.620532274E-1,5.562008023E-1
4.482942191E0,-9.534109384E-2,1.354216337E-1,5.157207847E-1
4.485430003E0,-1.336905807E-1,1.077247858E-1,4.763059914E-1
4.487917816E0,-1.645832360E-1,7.789740711E-2,4.390217662E-1
4.490405628E0,-1.848232448E-1,4.913528636E-2,4.070638716E-1
4.492893441E0,-1.933453530E-1,1.824264042E-2,3.825628161E-1
4.495381253E0,-1.912148297E-1,-1.158474199E-2,3.687143922E-1
4.497869066E0,-1.752358675E-1,-4.247738793E-2,3.665838540E-1
4.500356878E0,-1.486042738E-1,-7.230477035E-2,3.783017397E-1
4.502844743E0,-1.091895252E-1,-1.021321490E-1,4.049333334E-1
4.505332607E0,-5.912213027E-2,-1.287637353E-1,4.464786351E-1
4.507820472E0,-5.326318205E-4,-1.532648057E-1,5.008070469E-1
4.510308336E0,6.338318437E-2,-1.724395454E-1,5.647228956E-1
4.512796201E0,1.294295341E-1,-1.862879843E-1,6.350302696E-1
4.515284066E0,1.954758763E-1,-1.948100924E-1,7.064029574E-1
4.517771930E0,2.551306486E-1,-1.980058849E-1,7.777756453E-1
4.520259795E0,3.083938360E-1,-1.948100924E-1,8.427566886E-1
4.522747659E0,3.542001545E-1,-1.894837767E-1,9.013462067E-1
4.525235524E0,3.904191256E-1,-1.820269227E-1,9.503483176E-1
4.527723388E0,4.159854650E-1,-1.713742912E-1,9.886978269E-1
4.530211253E0,4.308991432E-1,-1.617869139E-1,1.017459989E0
4.532699118E0,4.351601899E-1,-1.511342824E-1,1.033438921E0
4.535186982E0,4.287686050E-1,-1.436774284E-1,1.037699938E0
4.537674847E0,4.106591344E-1,-1.415469050E-1,1.032373667E0
4.540162711E0,3.829622865E-1,-1.426121742E-1,1.018525243E0
4.542650941E0,3.456780612E-1,-1.521995366E-1,9.961546659E-1
4.545138753E0,3.009369671E-1,-1.671132296E-1,9.673925638E-1
4.547626566E0,2.508696020E-1,-1.884185076E-1,9.322388172E-1
4.550114378E0,1.965411454E-1,-2.171806246E-1,8.917587996E-1
4.552602191E0,1.400821656E-1,-2.512690723E-1,8.480830193E-1
4.555090003E0,8.468846232E-2,-2.896185517E-1,8.012114167E-1
4.557577816E0,3.142527863E-2,-3.300985694E-1,7.532745600E-1
4.560065628E0,-1.864211448E-2,-3.716438413E-1,7.042724490E-1
4.562553441E0,-6.231792271E-2,-4.099933505E-1,6.552702785E-1
4.565041253E0,-9.960214794E-2,-4.419512451E-1,6.052029133E-1
4.567529066E0,-1.294295341E-1,-4.653870463E-1,5.530049801E-1
4.570016878E0,-1.528653353E-1,-4.803007543E-1,4.997417927E-1
4.572504691E0,-1.677790284E-1,-4.856270552E-1,4.475438893E-1
4.574992503E0,-1.741705984E-1,-4.834965467E-1,3.964112401E-1
4.577480316E0,-1.720400751E-1,-4.781702161E-1,3.495396376E-1
4.579968128E0,-1.603221744E-1,-4.717786312E-1,3.111901283E-1
4.582455941E0,-1.390169114E-1,-4.643217921E-1,2.824280262E-1
4.584943753E0,-1.091895252E-1,-4.579302073E-1,2.675143182E-1
4.587431566E0,-7.190529257E-2,-4.504733682E-1,2.675143182E-1
4.589919378E0,-3.036001325E-2,-4.419512451E-1,2.824280262E-1
4.592407191E0,1.331579592E-2,-4.334291518E-1,3.090596199E-1
4.594895003E0,5.699160323E-2,-4.249070287E-1,3.474090993E-1
4.597382816E0,9.853688627E-2,-4.185154438E-1,3.953459561E-1
4.599870628E0,1.379516423E-1,-4.174501896E-1,4.496744275E-1
4.602358441E0,1.720400751E-1,-4.185154438E-1,5.082638860E-1
4.604846253E0,1.986716688E-1,-4.227765203E-1,5.668534040E-1
4.607334066E0,2.178464085E-1,-4.281028211E-1,6.233124137E-1
4.609821878E0,2.274337858E-1,-4.334291518E-1,6.755102873E-1
4.612309691E0,2.295643091E-1,-4.366249442E-1,7.213166356E-1
4.614797503E0,2.231727391E-1,-4.387554526E-1,7.617966533E-1
4.617285316E0,2.114548385E-1,-4.408859909E-1,7.948198318E-1
4.619773128E0,1.933453530E-1,-4.440817833E-1,8.203861713E-1
4.622260941E0,1.699095517E-1,-4.515386224E-1,8.384956717E-1
4.624748753E0,1.432779580E-1,-4.600607455E-1,8.480830193E-1
4.627236566E0,1.145158410E-1,-4.728438854E-1,8.491482735E-1
4.629724378E0,8.575372398E-2,-4.909533858E-1,8.438219428E-1
4.632212191E0,5.592634156E-2,-5.122586489E-1,8.321040869E-1
4.634700003E0,3.036001325E-2,-5.356944799E-1,8.139945865E-1
4.637187816E0,6.924213842E-3,-5.612607598E-1,7.926893234E-1
4.639675628E0,-1.225053146E-2,-5.868270993E-1,7.649924755E-1
4.642163441E0,-2.716422267E-2,-6.113281846E-1,7.351650596E-1
4.644651253E0,-3.888212144E-2,-6.358292103E-1,7.032071352E-1
4.647139066E0,-4.420844093E-2,-6.571345329E-1,6.691187024E-1
4.649626878E0,-4.740423337E-2,-6.773745418E-1,6.339650154E-1
4.652114691E0,-4.527370632E-2,-6.944187284E-1,5.998765826E-1
4.654602503E0,-4.101264849E-2,-7.061366439E-1,5.647228956E-1
4.657090316E0,-3.355580568E-2,-7.146587372E-1,5.306344628E-1
4.659578128E0,-2.396843210E-2,-7.157239914E-1,4.965460002E-1
4.662065941E0,-1.438105945E-2,-7.103977203E-1,4.613923132E-1
4.664553753E0,-3.728422802E-3,-6.997450590E-1,4.262386262E-1
4.667041566E0,6.924213842E-3,-6.869618893E-1,3.889544010E-1
4.669529378E0,1.757685095E-2,-6.720482111E-1,3.506048918E-1
4.672017191E0,2.716422267E-2,-6.571345329E-1,3.101248741E-1
4.674505003E0,3.888212144E-2,-6.411555409E-1,2.707101107E-1
4.676992816E0,5.060002208E-2,-6.262418628E-1,2.323606312E-1
4.679480628E0,6.551371515E-2,-6.123934388E-1,1.982721984E-1
4.681968441E0,8.362319320E-2,-6.006755233E-1,1.705753356E-1
4.684456253E0,1.027979404E-1,-5.921534300E-1,1.492700726E-1
4.686944066E0,1.251684725E-1,-5.846965909E-1,1.354216337E-1
4.689431878E0,1.464737505E-1,-5.761744976E-1,1.300953180E-1
4.691919691E0,1.656484902E-1,-5.687175989E-1,1.332911104E-1
4.694407503E0,1.848232448E-1,-5.601955056E-1,1.460742801E-1
4.696895316E0,2.029327303E-1,-5.506081581E-1,1.695100814E-1
4.699383128E0,2.178464085E-1,-5.388902426E-1,2.004027218E-1
4.701870941E0,2.295643091E-1,-5.239765644E-1,2.398174703E-1
4.704358753E0,2.380864173E-1,-5.058670640E-1,2.845585644E-1
4.706846566E0,2.402169555E-1,-4.845618010E-1,3.335606754E-1
4.709334378E0,2.359558940E-1,-4.621912539E-1,3.836280704E-1
4.711822191E0,2.274337858E-1,-4.376901984E-1,4.347607195E-1
4.714310003E0,2.093243003E-1,-4.121238589E-1,4.826975763E-1
4.716797816E0,1.837579757E-1,-3.908185959E-1,5.285038948E-1
4.719285628E0,1.518000662E-1,-3.705785871E-1,5.679186583E-1
4.721773441E0,1.134505793E-1,-3.556649089E-1,6.020070910E-1
4.724261253E0,6.870950758E-2,-3.460775316E-1,6.297039986E-1
4.726749066E0,1.864211448E-2,-3.407512009E-1,6.520745158E-1
4.729236878E0,-3.568633273E-2,-3.407512009E-1,6.680534482E-1
4.731724743E0,-9.427583218E-2,-3.418164849E-1,6.797713637E-1
4.734212607E0,-1.539305896E-1,-3.482080400E-1,6.850976944E-1
4.736700472E0,-2.125200927E-1,-3.588607013E-1,6.850976944E-1
4.739188336E0,-2.700443268E-1,-3.737743795E-1,6.787061095E-1
4.741676201E0,-3.243727684E-1,-3.929491341E-1,6.648576856E-1
4.744164066E0,-3.723096550E-1,-4.163849354E-1,6.456829309E-1
4.746651930E0,-4.127896726E-1,-4.408859909E-1,6.201165915E-1
4.749139795E0,-4.468781054E-1,-4.664523304E-1,5.881586671E-1
4.751627659E0,-4.713791609E-1,-4.909533858E-1,5.498092175E-1
4.754115524E0,-4.862928391E-1,-5.154544711E-1,5.061333776E-1
4.756603388E0,-4.916191697E-1,-5.367597342E-1,4.571312666E-1
4.759091253E0,-4.862928391E-1,-5.601955056E-1,4.049333334E-1
4.761579118E0,-4.692486227E-1,-5.815007687E-1,3.516701460E-1
4.764066982E0,-4.415517747E-1,-6.006755233E-1,2.994722426E-1
4.766554847E0,-4.021370113E-1,-6.166545153E-1,2.504701018E-1
4.769042711E0,-3.520696461E-1,-6.262418628E-1,2.046637833E-1
4.771530576E0,-2.913496196E-1,-6.305029392E-1,1.673795432E-1
4.774018441E0,-2.221074700E-1,-6.294376254E-1,1.375521719E-1
4.776506305E0,-1.464737505E-1,-6.209155321E-1,1.162468940E-1
4.778994170E0,-6.764423847E-2,-6.081323624E-1,1.034637317E-1
4.781482034E0,1.331579592E-2,-5.889576077E-1,9.600688517E-2
4.783969899E0,9.001477808E-2,-5.665870905E-1,9.600688517E-2
4.786457763E0,1.656484902E-1,-5.431513190E-1,1.013332009E-1
4.788945628E0,2.316948473E-1,-5.175849795E-1,1.141163707E-1
4.791433493E0,2.913496196E-1,-4.930838943E-1,1.311605871E-1
4.793921357E0,3.392864764E-1,-4.696480930E-1,1.535311192E-1
4.796409222E0,3.755054474E-1,-4.483428299E-1,1.780321896E-1
4.798897086E0,3.989412189E-1,-4.302333593E-1,2.046637833E-1
4.801384951E0,4.117243886E-1,-4.153196514E-1,2.334259003E-1
4.803872816E0,4.117243886E-1,-4.036017656E-1,2.632532716E-1
4.806360680E0,4.010717571E-1,-3.940143883E-1,2.930806577E-1
4.808848545E0,3.776359558E-1,-3.876228034E-1,3.239732981E-1
4.811336409E0,3.446127772E-1,-3.844270110E-1,3.527354300E-1
4.813824274E0,3.030675054E-1,-3.833617568E-1,3.793670237E-1
4.816312138E0,2.540653646E-1,-3.854922652E-1,4.028028250E-1
4.818800003E0,1.997369379E-1,-3.897533417E-1,4.230428338E-1
4.821287868E0,1.443432271E-1,-3.961449265E-1,4.400870502E-1
4.823775680E0,8.681898564E-2,-4.014712274E-1,4.528702199E-1
4.826263493E0,3.142527863E-2,-4.078628123E-1,4.603270590E-1
4.828751305E0,-1.970737800E-2,-4.110586047E-1,4.624575675E-1
4.831239118E0,-6.551371515E-2,-4.153196514E-1,4.603270590E-1
4.833726930E0,-1.049284711E-1,-4.174501896E-1,4.528702199E-1
4.836214743E0,-1.368863732E-1,-4.227765203E-1,4.400870502E-1
4.838702555E0,-1.613874435E-1,-4.281028211E-1,4.219775498E-1
4.841190368E0,-1.794969290E-1,-4.355596602E-1,4.006722867E-1
4.843678180E0,-1.890842915E-1,-4.430165291E-1,3.751059473E-1
4.846165993E0,-1.922800839E-1,-4.504733682E-1,3.463438451E-1
4.848653805E0,-1.869537681E-1,-4.579302073E-1,3.143859208E-1
4.851141618E0,-1.741705984E-1,-4.653870463E-1,2.802974880E-1
4.853629430E0,-1.539305896E-1,-4.728438854E-1,2.440785319E-1
4.856117243E0,-1.272990108E-1,-4.803007543E-1,2.078595608E-1
4.858605055E0,-9.214530140E-2,-4.866923392E-1,1.716406047E-1
4.861092868E0,-5.060002208E-2,-4.930838943E-1,1.386174262E-1
4.863580680E0,-2.663159044E-3,-4.984102249E-1,1.098553166E-1
4.866068493E0,5.166528746E-2,-5.026713014E-1,8.535424620E-2
4.868556305E0,1.091895252E-1,-5.069323182E-1,6.831002980E-2
4.871044118E0,1.688442826E-1,-5.111933947E-1,5.765739456E-2
4.873531930E0,2.295643091E-1,-5.143891573E-1,5.446160212E-2
4.876019743E0,2.892190814E-1,-5.165197253E-1,5.446160212E-2
4.878507555E0,3.456780612E-1,-5.186502337E-1,5.872265995E-2
4.880995368E0,4.000065029E-1,-5.207807422E-1,6.831002980E-2
4.883483180E0,4.490086138E-1,-5.218459964E-1,8.002793044E-2
4.885970993E0,4.926844239E-1,-5.229113102E-1,9.387636185E-2
4.888458805E0,5.299686790E-1,-5.229113102E-1,1.087900475E-1
4.890946618E0,5.608612895E-1,-5.250418186E-1,1.258342713E-1
4.893434430E0,5.853623748E-1,-5.271723270E-1,1.439437568E-1
4.895922243E0,6.034718752E-1,-5.293028951E-1,1.609879732E-1
4.898410055E0,6.151897311E-1,-5.314334035E-1,1.759016514E-1
4.900897868E0,6.205160618E-1,-5.335639119E-1,1.897500902E-1
4.903385680E0,6.237118840E-1,-5.378249884E-1,1.972069293E-1
4.905873493E0,6.215813160E-1,-5.420860648E-1,2.014679909E-1
4.908361305E0,6.173202991E-1,-5.484775901E-1,2.004027218E-1
4.910849118E0,6.119939685E-1,-5.527386665E-1,1.961416751E-1
4.913336930E0,6.056023836E-1,-5.548691750E-1,1.865542978E-1
4.915824743E0,5.970802903E-1,-5.538039207E-1,1.727058738E-1
4.918312555E0,5.874928832E-1,-5.474123359E-1,1.556616426E-1
4.920800368E0,5.768402815E-1,-5.367597342E-1,1.343563795E-1
4.923288180E0,5.629918575E-1,-5.229113102E-1,1.109205782E-1
4.925775993E0,5.491434336E-1,-5.058670640E-1,8.322372288E-2
4.928263805E0,5.331644416E-1,-4.888228476E-1,5.339634046E-2
4.930751618E0,5.150549412E-1,-4.707133770E-1,2.356895804E-2
4.933239430E0,4.937497079E-1,-4.536691606E-1,-9.454214945E-3
4.935727243E0,4.703139067E-1,-4.376901984E-1,-4.141212255E-2
4.938215055E0,4.458128214E-1,-4.259723127E-1,-7.337003201E-2
4.940702868E0,4.191812575E-1,-4.174501896E-1,-1.042626798E-1
4.943190680E0,3.946801722E-1,-4.110586047E-1,-1.340900660E-1
4.945678493E0,3.701791167E-1,-4.078628123E-1,-1.617869139E-1
4.948166305E0,3.478085697E-1,-4.057323039E-1,-1.862879843E-1
4.950654118E0,3.265033066E-1,-4.057323039E-1,-2.054627240E-1
4.953141930E0,3.073285520E-1,-4.067975581E-1,-2.182458937E-1
4.955629743E0,2.902843356E-1,-4.099933505E-1,-2.246374637E-1
4.958117555E0,2.764359117E-1,-4.110586047E-1,-2.246374637E-1
4.960605368E0,2.636527419E-1,-4.110586047E-1,-2.193111479E-1
4.963093180E0,2.519348562E-1,-4.099933505E-1,-2.075932473E-1
4.965580993E0,2.423474789E-1,-4.057323039E-1,-1.916143000E-1
