"Time (s)","Gyroscope x (rad/s)","Gyroscope y (rad/s)","Gyroscope z (rad/s)"
8.947911800E-2,5.379581451E-2,-1.607216448E-1,-4.141212255E-2
9.202911800E-2,6.764423847E-2,-1.564605981E-1,-3.821633384E-2
9.457911800E-2,8.575372398E-2,-1.511342824E-1,-3.502054140E-2
9.712911800E-2,1.059937328E-1,-1.426121742E-1,-3.289001435E-2
9.967911800E-2,1.272990108E-1,-1.319595277E-1,-3.182475269E-2
1.022291180E-1,1.518000662E-1,-1.191763729E-1,-3.182475269E-2
1.047791180E-1,1.763011366E-1,-1.042626798E-1,-3.182475269E-2
1.073291180E-1,2.008021921E-1,-8.828372508E-2,-3.395527974E-2
1.098791180E-1,2.263685167E-1,-7.337003201E-2,-3.928159550E-2
1.124291180E-1,2.508696020E-1,-5.526055023E-2,-4.567318037E-2
1.149791180E-1,2.753706574E-1,-3.821633384E-2,-5.419528857E-2
1.175291180E-1,2.988064587E-1,-2.010685205E-2,-6.378266215E-2
1.200791180E-1,3.211769760E-1,-4.127896391E-3,-7.443529367E-2
1.226291180E-1,3.403517306E-1,9.720530361E-3,-8.615319431E-2
1.251791180E-1,3.584612012E-1,2.143843099E-2,-9.787109494E-2
1.277291180E-1,3.733749092E-1,3.209106624E-2,-1.106542572E-1
1.302791180E-1,3.872233331E-1,3.741738573E-2,-1.223721579E-1
1.328291180E-1,3.968107104E-1,3.954791278E-2,-1.330247968E-1
1.353791180E-1,4.053328037E-1,3.848264739E-2,-1.436774284E-1
1.379291180E-1,4.106591344E-1,3.315633163E-2,-1.532648057E-1
1.404791180E-1,4.149201810E-1,2.463422157E-2,-1.617869139E-1
1.430291180E-1,4.159854650E-1,1.185105834E-2,-1.692437679E-1
1.455791180E-1,4.149201810E-1,-4.127896391E-3,-1.767006069E-1
1.481291180E-1,4.117243886E-1,-2.117211558E-2,-1.830921918E-1
1.506791180E-1,4.063980877E-1,-4.247738793E-2,-1.873532385E-1
1.532291180E-1,3.989412189E-1,-6.591318548E-2,-1.916143000E-1
1.557791180E-1,3.904191256E-1,-9.041424841E-2,-1.937448233E-1
1.583291180E-1,3.797664940E-1,-1.149153188E-1,-1.948100924E-1
1.608791180E-1,3.691138625E-1,-1.394163817E-1,-1.948100924E-1
1.634291180E-1,3.563306928E-1,-1.628521830E-1,-1.926795542E-1
1.659791180E-1,3.424822688E-1,-1.852227151E-1,-1.894837767E-1
1.685291180E-1,3.296990991E-1,-2.054627240E-1,-1.841574460E-1
1.710791180E-1,3.158506751E-1,-2.246374637E-1,-1.767006069E-1
1.736244300E-1,3.020022511E-1,-2.395511568E-1,-1.681784987E-1
1.761121390E-1,2.892190814E-1,-2.512690723E-1,-1.575258672E-1
1.785998470E-1,2.764359117E-1,-2.608564198E-1,-1.458079666E-1
1.810875550E-1,2.657832801E-1,-2.683132887E-1,-1.330247968E-1
1.835752640E-1,2.561959028E-1,-2.747048736E-1,-1.191763729E-1
1.860629720E-1,2.476737946E-1,-2.800311744E-1,-1.021321490E-1
1.885506800E-1,2.402169555E-1,-2.832269669E-1,-8.508793265E-2
1.910383370E-1,2.348906398E-1,-2.842922211E-1,-6.484792382E-2
1.935259930E-1,2.306295782E-1,-2.853575051E-1,-4.354264960E-2
1.960136490E-1,2.284990549E-1,-2.842922211E-1,-2.223737910E-2
1.985013050E-1,2.263685167E-1,-2.810964286E-1,1.331579551E-4
2.009889620E-1,2.253032625E-1,-2.736395895E-1,2.037316747E-2
2.034766180E-1,2.242379934E-1,-2.619217038E-1,4.167843983E-2
2.059642740E-1,2.263685167E-1,-2.470080107E-1,6.191844866E-2
2.084519300E-1,2.274337858E-1,-2.278332561E-1,8.002793044E-2
2.109395870E-1,2.295643091E-1,-2.054627240E-1,9.813741595E-2
2.134272430E-1,2.316948473E-1,-1.798963994E-1,1.151816323E-1
2.159148990E-1,2.338253707E-1,-1.521995366E-1,1.311605871E-1
2.184025550E-1,2.370211631E-1,-1.245026886E-1,1.450090110E-1
2.208902120E-1,2.402169555E-1,-9.574057162E-2,1.577921808E-1
2.233778680E-1,2.434127480E-1,-6.591318548E-2,1.684448123E-1
2.258655240E-1,2.444780022E-1,-3.608580679E-2,1.780321896E-1
2.283531800E-1,2.455432713E-1,-7.323687430E-3,1.865542978E-1
2.308408370E-1,2.466085255E-1,2.037316747E-2,1.929458827E-1
2.333284930E-1,2.455432713E-1,4.807002097E-2,1.972069293E-1
2.358161490E-1,2.434127480E-1,7.363634557E-2,2.004027218E-1
2.383038050E-1,2.391516864E-1,9.707214683E-2,2.014679909E-1
2.407914620E-1,2.338253707E-1,1.194426864E-1,2.025332451E-1
2.432791180E-1,2.274337858E-1,1.386174262E-1,2.014679909E-1
2.457667740E-1,2.178464085E-1,1.545963883E-1,2.014679909E-1
2.482544300E-1,2.071937770E-1,1.663142890E-1,2.004027218E-1
2.507420870E-1,1.933453530E-1,1.759016514E-1,1.993374527E-1
2.532297430E-1,1.794969290E-1,1.812279820E-1,1.993374527E-1
2.557173990E-1,1.635179669E-1,1.844237745E-1,1.982721984E-1
2.582050550E-1,1.454084814E-1,1.844237745E-1,1.982721984E-1
2.606927120E-1,1.272990108E-1,1.801627129E-1,1.993374527E-1
2.631804200E-1,1.091895252E-1,1.737711281E-1,1.993374527E-1
2.656681280E-1,9.001477808E-2,1.641837656E-1,2.004027218E-1
2.681558370E-1,7.190529257E-2,1.535311192E-1,2.035985142E-1
2.706435450E-1,5.273054913E-2,1.396826953E-1,2.067943066E-1
2.731312530E-1,3.568633273E-2,1.258342713E-1,2.110553533E-1
2.756189620E-1,1.864211448E-2,1.109205782E-1,2.163816839E-1
2.781066700E-1,3.728422802E-3,9.494162351E-2,2.227732539E-1
2.805943780E-1,-9.054740891E-3,7.789740711E-2,2.280995846E-1
2.830820870E-1,-1.970737800E-2,6.298371404E-2,2.344911546E-1
2.855697950E-1,-2.822948620E-2,4.913528636E-2,2.387522161E-1
2.880575030E-1,-3.355580568E-2,3.741738573E-2,2.430132627E-1
2.905452120E-1,-3.781685978E-2,2.889527567E-2,2.451438010E-1
2.930329200E-1,-3.994738683E-2,2.356895804E-2,2.462090552E-1
2.955206280E-1,-3.994738683E-2,1.930790395E-2,2.451438010E-1
2.980083370E-1,-3.781685978E-2,1.717737690E-2,2.430132627E-1
3.004960450E-1,-3.462106735E-2,1.504684892E-2,2.387522161E-1
3.029837530E-1,-3.142527863E-2,1.185105834E-2,2.334259003E-1
3.054714620E-1,-2.716422267E-2,7.590003312E-3,2.259690464E-1
3.079591700E-1,-2.290316857E-2,3.328948980E-3,2.174469382E-1
3.104468780E-1,-1.864211448E-2,-1.997369342E-3,2.089248300E-1
3.129345870E-1,-1.544632297E-2,-6.258423906E-3,1.993374527E-1
3.154222950E-1,-1.225053146E-2,-1.158474199E-2,1.897500902E-1
3.179100030E-1,-9.054740891E-3,-1.584579609E-2,1.801627129E-1
3.203977120E-1,-6.924213842E-3,-1.797632314E-2,1.716406047E-1
3.228854200E-1,-5.858949851E-3,-1.797632314E-2,1.641837656E-1
3.253731280E-1,-3.728422802E-3,-1.584579609E-2,1.545963883E-1
3.278608370E-1,-3.728422802E-3,-1.158474199E-2,1.482048035E-1
3.303485450E-1,-1.597895520E-3,-5.193160381E-3,1.407479644E-1
3.328362530E-1,-2.663159044E-3,3.328948980E-3,1.343563795E-1
3.353239620E-1,-3.728422802E-3,1.291632187E-2,1.268995255E-1
3.378116700E-1,-3.728422802E-3,2.250369452E-2,1.226384789E-1
3.402993780E-1,-4.793686327E-3,3.102580272E-2,1.183774248E-1
3.427870870E-1,-6.924213842E-3,3.848264739E-2,1.162468940E-1
3.452747950E-1,-9.054740891E-3,4.380896688E-2,1.151816323E-1
3.477625030E-1,-1.118526794E-2,4.807002097E-2,1.151816323E-1
3.502502120E-1,-1.331579592E-2,5.020054802E-2,1.173121557E-1
3.527379200E-1,-1.544632297E-2,5.020054802E-2,1.205079481E-1
3.552256280E-1,-1.864211448E-2,4.913528636E-2,1.247690022E-1
3.577133370E-1,-2.077264152E-2,4.807002097E-2,1.300953180E-1
3.602010450E-1,-2.503369562E-2,4.380896688E-2,1.354216337E-1
3.626887530E-1,-2.929474972E-2,3.954791278E-2,1.428784877E-1
3.651764620E-1,-3.355580568E-2,3.422159329E-2,1.503353268E-1
3.676641700E-1,-3.781685978E-2,2.889527567E-2,1.577921808E-1
3.701518780E-1,-4.207791388E-2,2.356895804E-2,1.641837656E-1
3.726395870E-1,-4.527370632E-2,1.611211337E-2,1.727058738E-1
3.751272950E-1,-4.953476042E-2,9.720530361E-3,1.780321896E-1
3.776150030E-1,-5.379581451E-2,3.328948980E-3,1.854890287E-1
3.801027120E-1,-5.805686861E-2,-3.062632866E-3,1.929458827E-1
3.825904200E-1,-6.231792271E-2,-8.388951421E-3,2.014679909E-1
3.850781280E-1,-6.657897681E-2,-1.478053257E-2,2.089248300E-1
3.875658370E-1,-7.190529257E-2,-2.010685205E-2,2.174469382E-1
3.900535450E-1,-7.829687744E-2,-2.543316968E-2,2.259690464E-1
3.925412530E-1,-8.362319320E-2,-3.075948730E-2,2.344911546E-1
3.950289620E-1,-8.894951642E-2,-3.608580679E-2,2.440785319E-1
3.975166700E-1,-9.534109384E-2,-4.034686089E-2,2.526006401E-1
4.000043780E-1,-1.017326787E-1,-4.354264960E-2,2.600574791E-1
4.024920870E-1,-1.081242561E-1,-4.673844203E-2,2.675143182E-1
4.049797950E-1,-1.145158410E-1,-4.886896908E-2,2.739059031E-1
4.074675030E-1,-1.219726875E-1,-4.993423447E-2,2.792322338E-1
4.099552120E-1,-1.283642650E-1,-4.886896908E-2,2.834932804E-1
4.124429200E-1,-1.347558498E-1,-4.780370742E-2,2.866890728E-1
4.149306280E-1,-1.411474347E-1,-4.567318037E-2,2.898848653E-1
4.174183370E-1,-1.454084814E-1,-4.247738793E-2,2.920154035E-1
4.199060450E-1,-1.496695429E-1,-3.821633384E-2,2.930806577E-1
4.223937530E-1,-1.539305896E-1,-3.502054140E-2,2.930806577E-1
4.248814620E-1,-1.571263820E-1,-3.075948730E-2,2.909501195E-1
4.273691700E-1,-1.592569202E-1,-2.649843320E-2,2.877543271E-1
4.298568780E-1,-1.603221744E-1,-2.330264263E-2,2.845585644E-1
4.323445870E-1,-1.613874435E-1,-2.010685205E-2,2.802974880E-1
4.348322950E-1,-1.603221744E-1,-1.797632314E-2,2.749711871E-1
4.373200030E-1,-1.581916511E-1,-1.691105962E-2,2.685796022E-1
4.398077120E-1,-1.571263820E-1,-1.691105962E-2,2.611227632E-1
4.422954200E-1,-1.549958587E-1,-1.691105962E-2,2.526006401E-1
4.447831280E-1,-1.518000662E-1,-1.904158667E-2,2.430132627E-1
4.472708370E-1,-1.486042738E-1,-2.117211558E-2,2.344911546E-1
4.497585450E-1,-1.443432271E-1,-2.436790615E-2,2.249037921E-1
4.522462530E-1,-1.390169114E-1,-2.969422378E-2,2.142511457E-1
4.547339620E-1,-1.326253265E-1,-3.608580679E-2,2.046637833E-1
4.572216700E-1,-1.262337416E-1,-4.354264960E-2,1.940111369E-1
4.597093780E-1,-1.187768951E-1,-5.099949613E-2,1.844237745E-1
4.621970870E-1,-1.102547869E-1,-5.845634267E-2,1.737711281E-1
4.646847950E-1,-1.006674170E-1,-6.591318548E-2,1.631184965E-1
4.671725030E-1,-9.108003974E-2,-7.443529367E-2,1.535311192E-1
4.696602120E-1,-8.042740822E-2,-8.189214021E-2,1.428784877E-1
4.721479200E-1,-6.977476925E-2,-8.934898674E-2,1.322258562E-1
4.746356280E-1,-5.699160323E-2,-9.574057162E-2,1.215732098E-1
4.771233370E-1,-4.527370632E-2,-1.000016257E-1,1.130511016E-1
4.796110450E-1,-3.355580568E-2,-1.031974182E-1,1.055942550E-1
4.820987530E-1,-2.290316857E-2,-1.053279415E-1,9.813741595E-2
4.845864620E-1,-1.225053146E-2,-1.063932031E-1,9.174583107E-2
4.870741700E-1,-1.597895520E-3,-1.063932031E-1,8.535424620E-2
4.895618780E-1,6.924213842E-3,-1.053279415E-1,8.109319210E-2
4.920495870E-1,1.438105945E-2,-1.042626798E-1,7.683213800E-2
4.945372950E-1,2.183790505E-2,-1.021321490E-1,7.470161468E-2
4.970250030E-1,2.822948620E-2,-1.000016257E-1,7.257108390E-2
4.995127120E-1,3.355580568E-2,-9.574057162E-2,7.150582224E-2
5.020004200E-1,3.675159439E-2,-9.254477918E-2,7.150582224E-2
5.044881280E-1,3.888212144E-2,-8.828372508E-2,7.150582224E-2
5.069758370E-1,3.994738683E-2,-8.189214021E-2,7.257108390E-2
5.094635450E-1,3.994738683E-2,-7.550056279E-2,7.470161468E-2
5.119512530E-1,3.781685978E-2,-6.804371625E-2,7.576687634E-2
5.144389620E-1,3.462106735E-2,-5.952160433E-2,7.683213800E-2
5.169266700E-1,2.929474972E-2,-5.099949613E-2,7.789740711E-2
5.194143780E-1,2.290316857E-2,-4.034686089E-2,7.896266878E-2
5.219020870E-1,1.438105945E-2,-3.075948730E-2,7.896266878E-2
5.243897950E-1,5.858949851E-3,-2.117211558E-2,7.896266878E-2
5.268775030E-1,-4.793686327E-3,-1.265000552E-2,7.896266878E-2
5.293652120E-1,-1.651158556E-2,-5.193160381E-3,7.896266878E-2
5.318529200E-1,-2.716422267E-2,4.394212738E-3,7.896266878E-2
5.343406280E-1,-3.994738683E-2,1.398158539E-2,7.789740711E-2
5.368283370E-1,-5.592634156E-2,2.996053919E-2,7.896266878E-2
5.393160450E-1,-7.403582335E-2,4.593949392E-2,8.109319210E-2
5.418037530E-1,-9.321057051E-2,5.765739456E-2,8.322372288E-2
5.442914620E-1,-1.123853177E-1,6.617950648E-2,8.428898454E-2
5.467791700E-1,-1.304948032E-1,7.150582224E-2,8.322372288E-2
5.492668780E-1,-1.496695429E-1,7.363634557E-2,8.109319210E-2
5.517545870E-1,-1.688442826E-1,7.470161468E-2,7.576687634E-2
5.542422950E-1,-1.869537681E-1,7.470161468E-2,6.831002980E-2
5.567300030E-1,-2.050632536E-1,7.363634557E-2,6.085318699E-2
5.592177120E-1,-2.242379934E-1,7.150582224E-2,5.233107507E-2
5.617054200E-1,-2.423474789E-1,6.937529147E-2,4.487423226E-2
5.641931280E-1,-2.604569495E-1,6.831002980E-2,3.741738573E-2
5.666808370E-1,-2.775011659E-1,6.724476814E-2,3.102580272E-2
5.691685450E-1,-2.956106663E-1,6.511423737E-2,2.569948509E-2
5.716562530E-1,-3.126548827E-1,6.298371404E-2,2.037316747E-2
5.741439620E-1,-3.296990991E-1,6.298371404E-2,1.504684892E-2
5.766316700E-1,-3.467433155E-1,6.298371404E-2,9.720530361E-3
5.791193780E-1,-3.637875319E-1,6.404897571E-2,3.328948980E-3
5.816070870E-1,-3.808317482E-1,6.511423737E-2,-6.258423906E-3
5.840947950E-1,-3.957454562E-1,6.617950648E-2,-1.478053257E-2
5.865825030E-1,-4.106591344E-1,6.724476814E-2,-2.436790615E-2
5.890702120E-1,-4.266380966E-1,6.617950648E-2,-3.395527974E-2
5.915579200E-1,-4.404865205E-1,6.404897571E-2,-4.460791498E-2
5.940456280E-1,-4.543349445E-1,6.085318699E-2,-5.419528857E-2
5.965333370E-1,-4.660528302E-1,5.659212917E-2,-6.271740049E-2
5.990210450E-1,-4.777707458E-1,5.126581341E-2,-7.123950869E-2
6.015087530E-1,-4.894886315E-1,4.593949392E-2,-7.869634777E-2
6.039964620E-1,-4.980107546E-1,3.954791278E-2,-8.508793265E-2
6.064841180E-1,-5.054675937E-1,3.209106624E-2,-9.147951752E-2
6.089717740E-1,-5.118591785E-1,2.250369452E-2,-9.574057162E-2
6.114594300E-1,-5.161202550E-1,1.185105834E-2,-9.893636405E-2
6.139470870E-1,-5.182507634E-1,-9.321057005E-4,-1.010668874E-1
6.164347430E-1,-5.193160176E-1,-1.371526904E-2,-1.010668874E-1
6.189223990E-1,-5.182507634E-1,-2.543316968E-2,-1.000016257E-1
6.214100550E-1,-5.161202550E-1,-3.608580679E-2,-9.680583328E-2
6.238977120E-1,-5.118591785E-1,-4.460791498E-2,-9.361004084E-2
6.263853680E-1,-5.044023395E-1,-5.419528857E-2,-8.828372508E-2
6.288730240E-1,-4.958802164E-1,-6.271740049E-2,-8.189214021E-2
6.313606800E-1,-4.841623306E-1,-7.337003201E-2,-7.443529367E-2
6.338483370E-1,-4.681833684E-1,-8.295740932E-2,-6.697845459E-2
6.363359930E-1,-4.511391521E-1,-9.041424841E-2,-5.952160433E-2
6.388236490E-1,-4.308991432E-1,-9.787109494E-2,-5.099949613E-2
6.413113050E-1,-4.074633420E-1,-1.042626798E-1,-4.141212255E-2
6.437989620E-1,-3.808317482E-1,-1.085237339E-1,-3.182475269E-2
6.462866180E-1,-3.531349003E-1,-1.117195264E-1,-2.117211558E-2
6.487742740E-1,-3.243727684E-1,-1.127847880E-1,-1.051947847E-2
6.512619300E-1,-2.945453823E-1,-1.127847880E-1,1.331579551E-4
6.537495870E-1,-2.625874877E-1,-1.106542572E-1,1.185105834E-2
6.562372430E-1,-2.316948473E-1,-1.095889956E-1,2.356895804E-2
6.587248990E-1,-2.008021921E-1,-1.063932031E-1,3.422159329E-2
6.612125550E-1,-1.709748209E-1,-1.042626798E-1,4.380896688E-2
6.637002120E-1,-1.422126889E-1,-1.021321490E-1,5.339634046E-2
6.661878680E-1,-1.155811027E-1,-1.010668874E-1,6.085318699E-2
6.686755240E-1,-9.214530140E-2,-1.000016257E-1,6.724476814E-2
6.711631800E-1,-6.870950758E-2,-1.010668874E-1,7.363634557E-2
6.736508370E-1,-4.953476042E-2,-1.042626798E-1,7.896266878E-2
6.761384930E-1,-3.249054030E-2,-1.095889956E-1,8.322372288E-2
6.786262010E-1,-1.864211448E-2,-1.170458421E-1,8.641951531E-2
6.811139100E-1,-6.924213842E-3,-1.255679578E-1,8.961530030E-2
6.836016180E-1,1.597895520E-3,-1.340900660E-1,9.068056941E-2
6.860893260E-1,6.924213842E-3,-1.447426975E-1,9.281109273E-2
6.885770350E-1,9.054740891E-3,-1.553953290E-1,9.281109273E-2
6.910647430E-1,1.012000442E-2,-1.671132296E-1,9.281109273E-2
6.935524510E-1,7.989477366E-3,-1.788311303E-1,9.174583107E-2
6.960401600E-1,4.793686327E-3,-1.926795542E-1,9.068056941E-2
6.985278680E-1,-5.326318205E-4,-2.054627240E-1,8.748477697E-2
7.010155760E-1,-6.924213842E-3,-2.203764170E-1,8.535424620E-2
7.035032850E-1,-1.438105945E-2,-2.352901101E-1,8.002793044E-2
7.059909930E-1,-2.290316857E-2,-2.502037883E-1,7.576687634E-2
7.084787010E-1,-3.249054030E-2,-2.640522122E-1,7.044056058E-2
7.109664100E-1,-3.994738683E-2,-2.779006660E-1,6.511423737E-2
7.134541180E-1,-4.953476042E-2,-2.917490900E-1,5.978792161E-2
7.159418260E-1,-5.912213027E-2,-3.034669757E-1,5.339634046E-2
7.184295350E-1,-6.870950758E-2,-3.141196072E-1,4.807002097E-2
7.209172430E-1,-7.616634667E-2,-3.247722387E-1,4.274370521E-2
7.234049510E-1,-8.468846232E-2,-3.343596160E-1,3.848264739E-2
7.258926600E-1,-9.214530140E-2,-3.428817391E-1,3.422159329E-2
7.283803680E-1,-9.853688627E-2,-3.503385782E-1,2.996053919E-2
7.308680760E-1,-1.038632020E-1,-3.588607013E-1,2.783001214E-2
7.333557850E-1,-1.091895252E-1,-3.652522564E-1,2.676474862E-2
7.358434930E-1,-1.113200486E-1,-3.727091253E-1,2.676474862E-2
7.383312010E-1,-1.134505793E-1,-3.791007102E-1,2.783001214E-2
7.408189100E-1,-1.145158410E-1,-3.854922652E-1,2.996053919E-2
7.433066180E-1,-1.123853177E-1,-3.908185959E-1,3.209106624E-2
7.457943260E-1,-1.081242561E-1,-3.961449265E-1,3.528685868E-2
7.482820350E-1,-1.027979404E-1,-4.004059732E-1,3.954791278E-2
7.507697430E-1,-9.640636295E-2,-4.046670198E-1,4.380896688E-2
7.532574510E-1,-8.681898564E-2,-4.067975581E-1,4.700475931E-2
7.557451600E-1,-7.723161578E-2,-4.099933505E-1,5.020054802E-2
7.582328680E-1,-6.551371515E-2,-4.110586047E-1,5.446160212E-2
7.607205760E-1,-5.166528746E-2,-4.110586047E-1,5.765739456E-2
7.632082850E-1,-3.781685978E-2,-4.078628123E-1,5.978792161E-2
7.656959930E-1,-2.183790505E-2,-4.046670198E-1,6.298371404E-2
7.681837010E-1,-3.728422802E-3,-4.014712274E-1,6.511423737E-2
7.706714100E-1,1.544632297E-2,-3.961449265E-1,6.724476814E-2
7.731591180E-1,3.462106735E-2,-3.897533417E-1,7.044056058E-2
7.756468260E-1,5.486107618E-2,-3.833617568E-1,7.257108390E-2
7.781345350E-1,7.510108501E-2,-3.759049177E-1,7.363634557E-2
7.806222430E-1,9.640636295E-2,-3.684480488E-1,7.470161468E-2
7.831099510E-1,1.166463718E-1,-3.599259555E-1,7.470161468E-2
7.855976600E-1,1.368863732E-1,-3.503385782E-1,7.363634557E-2
7.880853680E-1,1.549958587E-1,-3.407512009E-1,7.257108390E-2
7.905730760E-1,1.720400751E-1,-3.279680312E-1,7.044056058E-2
7.930607850E-1,1.858884990E-1,-3.173153996E-1,6.724476814E-2
7.955484930E-1,1.986716688E-1,-3.045322299E-1,6.298371404E-2
7.980362010E-1,2.071937770E-1,-2.917490900E-1,5.872265995E-2
8.005239100E-1,2.146506310E-1,-2.800311744E-1,5.233107507E-2
8.030116180E-1,2.178464085E-1,-2.672480047E-1,4.700475931E-2
8.054993260E-1,2.178464085E-1,-2.544648647E-1,3.954791278E-2
8.079870350E-1,2.135853618E-1,-2.427469492E-1,3.209106624E-2
8.104747430E-1,2.061285079E-1,-2.299637944E-1,2.356895804E-2
8.129624510E-1,1.944106072E-1,-2.193111479E-1,1.611211337E-2
8.154501600E-1,1.773663908E-1,-2.097237855E-1,8.655266836E-3
8.179378680E-1,1.571263820E-1,-2.012016773E-1,1.198421582E-3
8.204255760E-1,1.336905807E-1,-1.948100924E-1,-4.127896391E-3
8.229132850E-1,1.059937328E-1,-1.905490309E-1,-9.454214945E-3
8.254009930E-1,7.616634667E-2,-1.862879843E-1,-1.371526904E-2
8.278887010E-1,4.420844093E-2,-1.852227151E-1,-1.478053257E-2
8.303764100E-1,1.118526794E-2,-1.841574460E-1,-1.584579609E-2
8.328641180E-1,-2.396843210E-2,-1.841574460E-1,-1.371526904E-2
8.353518260E-1,-6.018739566E-2,-1.852227151E-1,-1.158474199E-2
8.378395350E-1,-9.640636295E-2,-1.884185076E-1,-9.454214945E-3
8.403272430E-1,-1.326253265E-1,-1.916143000E-1,-5.193160381E-3
8.428149510E-1,-1.688442826E-1,-1.969406158E-1,-1.997369342E-3
8.453026600E-1,-2.029327303E-1,-2.022669315E-1,3.328948980E-3
8.477903680E-1,-2.380864173E-1,-2.075932473E-1,7.590003312E-3
8.502780760E-1,-2.700443268E-1,-2.139848322E-1,1.398158539E-2
8.527657850E-1,-2.998717129E-1,-2.203764170E-1,1.930790395E-2
8.552534930E-1,-3.275685608E-1,-2.257027328E-1,2.676474862E-2
8.577412010E-1,-3.531349003E-1,-2.320943177E-1,3.422159329E-2
8.602289100E-1,-3.765707016E-1,-2.374206334E-1,4.167843983E-2
8.627166180E-1,-3.946801722E-1,-2.427469492E-1,4.807002097E-2
8.652043260E-1,-4.106591344E-1,-2.470080107E-1,5.659212917E-2
8.676920350E-1,-4.223770201E-1,-2.512690723E-1,6.404897571E-2
8.701797430E-1,-4.287686050E-1,-2.533995807E-1,7.150582224E-2
8.726674510E-1,-4.319643974E-1,-2.544648647E-1,8.002793044E-2
8.751551600E-1,-4.298338890E-1,-2.533995807E-1,8.748477697E-2
8.776428680E-1,-4.234423041E-1,-2.502037883E-1,9.494162351E-2
8.801305760E-1,-4.127896726E-1,-2.448774725E-1,1.034637317E-1
8.826182850E-1,-3.989412189E-1,-2.374206334E-1,1.119858399E-1
8.851059930E-1,-3.818970025E-1,-2.278332561E-1,1.205079481E-1
8.875937010E-1,-3.616569936E-1,-2.171806246E-1,1.279647946E-1
8.900814100E-1,-3.382211924E-1,-2.043974549E-1,1.364869028E-1
8.925691180E-1,-3.126548827E-1,-1.916143000E-1,1.439437568E-1
8.950568260E-1,-2.860232890E-1,-1.777658761E-1,1.524658650E-1
8.975445350E-1,-2.583264410E-1,-1.639174372E-1,1.609879732E-1
9.000322430E-1,-2.295643091E-1,-1.511342824E-1,1.684448123E-1
9.025199510E-1,-2.008021921E-1,-1.394163817E-1,1.748363972E-1
9.050076600E-1,-1.741705984E-1,-1.287637353E-1,1.801627129E-1
9.074953680E-1,-1.464737505E-1,-1.202416345E-1,1.844237745E-1
9.099830760E-1,-1.209074259E-1,-1.127847880E-1,1.865542978E-1
9.124707850E-1,-9.747162461E-2,-1.085237339E-1,1.886848211E-1
9.149584930E-1,-7.616634667E-2,-1.053279415E-1,1.876195520E-1
9.174462010E-1,-5.699160323E-2,-1.031974182E-1,1.844237745E-1
9.199339100E-1,-4.101264849E-2,-1.031974182E-1,1.790974438E-1
9.224216180E-1,-2.716422267E-2,-1.042626798E-1,1.716406047E-1
9.249093260E-1,-1.544632297E-2,-1.063932031E-1,1.620532274E-1
9.273970350E-1,-6.924213842E-3,-1.085237339E-1,1.514005959E-1
9.298847430E-1,-5.326318205E-4,-1.117195264E-1,1.386174262E-1
9.323724510E-1,2.663159044E-3,-1.159805804E-1,1.247690022E-1
9.348601600E-1,3.728422802E-3,-1.213068962E-1,1.087900475E-1
9.373478680E-1,1.597895520E-3,-1.276984811E-1,9.387636185E-2
9.398355760E-1,-2.663159044E-3,-1.340900660E-1,7.789740711E-2
9.423232850E-1,-1.012000442E-2,-1.415469050E-1,6.298371404E-2
9.448109930E-1,-1.970737800E-2,-1.490037590E-1,4.913528636E-2
9.472987010E-1,-3.142527863E-2,-1.564605981E-1,3.528685868E-2
9.497864100E-1,-4.527370632E-2,-1.660479754E-1,2.037316747E-2
9.522741180E-1,-6.125266105E-2,-1.745700836E-1,7.590003312E-3
9.547618260E-1,-8.042740822E-2,-1.841574460E-1,-4.127896391E-3
9.572495350E-1,-1.006674170E-1,-1.948100924E-1,-1.584579609E-2
9.597372430E-1,-1.230379492E-1,-2.054627240E-1,-2.756369673E-2
9.622249510E-1,-1.475390196E-1,-2.182458937E-1,-3.928159550E-2
9.647126600E-1,-1.720400751E-1,-2.299637944E-1,-4.886896908E-2
9.672003680E-1,-1.986716688E-1,-2.438122183E-1,-6.058686972E-2
9.696880760E-1,-2.263685167E-1,-2.576606572E-1,-7.017423958E-2
9.721757850E-1,-2.540653646E-1,-2.715090811E-1,-7.976161689E-2
9.746634930E-1,-2.806969583E-1,-2.874880135E-1,-8.828372508E-2
9.771512010E-1,-3.073285520E-1,-3.045322299E-1,-9.574057162E-2
9.796389100E-1,-3.318296373E-1,-3.215764761E-1,-1.010668874E-1
9.821266180E-1,-3.542001545E-1,-3.396859467E-1,-1.063932031E-1
9.846143260E-1,-3.744401634E-1,-3.588607013E-1,-1.095889956E-1
9.871020350E-1,-3.914843798E-1,-3.780354261E-1,-1.106542572E-1
9.895897430E-1,-4.053328037E-1,-3.950796425E-1,-1.117195264E-1
9.920774510E-1,-4.149201810E-1,-4.131891429E-1,-1.106542572E-1
9.945651600E-1,-4.213117659E-1,-4.291680753E-1,-1.095889956E-1
9.970528680E-1,-4.234423041E-1,-4.430165291E-1,-1.063932031E-1
9.995405760E-1,-4.202465117E-1,-4.547344148E-1,-1.031974182E-1
1.002028285E0,-4.127896726E-1,-4.643217921E-1,-9.893636405E-2
1.004515993E0,-4.010717571E-1,-4.717786312E-1,-9.467530251E-2
1.007003701E0,-3.850927949E-1,-4.771049619E-1,-9.147951752E-2
1.009491410E0,-3.648527861E-1,-4.792354703E-1,-8.721846342E-2
1.011979118E0,-3.414169848E-1,-4.792354703E-1,-8.295740932E-2
1.014466826E0,-3.147853911E-1,-4.771049619E-1,-7.763108611E-2
1.016954535E0,-2.849580348E-1,-4.717786312E-1,-7.230477035E-2
1.019442243E0,-2.530001104E-1,-4.632565379E-1,-6.697845459E-2
1.021929951E0,-2.189116776E-1,-4.526038766E-1,-6.165213138E-2
1.024417660E0,-1.826927215E-1,-4.398207366E-1,-5.526055023E-2
1.026905368E0,-1.454084814E-1,-4.259723127E-1,-4.886896908E-2
1.029393076E0,-1.091895252E-1,-4.110586047E-1,-4.141212255E-2
1.031880785E0,-7.084003091E-2,-3.950796425E-1,-3.182475269E-2
1.034368493E0,-3.142527863E-2,-3.801659644E-1,-2.223737910E-2
1.036856201E0,4.793686327E-3,-3.663175404E-1,-1.158474199E-2
1.039343910E0,4.207791388E-2,-3.545996249E-1,1.331579551E-4
1.041831618E0,7.616634667E-2,-3.439469934E-1,1.291632187E-2
1.044319326E0,1.081242561E-1,-3.364901543E-1,2.676474862E-2
1.046807035E0,1.390169114E-1,-3.300985694E-1,4.167843983E-2
1.049294743E0,1.667137593E-1,-3.247722387E-1,5.659212917E-2
1.051782451E0,1.933453530E-1,-3.215764761E-1,7.150582224E-2
1.054270160E0,2.146506310E-1,-3.183806837E-1,8.641951531E-2
1.056757868E0,2.338253707E-1,-3.151848912E-1,1.034637317E-1
1.059245576E0,2.498043180E-1,-3.130543530E-1,1.183774248E-1
1.061733285E0,2.636527419E-1,-3.109238148E-1,1.332911104E-1
1.064220993E0,2.732401192E-1,-3.077280223E-1,1.492700726E-1
1.066708701E0,2.796317041E-1,-3.045322299E-1,1.631184965E-1
1.069196410E0,2.817622423E-1,-3.002711833E-1,1.769669205E-1
1.071684066E0,2.806969583E-1,-2.960101366E-1,1.908153445E-1
1.074171722E0,2.785664499E-1,-2.906838059E-1,2.014679909E-1
1.076659378E0,2.732401192E-1,-2.842922211E-1,2.121206224E-1
1.079147035E0,2.636527419E-1,-2.768353820E-1,2.206427306E-1
1.081634691E0,2.519348562E-1,-2.672480047E-1,2.280995846E-1
1.084122347E0,2.370211631E-1,-2.576606572E-1,2.334259003E-1
1.086610003E0,2.189116776E-1,-2.470080107E-1,2.366216928E-1
1.089097660E0,1.976063997E-1,-2.363553643E-1,2.387522161E-1
1.091585316E0,1.752358675E-1,-2.246374637E-1,2.387522161E-1
1.094072972E0,1.486042738E-1,-2.139848322E-1,2.376869470E-1
1.096560628E0,1.209074259E-1,-2.043974549E-1,2.355564237E-1
1.099048285E0,9.214530140E-2,-1.958753467E-1,2.323606312E-1
1.101535941E0,6.231792271E-2,-1.873532385E-1,2.280995846E-1
1.104023597E0,3.249054030E-2,-1.798963994E-1,2.249037921E-1
1.106511253E0,2.663159044E-3,-1.724395454E-1,2.195774615E-1
1.108998910E0,-2.929474972E-2,-1.649827063E-1,2.142511457E-1
1.111486566E0,-5.912213027E-2,-1.585911214E-1,2.089248300E-1
1.113974222E0,-9.001477808E-2,-1.532648057E-1,2.014679909E-1
1.116461878E0,-1.198421568E-1,-1.458079666E-1,1.961416751E-1
1.118949535E0,-1.486042738E-1,-1.394163817E-1,1.908153445E-1
1.121437191E0,-1.763011366E-1,-1.340900660E-1,1.844237745E-1
1.123924847E0,-2.029327303E-1,-1.276984811E-1,1.790974438E-1
1.126412503E0,-2.284990549E-1,-1.223721579E-1,1.737711281E-1
1.128900160E0,-2.530001104E-1,-1.159805804E-1,1.673795432E-1
1.131387816E0,-2.753706574E-1,-1.095889956E-1,1.631184965E-1
1.133875472E0,-2.966759205E-1,-1.031974182E-1,1.567269117E-1
1.136363128E0,-3.169159293E-1,-9.680583328E-2,1.492700726E-1
1.138850785E0,-3.350254297E-1,-8.934898674E-2,1.439437568E-1
1.141338441E0,-3.520696461E-1,-8.402267098E-2,1.375521719E-1
1.143826149E0,-3.669833243E-1,-7.869634777E-2,1.311605871E-1
1.146313858E0,-3.797664940E-1,-7.443529367E-2,1.237037405E-1
1.148801566E0,-3.914843798E-1,-7.230477035E-2,1.173121557E-1
1.151289274E0,-4.021370113E-1,-7.230477035E-2,1.109205782E-1
1.153776983E0,-4.117243886E-1,-7.230477035E-2,1.055942550E-1
1.156264691E0,-4.191812575E-1,-7.550056279E-2,9.920267761E-2
1.158752399E0,-4.266380966E-1,-7.869634777E-2,9.494162351E-2
1.161240108E0,-4.330296814E-1,-8.402267098E-2,9.068056941E-2
1.163727816E0,-4.394212663E-1,-9.041424841E-2,8.641951531E-2
1.166215524E0,-4.458128214E-1,-9.787109494E-2,8.322372288E-2
1.168703233E0,-4.500738978E-1,-1.074584723E-1,8.215846121E-2
1.171190941E0,-4.532696903E-1,-1.181111038E-1,8.109319210E-2
1.173678649E0,-4.554001987E-1,-1.298290044E-1,8.215846121E-2
1.176166358E0,-4.554001987E-1,-1.415469050E-1,8.428898454E-2
1.178654066E0,-4.543349445E-1,-1.543300748E-1,8.748477697E-2
1.181141774E0,-4.511391521E-1,-1.660479754E-1,9.174583107E-2
1.183629483E0,-4.458128214E-1,-1.756353378E-1,9.600688517E-2
1.186117191E0,-4.394212663E-1,-1.841574460E-1,1.002679393E-1
1.188604899E0,-4.298338890E-1,-1.905490309E-1,1.066595241E-1
1.191092608E0,-4.181159735E-1,-1.948100924E-1,1.130511016E-1
1.193580316E0,-4.053328037E-1,-1.969406158E-1,1.194426864E-1
1.196068024E0,-3.893538713E-1,-1.969406158E-1,1.258342713E-1
1.198555733E0,-3.712443709E-1,-1.948100924E-1,1.311605871E-1
1.201043441E0,-3.510043621E-1,-1.905490309E-1,1.375521719E-1
1.203531149E0,-3.286338449E-1,-1.830921918E-1,1.439437568E-1
1.206018858E0,-3.041327596E-1,-1.745700836E-1,1.503353268E-1
1.208506566E0,-2.785664499E-1,-1.628521830E-1,1.545963883E-1
1.210994274E0,-2.519348562E-1,-1.511342824E-1,1.588574350E-1
1.213481983E0,-2.242379934E-1,-1.372858584E-1,1.631184965E-1
1.215969691E0,-1.954758763E-1,-1.245026886E-1,1.652490199E-1
1.218457399E0,-1.688442826E-1,-1.117195264E-1,1.663142890E-1
1.220945108E0,-1.422126889E-1,-9.893636405E-2,1.663142890E-1
1.223432816E0,-1.166463718E-1,-8.828372508E-2,1.652490199E-1
1.225920524E0,-9.214530140E-2,-7.869634777E-2,1.641837656E-1
1.228408233E0,-7.084003091E-2,-7.123950869E-2,1.631184965E-1
1.230895941E0,-5.273054913E-2,-6.591318548E-2,1.609879732E-1
1.233383649E0,-3.781685978E-2,-6.165213138E-2,1.588574350E-1
1.235871358E0,-2.609895915E-2,-6.058686972E-2,1.567269117E-1
1.238359066E0,-1.651158556E-2,-6.058686972E-2,1.545963883E-1
1.240846774E0,-1.012000442E-2,-6.271740049E-2,1.524658650E-1
1.243334483E0,-5.858949851E-3,-6.804371625E-2,1.503353268E-1
1.245822191E0,-4.793686327E-3,-7.443529367E-2,1.471395344E-1
1.248309899E0,-4.793686327E-3,-8.295740932E-2,1.450090110E-1
1.250797608E0,-6.924213842E-3,-9.254477918E-2,1.418132186E-1
1.253285316E0,-1.012000442E-2,-1.010668874E-1,1.375521719E-1
1.255773024E0,-1.544632297E-2,-1.106542572E-1,1.343563795E-1
1.258260733E0,-2.077264152E-2,-1.202416345E-1,1.290300637E-1
1.260748441E0,-2.716422267E-2,-1.287637353E-1,1.237037405E-1
1.263236149E0,-3.462106735E-2,-1.362205893E-1,1.173121557E-1
1.265723858E0,-4.314317927E-2,-1.426121742E-1,1.109205782E-1
1.268211566E0,-5.166528746E-2,-1.500690132E-1,1.034637317E-1
1.270699274E0,-6.018739566E-2,-1.575258672E-1,9.707214683E-2
1.273186983E0,-6.764423847E-2,-1.649827063E-1,9.068056941E-2
1.275674691E0,-7.510108501E-2,-1.724395454E-1,8.535424620E-2
1.278162399E0,-8.149266988E-2,-1.798963994E-1,8.002793044E-2
1.280650108E0,-8.575372398E-2,-1.862879843E-1,7.470161468E-2
1.283137816E0,-9.001477808E-2,-1.926795542E-1,7.044056058E-2
1.285625524E0,-9.214530140E-2,-1.980058849E-1,6.724476814E-2
1.288113233E0,-9.427583218E-2,-2.012016773E-1,6.404897571E-2
1.290600941E0,-9.427583218E-2,-2.043974549E-1,6.085318699E-2
1.293088649E0,-9.321057051E-2,-2.054627240E-1,5.765739456E-2
1.295576358E0,-9.108003974E-2,-2.065279931E-1,5.446160212E-2
1.298064066E0,-8.788424730E-2,-2.054627240E-1,5.233107507E-2
1.300551774E0,-8.362319320E-2,-2.054627240E-1,4.807002097E-2
1.303039483E0,-7.829687744E-2,-2.033322006E-1,4.593949392E-2
1.305527191E0,-7.297056168E-2,-2.022669315E-1,4.274370521E-2
1.308014899E0,-6.764423847E-2,-1.990711391E-1,3.848264739E-2
1.310502608E0,-6.231792271E-2,-1.937448233E-1,3.528685868E-2
1.312990316E0,-5.699160323E-2,-1.873532385E-1,2.996053919E-2
1.315478024E0,-5.166528746E-2,-1.777658761E-1,2.569948509E-2
1.317965733E0,-4.740423337E-2,-1.671132296E-1,2.037316747E-2
1.320453441E0,-4.314317927E-2,-1.553953290E-1,1.291632187E-2
1.322941149E0,-3.888212144E-2,-1.426121742E-1,6.524739787E-3
1.325428858E0,-3.462106735E-2,-1.298290044E-1,-9.321057005E-4
1.327916566E0,-2.929474972E-2,-1.170458421E-1,-8.388951421E-3
1.330404274E0,-2.503369562E-2,-1.053279415E-1,-1.584579609E-2
1.332891983E0,-1.970737800E-2,-9.361004084E-2,-2.436790615E-2
1.335379691E0,-1.651158556E-2,-8.402267098E-2,-2.969422378E-2
1.337867399E0,-1.225053146E-2,-7.443529367E-2,-3.608580679E-2
1.340355108E0,-7.989477366E-3,-6.697845459E-2,-4.141212255E-2
1.342842816E0,-5.858949851E-3,-5.845634267E-2,-4.567318037E-2
1.345330524E0,-3.728422802E-3,-5.206476152E-2,-5.099949613E-2
1.347818233E0,-5.326318205E-4,-4.567318037E-2,-5.632581562E-2
1.350305941E0,1.597895520E-3,-4.034686089E-2,-6.165213138E-2
1.352793649E0,4.793686327E-3,-3.608580679E-2,-6.591318548E-2
1.355281358E0,6.924213842E-3,-3.395527974E-2,-7.123950869E-2
1.357769066E0,1.012000442E-2,-3.182475269E-2,-7.763108611E-2
1.360256774E0,1.331579592E-2,-3.075948730E-2,-8.295740932E-2
1.362744483E0,1.651158556E-2,-3.075948730E-2,-8.828372508E-2
1.365232191E0,1.970737800E-2,-2.969422378E-2,-9.361004084E-2
1.367719899E0,2.290316857E-2,-2.862896025E-2,-9.787109494E-2
1.370207608E0,2.609895915E-2,-2.862896025E-2,-1.031974182E-1
1.372695316E0,2.929474972E-2,-2.756369673E-2,-1.085237339E-1
1.375183024E0,3.142527863E-2,-2.436790615E-2,-1.127847880E-1
1.377670733E0,3.462106735E-2,-2.223737910E-2,-1.170458421E-1
1.380158441E0,3.568633273E-2,-1.904158667E-2,-1.202416345E-1
1.382646149E0,3.675159439E-2,-1.691105962E-2,-1.234374270E-1
1.385133858E0,3.675159439E-2,-1.371526904E-2,-1.245026886E-1
1.387621566E0,3.675159439E-2,-1.265000552E-2,-1.266332120E-1
1.390109274E0,3.568633273E-2,-1.051947847E-2,-1.266332120E-1
1.392596983E0,3.462106735E-2,-9.454214945E-3,-1.266332120E-1
1.395084691E0,3.355580568E-2,-9.454214945E-3,-1.245026886E-1
1.397572399E0,3.142527863E-2,-8.388951421E-3,-1.234374270E-1
1.400060108E0,3.036001325E-2,-9.454214945E-3,-1.213068962E-1
1.402547816E0,2.929474972E-2,-8.388951421E-3,-1.202416345E-1
1.405035524E0,2.822948620E-2,-7.323687430E-3,-1.181111038E-1
1.407523233E0,2.822948620E-2,-5.193160381E-3,-1.159805804E-1
1.410010941E0,2.716422267E-2,1.331579551E-4,-1.138500497E-1
1.412498649E0,2.716422267E-2,5.459476262E-3,-1.127847880E-1
1.414986358E0,2.716422267E-2,1.078579482E-2,-1.117195264E-1
1.417474066E0,2.716422267E-2,1.824264042E-2,-1.127847880E-1
1.419961774E0,2.716422267E-2,2.463422157E-2,-1.138500497E-1
1.422449483E0,2.609895915E-2,3.209106624E-2,-1.159805804E-1
1.424937191E0,2.609895915E-2,3.848264739E-2,-1.170458421E-1
1.427424899E0,2.396843210E-2,4.593949392E-2,-1.191763729E-1
1.429912608E0,2.290316857E-2,5.233107507E-2,-1.202416345E-1
1.432400316E0,2.077264152E-2,5.765739456E-2,-1.223721579E-1
1.434888024E0,1.970737800E-2,6.298371404E-2,-1.234374270E-1
1.437375733E0,1.757685095E-2,6.617950648E-2,-1.266332120E-1
1.439863441E0,1.651158556E-2,6.831002980E-2,-1.276984811E-1
1.442351149E0,1.651158556E-2,7.044056058E-2,-1.287637353E-1
1.444838858E0,1.651158556E-2,7.150582224E-2,-1.308942735E-1
1.447326566E0,1.757685095E-2,7.257108390E-2,-1.319595277E-1
1.449814274E0,1.864211448E-2,7.576687634E-2,-1.340900660E-1
1.452301983E0,2.077264152E-2,7.683213800E-2,-1.372858584E-1
1.454789691E0,2.183790505E-2,7.896266878E-2,-1.394163817E-1
1.457277399E0,2.290316857E-2,8.002793044E-2,-1.415469050E-1
1.459765108E0,2.396843210E-2,8.002793044E-2,-1.436774284E-1
1.462252816E0,2.503369562E-2,8.002793044E-2,-1.458079666E-1
1.464740524E0,2.503369562E-2,7.789740711E-2,-1.479384899E-1
1.467228233E0,2.396843210E-2,7.470161468E-2,-1.490037590E-1
1.469715941E0,2.183790505E-2,7.044056058E-2,-1.479384899E-1
1.472203649E0,2.077264152E-2,6.404897571E-2,-1.479384899E-1
1.474691358E0,1.757685095E-2,5.765739456E-2,-1.458079666E-1
1.477179066E0,1.544632297E-2,4.913528636E-2,-1.436774284E-1
1.479666774E0,1.118526794E-2,3.954791278E-2,-1.415469050E-1
1.482154483E0,6.924213842E-3,2.996053919E-2,-1.383511126E-1
1.484642191E0,2.663159044E-3,2.037316747E-2,-1.351553202E-1
1.487129899E0,-1.597895520E-3,9.720530361E-3,-1.319595277E-1
1.489617608E0,-5.858949851E-3,1.331579551E-4,-1.276984811E-1
1.492105316E0,-9.054740891E-3,-9.454214945E-3,-1.234374270E-1
1.494593024E0,-1.118526794E-2,-1.691105962E-2,-1.202416345E-1
1.497080733E0,-1.118526794E-2,-2.330264263E-2,-1.170458421E-1
1.499568441E0,-1.012000442E-2,-2.756369673E-2,-1.127847880E-1
1.502056149E0,-6.924213842E-3,-3.075948730E-2,-1.085237339E-1
1.504543858E0,-2.663159044E-3,-3.289001435E-2,-1.042626798E-1
1.507031566E0,2.663159044E-3,-3.289001435E-2,-1.000016257E-1
1.509519274E0,7.989477366E-3,-2.969422378E-2,-9.467530251E-2
1.512006983E0,1.438105945E-2,-2.649843320E-2,-9.041424841E-2
1.514494691E0,2.077264152E-2,-2.010685205E-2,-8.508793265E-2
1.516982399E0,2.716422267E-2,-1.158474199E-2,-7.976161689E-2
1.519470108E0,3.462106735E-2,-1.997369342E-3,-7.337003201E-2
1.521957816E0,3.994738683E-2,7.590003312E-3,-6.804371625E-2
1.524445524E0,4.527370632E-2,1.717737690E-2,-6.271740049E-2
1.526933233E0,5.060002208E-2,2.676474862E-2,-5.632581562E-2
1.529420941E0,5.379581451E-2,3.635212034E-2,-5.099949613E-2
1.531908649E0,5.699160323E-2,4.380896688E-2,-4.460791498E-2
1.534396358E0,5.805686861E-2,5.020054802E-2,-3.928159550E-2
1.536884066E0,5.699160323E-2,5.552686751E-2,-3.289001435E-2
1.539371774E0,5.592634156E-2,5.978792161E-2,-2.649843320E-2
1.541859483E0,5.379581451E-2,6.191844866E-2,-2.117211558E-2
1.544347191E0,5.060002208E-2,6.404897571E-2,-1.584579609E-2
1.546834899E0,4.633896798E-2,6.404897571E-2,-1.265000552E-2
1.549322608E0,3.994738683E-2,6.191844866E-2,-8.388951421E-3
1.551810316E0,3.462106735E-2,5.765739456E-2,-5.193160381E-3
1.554298024E0,2.822948620E-2,5.126581341E-2,-3.062632866E-3
1.556785733E0,2.183790505E-2,4.380896688E-2,-9.321057005E-4
1.559273441E0,1.757685095E-2,3.422159329E-2,2.263685223E-3
1.561761149E0,1.331579592E-2,2.463422157E-2,4.394212738E-3
1.564248858E0,7.989477366E-3,1.398158539E-2,6.524739787E-3
1.566736566E0,5.858949851E-3,4.394212738E-3,8.655266836E-3
1.569224222E0,4.793686327E-3,-5.193160381E-3,1.291632187E-2
1.571711878E0,4.793686327E-3,-1.478053257E-2,1.504684892E-2
1.574199535E0,6.924213842E-3,-2.223737910E-2,1.824264042E-2
1.576687191E0,1.012000442E-2,-2.969422378E-2,2.037316747E-2
1.579174847E0,1.544632297E-2,-3.715106845E-2,2.250369452E-2
1.581662503E0,2.290316857E-2,-4.354264960E-2,2.463422157E-2
1.584150160E0,3.036001325E-2,-4.886896908E-2,2.783001214E-2
1.586637816E0,3.994738683E-2,-5.419528857E-2,2.889527567E-2
1.589125472E0,4.953476042E-2,-5.845634267E-2,3.209106624E-2
1.591613128E0,6.018739566E-2,-6.165213138E-2,3.422159329E-2
1.594100785E0,7.190529257E-2,-6.378266215E-2,3.635212034E-2
1.596588441E0,8.255793154E-2,-6.591318548E-2,3.848264739E-2
1.599076097E0,9.321057051E-2,-6.591318548E-2,4.061317816E-2
1.601563753E0,1.027979404E-1,-6.484792382E-2,4.167843983E-2
1.604051410E0,1.113200486E-1,-6.484792382E-2,4.167843983E-2
1.606539066E0,1.209074259E-1,-6.484792382E-2,4.167843983E-2
1.609026722E0,1.283642650E-1,-6.484792382E-2,4.167843983E-2
1.611514378E0,1.347558498E-1,-6.591318548E-2,4.061317816E-2
1.614002035E0,1.411474347E-1,-6.591318548E-2,3.954791278E-2
1.616489691E0,1.454084814E-1,-6.484792382E-2,3.954791278E-2
1.618977347E0,1.496695429E-1,-6.271740049E-2,3.954791278E-2
1.621465003E0,1.518000662E-1,-5.845634267E-2,3.848264739E-2
1.623952660E0,1.539305896E-1,-5.313002318E-2,3.848264739E-2
1.626440316E0,1.571263820E-1,-4.567318037E-2,3.848264739E-2
1.628927972E0,1.592569202E-1,-3.715106845E-2,3.954791278E-2
1.631415628E0,1.613874435E-1,-2.543316968E-2,3.954791278E-2
1.633903285E0,1.624527127E-1,-1.371526904E-2,4.167843983E-2
1.636390941E0,1.645832360E-1,-1.997369342E-3,4.274370521E-2
1.638878597E0,1.667137593E-1,1.291632187E-2,4.380896688E-2
1.641366305E0,1.688442826E-1,2.676474862E-2,4.700475931E-2
1.643854014E0,1.699095517E-1,4.061317816E-2,4.807002097E-2
1.646341722E0,1.699095517E-1,5.552686751E-2,5.126581341E-2
1.648829430E0,1.709748209E-1,6.937529147E-2,5.339634046E-2
1.651317139E0,1.709748209E-1,8.322372288E-2,5.552686751E-2
1.653804847E0,1.699095517E-1,9.600688517E-2,5.765739456E-2
1.656292555E0,1.677790284E-1,1.077247858E-1,5.978792161E-2
1.658780264E0,1.656484902E-1,1.183774248E-1,6.085318699E-2
1.661267972E0,1.613874435E-1,1.279647946E-1,6.085318699E-2
1.663755680E0,1.560611278E-1,1.375521719E-1,6.085318699E-2
1.666243389E0,1.496695429E-1,1.450090110E-1,5.765739456E-2
1.668731097E0,1.422126889E-1,1.514005959E-1,5.339634046E-2
1.671218805E0,1.326253265E-1,1.556616426E-1,4.700475931E-2
1.673706514E0,1.209074259E-1,1.588574350E-1,3.954791278E-2
1.676194222E0,1.081242561E-1,1.588574350E-1,3.209106624E-2
1.678681930E0,9.427583218E-2,1.577921808E-1,2.250369452E-2
1.681169639E0,7.936213911E-2,1.535311192E-1,1.185105834E-2
1.683657347E0,6.338318437E-2,1.482048035E-1,1.331579551E-4
1.686145055E0,4.740423337E-2,1.407479644E-1,-1.158474199E-2
1.688632764E0,3.249054030E-2,1.332911104E-1,-2.436790615E-2
1.691120472E0,1.651158556E-2,1.247690022E-1,-3.715106845E-2
1.693608180E0,5.326318205E-4,1.173121557E-1,-5.099949613E-2
1.696095889E0,-1.331579592E-2,1.098553166E-1,-6.484792382E-2
1.698583597E0,-2.716422267E-2,1.034637317E-1,-7.869634777E-2
1.701071305E0,-3.994738683E-2,9.813741595E-2,-9.361004084E-2
1.703559014E0,-5.060002208E-2,9.281109273E-2,-1.085237339E-1
1.706046722E0,-6.018739566E-2,8.748477697E-2,-1.223721579E-1
1.708534430E0,-6.977476925E-2,8.322372288E-2,-1.362205893E-1
1.711022139E0,-7.723161578E-2,7.789740711E-2,-1.479384899E-1
1.713509847E0,-8.468846232E-2,7.257108390E-2,-1.596563905E-1
1.715997555E0,-9.001477808E-2,6.724476814E-2,-1.692437679E-1
1.718485264E0,-9.534109384E-2,6.298371404E-2,-1.777658761E-1
1.720972972E0,-9.747162461E-2,5.872265995E-2,-1.852227151E-1
1.723460680E0,-9.853688627E-2,5.339634046E-2,-1.905490309E-1
1.725948389E0,-9.747162461E-2,4.913528636E-2,-1.937448233E-1
1.728436097E0,-9.427583218E-2,4.593949392E-2,-1.958753467E-1
1.730923805E0,-8.894951642E-2,4.380896688E-2,-1.958753467E-1
1.733411514E0,-8.042740822E-2,4.274370521E-2,-1.926795542E-1
1.735899222E0,-7.084003091E-2,4.380896688E-2,-1.884185076E-1
1.738386930E0,-5.805686861E-2,4.807002097E-2,-1.830921918E-1
1.740874639E0,-4.207791388E-2,5.339634046E-2,-1.756353378E-1
1.743362347E0,-2.503369562E-2,6.298371404E-2,-1.660479754E-1
1.745850055E0,-5.858949851E-3,7.470161468E-2,-1.564605981E-1
1.748337764E0,1.544632297E-2,8.748477697E-2,-1.458079666E-1
1.750825472E0,3.675159439E-2,1.034637317E-1,-1.351553202E-1
1.753313180E0,5.805686861E-2,1.194426864E-1,-1.245026886E-1
1.755800889E0,8.042740822E-2,1.364869028E-1,-1.138500497E-1
1.758288597E0,1.017326787E-1,1.524658650E-1,-1.042626798E-1
1.760776305E0,1.219726875E-1,1.684448123E-1,-9.467530251E-2
1.763264014E0,1.422126889E-1,1.822932363E-1,-8.615319431E-2
1.765751722E0,1.592569202E-1,1.940111369E-1,-7.976161689E-2
1.768239430E0,1.741705984E-1,2.046637833E-1,-7.337003201E-2
1.770727139E0,1.858884990E-1,2.121206224E-1,-7.017423958E-2
1.773214847E0,1.944106072E-1,2.195774615E-1,-6.591318548E-2
1.775702555E0,1.997369379E-1,2.238385230E-1,-6.378266215E-2
1.778190264E0,2.018674612E-1,2.249037921E-1,-6.271740049E-2
1.780677972E0,2.008021921E-1,2.249037921E-1,-6.271740049E-2
1.783165680E0,1.976063997E-1,2.217079997E-1,-6.271740049E-2
1.785653389E0,1.912148297E-1,2.163816839E-1,-6.271740049E-2
1.788141097E0,1.837579757E-1,2.099900991E-1,-6.378266215E-2
1.790628805E0,1.731053442E-1,2.014679909E-1,-6.591318548E-2
1.793116514E0,1.613874435E-1,1.908153445E-1,-6.910897791E-2
1.795604222E0,1.475390196E-1,1.801627129E-1,-7.337003201E-2
1.798091930E0,1.336905807E-1,1.684448123E-1,-7.656582445E-2
1.800579639E0,1.177116334E-1,1.556616426E-1,-8.082687855E-2
1.803067347E0,1.017326787E-1,1.439437568E-1,-8.508793265E-2
1.805555055E0,8.681898564E-2,1.311605871E-1,-9.041424841E-2
1.808042764E0,7.190529257E-2,1.183774248E-1,-9.467530251E-2
1.810530472E0,5.805686861E-2,1.066595241E-1,-9.893636405E-2
1.813018180E0,4.527370632E-2,9.494162351E-2,-1.031974182E-1
1.815505889E0,3.568633273E-2,8.428898454E-2,-1.063932031E-1
1.817993597E0,2.609895915E-2,7.576687634E-2,-1.095889956E-1
1.820481305E0,1.970737800E-2,6.937529147E-2,-1.127847880E-1
1.822969014E0,1.544632297E-2,6.404897571E-2,-1.149153188E-1
1.825456722E0,1.225053146E-2,6.191844866E-2,-1.181111038E-1
1.827944430E0,1.118526794E-2,6.085318699E-2,-1.202416345E-1
1.830432139E0,1.118526794E-2,6.298371404E-2,-1.223721579E-1
1.832919847E0,1.225053146E-2,6.511423737E-2,-1.245026886E-1
1.835407555E0,1.438105945E-2,6.831002980E-2,-1.245026886E-1
1.837895264E0,1.757685095E-2,7.044056058E-2,-1.255679578E-1
1.840382972E0,2.077264152E-2,7.257108390E-2,-1.266332120E-1
1.842870680E0,2.503369562E-2,7.470161468E-2,-1.276984811E-1
1.845358389E0,2.716422267E-2,7.683213800E-2,-1.266332120E-1
1.847846097E0,3.036001325E-2,7.896266878E-2,-1.276984811E-1
1.850333805E0,3.249054030E-2,8.109319210E-2,-1.287637353E-1
1.852821514E0,3.249054030E-2,8.428898454E-2,-1.298290044E-1
1.855309222E0,3.249054030E-2,8.748477697E-2,-1.308942735E-1
1.857796930E0,3.036001325E-2,9.068056941E-2,-1.319595277E-1
1.860284639E0,2.716422267E-2,9.387636185E-2,-1.319595277E-1
1.862772347E0,2.077264152E-2,9.600688517E-2,-1.319595277E-1
1.865260055E0,1.438105945E-2,9.707214683E-2,-1.308942735E-1
1.867747764E0,5.858949851E-3,9.707214683E-2,-1.298290044E-1
1.870235472E0,-2.663159044E-3,9.600688517E-2,-1.276984811E-1
1.872723180E0,-1.225053146E-2,9.387636185E-2,-1.255679578E-1
1.875210889E0,-2.290316857E-2,8.961530030E-2,-1.234374270E-1
1.877698597E0,-3.355580568E-2,8.641951531E-2,-1.202416345E-1
1.880186305E0,-4.527370632E-2,8.109319210E-2,-1.181111038E-1
1.882674014E0,-5.912213027E-2,7.576687634E-2,-1.149153188E-1
1.885161722E0,-7.190529257E-2,6.937529147E-2,-1.127847880E-1
1.887649430E0,-8.575372398E-2,6.298371404E-2,-1.085237339E-1
1.890137139E0,-9.960214794E-2,5.552686751E-2,-1.053279415E-1
1.892624847E0,-1.134505793E-1,4.700475931E-2,-1.021321490E-1
1.895112555E0,-1.283642650E-1,3.741738573E-2,-9.787109494E-2
1.897600264E0,-1.422126889E-1,2.889527567E-2,-9.361004084E-2
1.900087972E0,-1.560611278E-1,1.824264042E-2,-9.041424841E-2
1.902575680E0,-1.688442826E-1,8.655266836E-3,-8.721846342E-2
1.905063389E0,-1.826927215E-1,-3.062632866E-3,-8.508793265E-2
1.907551097E0,-1.933453530E-1,-1.371526904E-2,-8.295740932E-2
1.910038805E0,-2.039979845E-1,-2.649843320E-2,-8.189214021E-2
1.912526514E0,-2.135853618E-1,-3.928159550E-2,-8.189214021E-2
1.915014222E0,-2.199769467E-1,-5.206476152E-2,-8.189214021E-2
1.917501930E0,-2.253032625E-1,-6.378266215E-2,-8.189214021E-2
1.919989639E0,-2.284990549E-1,-7.443529367E-2,-8.402267098E-2
1.922477347E0,-2.295643091E-1,-8.402267098E-2,-8.615319431E-2
1.924965055E0,-2.306295782E-1,-9.254477918E-2,-8.828372508E-2
1.927452764E0,-2.295643091E-1,-1.000016257E-1,-9.041424841E-2
1.929940472E0,-2.274337858E-1,-1.074584723E-1,-9.361004084E-2
1.932428180E0,-2.231727391E-1,-1.159805804E-1,-9.680583328E-2
1.934915889E0,-2.157158852E-1,-1.255679578E-1,-9.893636405E-2
1.937403597E0,-2.071937770E-1,-1.372858584E-1,-1.010668874E-1
1.939891305E0,-1.954758763E-1,-1.500690132E-1,-1.031974182E-1
1.942379014E0,-1.816274524E-1,-1.639174372E-1,-1.053279415E-1
1.944866722E0,-1.645832360E-1,-1.788311303E-1,-1.063932031E-1
1.947354430E0,-1.464737505E-1,-1.937448233E-1,-1.074584723E-1
1.949842139E0,-1.251684725E-1,-2.075932473E-1,-1.074584723E-1
1.952329847E0,-1.006674170E-1,-2.193111479E-1,-1.074584723E-1
1.954817555E0,-7.510108501E-2,-2.288985252E-1,-1.063932031E-1
1.957305264E0,-4.633896798E-2,-2.363553643E-1,-1.042626798E-1
1.959792972E0,-1.544632297E-2,-2.416816950E-1,-1.010668874E-1
1.962280680E0,1.651158556E-2,-2.427469492E-1,-9.787109494E-2
1.964768389E0,4.953476042E-2,-2.427469492E-1,-9.467530251E-2
1.967256097E0,8.575372398E-2,-2.406164259E-1,-8.934898674E-2
1.969743805E0,1.209074259E-1,-2.352901101E-1,-8.508793265E-2
1.972231514E0,1.549958587E-1,-2.278332561E-1,-7.869634777E-2
1.974719222E0,1.890842915E-1,-2.182458937E-1,-7.230477035E-2
1.977206930E0,2.210422009E-1,-2.065279931E-1,-6.591318548E-2
1.979694639E0,2.498043180E-1,-1.926795542E-1,-5.845634267E-2
1.982182347E0,2.753706574E-1,-1.777658761E-1,-5.099949613E-2
1.984670055E0,2.956106663E-1,-1.617869139E-1,-4.460791498E-2
1.987157764E0,3.105243444E-1,-1.458079666E-1,-3.821633384E-2
1.989645472E0,3.201117218E-1,-1.298290044E-1,-3.289001435E-2
1.992133180E0,3.243727684E-1,-1.170458421E-1,-2.756369673E-2
1.994620889E0,3.222422600E-1,-1.053279415E-1,-2.330264263E-2
1.997108597E0,3.147853911E-1,-9.893636405E-2,-1.904158667E-2
1.999596305E0,3.030675054E-1,-9.574057162E-2,-1.478053257E-2
2.002084014E0,2.860232890E-1,-9.680583328E-2,-1.051947847E-2
2.004571722E0,2.647180259E-1,-1.010668874E-1,-8.388951421E-3
2.007059430E0,2.391516864E-1,-1.085237339E-1,-5.193160381E-3
2.009547139E0,2.093243003E-1,-1.181111038E-1,-1.997369342E-3
2.012034847E0,1.773663908E-1,-1.287637353E-1,1.331579551E-4
2.014522555E0,1.432779580E-1,-1.404816359E-1,1.198421582E-3
2.017010264E0,1.081242561E-1,-1.511342824E-1,1.198421582E-3
2.019497972E0,7.190529257E-2,-1.607216448E-1,1.198421582E-3
2.021985680E0,3.675159439E-2,-1.692437679E-1,-9.321057005E-4
2.024473389E0,2.663159044E-3,-1.756353378E-1,-3.062632866E-3
2.026961097E0,-3.036001325E-2,-1.798963994E-1,-6.258423906E-3
2.029448805E0,-6.125266105E-2,-1.820269227E-1,-1.051947847E-2
2.031936514E0,-8.894951642E-2,-1.820269227E-1,-1.478053257E-2
2.034424222E0,-1.134505793E-1,-1.798963994E-1,-1.904158667E-2
2.036911930E0,-1.368863732E-1,-1.756353378E-1,-2.330264263E-2
2.039399639E0,-1.571263820E-1,-1.703090221E-1,-2.649843320E-2
2.041887347E0,-1.741705984E-1,-1.628521830E-1,-3.075948730E-2
2.044375055E0,-1.890842915E-1,-1.543300748E-1,-3.608580679E-2
2.046862764E0,-2.029327303E-1,-1.447426975E-1,-4.141212255E-2
2.049350472E0,-2.146506310E-1,-1.351553202E-1,-4.567318037E-2
2.051838180E0,-2.253032625E-1,-1.266332120E-1,-5.099949613E-2
2.054325889E0,-2.338253707E-1,-1.170458421E-1,-5.632581562E-2
2.056813597E0,-2.423474789E-1,-1.085237339E-1,-6.165213138E-2
2.059301305E0,-2.487390637E-1,-1.010668874E-1,-6.697845459E-2
2.061789014E0,-2.530001104E-1,-9.361004084E-2,-7.123950869E-2
2.064276722E0,-2.572611570E-1,-8.721846342E-2,-7.550056279E-2
2.066764378E0,-2.604569495E-1,-7.976161689E-2,-7.869634777E-2
2.069252035E0,-2.625874877E-1,-7.337003201E-2,-8.295740932E-2
2.071739691E0,-2.636527419E-1,-6.804371625E-2,-8.615319431E-2
2.074227347E0,-2.636527419E-1,-6.271740049E-2,-8.828372508E-2
2.076715003E0,-2.625874877E-1,-5.845634267E-2,-9.041424841E-2
2.079202660E0,-2.604569495E-1,-5.313002318E-2,-9.254477918E-2
2.081690316E0,-2.583264410E-1,-4.993423447E-2,-9.361004084E-2
2.084177972E0,-2.540653646E-1,-4.673844203E-2,-9.467530251E-2
2.086665628E0,-2.487390637E-1,-4.460791498E-2,-9.467530251E-2
2.089153285E0,-2.423474789E-1,-4.354264960E-2,-9.361004084E-2
2.091640941E0,-2.338253707E-1,-4.354264960E-2,-9.254477918E-2
2.094128597E0,-2.253032625E-1,-4.247738793E-2,-8.934898674E-2
2.096616253E0,-2.157158852E-1,-4.354264960E-2,-8.508793265E-2
2.099103910E0,-2.029327303E-1,-4.460791498E-2,-7.976161689E-2
2.101591566E0,-1.880190372E-1,-4.567318037E-2,-7.337003201E-2
2.104079222E0,-1.720400751E-1,-4.673844203E-2,-6.697845459E-2
2.106566878E0,-1.549958587E-1,-4.673844203E-2,-6.058686972E-2
2.109054535E0,-1.368863732E-1,-4.673844203E-2,-5.206476152E-2
2.111542191E0,-1.177116334E-1,-4.460791498E-2,-4.354264960E-2
2.114029847E0,-9.960214794E-2,-4.141212255E-2,-3.608580679E-2
2.116517503E0,-8.042740822E-2,-3.821633384E-2,-2.649843320E-2
2.119005160E0,-6.125266105E-2,-3.395527974E-2,-1.904158667E-2
2.121492816E0,-4.207791388E-2,-2.862896025E-2,-9.454214945E-3
2.123980472E0,-2.396843210E-2,-2.436790615E-2,-9.321057005E-4
2.126468128E0,-7.989477366E-3,-2.010685205E-2,8.655266836E-3
2.128955785E0,7.989477366E-3,-1.584579609E-2,1.930790395E-2
2.131443441E0,2.290316857E-2,-1.158474199E-2,2.996053919E-2
2.133931097E0,3.462106735E-2,-7.323687430E-3,4.167843983E-2
2.136418753E0,4.633896798E-2,-4.127896391E-3,5.233107507E-2
2.138906462E0,5.486107618E-2,1.331579551E-4,6.298371404E-2
2.141394170E0,6.125266105E-2,3.328948980E-3,7.150582224E-2
2.143881878E0,6.551371515E-2,8.655266836E-3,8.002793044E-2
2.146369587E0,6.657897681E-2,1.185105834E-2,8.748477697E-2
2.148857295E0,6.551371515E-2,1.717737690E-2,9.281109273E-2
2.151345003E0,6.338318437E-2,2.037316747E-2,9.707214683E-2
2.153832712E0,5.805686861E-2,2.356895804E-2,1.002679393E-1
2.156320420E0,5.166528746E-2,2.463422157E-2,1.023984700E-1
2.158808128E0,4.420844093E-2,2.569948509E-2,1.034637317E-1
2.161295837E0,3.568633273E-2,2.463422157E-2,1.045289934E-1
2.163783545E0,2.609895915E-2,2.250369452E-2,1.045289934E-1
2.166271253E0,1.544632297E-2,2.037316747E-2,1.034637317E-1
2.168758962E0,5.858949851E-3,1.717737690E-2,1.023984700E-1
2.171246670E0,-4.793686327E-3,1.291632187E-2,1.002679393E-1
2.173734378E0,-1.438105945E-2,6.524739787E-3,9.813741595E-2
2.176222087E0,-2.290316857E-2,-9.321057005E-4,9.494162351E-2
2.178709795E0,-3.036001325E-2,-8.388951421E-3,9.068056941E-2
2.181197503E0,-3.781685978E-2,-1.797632314E-2,8.641951531E-2
2.183685212E0,-4.207791388E-2,-2.756369673E-2,8.109319210E-2
2.186172920E0,-4.420844093E-2,-3.608580679E-2,7.683213800E-2
2.188660628E0,-4.420844093E-2,-4.460791498E-2,7.044056058E-2
2.191148337E0,-4.207791388E-2,-5.313002318E-2,6.404897571E-2
2.193636045E0,-3.888212144E-2,-5.952160433E-2,5.659212917E-2
2.196123753E0,-3.355580568E-2,-6.378266215E-2,4.913528636E-2
2.198611462E0,-2.609895915E-2,-6.591318548E-2,4.061317816E-2
2.201099170E0,-1.651158556E-2,-6.697845459E-2,3.209106624E-2
2.203586878E0,-5.858949851E-3,-6.697845459E-2,2.143843099E-2
2.206074587E0,5.858949851E-3,-6.591318548E-2,1.185105834E-2
2.208562295E0,1.757685095E-2,-6.378266215E-2,2.263685223E-3
2.211050003E0,2.822948620E-2,-6.165213138E-2,-8.388951421E-3
2.213537712E0,3.888212144E-2,-5.952160433E-2,-1.797632314E-2
2.216025420E0,4.846949503E-2,-5.739107728E-2,-2.649843320E-2
2.218513128E0,5.805686861E-2,-5.632581562E-2,-3.395527974E-2
2.221000837E0,6.551371515E-2,-5.739107728E-2,-4.034686089E-2
2.223488545E0,7.297056168E-2,-5.952160433E-2,-4.567318037E-2
2.225976253E0,7.829687744E-2,-6.378266215E-2,-4.993423447E-2
2.228463962E0,8.362319320E-2,-6.804371625E-2,-5.099949613E-2
2.230951670E0,8.681898564E-2,-7.230477035E-2,-5.206476152E-2
2.233439378E0,8.894951642E-2,-7.763108611E-2,-5.206476152E-2
2.235927087E0,8.894951642E-2,-8.189214021E-2,-4.993423447E-2
2.238414795E0,8.788424730E-2,-8.615319431E-2,-4.673844203E-2
2.240902503E0,8.575372398E-2,-8.934898674E-2,-4.354264960E-2
2.243390212E0,8.042740822E-2,-9.361004084E-2,-4.034686089E-2
2.245877920E0,7.616634667E-2,-9.574057162E-2,-3.608580679E-2
2.248365628E0,6.977476925E-2,-9.680583328E-2,-3.182475269E-2
2.250853337E0,6.231792271E-2,-9.680583328E-2,-2.756369673E-2
2.253341045E0,5.486107618E-2,-9.574057162E-2,-2.223737910E-2
2.255828753E0,4.527370632E-2,-9.467530251E-2,-1.691105962E-2
2.258316462E0,3.781685978E-2,-9.147951752E-2,-1.158474199E-2
2.260804170E0,2.929474972E-2,-8.721846342E-2,-6.258423906E-3
2.263291878E0,2.290316857E-2,-8.295740932E-2,-1.997369342E-3
2.265779587E0,1.651158556E-2,-7.869634777E-2,2.263685223E-3
2.268267295E0,1.118526794E-2,-7.443529367E-2,5.459476262E-3
2.270755003E0,6.924213842E-3,-7.123950869E-2,7.590003312E-3
2.273242712E0,3.728422802E-3,-6.910897791E-2,9.720530361E-3
2.275730420E0,5.326318205E-4,-6.697845459E-2,9.720530361E-3
2.278218128E0,-1.597895520E-3,-6.484792382E-2,8.655266836E-3
2.280705837E0,-2.663159044E-3,-6.378266215E-2,7.590003312E-3
2.283193545E0,-3.728422802E-3,-6.271740049E-2,5.459476262E-3
2.285681253E0,-4.793686327E-3,-6.165213138E-2,3.328948980E-3
2.288168962E0,-4.793686327E-3,-6.058686972E-2,-9.321057005E-4
2.290656670E0,-4.793686327E-3,-5.845634267E-2,-5.193160381E-3
2.293144378E0,-3.728422802E-3,-5.739107728E-2,-1.051947847E-2
2.295632087E0,-3.728422802E-3,-5.526055023E-2,-1.478053257E-2
2.298119795E0,-3.728422802E-3,-5.313002318E-2,-2.223737910E-2
2.300607503E0,-3.728422802E-3,-5.206476152E-2,-2.969422378E-2
2.303095212E0,-3.728422802E-3,-4.993423447E-2,-3.715106845E-2
2.305582920E0,-5.858949851E-3,-4.673844203E-2,-4.673844203E-2
2.308070628E0,-9.054740891E-3,-4.460791498E-2,-5.419528857E-2
2.310558337E0,-1.225053146E-2,-4.247738793E-2,-6.271740049E-2
2.313046045E0,-1.651158556E-2,-4.034686089E-2,-7.123950869E-2
2.315533753E0,-2.290316857E-2,-4.034686089E-2,-7.869634777E-2
2.318021462E0,-2.929474972E-2,-4.034686089E-2,-8.508793265E-2
2.320509170E0,-3.675159439E-2,-4.141212255E-2,-9.254477918E-2
2.322996878E0,-4.527370632E-2,-4.247738793E-2,-9.893636405E-2
2.325484587E0,-5.592634156E-2,-4.354264960E-2,-1.031974182E-1
2.327972295E0,-6.551371515E-2,-4.460791498E-2,-1.074584723E-1
2.330460003E0,-7.616634667E-2,-4.673844203E-2,-1.117195264E-1
2.332947712E0,-8.681898564E-2,-4.780370742E-2,-1.149153188E-1
2.335435420E0,-9.747162461E-2,-4.886896908E-2,-1.159805804E-1
2.337923128E0,-1.070589945E-1,-4.993423447E-2,-1.170458421E-1
2.340410837E0,-1.177116334E-1,-4.993423447E-2,-1.191763729E-1
2.342898545E0,-1.272990108E-1,-5.099949613E-2,-1.181111038E-1
2.345386253E0,-1.347558498E-1,-5.099949613E-2,-1.181111038E-1
2.347873962E0,-1.443432271E-1,-4.993423447E-2,-1.170458421E-1
2.350361670E0,-1.518000662E-1,-4.993423447E-2,-1.170458421E-1
2.352849378E0,-1.571263820E-1,-4.886896908E-2,-1.138500497E-1
2.355337087E0,-1.624527127E-1,-4.780370742E-2,-1.117195264E-1
2.357824795E0,-1.656484902E-1,-4.673844203E-2,-1.095889956E-1
2.360312503E0,-1.688442826E-1,-4.460791498E-2,-1.053279415E-1
2.362800212E0,-1.699095517E-1,-4.460791498E-2,-1.010668874E-1
2.365287920E0,-1.688442826E-1,-4.247738793E-2,-9.787109494E-2
2.367775628E0,-1.677790284E-1,-4.141212255E-2,-9.467530251E-2
2.370263337E0,-1.645832360E-1,-3.821633384E-2,-9.147951752E-2
2.372751045E0,-1.603221744E-1,-3.502054140E-2,-8.828372508E-2
2.375238753E0,-1.549958587E-1,-3.289001435E-2,-8.508793265E-2
2.377726462E0,-1.475390196E-1,-2.969422378E-2,-8.295740932E-2
2.380214170E0,-1.411474347E-1,-2.543316968E-2,-8.082687855E-2
2.382701878E0,-1.336905807E-1,-2.117211558E-2,-7.869634777E-2
2.385189587E0,-1.272990108E-1,-1.691105962E-2,-7.763108611E-2
2.387677295E0,-1.198421568E-1,-1.265000552E-2,-7.656582445E-2
2.390165003E0,-1.145158410E-1,-8.388951421E-3,-7.656582445E-2
2.392652712E0,-1.091895252E-1,-4.127896391E-3,-7.550056279E-2
2.395140420E0,-1.059937328E-1,-1.997369342E-3,-7.656582445E-2
2.397628128E0,-1.038632020E-1,-9.321057005E-4,-7.550056279E-2
2.400115837E0,-1.027979404E-1,-1.997369342E-3,-7.656582445E-2
2.402603545E0,-1.027979404E-1,-4.127896391E-3,-7.656582445E-2
2.405091253E0,-1.038632020E-1,-9.454214945E-3,-7.763108611E-2
2.407578962E0,-1.059937328E-1,-1.584579609E-2,-7.763108611E-2
2.410066670E0,-1.081242561E-1,-2.436790615E-2,-7.763108611E-2
2.412554378E0,-1.102547869E-1,-3.289001435E-2,-7.656582445E-2
2.415042087E0,-1.123853177E-1,-4.247738793E-2,-7.550056279E-2
2.417529795E0,-1.145158410E-1,-5.099949613E-2,-7.443529367E-2
2.420017503E0,-1.155811027E-1,-6.058686972E-2,-7.123950869E-2
2.422505212E0,-1.166463718E-1,-6.804371625E-2,-6.910897791E-2
2.424992920E0,-1.145158410E-1,-7.550056279E-2,-6.591318548E-2
2.427480628E0,-1.123853177E-1,-8.082687855E-2,-6.165213138E-2
2.429968337E0,-1.070589945E-1,-8.615319431E-2,-5.739107728E-2
2.432456045E0,-1.006674170E-1,-8.934898674E-2,-5.313002318E-2
2.434943753E0,-9.321057051E-2,-9.254477918E-2,-4.886896908E-2
2.437431462E0,-8.362319320E-2,-9.254477918E-2,-4.354264960E-2
2.439919170E0,-7.297056168E-2,-9.254477918E-2,-3.715106845E-2
2.442406878E0,-6.231792271E-2,-9.147951752E-2,-3.182475269E-2
2.444894587E0,-4.953476042E-2,-8.934898674E-2,-2.649843320E-2
2.447382295E0,-3.781685978E-2,-8.615319431E-2,-2.117211558E-2
2.449870003E0,-2.503369562E-2,-8.402267098E-2,-1.584579609E-2
2.452357712E0,-1.331579592E-2,-8.189214021E-2,-9.454214945E-3
2.454845420E0,-2.663159044E-3,-8.082687855E-2,-4.127896391E-3
2.457333128E0,7.989477366E-3,-7.976161689E-2,1.198421582E-3
2.459820837E0,1.864211448E-2,-8.082687855E-2,6.524739787E-3
2.462308545E0,2.609895915E-2,-8.189214021E-2,1.185105834E-2
2.464796253E0,3.249054030E-2,-8.295740932E-2,1.611211337E-2
2.467283962E0,3.888212144E-2,-8.508793265E-2,2.037316747E-2
2.469771670E0,4.420844093E-2,-8.828372508E-2,2.463422157E-2
2.472259378E0,4.846949503E-2,-9.147951752E-2,2.783001214E-2
2.474747087E0,5.273054913E-2,-9.361004084E-2,2.996053919E-2
2.477234795E0,5.592634156E-2,-9.574057162E-2,2.996053919E-2
2.479722503E0,5.912213027E-2,-9.787109494E-2,2.889527567E-2
2.482210212E0,6.231792271E-2,-9.893636405E-2,2.783001214E-2
2.484697920E0,6.338318437E-2,-1.000016257E-1,2.463422157E-2
2.487185628E0,6.338318437E-2,-1.010668874E-1,2.143843099E-2
2.489673337E0,6.231792271E-2,-1.021321490E-1,1.824264042E-2
2.492161045E0,6.125266105E-2,-1.031974182E-1,1.398158539E-2
2.494648753E0,5.912213027E-2,-1.042626798E-1,8.655266836E-3
2.497136462E0,5.592634156E-2,-1.053279415E-1,4.394212738E-3
2.499624170E0,5.273054913E-2,-1.074584723E-1,1.331579551E-4
2.502111878E0,4.846949503E-2,-1.074584723E-1,-3.062632866E-3
2.504599587E0,4.420844093E-2,-1.095889956E-1,-7.323687430E-3
2.507087295E0,3.888212144E-2,-1.106542572E-1,-1.051947847E-2
2.509575003E0,3.142527863E-2,-1.117195264E-1,-1.371526904E-2
2.512062712E0,2.503369562E-2,-1.117195264E-1,-1.691105962E-2
2.514550420E0,1.864211448E-2,-1.127847880E-1,-1.904158667E-2
2.517038128E0,1.225053146E-2,-1.127847880E-1,-2.117211558E-2
2.519525837E0,5.858949851E-3,-1.127847880E-1,-2.117211558E-2
2.522013545E0,-5.326318205E-4,-1.117195264E-1,-2.117211558E-2
2.524501253E0,-9.054740891E-3,-1.095889956E-1,-2.117211558E-2
2.526988910E0,-1.651158556E-2,-1.063932031E-1,-2.010685205E-2
2.529476566E0,-2.396843210E-2,-1.021321490E-1,-1.797632314E-2
2.531964222E0,-3.142527863E-2,-9.574057162E-2,-1.584579609E-2
2.534451878E0,-3.888212144E-2,-8.828372508E-2,-1.371526904E-2
2.536939535E0,-4.633896798E-2,-8.082687855E-2,-9.454214945E-3
2.539427191E0,-5.592634156E-2,-7.123950869E-2,-6.258423906E-3
2.541914847E0,-6.444845349E-2,-5.952160433E-2,-1.997369342E-3
2.544402503E0,-7.297056168E-2,-4.780370742E-2,3.328948980E-3
2.546890160E0,-8.362319320E-2,-3.395527974E-2,7.590003312E-3
2.549377816E0,-9.427583218E-2,-1.904158667E-2,1.185105834E-2
2.551865472E0,-1.070589945E-1,-5.193160381E-3,1.717737690E-2
2.554353128E0,-1.198421568E-1,7.590003312E-3,2.250369452E-2
2.556840785E0,-1.315600574E-1,2.037316747E-2,2.676474862E-2
2.559328441E0,-1.454084814E-1,3.102580272E-2,2.996053919E-2
2.561816097E0,-1.592569202E-1,4.061317816E-2,3.315633163E-2
2.564303753E0,-1.731053442E-1,4.700475931E-2,3.422159329E-2
2.566791410E0,-1.880190372E-1,5.126581341E-2,3.422159329E-2
2.569279066E0,-2.018674612E-1,5.446160212E-2,3.422159329E-2
2.571766722E0,-2.167811543E-1,5.339634046E-2,3.315633163E-2
2.574254378E0,-2.284990549E-1,5.020054802E-2,3.209106624E-2
2.576742035E0,-2.412822098E-1,4.593949392E-2,3.102580272E-2
2.579229691E0,-2.530001104E-1,3.954791278E-2,2.889527567E-2
2.581717347E0,-2.625874877E-1,3.209106624E-2,2.676474862E-2
2.584205003E0,-2.711096108E-1,2.569948509E-2,2.250369452E-2
2.586692660E0,-2.764359117E-1,1.717737690E-2,1.824264042E-2
2.589180316E0,-2.785664499E-1,8.655266836E-3,1.504684892E-2
2.591667972E0,-2.796317041E-1,1.198421582E-3,9.720530361E-3
2.594155628E0,-2.775011659E-1,-6.258423906E-3,4.394212738E-3
2.596643285E0,-2.732401192E-1,-1.265000552E-2,-9.321057005E-4
2.599130993E0,-2.679138184E-1,-1.797632314E-2,-7.323687430E-3
2.601618701E0,-2.593916953E-1,-2.223737910E-2,-1.265000552E-2
2.604106410E0,-2.498043180E-1,-2.649843320E-2,-1.797632314E-2
2.606594118E0,-2.402169555E-1,-2.756369673E-2,-2.436790615E-2
2.609081826E0,-2.295643091E-1,-2.969422378E-2,-3.075948730E-2
2.611569535E0,-2.210422009E-1,-3.075948730E-2,-3.608580679E-2
2.614057243E0,-2.114548385E-1,-3.182475269E-2,-4.141212255E-2
2.616544951E0,-2.018674612E-1,-3.182475269E-2,-4.567318037E-2
2.619032660E0,-1.933453530E-1,-3.289001435E-2,-4.886896908E-2
2.621520368E0,-1.848232448E-1,-3.395527974E-2,-5.099949613E-2
2.624008076E0,-1.773663908E-1,-3.395527974E-2,-5.099949613E-2
2.626495785E0,-1.709748209E-1,-3.395527974E-2,-4.993423447E-2
2.628983493E0,-1.667137593E-1,-3.182475269E-2,-4.780370742E-2
2.631471201E0,-1.613874435E-1,-3.075948730E-2,-4.247738793E-2
2.633958910E0,-1.581916511E-1,-2.756369673E-2,-3.715106845E-2
2.636446618E0,-1.539305896E-1,-2.436790615E-2,-2.969422378E-2
2.638934326E0,-1.496695429E-1,-2.117211558E-2,-2.223737910E-2
2.641422035E0,-1.475390196E-1,-1.691105962E-2,-1.265000552E-2
2.643909743E0,-1.454084814E-1,-1.265000552E-2,-1.997369342E-3
2.646397451E0,-1.432779580E-1,-7.323687430E-3,8.655266836E-3
2.648885160E0,-1.411474347E-1,-1.997369342E-3,1.824264042E-2
2.651372868E0,-1.400821656E-1,3.328948980E-3,3.102580272E-2
2.653860576E0,-1.390169114E-1,8.655266836E-3,4.167843983E-2
2.656348285E0,-1.390169114E-1,1.291632187E-2,5.339634046E-2
2.658835993E0,-1.379516423E-1,1.717737690E-2,6.404897571E-2
2.661323701E0,-1.379516423E-1,1.930790395E-2,7.470161468E-2
2.663811410E0,-1.358211190E-1,2.037316747E-2,8.428898454E-2
2.666299118E0,-1.347558498E-1,2.037316747E-2,9.387636185E-2
2.668786826E0,-1.326253265E-1,1.824264042E-2,1.013332009E-1
2.671274535E0,-1.304948032E-1,1.717737690E-2,1.077247858E-1
2.673762243E0,-1.262337416E-1,1.398158539E-2,1.130511016E-1
2.676249951E0,-1.219726875E-1,1.078579482E-2,1.183774248E-1
2.678737660E0,-1.166463718E-1,7.590003312E-3,1.215732098E-1
2.681225368E0,-1.102547869E-1,4.394212738E-3,1.237037405E-1
2.683713076E0,-1.027979404E-1,1.198421582E-3,1.237037405E-1
2.686200785E0,-9.321057051E-2,-3.062632866E-3,1.247690022E-1
2.688688493E0,-8.362319320E-2,-8.388951421E-3,1.247690022E-1
2.691176201E0,-7.190529257E-2,-1.371526904E-2,1.237037405E-1
2.693663910E0,-6.125266105E-2,-1.904158667E-2,1.226384789E-1
2.696151618E0,-4.953476042E-2,-2.436790615E-2,1.205079481E-1
2.698639326E0,-3.781685978E-2,-2.756369673E-2,1.194426864E-1
2.701127035E0,-2.609895915E-2,-2.969422378E-2,1.162468940E-1
2.703614743E0,-1.544632297E-2,-3.182475269E-2,1.130511016E-1
2.706102451E0,-2.663159044E-3,-3.289001435E-2,1.098553166E-1
2.708590160E0,6.924213842E-3,-3.395527974E-2,1.066595241E-1
2.711077868E0,1.544632297E-2,-3.395527974E-2,1.023984700E-1
2.713565576E0,2.183790505E-2,-3.502054140E-2,9.920267761E-2
2.716053285E0,2.716422267E-2,-3.608580679E-2,9.600688517E-2
2.718540993E0,3.142527863E-2,-3.608580679E-2,9.281109273E-2
2.721028701E0,3.462106735E-2,-3.715106845E-2,8.961530030E-2
2.723516410E0,3.462106735E-2,-3.928159550E-2,8.641951531E-2
2.726004118E0,3.462106735E-2,-4.141212255E-2,8.322372288E-2
2.728491826E0,3.036001325E-2,-4.354264960E-2,8.002793044E-2
2.730979535E0,2.609895915E-2,-4.780370742E-2,7.789740711E-2
2.733467243E0,2.077264152E-2,-5.099949613E-2,7.470161468E-2
2.735954951E0,1.438105945E-2,-5.632581562E-2,7.257108390E-2
2.738442660E0,5.858949851E-3,-6.058686972E-2,6.831002980E-2
2.740930368E0,-2.663159044E-3,-6.484792382E-2,6.617950648E-2
2.743418076E0,-1.225053146E-2,-6.910897791E-2,6.298371404E-2
2.745905785E0,-2.290316857E-2,-7.443529367E-2,5.978792161E-2
2.748393493E0,-3.355580568E-2,-7.763108611E-2,5.765739456E-2
2.750881201E0,-4.420844093E-2,-8.082687855E-2,5.446160212E-2
2.753368910E0,-5.486107618E-2,-8.295740932E-2,5.233107507E-2
2.755856618E0,-6.551371515E-2,-8.508793265E-2,5.020054802E-2
2.758344326E0,-7.510108501E-2,-8.721846342E-2,4.807002097E-2
2.760832035E0,-8.362319320E-2,-8.828372508E-2,4.700475931E-2
2.763319743E0,-9.108003974E-2,-8.828372508E-2,4.487423226E-2
2.765807451E0,-9.747162461E-2,-8.828372508E-2,4.380896688E-2
2.768295160E0,-1.027979404E-1,-8.721846342E-2,4.274370521E-2
2.770782868E0,-1.070589945E-1,-8.508793265E-2,4.167843983E-2
2.773270576E0,-1.113200486E-1,-8.082687855E-2,3.954791278E-2
2.775758285E0,-1.145158410E-1,-7.550056279E-2,3.954791278E-2
2.778245993E0,-1.177116334E-1,-6.804371625E-2,3.741738573E-2
2.780733701E0,-1.198421568E-1,-6.165213138E-2,3.635212034E-2
2.783221410E0,-1.219726875E-1,-5.313002318E-2,3.422159329E-2
2.785709118E0,-1.241032109E-1,-4.567318037E-2,3.209106624E-2
2.788196826E0,-1.251684725E-1,-3.821633384E-2,2.996053919E-2
2.790684535E0,-1.251684725E-1,-3.075948730E-2,2.676474862E-2
2.793172243E0,-1.262337416E-1,-2.436790615E-2,2.463422157E-2
2.795659951E0,-1.262337416E-1,-1.904158667E-2,2.143843099E-2
2.798147660E0,-1.272990108E-1,-1.371526904E-2,1.824264042E-2
2.800635368E0,-1.283642650E-1,-9.454214945E-3,1.504684892E-2
2.803123076E0,-1.294295341E-1,-5.193160381E-3,1.185105834E-2
2.805610785E0,-1.315600574E-1,-1.997369342E-3,8.655266836E-3
2.808098493E0,-1.336905807E-1,-9.321057005E-4,5.459476262E-3
2.810586201E0,-1.358211190E-1,1.331579551E-4,4.394212738E-3
2.813073910E0,-1.368863732E-1,1.331579551E-4,2.263685223E-3
2.815561618E0,-1.368863732E-1,-9.321057005E-4,1.331579551E-4
2.818049326E0,-1.368863732E-1,-3.062632866E-3,-1.997369342E-3
2.820537035E0,-1.347558498E-1,-5.193160381E-3,-3.062632866E-3
2.823024743E0,-1.326253265E-1,-6.258423906E-3,-3.062632866E-3
2.825512451E0,-1.283642650E-1,-6.258423906E-3,-4.127896391E-3
2.828000160E0,-1.230379492E-1,-5.193160381E-3,-3.062632866E-3
2.830487868E0,-1.166463718E-1,-3.062632866E-3,-3.062632866E-3
2.832975576E0,-1.081242561E-1,1.331579551E-4,-1.997369342E-3
2.835463285E0,-9.853688627E-2,3.328948980E-3,-9.321057005E-4
2.837950993E0,-8.788424730E-2,6.524739787E-3,1.198421582E-3
2.840438701E0,-7.510108501E-2,1.291632187E-2,2.263685223E-3
2.842926410E0,-6.125266105E-2,1.930790395E-2,3.328948980E-3
2.845414118E0,-4.633896798E-2,2.569948509E-2,5.459476262E-3
2.847901826E0,-3.036001325E-2,3.315633163E-2,7.590003312E-3
2.850389535E0,-1.438105945E-2,4.167843983E-2,9.720530361E-3
2.852877243E0,1.597895520E-3,5.126581341E-2,1.078579482E-2
2.855364951E0,1.651158556E-2,5.978792161E-2,1.398158539E-2
2.857852660E0,3.249054030E-2,6.831002980E-2,1.611211337E-2
2.860340368E0,4.527370632E-2,7.789740711E-2,1.824264042E-2
2.862828076E0,5.805686861E-2,8.535424620E-2,2.143843099E-2
2.865315785E0,6.870950758E-2,9.281109273E-2,2.356895804E-2
2.867803493E0,7.723161578E-2,1.002679393E-1,2.569948509E-2
2.870291201E0,8.255793154E-2,1.077247858E-1,2.783001214E-2
2.872778910E0,8.681898564E-2,1.130511016E-1,2.996053919E-2
2.875266618E0,8.681898564E-2,1.194426864E-1,3.209106624E-2
2.877754326E0,8.362319320E-2,1.247690022E-1,3.422159329E-2
2.880242035E0,7.829687744E-2,1.290300637E-1,3.528685868E-2
2.882729743E0,7.190529257E-2,1.322258562E-1,3.635212034E-2
2.885217451E0,6.231792271E-2,1.343563795E-1,3.741738573E-2
2.887705160E0,5.273054913E-2,1.364869028E-1,3.741738573E-2
2.890192868E0,3.994738683E-2,1.375521719E-1,3.635212034E-2
2.892680576E0,2.503369562E-2,1.375521719E-1,3.635212034E-2
2.895168285E0,7.989477366E-3,1.375521719E-1,3.422159329E-2
2.897655993E0,-9.054740891E-3,1.375521719E-1,3.422159329E-2
2.900143701E0,-2.929474972E-2,1.364869028E-1,3.209106624E-2
2.902631410E0,-4.953476042E-2,1.343563795E-1,2.996053919E-2
2.905119118E0,-7.084003091E-2,1.322258562E-1,2.569948509E-2
2.907606826E0,-9.321057051E-2,1.290300637E-1,2.250369452E-2
2.910094535E0,-1.155811027E-1,1.237037405E-1,1.824264042E-2
2.912582243E0,-1.379516423E-1,1.183774248E-1,1.291632187E-2
2.915069951E0,-1.613874435E-1,1.119858399E-1,8.655266836E-3
2.917557660E0,-1.816274524E-1,1.055942550E-1,4.394212738E-3
2.920045368E0,-2.029327303E-1,9.813741595E-2,1.331579551E-4
2.922533076E0,-2.221074700E-1,9.068056941E-2,-5.193160381E-3
2.925020785E0,-2.402169555E-1,8.215846121E-2,-9.454214945E-3
2.927508493E0,-2.561959028E-1,7.363634557E-2,-1.265000552E-2
2.929996201E0,-2.700443268E-1,6.511423737E-2,-1.584579609E-2
2.932483910E0,-2.806969583E-1,5.659212917E-2,-1.904158667E-2
2.934971618E0,-2.892190814E-1,4.807002097E-2,-2.223737910E-2
2.937459326E0,-2.945453823E-1,3.954791278E-2,-2.543316968E-2
2.939947035E0,-2.966759205E-1,3.209106624E-2,-2.756369673E-2
2.942434743E0,-2.956106663E-1,2.569948509E-2,-2.969422378E-2
2.944922451E0,-2.924148738E-1,2.037316747E-2,-3.182475269E-2
2.947410108E0,-2.860232890E-1,1.504684892E-2,-3.395527974E-2
2.949897764E0,-2.775011659E-1,1.185105834E-2,-3.395527974E-2
2.952385420E0,-2.657832801E-1,7.590003312E-3,-3.502054140E-2
2.954873076E0,-2.540653646E-1,3.328948980E-3,-3.608580679E-2
2.957360733E0,-2.391516864E-1,1.198421582E-3,-3.502054140E-2
2.959848389E0,-2.221074700E-1,-9.321057005E-4,-3.395527974E-2
2.962336045E0,-2.039979845E-1,-1.997369342E-3,-3.182475269E-2
2.964823701E0,-1.837579757E-1,-1.997369342E-3,-2.969422378E-2
2.967311358E0,-1.624527127E-1,-1.997369342E-3,-2.756369673E-2
2.969799014E0,-1.411474347E-1,-9.321057005E-4,-2.543316968E-2
2.972286670E0,-1.187768951E-1,1.198421582E-3,-2.330264263E-2
2.974774326E0,-9.534109384E-2,5.459476262E-3,-2.117211558E-2
2.977261983E0,-7.084003091E-2,1.078579482E-2,-2.010685205E-2
2.979749639E0,-4.633896798E-2,1.717737690E-2,-1.904158667E-2
2.982237295E0,-2.290316857E-2,2.463422157E-2,-1.691105962E-2
2.984724951E0,-5.326318205E-4,3.209106624E-2,-1.691105962E-2
2.987212608E0,1.970737800E-2,4.061317816E-2,-1.797632314E-2
2.989700264E0,3.675159439E-2,4.913528636E-2,-1.904158667E-2
2.992187920E0,4.953476042E-2,5.765739456E-2,-2.330264263E-2
2.994675576E0,6.018739566E-2,6.404897571E-2,-2.862896025E-2
2.997163233E0,6.764423847E-2,6.937529147E-2,-3.502054140E-2
2.999650889E0,7.190529257E-2,7.363634557E-2,-4.247738793E-2
3.002138545E0,7.190529257E-2,7.683213800E-2,-5.206476152E-2
3.004626201E0,6.870950758E-2,7.789740711E-2,-6.165213138E-2
3.007113858E0,6.338318437E-2,7.789740711E-2,-7.230477035E-2
3.009601514E0,5.379581451E-2,7.576687634E-2,-8.402267098E-2
3.012089170E0,4.207791388E-2,7.257108390E-2,-9.574057162E-2
3.014576826E0,2.716422267E-2,6.937529147E-2,-1.063932031E-1
3.017064483E0,1.118526794E-2,6.724476814E-2,-1.181111038E-1
3.019552139E0,-6.924213842E-3,6.298371404E-2,-1.298290044E-1
3.022039847E0,-2.609895915E-2,5.978792161E-2,-1.415469050E-1
3.024527555E0,-4.527370632E-2,5.552686751E-2,-1.532648057E-1
3.027015264E0,-6.657897681E-2,5.339634046E-2,-1.649827063E-1
3.029502972E0,-8.681898564E-2,4.913528636E-2,-1.767006069E-1
3.031990680E0,-1.081242561E-1,4.487423226E-2,-1.884185076E-1
3.034478389E0,-1.283642650E-1,4.061317816E-2,-1.990711391E-1
3.036966097E0,-1.464737505E-1,3.528685868E-2,-2.086585164E-1
3.039453805E0,-1.645832360E-1,2.996053919E-2,-2.182458937E-1
3.041941514E0,-1.816274524E-1,2.356895804E-2,-2.267680019E-1
3.044429222E0,-1.954758763E-1,1.824264042E-2,-2.342248410E-1
3.046916930E0,-2.093243003E-1,1.291632187E-2,-2.416816950E-1
3.049404639E0,-2.210422009E-1,8.655266836E-3,-2.480732650E-1
3.051892347E0,-2.316948473E-1,4.394212738E-3,-2.533995807E-1
3.054380055E0,-2.402169555E-1,2.263685223E-3,-2.576606572E-1
3.056867764E0,-2.476737946E-1,1.198421582E-3,-2.608564198E-1
3.059355472E0,-2.540653646E-1,1.331579551E-4,-2.640522122E-1
3.061843180E0,-2.593916953E-1,2.263685223E-3,-2.672480047E-1
3.064330889E0,-2.636527419E-1,4.394212738E-3,-2.693785429E-1
3.066818597E0,-2.679138184E-1,7.590003312E-3,-2.704437971E-1
3.069306305E0,-2.732401192E-1,1.291632187E-2,-2.725743353E-1
3.071794014E0,-2.764359117E-1,1.717737690E-2,-2.736395895E-1
3.074281722E0,-2.806969583E-1,2.143843099E-2,-2.736395895E-1
3.076769430E0,-2.860232890E-1,2.569948509E-2,-2.736395895E-1
3.079257139E0,-2.902843356E-1,3.102580272E-2,-2.715090811E-1
3.081744847E0,-2.956106663E-1,3.528685868E-2,-2.693785429E-1
3.084232555E0,-3.020022511E-1,3.954791278E-2,-2.640522122E-1
3.086720264E0,-3.073285520E-1,4.487423226E-2,-2.587259114E-1
3.089207972E0,-3.126548827E-1,5.020054802E-2,-2.512690723E-1
3.091695680E0,-3.190464675E-1,5.659212917E-2,-2.416816950E-1
3.094183389E0,-3.243727684E-1,6.298371404E-2,-2.331595868E-1
3.096671097E0,-3.286338449E-1,6.937529147E-2,-2.235722095E-1
3.099158805E0,-3.328948915E-1,7.470161468E-2,-2.139848322E-1
3.101646514E0,-3.371559381E-1,8.109319210E-2,-2.054627240E-1
3.104134222E0,-3.392864764E-1,8.748477697E-2,-1.980058849E-1
3.106621930E0,-3.392864764E-1,9.281109273E-2,-1.905490309E-1
3.109109639E0,-3.392864764E-1,9.813741595E-2,-1.852227151E-1
3.111597347E0,-3.371559381E-1,1.023984700E-1,-1.809616536E-1
3.114085055E0,-3.328948915E-1,1.077247858E-1,-1.767006069E-1
3.116572764E0,-3.275685608E-1,1.109205782E-1,-1.756353378E-1
3.119060472E0,-3.190464675E-1,1.151816323E-1,-1.756353378E-1
3.121548180E0,-3.083938360E-1,1.194426864E-1,-1.767006069E-1
3.124035889E0,-2.966759205E-1,1.237037405E-1,-1.788311303E-1
3.126523597E0,-2.828274965E-1,1.290300637E-1,-1.841574460E-1
3.129011305E0,-2.668485343E-1,1.343563795E-1,-1.894837767E-1
3.131499014E0,-2.508696020E-1,1.407479644E-1,-1.969406158E-1
3.133986722E0,-2.316948473E-1,1.460742801E-1,-2.065279931E-1
3.136474430E0,-2.125200927E-1,1.524658650E-1,-2.161153555E-1
3.138962139E0,-1.933453530E-1,1.588574350E-1,-2.267680019E-1
3.141449847E0,-1.731053442E-1,1.641837656E-1,-2.395511568E-1
3.143937555E0,-1.528653353E-1,1.673795432E-1,-2.512690723E-1
3.146425264E0,-1.326253265E-1,1.716406047E-1,-2.629869580E-1
3.148912972E0,-1.134505793E-1,1.748363972E-1,-2.747048736E-1
3.151400680E0,-9.534109384E-2,1.780321896E-1,-2.853575051E-1
3.153888389E0,-7.829687744E-2,1.790974438E-1,-2.949448824E-1
3.156376097E0,-6.231792271E-2,1.790974438E-1,-3.045322299E-1
3.158863805E0,-4.740423337E-2,1.801627129E-1,-3.141196072E-1
3.161351514E0,-3.462106735E-2,1.801627129E-1,-3.226417303E-1
3.163839222E0,-2.396843210E-2,1.801627129E-1,-3.300985694E-1
3.166326930E0,-1.438105945E-2,1.801627129E-1,-3.364901543E-1
3.168814639E0,-7.989477366E-3,1.812279820E-1,-3.407512009E-1
3.171302347E0,-3.728422802E-3,1.822932363E-1,-3.450122476E-1
3.173790055E0,-1.597895520E-3,1.844237745E-1,-3.471427858E-1
3.176277764E0,-1.597895520E-3,1.844237745E-1,-3.482080400E-1
3.178765472E0,-3.728422802E-3,1.844237745E-1,-3.471427858E-1
3.181253180E0,-7.989477366E-3,1.833585054E-1,-3.428817391E-1
3.183740889E0,-1.438105945E-2,1.812279820E-1,-3.386206925E-1
3.186228597E0,-2.183790505E-2,1.780321896E-1,-3.322291076E-1
3.188716305E0,-3.036001325E-2,1.737711281E-1,-3.226417303E-1
3.191204014E0,-3.888212144E-2,1.695100814E-1,-3.130543530E-1
3.193691722E0,-4.953476042E-2,1.641837656E-1,-3.013364673E-1
3.196179430E0,-5.912213027E-2,1.599227041E-1,-2.885532975E-1
3.198667139E0,-6.870950758E-2,1.567269117E-1,-2.747048736E-1
3.201154847E0,-7.723161578E-2,1.545963883E-1,-2.608564198E-1
3.203642555E0,-8.468846232E-2,1.535311192E-1,-2.470080107E-1
3.206130264E0,-9.108003974E-2,1.545963883E-1,-2.342248410E-1
3.208617972E0,-9.534109384E-2,1.567269117E-1,-2.214416862E-1
3.211105680E0,-9.960214794E-2,1.609879732E-1,-2.075932473E-1
3.213593389E0,-1.017326787E-1,1.663142890E-1,-1.948100924E-1
3.216081097E0,-1.017326787E-1,1.727058738E-1,-1.820269227E-1
3.218568805E0,-1.017326787E-1,1.812279820E-1,-1.713742912E-1
3.221056514E0,-1.017326787E-1,1.897500902E-1,-1.596563905E-1
3.223544222E0,-9.960214794E-2,1.982721984E-1,-1.500690132E-1
3.226031930E0,-9.960214794E-2,2.067943066E-1,-1.394163817E-1
3.228519639E0,-9.853688627E-2,2.142511457E-1,-1.298290044E-1
3.231007347E0,-9.747162461E-2,2.217079997E-1,-1.202416345E-1
3.233495055E0,-9.747162461E-2,2.280995846E-1,-1.117195264E-1
3.235982764E0,-9.853688627E-2,2.323606312E-1,-1.031974182E-1
3.238470472E0,-9.853688627E-2,2.334259003E-1,-9.574057162E-2
3.240958180E0,-9.960214794E-2,2.344911546E-1,-8.721846342E-2
3.243445889E0,-1.017326787E-1,2.334259003E-1,-7.763108611E-2
3.245933597E0,-1.038632020E-1,2.323606312E-1,-6.910897791E-2
3.248421305E0,-1.059937328E-1,2.291648388E-1,-6.165213138E-2
3.250909014E0,-1.070589945E-1,2.249037921E-1,-5.206476152E-2
3.253396722E0,-1.091895252E-1,2.217079997E-1,-4.460791498E-2
3.255884430E0,-1.113200486E-1,2.174469382E-1,-3.715106845E-2
3.258372139E0,-1.134505793E-1,2.153164148E-1,-2.969422378E-2
3.260859847E0,-1.155811027E-1,2.131858915E-1,-2.117211558E-2
3.263347555E0,-1.177116334E-1,2.142511457E-1,-1.371526904E-2
3.265835264E0,-1.187768951E-1,2.153164148E-1,-6.258423906E-3
3.268322972E0,-1.198421568E-1,2.174469382E-1,1.198421582E-3
3.270810680E0,-1.209074259E-1,2.217079997E-1,8.655266836E-3
3.273298389E0,-1.209074259E-1,2.270343155E-1,1.717737690E-2
3.275786097E0,-1.187768951E-1,2.323606312E-1,2.569948509E-2
3.278273805E0,-1.166463718E-1,2.398174703E-1,3.528685868E-2
3.280761514E0,-1.145158410E-1,2.472743243E-1,4.380896688E-2
3.283249222E0,-1.123853177E-1,2.547311783E-1,5.339634046E-2
3.285736930E0,-1.102547869E-1,2.632532716E-1,6.191844866E-2
3.288224639E0,-1.081242561E-1,2.717753947E-1,7.044056058E-2
3.290712347E0,-1.070589945E-1,2.792322338E-1,7.896266878E-2
3.293200055E0,-1.059937328E-1,2.866890728E-1,8.855003864E-2
3.295687764E0,-1.059937328E-1,2.941459119E-1,9.707214683E-2
3.298175472E0,-1.070589945E-1,2.994722426E-1,1.055942550E-1
3.300663180E0,-1.091895252E-1,3.037332892E-1,1.141163707E-1
3.303150889E0,-1.113200486E-1,3.079943359E-1,1.226384789E-1
3.305638597E0,-1.123853177E-1,3.101248741E-1,1.311605871E-1
3.308126305E0,-1.145158410E-1,3.111901283E-1,1.386174262E-1
3.310614014E0,-1.166463718E-1,3.101248741E-1,1.482048035E-1
3.313101722E0,-1.187768951E-1,3.090596199E-1,1.556616426E-1
3.315589430E0,-1.198421568E-1,3.058638275E-1,1.641837656E-1
3.318077139E0,-1.198421568E-1,3.026680350E-1,1.727058738E-1
3.320564847E0,-1.198421568E-1,2.994722426E-1,1.790974438E-1
3.323052555E0,-1.198421568E-1,2.952111959E-1,1.876195520E-1
3.325540264E0,-1.177116334E-1,2.920154035E-1,1.950764060E-1
3.328027972E0,-1.145158410E-1,2.888196111E-1,2.035985142E-1
3.330515680E0,-1.113200486E-1,2.866890728E-1,2.121206224E-1
3.333003389E0,-1.049284711E-1,2.845585644E-1,2.206427306E-1
3.335491097E0,-9.853688627E-2,2.845585644E-1,2.280995846E-1
3.337978805E0,-9.001477808E-2,2.856238186E-1,2.355564237E-1
3.340466514E0,-8.042740822E-2,2.856238186E-1,2.408827394E-1
3.342954222E0,-6.870950758E-2,2.877543271E-1,2.462090552E-1
3.345441930E0,-5.592634156E-2,2.888196111E-1,2.494048476E-1
3.347929587E0,-4.207791388E-2,2.909501195E-1,2.504701018E-1
3.350417243E0,-2.716422267E-2,2.920154035E-1,2.504701018E-1
3.352904899E0,-1.012000442E-2,2.941459119E-1,2.504701018E-1
3.355392555E0,6.924213842E-3,2.962764502E-1,2.494048476E-1
3.357880212E0,2.396843210E-2,2.973417044E-1,2.462090552E-1
3.360367868E0,4.314317927E-2,2.994722426E-1,2.419480085E-1
3.362855524E0,6.125266105E-2,3.005374968E-1,2.366216928E-1
3.365343180E0,8.042740822E-2,3.016027808E-1,2.291648388E-1
3.367830837E0,9.960214794E-2,3.016027808E-1,2.206427306E-1
3.370318493E0,1.198421568E-1,3.016027808E-1,2.110553533E-1
3.372806149E0,1.390169114E-1,3.016027808E-1,1.993374527E-1
3.375293805E0,1.581916511E-1,3.016027808E-1,1.865542978E-1
3.377781462E0,1.763011366E-1,3.026680350E-1,1.716406047E-1
3.380269118E0,1.954758763E-1,3.037332892E-1,1.567269117E-1
3.382756774E0,2.125200927E-1,3.058638275E-1,1.386174262E-1
3.385244430E0,2.295643091E-1,3.101248741E-1,1.205079481E-1
3.387732087E0,2.455432713E-1,3.143859208E-1,1.013332009E-1
3.390219743E0,2.615222335E-1,3.207775056E-1,8.109319210E-2
3.392707399E0,2.743053734E-1,3.261038363E-1,5.978792161E-2
3.395195055E0,2.860232890E-1,3.346259296E-1,3.848264739E-2
3.397682712E0,2.966759205E-1,3.420827985E-1,1.611211337E-2
3.400170368E0,3.041327596E-1,3.506048918E-1,-7.323687430E-3
3.402658024E0,3.105243444E-1,3.591270149E-1,-3.075948730E-2
3.405145680E0,3.137201369E-1,3.665838540E-1,-5.419528857E-2
3.407633337E0,3.147853911E-1,3.740406930E-1,-7.976161689E-2
3.410120993E0,3.126548827E-1,3.804322779E-1,-1.031974182E-1
3.412608649E0,3.073285520E-1,3.846933246E-1,-1.266332120E-1
3.415096305E0,2.977411747E-1,3.878891170E-1,-1.500690132E-1
3.417583962E0,2.849580348E-1,3.889544010E-1,-1.724395454E-1
3.420071618E0,2.700443268E-1,3.878891170E-1,-1.926795542E-1
3.422559274E0,2.519348562E-1,3.836280704E-1,-2.129195631E-1
3.425046983E0,2.316948473E-1,3.772364855E-1,-2.331595868E-1
3.427534691E0,2.093243003E-1,3.676491082E-1,-2.512690723E-1
3.430022399E0,1.848232448E-1,3.559312224E-1,-2.693785429E-1
3.432510108E0,1.592569202E-1,3.431480527E-1,-2.864227593E-1
3.434997816E0,1.336905807E-1,3.282343447E-1,-3.034669757E-1
3.437485524E0,1.059937328E-1,3.122554123E-1,-3.194459379E-1
3.439973233E0,7.936213911E-2,2.973417044E-1,-3.343596160E-1
3.442460941E0,5.379581451E-2,2.824280262E-1,-3.482080400E-1
3.444948649E0,2.929474972E-2,2.696448565E-1,-3.609912097E-1
3.447436358E0,6.924213842E-3,2.579269707E-1,-3.737743795E-1
3.449924066E0,-1.438105945E-2,2.483395934E-1,-3.854922652E-1
3.452411774E0,-3.142527863E-2,2.398174703E-1,-3.961449265E-1
3.454899483E0,-4.740423337E-2,2.334259003E-1,-4.057323039E-1
3.457387191E0,-6.125266105E-2,2.291648388E-1,-4.131891429E-1
3.459874899E0,-7.084003091E-2,2.270343155E-1,-4.195807278E-1
3.462362608E0,-7.829687744E-2,2.259690464E-1,-4.249070287E-1
3.464850316E0,-8.362319320E-2,2.259690464E-1,-4.302333593E-1
3.467338024E0,-8.788424730E-2,2.280995846E-1,-4.323638678E-1
3.469825733E0,-9.001477808E-2,2.312953621E-1,-4.344944060E-1
3.472313441E0,-9.214530140E-2,2.344911546E-1,-4.344944060E-1
3.474801149E0,-9.321057051E-2,2.398174703E-1,-4.334291518E-1
3.477288858E0,-9.321057051E-2,2.451438010E-1,-4.312986135E-1
3.479776566E0,-9.427583218E-2,2.515353858E-1,-4.281028211E-1
3.482264274E0,-9.640636295E-2,2.568616867E-1,-4.217112362E-1
3.484751983E0,-9.960214794E-2,2.643185556E-1,-4.142543972E-1
3.487239691E0,-1.017326787E-1,2.696448565E-1,-4.057323039E-1
3.489727399E0,-1.049284711E-1,2.749711871E-1,-3.940143883E-1
3.492215108E0,-1.081242561E-1,2.802974880E-1,-3.812312186E-1
3.494702816E0,-1.113200486E-1,2.856238186E-1,-3.684480488E-1
3.497190524E0,-1.155811027E-1,2.898848653E-1,-3.524691164E-1
3.499678233E0,-1.198421568E-1,2.941459119E-1,-3.354249001E-1
3.502165941E0,-1.241032109E-1,2.973417044E-1,-3.183806837E-1
3.504653649E0,-1.283642650E-1,3.005374968E-1,-3.002711833E-1
3.507141358E0,-1.326253265E-1,3.037332892E-1,-2.821617126E-1
3.509629066E0,-1.368863732E-1,3.058638275E-1,-2.640522122E-1
3.512116774E0,-1.411474347E-1,3.079943359E-1,-2.459427416E-1
3.514604483E0,-1.454084814E-1,3.111901283E-1,-2.288985252E-1
3.517092191E0,-1.507348120E-1,3.122554123E-1,-2.118543088E-1
3.519579899E0,-1.560611278E-1,3.133206666E-1,-1.948100924E-1
3.522067608E0,-1.613874435E-1,3.133206666E-1,-1.788311303E-1
3.524555316E0,-1.677790284E-1,3.143859208E-1,-1.617869139E-1
3.527043024E0,-1.741705984E-1,3.133206666E-1,-1.458079666E-1
3.529530733E0,-1.794969290E-1,3.122554123E-1,-1.298290044E-1
3.532018441E0,-1.869537681E-1,3.101248741E-1,-1.138500497E-1
3.534506149E0,-1.922800839E-1,3.058638275E-1,-1.000016257E-1
3.536993858E0,-1.986716688E-1,3.026680350E-1,-8.615319431E-2
3.539481566E0,-2.050632536E-1,2.973417044E-1,-7.230477035E-2
3.541969274E0,-2.114548385E-1,2.920154035E-1,-6.058686972E-2
3.544456983E0,-2.157158852E-1,2.845585644E-1,-4.886896908E-2
3.546944691E0,-2.199769467E-1,2.760364413E-1,-3.821633384E-2
3.549432399E0,-2.242379934E-1,2.664490640E-1,-2.862896025E-2
3.551920108E0,-2.263685167E-1,2.557964325E-1,-1.904158667E-2
3.554407816E0,-2.274337858E-1,2.451438010E-1,-1.051947847E-2
3.556895524E0,-2.274337858E-1,2.334259003E-1,-3.062632866E-3
3.559383233E0,-2.263685167E-1,2.206427306E-1,4.394212738E-3
3.561870941E0,-2.231727391E-1,2.067943066E-1,9.720530361E-3
3.564358649E0,-2.189116776E-1,1.929458827E-1,1.291632187E-2
3.566846358E0,-2.135853618E-1,1.790974438E-1,1.717737690E-2
3.569334066E0,-2.061285079E-1,1.641837656E-1,2.037316747E-2
3.571821774E0,-1.976063997E-1,1.482048035E-1,2.250369452E-2
3.574309483E0,-1.858884990E-1,1.332911104E-1,2.250369452E-2
3.576797191E0,-1.731053442E-1,1.194426864E-1,2.143843099E-2
3.579284899E0,-1.581916511E-1,1.066595241E-1,2.037316747E-2
3.581772608E0,-1.422126889E-1,9.387636185E-2,1.824264042E-2
3.584260316E0,-1.251684725E-1,8.322372288E-2,1.504684892E-2
3.586748024E0,-1.059937328E-1,7.470161468E-2,1.078579482E-2
3.589235733E0,-8.575372398E-2,6.724476814E-2,7.590003312E-3
3.591723441E0,-6.338318437E-2,5.978792161E-2,4.394212738E-3
3.594211149E0,-3.888212144E-2,5.552686751E-2,-9.321057005E-4
3.596698858E0,-1.331579592E-2,5.126581341E-2,-5.193160381E-3
3.599186566E0,1.225053146E-2,4.807002097E-2,-8.388951421E-3
3.601674274E0,3.888212144E-2,4.700475931E-2,-1.158474199E-2
3.604161983E0,6.551371515E-2,4.487423226E-2,-1.478053257E-2
3.606649691E0,9.214530140E-2,4.487423226E-2,-1.691105962E-2
3.609137399E0,1.187768951E-1,4.487423226E-2,-2.010685205E-2
3.611625108E0,1.443432271E-1,4.593949392E-2,-2.223737910E-2
3.614112816E0,1.677790284E-1,4.807002097E-2,-2.436790615E-2
3.616600524E0,1.912148297E-1,5.020054802E-2,-2.543316968E-2
3.619088233E0,2.125200927E-1,5.552686751E-2,-2.649843320E-2
3.621575941E0,2.316948473E-1,5.978792161E-2,-2.756369673E-2
3.624063649E0,2.508696020E-1,6.511423737E-2,-2.862896025E-2
3.626551358E0,2.668485343E-1,7.044056058E-2,-2.969422378E-2
3.629039066E0,2.806969583E-1,7.576687634E-2,-2.969422378E-2
3.631526774E0,2.934801280E-1,8.109319210E-2,-3.075948730E-2
3.634014483E0,3.030675054E-1,8.535424620E-2,-3.075948730E-2
3.636502191E0,3.105243444E-1,9.068056941E-2,-3.075948730E-2
3.638989899E0,3.158506751E-1,9.494162351E-2,-3.075948730E-2
3.641477608E0,3.190464675E-1,9.707214683E-2,-3.075948730E-2
3.643965316E0,3.201117218E-1,9.920267761E-2,-3.075948730E-2
3.646453024E0,3.179811835E-1,1.002679393E-1,-3.075948730E-2
3.648940733E0,3.137201369E-1,1.013332009E-1,-3.075948730E-2
3.651428441E0,3.062632978E-1,1.002679393E-1,-3.182475269E-2
3.653916149E0,2.966759205E-1,9.707214683E-2,-3.182475269E-2
3.656403858E0,2.849580348E-1,9.387636185E-2,-3.182475269E-2
3.658891566E0,2.721748650E-1,8.855003864E-2,-3.182475269E-2
3.661379274E0,2.583264410E-1,8.322372288E-2,-3.182475269E-2
3.663866983E0,2.434127480E-1,7.363634557E-2,-3.182475269E-2
3.666354691E0,2.274337858E-1,6.511423737E-2,-3.289001435E-2
3.668842399E0,2.125200927E-1,5.446160212E-2,-3.395527974E-2
3.671330108E0,1.965411454E-1,4.487423226E-2,-3.502054140E-2
3.673817816E0,1.805621833E-1,3.315633163E-2,-3.608580679E-2
3.676305524E0,1.645832360E-1,2.356895804E-2,-3.608580679E-2
3.678793233E0,1.496695429E-1,1.504684892E-2,-3.608580679E-2
3.681280941E0,1.358211190E-1,5.459476262E-3,-3.715106845E-2
3.683768649E0,1.219726875E-1,-9.321057005E-4,-3.715106845E-2
3.686256358E0,1.102547869E-1,-8.388951421E-3,-3.821633384E-2
3.688744066E0,9.960214794E-2,-1.478053257E-2,-3.821633384E-2
3.691231774E0,9.001477808E-2,-2.010685205E-2,-3.821633384E-2
3.693719483E0,8.362319320E-2,-2.330264263E-2,-3.715106845E-2
3.696207191E0,7.723161578E-2,-2.649843320E-2,-3.608580679E-2
3.698694899E0,7.297056168E-2,-2.756369673E-2,-3.502054140E-2
3.701182608E0,6.977476925E-2,-2.862896025E-2,-3.395527974E-2
3.703670316E0,6.551371515E-2,-2.862896025E-2,-3.289001435E-2
3.706158024E0,6.444845349E-2,-2.756369673E-2,-3.182475269E-2
3.708645733E0,6.338318437E-2,-2.436790615E-2,-2.862896025E-2
3.711133441E0,6.338318437E-2,-2.117211558E-2,-2.543316968E-2
3.713621149E0,6.551371515E-2,-1.691105962E-2,-2.117211558E-2
3.716108858E0,6.657897681E-2,-1.265000552E-2,-1.584579609E-2
3.718596566E0,7.084003091E-2,-7.323687430E-3,-1.158474199E-2
3.721084274E0,7.403582335E-2,-1.997369342E-3,-6.258423906E-3
3.723571983E0,7.936213911E-2,4.394212738E-3,-9.321057005E-4
3.726059691E0,8.255793154E-2,1.078579482E-2,4.394212738E-3
3.728547347E0,8.788424730E-2,1.717737690E-2,9.720530361E-3
3.731035003E0,9.214530140E-2,2.463422157E-2,1.611211337E-2
3.733522660E0,9.534109384E-2,3.102580272E-2,2.143843099E-2
3.736010316E0,9.960214794E-2,3.741738573E-2,2.783001214E-2
3.738497972E0,1.038632020E-1,4.380896688E-2,3.315633163E-2
3.740985628E0,1.070589945E-1,5.020054802E-2,3.848264739E-2
3.743473285E0,1.102547869E-1,5.552686751E-2,4.380896688E-2
3.745960941E0,1.123853177E-1,5.978792161E-2,4.913528636E-2
3.748448597E0,1.134505793E-1,6.404897571E-2,5.339634046E-2
3.750936253E0,1.134505793E-1,6.831002980E-2,5.765739456E-2
3.753423910E0,1.134505793E-1,7.150582224E-2,6.085318699E-2
3.755911566E0,1.123853177E-1,7.363634557E-2,6.298371404E-2
3.758399222E0,1.102547869E-1,7.470161468E-2,6.511423737E-2
3.760886878E0,1.070589945E-1,7.470161468E-2,6.724476814E-2
3.763374535E0,1.027979404E-1,7.363634557E-2,6.831002980E-2
3.765862191E0,9.853688627E-2,7.150582224E-2,6.937529147E-2
3.768349847E0,9.321057051E-2,6.831002980E-2,7.044056058E-2
3.770837503E0,8.788424730E-2,6.298371404E-2,7.150582224E-2
3.773325160E0,8.255793154E-2,5.872265995E-2,7.257108390E-2
3.775812816E0,7.723161578E-2,5.339634046E-2,7.257108390E-2
3.778300472E0,7.190529257E-2,4.700475931E-2,7.150582224E-2
3.780788128E0,6.551371515E-2,4.167843983E-2,7.044056058E-2
3.783275785E0,6.018739566E-2,3.635212034E-2,6.937529147E-2
3.785763441E0,5.486107618E-2,3.102580272E-2,6.617950648E-2
3.788251097E0,5.060002208E-2,2.676474862E-2,6.404897571E-2
3.790738753E0,4.633896798E-2,2.250369452E-2,6.085318699E-2
3.793226410E0,4.207791388E-2,1.824264042E-2,5.872265995E-2
3.795714066E0,3.781685978E-2,1.185105834E-2,5.659212917E-2
3.798201722E0,3.462106735E-2,6.524739787E-3,5.446160212E-2
3.800689378E0,3.036001325E-2,1.198421582E-3,5.233107507E-2
3.803177035E0,2.716422267E-2,-4.127896391E-3,5.233107507E-2
3.805664743E0,2.290316857E-2,-9.454214945E-3,5.233107507E-2
3.808152451E0,1.970737800E-2,-1.371526904E-2,5.233107507E-2
3.810640160E0,1.651158556E-2,-1.797632314E-2,5.233107507E-2
3.813127868E0,1.331579592E-2,-2.330264263E-2,5.339634046E-2
3.815615576E0,1.012000442E-2,-2.543316968E-2,5.446160212E-2
3.818103285E0,7.989477366E-3,-2.756369673E-2,5.552686751E-2
3.820590993E0,6.924213842E-3,-2.862896025E-2,5.659212917E-2
3.823078701E0,4.793686327E-3,-2.756369673E-2,5.872265995E-2
3.825566410E0,4.793686327E-3,-2.649843320E-2,5.978792161E-2
3.828054118E0,4.793686327E-3,-2.543316968E-2,6.191844866E-2
3.830541826E0,4.793686327E-3,-2.223737910E-2,6.298371404E-2
3.833029535E0,6.924213842E-3,-1.904158667E-2,6.617950648E-2
3.835517243E0,9.054740891E-3,-1.584579609E-2,6.831002980E-2
3.838004951E0,1.225053146E-2,-1.158474199E-2,7.044056058E-2
3.840492660E0,1.544632297E-2,-7.323687430E-3,7.363634557E-2
3.842980368E0,1.970737800E-2,-3.062632866E-3,7.683213800E-2
3.845468076E0,2.396843210E-2,2.263685223E-3,7.896266878E-2
3.847955785E0,3.036001325E-2,6.524739787E-3,8.215846121E-2
3.850443493E0,3.568633273E-2,1.291632187E-2,8.535424620E-2
3.852931201E0,4.207791388E-2,1.824264042E-2,8.855003864E-2
3.855418910E0,4.846949503E-2,2.356895804E-2,9.174583107E-2
3.857906618E0,5.486107618E-2,2.889527567E-2,9.494162351E-2
3.860394326E0,6.018739566E-2,3.422159329E-2,9.707214683E-2
3.862882035E0,6.657897681E-2,3.954791278E-2,1.002679393E-1
3.865369743E0,7.190529257E-2,4.380896688E-2,1.023984700E-1
3.867857451E0,7.616634667E-2,4.807002097E-2,1.045289934E-1
3.870345160E0,8.042740822E-2,5.126581341E-2,1.066595241E-1
3.872832868E0,8.255793154E-2,5.552686751E-2,1.077247858E-1
3.875320576E0,8.468846232E-2,5.872265995E-2,1.087900475E-1
3.877808285E0,8.575372398E-2,6.191844866E-2,1.098553166E-1
3.880295993E0,8.575372398E-2,6.511423737E-2,1.109205782E-1
3.882783701E0,8.468846232E-2,6.831002980E-2,1.109205782E-1
3.885271410E0,8.255793154E-2,7.257108390E-2,1.109205782E-1
3.887759118E0,7.936213911E-2,7.470161468E-2,1.109205782E-1
3.890246826E0,7.403582335E-2,7.789740711E-2,1.109205782E-1
3.892734535E0,6.764423847E-2,8.109319210E-2,1.098553166E-1
3.895222243E0,6.018739566E-2,8.215846121E-2,1.098553166E-1
3.897709951E0,5.273054913E-2,8.428898454E-2,1.087900475E-1
3.900197660E0,4.420844093E-2,8.535424620E-2,1.077247858E-1
3.902685368E0,3.355580568E-2,8.535424620E-2,1.066595241E-1
3.905173076E0,2.290316857E-2,8.428898454E-2,1.055942550E-1
3.907660785E0,1.118526794E-2,8.322372288E-2,1.045289934E-1
3.910148493E0,-5.326318205E-4,8.215846121E-2,1.034637317E-1
3.912636201E0,-1.118526794E-2,8.109319210E-2,1.013332009E-1
3.915123910E0,-2.396843210E-2,7.896266878E-2,9.920267761E-2
3.917611618E0,-3.568633273E-2,7.683213800E-2,9.813741595E-2
3.920099326E0,-4.633896798E-2,7.363634557E-2,9.600688517E-2
3.922587035E0,-5.805686861E-2,7.044056058E-2,9.494162351E-2
3.925074743E0,-6.977476925E-2,6.617950648E-2,9.281109273E-2
3.927562451E0,-8.042740822E-2,6.085318699E-2,9.068056941E-2
3.930050160E0,-9.108003974E-2,5.659212917E-2,8.855003864E-2
3.932537868E0,-1.006674170E-1,5.126581341E-2,8.748477697E-2
3.935025576E0,-1.091895252E-1,4.487423226E-2,8.641951531E-2
3.937513285E0,-1.145158410E-1,3.954791278E-2,8.641951531E-2
3.940000993E0,-1.219726875E-1,3.422159329E-2,8.641951531E-2
3.942488701E0,-1.262337416E-1,2.889527567E-2,8.641951531E-2
3.944976410E0,-1.294295341E-1,2.569948509E-2,8.855003864E-2
3.947464118E0,-1.304948032E-1,2.143843099E-2,8.961530030E-2
3.949951826E0,-1.283642650E-1,1.930790395E-2,9.068056941E-2
3.952439535E0,-1.262337416E-1,1.717737690E-2,9.281109273E-2
3.954927243E0,-1.219726875E-1,1.717737690E-2,9.600688517E-2
3.957414951E0,-1.155811027E-1,1.824264042E-2,9.813741595E-2
3.959902660E0,-1.091895252E-1,2.037316747E-2,1.013332009E-1
3.962390368E0,-9.960214794E-2,2.356895804E-2,1.045289934E-1
3.964878076E0,-9.108003974E-2,2.676474862E-2,1.077247858E-1
3.967365785E0,-8.042740822E-2,2.996053919E-2,1.098553166E-1
3.969853493E0,-6.870950758E-2,3.422159329E-2,1.141163707E-1
3.972341201E0,-5.699160323E-2,3.848264739E-2,1.173121557E-1
3.974828910E0,-4.420844093E-2,4.167843983E-2,1.205079481E-1
3.977316618E0,-3.249054030E-2,4.593949392E-2,1.237037405E-1
3.979804326E0,-2.077264152E-2,5.020054802E-2,1.258342713E-1
3.982292035E0,-1.012000442E-2,5.339634046E-2,1.268995255E-1
3.984779743E0,-5.326318205E-4,5.552686751E-2,1.268995255E-1
3.987267451E0,9.054740891E-3,5.765739456E-2,1.279647946E-1
3.989755160E0,1.651158556E-2,5.978792161E-2,1.279647946E-1
3.992242868E0,2.396843210E-2,6.085318699E-2,1.290300637E-1
3.994730576E0,2.929474972E-2,6.085318699E-2,1.290300637E-1
3.997218285E0,3.355580568E-2,5.872265995E-2,1.279647946E-1
3.999705993E0,3.675159439E-2,5.765739456E-2,1.268995255E-1
4.002193701E0,3.888212144E-2,5.446160212E-2,1.247690022E-1
4.004681410E0,4.101264849E-2,5.020054802E-2,1.237037405E-1
4.007169118E0,4.101264849E-2,4.700475931E-2,1.215732098E-1
4.009656826E0,4.207791388E-2,4.061317816E-2,1.183774248E-1
4.012144535E0,4.207791388E-2,3.422159329E-2,1.162468940E-1
4.014632243E0,4.314317927E-2,2.783001214E-2,1.130511016E-1
4.017119951E0,4.314317927E-2,2.250369452E-2,1.098553166E-1
4.019607660E0,4.314317927E-2,1.611211337E-2,1.066595241E-1
4.022095368E0,4.207791388E-2,9.720530361E-3,1.034637317E-1
4.024583076E0,4.207791388E-2,3.328948980E-3,1.013332009E-1
4.027070785E0,4.207791388E-2,-3.062632866E-3,9.920267761E-2
4.029558493E0,4.207791388E-2,-8.388951421E-3,9.707214683E-2
4.032046201E0,4.207791388E-2,-1.584579609E-2,9.494162351E-2
4.034533910E0,4.207791388E-2,-2.117211558E-2,9.387636185E-2
4.037021618E0,4.207791388E-2,-2.756369673E-2,9.281109273E-2
4.039509326E0,4.314317927E-2,-3.289001435E-2,9.281109273E-2
4.041997035E0,4.527370632E-2,-3.821633384E-2,9.387636185E-2
4.044484743E0,4.740423337E-2,-4.460791498E-2,9.387636185E-2
4.046972451E0,5.166528746E-2,-4.886896908E-2,9.387636185E-2
4.049460160E0,5.699160323E-2,-5.313002318E-2,9.600688517E-2
4.051947868E0,6.125266105E-2,-5.739107728E-2,9.600688517E-2
4.054435576E0,6.870950758E-2,-6.058686972E-2,9.600688517E-2
4.056923285E0,7.510108501E-2,-6.378266215E-2,9.813741595E-2
4.059410993E0,8.255793154E-2,-6.591318548E-2,9.920267761E-2
4.061898701E0,9.001477808E-2,-6.804371625E-2,9.920267761E-2
4.064386410E0,9.853688627E-2,-6.910897791E-2,9.920267761E-2
4.066874118E0,1.070589945E-1,-7.017423958E-2,9.920267761E-2
4.069361826E0,1.155811027E-1,-7.017423958E-2,1.002679393E-1
4.071849535E0,1.251684725E-1,-6.910897791E-2,1.002679393E-1
4.074337243E0,1.347558498E-1,-6.804371625E-2,1.002679393E-1
4.076824951E0,1.432779580E-1,-6.484792382E-2,1.013332009E-1
4.079312660E0,1.518000662E-1,-6.271740049E-2,1.002679393E-1
4.081800368E0,1.592569202E-1,-6.058686972E-2,9.920267761E-2
4.084288076E0,1.667137593E-1,-5.739107728E-2,9.920267761E-2
4.086775785E0,1.741705984E-1,-5.313002318E-2,9.813741595E-2
4.089263493E0,1.805621833E-1,-5.099949613E-2,9.813741595E-2
4.091751149E0,1.858884990E-1,-4.780370742E-2,9.813741595E-2
4.094238805E0,1.912148297E-1,-4.460791498E-2,9.920267761E-2
4.096726462E0,1.944106072E-1,-4.247738793E-2,9.813741595E-2
4.099214118E0,1.986716688E-1,-4.034686089E-2,9.920267761E-2
4.101701774E0,2.008021921E-1,-3.928159550E-2,9.920267761E-2
4.104189430E0,2.018674612E-1,-3.715106845E-2,1.002679393E-1
4.106677087E0,2.018674612E-1,-3.715106845E-2,1.002679393E-1
4.109164743E0,2.008021921E-1,-3.608580679E-2,1.002679393E-1
4.111652399E0,1.997369379E-1,-3.502054140E-2,9.813741595E-2
4.114140055E0,1.965411454E-1,-3.502054140E-2,9.707214683E-2
4.116627712E0,1.933453530E-1,-3.395527974E-2,9.494162351E-2
4.119115368E0,1.880190372E-1,-3.289001435E-2,9.174583107E-2
4.121603024E0,1.816274524E-1,-3.289001435E-2,8.855003864E-2
4.124090680E0,1.731053442E-1,-3.289001435E-2,8.428898454E-2
4.126578337E0,1.645832360E-1,-3.289001435E-2,8.109319210E-2
4.129065993E0,1.539305896E-1,-3.182475269E-2,7.576687634E-2
4.131553649E0,1.411474347E-1,-3.075948730E-2,7.044056058E-2
4.134041305E0,1.272990108E-1,-2.969422378E-2,6.511423737E-2
4.136528962E0,1.123853177E-1,-2.969422378E-2,5.872265995E-2
4.139016618E0,9.640636295E-2,-3.075948730E-2,5.233107507E-2
4.141504274E0,7.829687744E-2,-3.395527974E-2,4.487423226E-2
4.143991930E0,5.912213027E-2,-3.715106845E-2,3.741738573E-2
4.146479587E0,3.994738683E-2,-4.141212255E-2,3.102580272E-2
4.148967243E0,2.077264152E-2,-4.886896908E-2,2.356895804E-2
4.151454899E0,5.326318205E-4,-5.739107728E-2,1.824264042E-2
4.153942555E0,-1.864211448E-2,-6.591318548E-2,1.291632187E-2
4.156430212E0,-3.781685978E-2,-7.550056279E-2,7.590003312E-3
4.158917868E0,-5.592634156E-2,-8.508793265E-2,2.263685223E-3
4.161405524E0,-7.297056168E-2,-9.361004084E-2,-1.997369342E-3
4.163893180E0,-8.894951642E-2,-1.021321490E-1,-6.258423906E-3
4.166380837E0,-1.027979404E-1,-1.106542572E-1,-9.454214945E-3
4.168868545E0,-1.155811027E-1,-1.170458421E-1,-1.371526904E-2
4.171356253E0,-1.272990108E-1,-1.223721579E-1,-1.691105962E-2
4.173843962E0,-1.368863732E-1,-1.266332120E-1,-2.117211558E-2
4.176331670E0,-1.443432271E-1,-1.308942735E-1,-2.330264263E-2
4.178819378E0,-1.518000662E-1,-1.330247968E-1,-2.543316968E-2
4.181307087E0,-1.571263820E-1,-1.351553202E-1,-2.756369673E-2
4.183794795E0,-1.603221744E-1,-1.372858584E-1,-2.756369673E-2
4.186282503E0,-1.635179669E-1,-1.383511126E-1,-2.756369673E-2
4.188770212E0,-1.645832360E-1,-1.383511126E-1,-2.543316968E-2
4.191257920E0,-1.645832360E-1,-1.372858584E-1,-2.330264263E-2
4.193745628E0,-1.624527127E-1,-1.362205893E-1,-1.904158667E-2
4.196233337E0,-1.603221744E-1,-1.351553202E-1,-1.478053257E-2
4.198721045E0,-1.549958587E-1,-1.330247968E-1,-9.454214945E-3
4.201208753E0,-1.486042738E-1,-1.298290044E-1,-4.127896391E-3
4.203696462E0,-1.411474347E-1,-1.266332120E-1,2.263685223E-3
4.206184170E0,-1.326253265E-1,-1.223721579E-1,7.590003312E-3
4.208671878E0,-1.230379492E-1,-1.170458421E-1,1.504684892E-2
4.211159587E0,-1.123853177E-1,-1.106542572E-1,2.250369452E-2
4.213647295E0,-1.017326787E-1,-1.031974182E-1,2.889527567E-2
4.216135003E0,-9.001477808E-2,-9.467530251E-2,3.528685868E-2
4.218622712E0,-7.829687744E-2,-8.508793265E-2,4.167843983E-2
4.221110420E0,-6.551371515E-2,-7.443529367E-2,4.913528636E-2
4.223598128E0,-5.273054913E-2,-6.378266215E-2,5.552686751E-2
4.226085837E0,-4.101264849E-2,-5.313002318E-2,5.978792161E-2
4.228573545E0,-2.929474972E-2,-4.354264960E-2,6.511423737E-2
4.231061253E0,-1.970737800E-2,-3.289001435E-2,6.937529147E-2
4.233548962E0,-1.012000442E-2,-2.330264263E-2,7.363634557E-2
4.236036670E0,-3.728422802E-3,-1.584579609E-2,7.683213800E-2
4.238524378E0,1.597895520E-3,-8.388951421E-3,7.896266878E-2
4.241012087E0,5.858949851E-3,-4.127896391E-3,8.109319210E-2
4.243499795E0,6.924213842E-3,-9.321057005E-4,8.322372288E-2
4.245987503E0,6.924213842E-3,-9.321057005E-4,8.322372288E-2
4.248475212E0,4.793686327E-3,-1.997369342E-3,8.322372288E-2
4.250962920E0,5.326318205E-4,-6.258423906E-3,8.322372288E-2
4.253450628E0,-4.793686327E-3,-1.371526904E-2,8.215846121E-2
4.255938337E0,-1.225053146E-2,-2.117211558E-2,8.109319210E-2
4.258426045E0,-2.077264152E-2,-3.182475269E-2,7.896266878E-2
4.260913753E0,-3.036001325E-2,-4.354264960E-2,7.576687634E-2
4.263401462E0,-4.207791388E-2,-5.739107728E-2,7.150582224E-2
4.265889170E0,-5.486107618E-2,-7.123950869E-2,6.724476814E-2
4.268376878E0,-6.870950758E-2,-8.615319431E-2,6.298371404E-2
4.270864587E0,-8.362319320E-2,-1.010668874E-1,5.872265995E-2
4.273352295E0,-9.853688627E-2,-1.159805804E-1,5.233107507E-2
4.275840003E0,-1.155811027E-1,-1.319595277E-1,4.700475931E-2
4.278327712E0,-1.336905807E-1,-1.468732208E-1,4.061317816E-2
4.280815420E0,-1.539305896E-1,-1.617869139E-1,3.315633163E-2
4.283303128E0,-1.752358675E-1,-1.767006069E-1,2.356895804E-2
4.285790837E0,-1.976063997E-1,-1.916143000E-1,1.398158539E-2
4.288278545E0,-2.221074700E-1,-2.054627240E-1,3.328948980E-3
4.290766253E0,-2.476737946E-1,-2.193111479E-1,-7.323687430E-3
4.293253962E0,-2.732401192E-1,-2.320943177E-1,-1.904158667E-2
4.295741670E0,-3.009369671E-1,-2.459427416E-1,-3.182475269E-2
4.298229378E0,-3.275685608E-1,-2.576606572E-1,-4.460791498E-2
4.300717087E0,-3.552654386E-1,-2.693785429E-1,-5.632581562E-2
4.303204795E0,-3.829622865E-1,-2.810964286E-1,-6.910897791E-2
4.305692503E0,-4.106591344E-1,-2.917490900E-1,-7.976161689E-2
4.308180212E0,-4.383559823E-1,-3.024017215E-1,-9.147951752E-2
4.310667920E0,-4.639223218E-1,-3.109238148E-1,-1.010668874E-1
4.313155628E0,-4.884233773E-1,-3.194459379E-1,-1.085237339E-1
4.315643337E0,-5.097286701E-1,-3.279680312E-1,-1.149153188E-1
4.318131045E0,-5.289034247E-1,-3.354249001E-1,-1.191763729E-1
4.320618753E0,-5.459476113E-1,-3.407512009E-1,-1.223721579E-1
4.323106462E0,-5.587307811E-1,-3.450122476E-1,-1.234374270E-1
4.325594170E0,-5.683181286E-1,-3.492733240E-1,-1.234374270E-1
4.328081878E0,-5.725792050E-1,-3.514038324E-1,-1.223721579E-1
4.330569587E0,-5.747097135E-1,-3.514038324E-1,-1.223721579E-1
4.333057295E0,-5.715139508E-1,-3.514038324E-1,-1.202416345E-1
4.335545003E0,-5.661876202E-1,-3.492733240E-1,-1.181111038E-1
4.338032712E0,-5.566002727E-1,-3.460775316E-1,-1.159805804E-1
4.340520420E0,-5.438171029E-1,-3.407512009E-1,-1.127847880E-1
4.343008128E0,-5.278381109E-1,-3.343596160E-1,-1.095889956E-1
4.345495837E0,-5.086634159E-1,-3.269027770E-1,-1.074584723E-1
4.347983545E0,-4.873581231E-1,-3.173153996E-1,-1.031974182E-1
4.350471253E0,-4.639223218E-1,-3.066627681E-1,-9.787109494E-2
4.352958962E0,-4.404865205E-1,-2.938795984E-1,-9.361004084E-2
4.355446670E0,-4.149201810E-1,-2.810964286E-1,-8.828372508E-2
4.357934378E0,-3.882885873E-1,-2.661827505E-1,-8.189214021E-2
4.360422087E0,-3.627222776E-1,-2.523343265E-1,-7.550056279E-2
4.362909795E0,-3.371559381E-1,-2.374206334E-1,-6.910897791E-2
4.365397503E0,-3.115896285E-1,-2.225069404E-1,-6.058686972E-2
4.367885212E0,-2.881538272E-1,-2.065279931E-1,-5.206476152E-2
4.370372920E0,-2.657832801E-1,-1.905490309E-1,-4.460791498E-2
4.372860628E0,-2.455432713E-1,-1.745700836E-1,-3.502054140E-2
4.375348337E0,-2.274337858E-1,-1.607216448E-1,-2.649843320E-2
4.377836045E0,-2.103895694E-1,-1.468732208E-1,-1.584579609E-2
4.380323753E0,-1.965411454E-1,-1.330247968E-1,-4.127896391E-3
4.382811462E0,-1.848232448E-1,-1.202416345E-1,7.590003312E-3
4.385299170E0,-1.752358675E-1,-1.074584723E-1,2.037316747E-2
4.387786878E0,-1.677790284E-1,-9.574057162E-2,3.422159329E-2
4.390274587E0,-1.624527127E-1,-8.615319431E-2,4.807002097E-2
4.392762295E0,-1.581916511E-1,-7.656582445E-2,6.191844866E-2
4.395250003E0,-1.571263820E-1,-6.910897791E-2,7.683213800E-2
4.397737712E0,-1.560611278E-1,-6.271740049E-2,9.174583107E-2
4.400225420E0,-1.571263820E-1,-5.739107728E-2,1.045289934E-1
4.402713128E0,-1.592569202E-1,-5.419528857E-2,1.173121557E-1
4.405200837E0,-1.624527127E-1,-5.099949613E-2,1.279647946E-1
4.407688545E0,-1.656484902E-1,-5.099949613E-2,1.375521719E-1
4.410176253E0,-1.699095517E-1,-5.206476152E-2,1.460742801E-1
4.412663962E0,-1.752358675E-1,-5.419528857E-2,1.535311192E-1
4.415151670E0,-1.805621833E-1,-5.739107728E-2,1.599227041E-1
4.417639378E0,-1.848232448E-1,-6.058686972E-2,1.641837656E-1
4.420127087E0,-1.901495606E-1,-6.165213138E-2,1.684448123E-1
4.422614795E0,-1.944106072E-1,-6.271740049E-2,1.705753356E-1
4.425102503E0,-1.986716688E-1,-6.484792382E-2,1.727058738E-1
4.427590212E0,-2.008021921E-1,-6.484792382E-2,1.737711281E-1
4.430077920E0,-2.018674612E-1,-6.378266215E-2,1.737711281E-1
4.432565628E0,-2.029327303E-1,-6.271740049E-2,1.727058738E-1
4.435053285E0,-2.029327303E-1,-6.165213138E-2,1.705753356E-1
4.437540941E0,-2.018674612E-1,-6.058686972E-2,1.673795432E-1
4.440028597E0,-1.986716688E-1,-5.952160433E-2,1.620532274E-1
4.442516253E0,-1.965411454E-1,-5.632581562E-2,1.567269117E-1
4.445003910E0,-1.944106072E-1,-5.526055023E-2,1.503353268E-1
4.447491566E0,-1.922800839E-1,-5.313002318E-2,1.439437568E-1
4.449979222E0,-1.901495606E-1,-5.099949613E-2,1.354216337E-1
4.452466878E0,-1.890842915E-1,-4.993423447E-2,1.258342713E-1
4.454954535E0,-1.880190372E-1,-5.099949613E-2,1.162468940E-1
4.457442191E0,-1.890842915E-1,-5.099949613E-2,1.066595241E-1
4.459929847E0,-1.901495606E-1,-5.206476152E-2,9.600688517E-2
4.462417503E0,-1.933453530E-1,-5.526055023E-2,8.428898454E-2
4.464905160E0,-1.965411454E-1,-5.845634267E-2,7.257108390E-2
4.467392816E0,-2.008021921E-1,-6.271740049E-2,6.085318699E-2
4.469880472E0,-2.061285079E-1,-6.697845459E-2,4.807002097E-2
4.472368128E0,-2.114548385E-1,-7.337003201E-2,3.528685868E-2
4.474855785E0,-2.178464085E-1,-8.082687855E-2,2.356895804E-2
4.477343441E0,-2.263685167E-1,-8.828372508E-2,1.185105834E-2
4.479831097E0,-2.348906398E-1,-9.467530251E-2,1.331579551E-4
4.482318753E0,-2.434127480E-1,-1.021321490E-1,-1.158474199E-2
4.484806410E0,-2.530001104E-1,-1.085237339E-1,-2.223737910E-2
4.487294066E0,-2.636527419E-1,-1.149153188E-1,-3.395527974E-2
4.489781722E0,-2.743053734E-1,-1.213068962E-1,-4.354264960E-2
4.492269378E0,-2.860232890E-1,-1.266332120E-1,-5.206476152E-2
4.494757035E0,-2.966759205E-1,-1.319595277E-1,-6.058686972E-2
4.497244691E0,-3.073285520E-1,-1.372858584E-1,-6.910897791E-2
4.499732347E0,-3.169159293E-1,-1.426121742E-1,-7.550056279E-2
4.502220003E0,-3.254380524E-1,-1.490037590E-1,-8.295740932E-2
4.504707660E0,-3.339601457E-1,-1.543300748E-1,-8.828372508E-2
4.507195316E0,-3.403517306E-1,-1.596563905E-1,-9.254477918E-2
4.509682972E0,-3.456780612E-1,-1.649827063E-1,-9.574057162E-2
4.512170628E0,-3.488738537E-1,-1.703090221E-1,-9.893636405E-2
4.514658337E0,-3.510043621E-1,-1.735048145E-1,-1.010668874E-1
4.517146045E0,-3.520696461E-1,-1.777658761E-1,-1.021321490E-1
4.519633753E0,-3.499391079E-1,-1.830921918E-1,-1.031974182E-1
4.522121462E0,-3.446127772E-1,-1.862879843E-1,-1.021321490E-1
4.524609170E0,-3.382211924E-1,-1.905490309E-1,-1.031974182E-1
4.527096878E0,-3.296990991E-1,-1.937448233E-1,-1.021321490E-1
4.529584587E0,-3.190464675E-1,-1.958753467E-1,-1.000016257E-1
4.532072295E0,-3.073285520E-1,-1.990711391E-1,-9.893636405E-2
4.534560003E0,-2.934801280E-1,-2.012016773E-1,-9.680583328E-2
4.537047712E0,-2.785664499E-1,-2.033322006E-1,-9.467530251E-2
4.539535420E0,-2.625874877E-1,-2.043974549E-1,-9.147951752E-2
4.542023128E0,-2.455432713E-1,-2.065279931E-1,-8.934898674E-2
4.544510837E0,-2.263685167E-1,-2.107890397E-1,-8.721846342E-2
4.546998545E0,-2.071937770E-1,-2.139848322E-1,-8.508793265E-2
4.549486253E0,-1.869537681E-1,-2.182458937E-1,-8.189214021E-2
4.551973962E0,-1.667137593E-1,-2.235722095E-1,-7.869634777E-2
4.554461670E0,-1.454084814E-1,-2.299637944E-1,-7.656582445E-2
4.556949378E0,-1.241032109E-1,-2.363553643E-1,-7.337003201E-2
4.559437087E0,-1.038632020E-1,-2.427469492E-1,-7.123950869E-2
4.561924795E0,-8.255793154E-2,-2.480732650E-1,-6.910897791E-2
4.564412503E0,-6.231792271E-2,-2.544648647E-1,-6.697845459E-2
4.566900212E0,-4.207791388E-2,-2.608564198E-1,-6.591318548E-2
4.569387920E0,-2.183790505E-2,-2.683132887E-1,-6.484792382E-2
4.571875628E0,-1.597895520E-3,-2.757701278E-1,-6.378266215E-2
4.574363337E0,1.651158556E-2,-2.832269669E-1,-6.271740049E-2
4.576851045E0,3.568633273E-2,-2.917490900E-1,-6.165213138E-2
4.579338753E0,5.379581451E-2,-3.002711833E-1,-6.058686972E-2
4.581826462E0,7.190529257E-2,-3.087933064E-1,-5.845634267E-2
4.584314170E0,8.894951642E-2,-3.183806837E-1,-5.739107728E-2
4.586801878E0,1.049284711E-1,-3.269027770E-1,-5.526055023E-2
4.589289587E0,1.209074259E-1,-3.354249001E-1,-5.313002318E-2
4.591777295E0,1.368863732E-1,-3.418164849E-1,-4.993423447E-2
4.594265003E0,1.518000662E-1,-3.482080400E-1,-4.780370742E-2
4.596752712E0,1.667137593E-1,-3.514038324E-1,-4.354264960E-2
4.599240420E0,1.805621833E-1,-3.535343707E-1,-3.928159550E-2
4.601728128E0,1.965411454E-1,-3.545996249E-1,-3.289001435E-2
4.604215837E0,2.125200927E-1,-3.545996249E-1,-2.756369673E-2
4.606703545E0,2.274337858E-1,-3.524691164E-1,-2.010685205E-2
4.609191253E0,2.434127480E-1,-3.482080400E-1,-1.265000552E-2
4.611678962E0,2.572611570E-1,-3.428817391E-1,-5.193160381E-3
4.614166670E0,2.700443268E-1,-3.364901543E-1,2.263685223E-3
4.616654378E0,2.817622423E-1,-3.290333152E-1,9.720530361E-3
4.619142087E0,2.924148738E-1,-3.205111921E-1,1.717737690E-2
4.621629795E0,3.009369671E-1,-3.119890988E-1,2.356895804E-2
4.624117503E0,3.062632978E-1,-3.045322299E-1,2.996053919E-2
4.626605212E0,3.105243444E-1,-2.970753908E-1,3.528685868E-2
4.629092920E0,3.137201369E-1,-2.906838059E-1,3.954791278E-2
4.631580628E0,3.147853911E-1,-2.853575051E-1,4.487423226E-2
4.634068337E0,3.147853911E-1,-2.810964286E-1,4.913528636E-2
4.636556045E0,3.126548827E-1,-2.779006660E-1,5.233107507E-2
4.639043753E0,3.105243444E-1,-2.757701278E-1,5.552686751E-2
4.641531462E0,3.062632978E-1,-2.736395895E-1,5.978792161E-2
4.644019170E0,3.020022511E-1,-2.725743353E-1,6.298371404E-2
4.646506878E0,2.966759205E-1,-2.704437971E-1,6.617950648E-2
4.648994587E0,2.892190814E-1,-2.683132887E-1,6.937529147E-2
4.651482295E0,2.828274965E-1,-2.651174963E-1,7.150582224E-2
4.653970003E0,2.753706574E-1,-2.629869580E-1,7.363634557E-2
4.656457712E0,2.679138184E-1,-2.597911656E-1,7.576687634E-2
4.658945420E0,2.593916953E-1,-2.565953732E-1,7.683213800E-2
4.661433128E0,2.498043180E-1,-2.533995807E-1,7.896266878E-2
4.663920837E0,2.402169555E-1,-2.502037883E-1,7.896266878E-2
4.666408545E0,2.284990549E-1,-2.459427416E-1,7.789740711E-2
4.668896253E0,2.167811543E-1,-2.427469492E-1,7.789740711E-2
4.671383962E0,2.029327303E-1,-2.384859025E-1,7.683213800E-2
4.673871670E0,1.880190372E-1,-2.352901101E-1,7.470161468E-2
4.676359378E0,1.720400751E-1,-2.299637944E-1,7.257108390E-2
4.678847087E0,1.528653353E-1,-2.267680019E-1,6.937529147E-2
4.681334795E0,1.336905807E-1,-2.225069404E-1,6.404897571E-2
4.683822503E0,1.113200486E-1,-2.193111479E-1,5.765739456E-2
4.686310212E0,8.788424730E-2,-2.161153555E-1,5.126581341E-2
4.688797920E0,6.444845349E-2,-2.139848322E-1,4.380896688E-2
4.691285628E0,3.994738683E-2,-2.118543088E-1,3.635212034E-2
4.693773337E0,1.544632297E-2,-2.107890397E-1,2.676474862E-2
4.696261045E0,-9.054740891E-3,-2.107890397E-1,1.717737690E-2
4.698748753E0,-3.249054030E-2,-2.097237855E-1,7.590003312E-3
4.701236462E0,-5.486107618E-2,-2.097237855E-1,-1.997369342E-3
4.703724170E0,-7.723161578E-2,-2.086585164E-1,-1.158474199E-2
4.706211878E0,-9.853688627E-2,-2.054627240E-1,-2.010685205E-2
4.708699587E0,-1.177116334E-1,-2.012016773E-1,-2.862896025E-2
4.711187295E0,-1.358211190E-1,-1.969406158E-1,-3.608580679E-2
4.713675003E0,-1.518000662E-1,-1.916143000E-1,-4.354264960E-2
4.716162712E0,-1.656484902E-1,-1.862879843E-1,-4.993423447E-2
4.718650420E0,-1.773663908E-1,-1.809616536E-1,-5.526055023E-2
4.721138128E0,-1.869537681E-1,-1.745700836E-1,-6.058686972E-2
4.723625837E0,-1.933453530E-1,-1.703090221E-1,-6.591318548E-2
4.726113545E0,-1.986716688E-1,-1.660479754E-1,-6.910897791E-2
4.728601253E0,-2.008021921E-1,-1.607216448E-1,-7.230477035E-2
4.731088962E0,-2.008021921E-1,-1.564605981E-1,-7.443529367E-2
4.733576670E0,-1.986716688E-1,-1.511342824E-1,-7.550056279E-2
4.736064378E0,-1.954758763E-1,-1.458079666E-1,-7.656582445E-2
4.738552087E0,-1.901495606E-1,-1.394163817E-1,-7.656582445E-2
4.741039795E0,-1.848232448E-1,-1.319595277E-1,-7.763108611E-2
4.743527503E0,-1.784316599E-1,-1.234374270E-1,-7.869634777E-2
4.746015212E0,-1.699095517E-1,-1.159805804E-1,-7.869634777E-2
4.748502920E0,-1.624527127E-1,-1.095889956E-1,-7.869634777E-2
4.750990628E0,-1.549958587E-1,-1.031974182E-1,-7.763108611E-2
4.753478337E0,-1.475390196E-1,-9.893636405E-2,-7.763108611E-2
4.755966045E0,-1.411474347E-1,-9.467530251E-2,-7.550056279E-2
4.758453753E0,-1.347558498E-1,-9.361004084E-2,-7.337003201E-2
4.760941462E0,-1.294295341E-1,-9.361004084E-2,-7.230477035E-2
4.763429170E0,-1.241032109E-1,-9.574057162E-2,-6.910897791E-2
4.765916878E0,-1.209074259E-1,-1.000016257E-1,-6.591318548E-2
4.768404587E0,-1.166463718E-1,-1.063932031E-1,-6.271740049E-2
4.770892243E0,-1.134505793E-1,-1.149153188E-1,-6.058686972E-2
4.773379899E0,-1.123853177E-1,-1.255679578E-1,-5.739107728E-2
4.775867555E0,-1.102547869E-1,-1.383511126E-1,-5.526055023E-2
4.778355212E0,-1.102547869E-1,-1.521995366E-1,-5.206476152E-2
4.780842868E0,-1.091895252E-1,-1.671132296E-1,-5.099949613E-2
4.783330524E0,-1.091895252E-1,-1.841574460E-1,-4.886896908E-2
4.785818180E0,-1.081242561E-1,-2.001364082E-1,-4.673844203E-2
4.788305837E0,-1.070589945E-1,-2.182458937E-1,-4.460791498E-2
4.790793493E0,-1.049284711E-1,-2.363553643E-1,-4.354264960E-2
4.793281149E0,-1.027979404E-1,-2.533995807E-1,-4.141212255E-2
4.795768805E0,-9.853688627E-2,-2.693785429E-1,-4.141212255E-2
4.798256462E0,-9.321057051E-2,-2.832269669E-1,-4.034686089E-2
4.800744118E0,-8.788424730E-2,-2.960101366E-1,-4.141212255E-2
4.803231774E0,-8.042740822E-2,-3.066627681E-1,-4.247738793E-2
4.805719430E0,-7.084003091E-2,-3.151848912E-1,-4.354264960E-2
4.808207087E0,-6.018739566E-2,-3.226417303E-1,-4.567318037E-2
4.810694743E0,-4.633896798E-2,-3.279680312E-1,-4.780370742E-2
4.813182399E0,-3.142527863E-2,-3.322291076E-1,-4.993423447E-2
4.815670055E0,-1.544632297E-2,-3.343596160E-1,-5.099949613E-2
4.818157712E0,2.663159044E-3,-3.354249001E-1,-5.206476152E-2
4.820645368E0,2.183790505E-2,-3.343596160E-1,-5.206476152E-2
4.823133024E0,4.207791388E-2,-3.343596160E-1,-5.206476152E-2
4.825620680E0,6.338318437E-2,-3.332943618E-1,-5.099949613E-2
4.828108337E0,8.362319320E-2,-3.311638236E-1,-4.993423447E-2
4.830595993E0,1.038632020E-1,-3.279680312E-1,-4.886896908E-2
4.833083649E0,1.241032109E-1,-3.258375227E-1,-4.567318037E-2
4.835571305E0,1.443432271E-1,-3.237069845E-1,-4.354264960E-2
4.838058962E0,1.635179669E-1,-3.237069845E-1,-3.821633384E-2
4.840546618E0,1.805621833E-1,-3.247722387E-1,-3.395527974E-2
4.843034274E0,1.976063997E-1,-3.269027770E-1,-2.862896025E-2
4.845521930E0,2.135853618E-1,-3.300985694E-1,-2.330264263E-2
4.848009587E0,2.295643091E-1,-3.354249001E-1,-1.797632314E-2
4.850497295E0,2.423474789E-1,-3.396859467E-1,-1.158474199E-2
4.852985003E0,2.551306486E-1,-3.439469934E-1,-5.193160381E-3
4.855472712E0,2.668485343E-1,-3.492733240E-1,-9.321057005E-4
4.857960420E0,2.775011659E-1,-3.535343707E-1,3.328948980E-3
4.860448128E0,2.870885432E-1,-3.577954173E-1,7.590003312E-3
4.862935837E0,2.956106663E-1,-3.620564938E-1,1.078579482E-2
4.865423545E0,3.030675054E-1,-3.652522564E-1,1.398158539E-2
4.867911253E0,3.094590902E-1,-3.684480488E-1,1.504684892E-2
4.870398962E0,3.147853911E-1,-3.716438413E-1,1.717737690E-2
4.872886670E0,3.190464675E-1,-3.759049177E-1,1.824264042E-2
4.875374378E0,3.233075142E-1,-3.801659644E-1,2.037316747E-2
4.877862087E0,3.254380524E-1,-3.854922652E-1,2.250369452E-2
4.880349795E0,3.265033066E-1,-3.908185959E-1,2.463422157E-2
4.882837503E0,3.265033066E-1,-3.972101808E-1,2.676474862E-2
4.885325212E0,3.265033066E-1,-4.025365114E-1,2.889527567E-2
4.887812920E0,3.243727684E-1,-4.099933505E-1,3.209106624E-2
4.890300628E0,3.222422600E-1,-4.174501896E-1,3.635212034E-2
4.892788337E0,3.179811835E-1,-4.238417745E-1,3.954791278E-2
4.895276045E0,3.126548827E-1,-4.302333593E-1,4.380896688E-2
4.897763753E0,3.073285520E-1,-4.366249442E-1,4.700475931E-2
4.900251462E0,3.009369671E-1,-4.419512451E-1,5.233107507E-2
4.902739170E0,2.945453823E-1,-4.472775757E-1,5.765739456E-2
4.905226878E0,2.881538272E-1,-4.526038766E-1,6.298371404E-2
4.907714587E0,2.828274965E-1,-4.557996690E-1,6.724476814E-2
4.910202295E0,2.764359117E-1,-4.579302073E-1,7.150582224E-2
4.912690003E0,2.700443268E-1,-4.600607455E-1,7.576687634E-2
4.915177712E0,2.625874877E-1,-4.589954615E-1,8.109319210E-2
4.917665420E0,2.551306486E-1,-4.568649530E-1,8.428898454E-2
4.920153128E0,2.487390637E-1,-4.536691606E-1,8.748477697E-2
4.922640837E0,2.391516864E-1,-4.472775757E-1,9.068056941E-2
4.925128545E0,2.295643091E-1,-4.398207366E-1,9.281109273E-2
4.927616253E0,2.189116776E-1,-4.302333593E-1,9.600688517E-2
4.930103962E0,2.071937770E-1,-4.206459820E-1,9.813741595E-2
4.932591670E0,1.944106072E-1,-4.089280665E-1,1.013332009E-1
4.935079378E0,1.805621833E-1,-3.972101808E-1,1.045289934E-1
4.937567087E0,1.656484902E-1,-3.844270110E-1,1.055942550E-1
4.940054795E0,1.507348120E-1,-3.716438413E-1,1.077247858E-1
4.942542503E0,1.347558498E-1,-3.599259555E-1,1.098553166E-1
4.945030212E0,1.177116334E-1,-3.482080400E-1,1.109205782E-1
4.947517920E0,1.006674170E-1,-3.375554085E-1,1.130511016E-1
4.950005628E0,8.468846232E-2,-3.269027770E-1,1.141163707E-1
4.952493337E0,6.764423847E-2,-3.173153996E-1,1.162468940E-1
4.954981045E0,5.166528746E-2,-3.098585606E-1,1.194426864E-1
4.957468753E0,3.462106735E-2,-3.045322299E-1,1.215732098E-1
4.959956462E0,1.970737800E-2,-2.992059290E-1,1.247690022E-1
4.962444170E0,4.793686327E-3,-2.960101366E-1,1.279647946E-1
4.964931878E0,-9.054740891E-3,-2.938795984E-1,1.311605871E-1
4.967419587E0,-2.077264152E-2,-2.917490900E-1,1.343563795E-1
4.969907295E0,-3.036001325E-2,-2.906838059E-1,1.396826953E-1
4.972395003E0,-3.781685978E-2,-2.885532975E-1,1.439437568E-1
4.974882712E0,-4.420844093E-2,-2.874880135E-1,1.503353268E-1
4.977370420E0,-4.633896798E-2,-2.842922211E-1,1.556616426E-1
4.979858128E0,-4.527370632E-2,-2.810964286E-1,1.620532274E-1
4.982345837E0,-4.314317927E-2,-2.757701278E-1,1.684448123E-1
4.984833545E0,-3.781685978E-2,-2.672480047E-1,1.748363972E-1
4.987321253E0,-3.142527863E-2,-2.576606572E-1,1.822932363E-1
4.989808962E0,-2.290316857E-2,-2.448774725E-1,1.886848211E-1
