"Time (s)","Acceleration x (m/s^2)","Acceleration y (m/s^2)","Acceleration z (m/s^2)"
3.665927400E-2,9.319430351E0,-5.632359385E-1,3.190273643E-1
3.915219100E-2,9.295488358E0,-5.488707423E-1,3.477577865E-1
4.164536800E-2,9.281123161E0,-5.201402903E-1,3.621230125E-1
4.413891000E-2,9.257181168E0,-5.249287486E-1,3.669114113E-1
4.663292000E-2,9.261969566E0,-5.297171474E-1,3.908534348E-1
4.912745100E-2,9.252392769E0,-5.392939448E-1,4.291606545E-1
5.162255500E-2,9.233239174E0,-5.632359385E-1,4.387374520E-1
5.412198300E-2,9.247604370E0,-5.680243373E-1,4.435258508E-1
5.662141000E-2,9.261969566E0,-5.680243373E-1,4.483142793E-1
5.907141000E-2,9.309853554E0,-5.919663906E-1,4.674678743E-1
6.152141000E-2,9.357737541E0,-6.015431881E-1,4.722562730E-1
6.402526400E-2,9.400833130E0,-6.206967831E-1,4.674678743E-1
6.652911800E-2,9.439140320E0,-6.206967831E-1,4.387374520E-1
6.907911800E-2,9.477447510E0,-6.350619793E-1,3.956418335E-1
7.162911800E-2,9.534908295E0,-6.542156339E-1,3.669114113E-1
7.417911800E-2,9.582792282E0,-6.781576276E-1,3.621230125E-1
7.672911800E-2,9.640253067E0,-6.925228238E-1,3.429693878E-1
7.927911800E-2,9.692925453E0,-6.829460263E-1,2.807201445E-1
8.182911800E-2,9.745597839E0,-7.020996213E-1,2.376245260E-1
8.437911800E-2,9.807847023E0,-7.116764784E-1,1.849520802E-1
8.692911800E-2,9.894038200E0,-7.404068708E-1,1.322796494E-1
8.947911800E-2,9.970652580E0,-7.595604658E-1,4.608838260E-2
9.202911800E-2,1.007120991E1,-7.595604658E-1,-3.531447425E-2
9.457911800E-2,1.016218948E1,-7.835025191E-1,-1.167173311E-1
9.712911800E-2,1.026274586E1,-8.170213103E-1,-2.076970041E-1
9.967911800E-2,1.037766743E1,-8.553285599E-1,-3.130418658E-1
1.022291180E-1,1.047343540E1,-8.792705536E-1,-4.088099301E-1
1.047791180E-1,1.055483818E1,-9.175778031E-1,-4.806360006E-1
1.073291180E-1,1.063624096E1,-9.702502489E-1,-5.716156363E-1
1.098791180E-1,1.070806694E1,-1.037287831E0,-6.578069329E-1
1.124291180E-1,1.077989292E1,-1.066018343E0,-7.487865686E-1
1.149791180E-1,1.083735371E1,-1.075595140E0,-8.062474132E-1
1.175291180E-1,1.089481449E1,-1.066018343E0,-8.732850552E-1
1.200791180E-1,1.094269848E1,-1.075595140E0,-9.403226972E-1
1.226291180E-1,1.098100567E1,-1.056441545E0,-9.834183455E-1
1.251791180E-1,1.100494766E1,-1.032499433E0,-1.016937137E0
1.277291180E-1,1.100015926E1,-9.989806414E-1,-1.060032845E0
1.302791180E-1,1.099537086E1,-9.750386477E-1,-1.088763237E0
1.328291180E-1,1.098579407E1,-9.606734514E-1,-1.122282028E0
1.353791180E-1,1.098100567E1,-9.367313981E-1,-1.151012421E0
1.379291180E-1,1.096664047E1,-9.080010056E-1,-1.165377736E0
1.404791180E-1,1.094269848E1,-8.888474107E-1,-1.189319730E0
1.430291180E-1,1.092354488E1,-8.553285599E-1,-1.222838521E0
1.455791180E-1,1.088044930E1,-8.170213103E-1,-1.280299306E0
1.481291180E-1,1.085650730E1,-8.074445128E-1,-1.309029818E0
1.506791180E-1,1.080383492E1,-7.739257216E-1,-1.385644197E0
1.532291180E-1,1.077510452E1,-7.308300734E-1,-1.443105102E0
1.557791180E-1,1.075595093E1,-6.877344251E-1,-1.490989089E0
1.583291180E-1,1.075116253E1,-6.542156339E-1,-1.586757183E0
1.608791180E-1,1.071285534E1,-6.111199856E-1,-1.663371682E0
1.634291180E-1,1.070327854E1,-5.728127360E-1,-1.716044068E0
1.659791180E-1,1.068891335E1,-5.249287486E-1,-1.778293371E0
1.685291180E-1,1.065539455E1,-4.770447016E-1,-1.826177359E0
1.710791180E-1,1.061229897E1,-4.435258508E-1,-1.878849745E0
1.736244300E-1,1.055962658E1,-4.052186310E-1,-1.926733851E0
1.761121390E-1,1.048780060E1,-3.764882088E-1,-1.931522250E0
1.785998470E-1,1.039682102E1,-3.190273643E-1,-1.936310649E0
1.810875550E-1,1.032499504E1,-2.711433470E-1,-1.921945453E0
1.835752640E-1,1.027232265E1,-2.328361124E-1,-1.917157054E0
1.860629720E-1,1.020528507E1,-2.184709013E-1,-1.902791858E0
1.885506800E-1,1.014303589E1,-1.945288926E-1,-1.926733851E0
1.910383370E-1,1.012388229E1,-1.801636815E-1,-1.931522250E0
1.935259930E-1,1.010951710E1,-1.753752679E-1,-1.969829440E0
1.960136490E-1,1.010472870E1,-1.993172914E-1,-2.003348351E0
1.985013050E-1,1.011430550E1,-2.328361124E-1,-2.070385933E0
2.009889620E-1,1.014782429E1,-2.711433470E-1,-2.127846718E0
2.034766180E-1,1.016697788E1,-3.046621680E-1,-2.170942307E0
2.059642740E-1,1.017176628E1,-3.381809890E-1,-2.194884300E0
2.084519300E-1,1.018613148E1,-3.573346138E-1,-2.218826532E0
2.109395870E-1,1.017655468E1,-3.956418335E-1,-2.209249735E0
2.134272430E-1,1.016697788E1,-4.147954583E-1,-2.204461098E0
2.159148990E-1,1.016218948E1,-4.243722558E-1,-2.166153908E0
2.184025550E-1,1.013345909E1,-4.531026781E-1,-2.132635117E0
2.208902120E-1,1.012388229E1,-4.674678743E-1,-2.113481522E0
2.233778680E-1,1.012388229E1,-5.105634928E-1,-2.065597534E0
2.258655240E-1,1.011909389E1,-5.488707423E-1,-2.027290344E0
2.283531800E-1,1.010472870E1,-6.111199856E-1,-2.003348351E0
2.308408370E-1,1.007120991E1,-6.350619793E-1,-1.988983035E0
2.333284930E-1,1.004247856E1,-6.685808301E-1,-1.926733851E0
2.358161490E-1,9.999382973E0,-6.829460263E-1,-1.883638144E0
2.383038050E-1,9.941922188E0,-6.877344251E-1,-1.826177359E0
2.407914620E-1,9.874884605E0,-6.829460263E-1,-1.744774461E0
2.432791180E-1,9.779116631E0,-6.781576276E-1,-1.668160081E0
2.457667740E-1,9.721655846E0,-6.733692288E-1,-1.591545582E0
2.482544300E-1,9.635464668E0,-6.494272351E-1,-1.510142684E0
2.507420870E-1,9.558850288E0,-6.494272351E-1,-1.438316703E0
2.532297430E-1,9.501389503E0,-6.350619793E-1,-1.328183413E0
2.557173990E-1,9.400833130E0,-6.206967831E-1,-1.256357312E0
2.582050550E-1,9.305065155E0,-6.015431881E-1,-1.174954534E0
2.606927120E-1,9.199720383E0,-5.823895931E-1,-1.103128433E0
2.631804200E-1,9.103952408E0,-5.632359385E-1,-1.002571940E0
2.656681280E-1,9.012971878E0,-5.440823436E-1,-9.259575009E-1
2.681558370E-1,8.921992302E0,-5.009866953E-1,-8.493430614E-1
2.706435450E-1,8.850166321E0,-4.722562730E-1,-7.918822169E-1
2.731312530E-1,8.797493935E0,-4.531026781E-1,-7.344213724E-1
2.756189620E-1,8.735244751E0,-4.626794755E-1,-6.769605279E-1
2.781066700E-1,8.725667953E0,-4.818331003E-1,-6.338648796E-1
2.805943780E-1,8.735244751E0,-4.818331003E-1,-6.194996834E-1
2.830820870E-1,8.735244751E0,-4.866214991E-1,-5.955576897E-1
2.855697950E-1,8.740033150E0,-5.009866953E-1,-5.716156363E-1
2.880575030E-1,8.783128738E0,-5.249287486E-1,-5.716156363E-1
2.905452120E-1,8.792705536E0,-5.632359385E-1,-5.668272376E-1
2.930329200E-1,8.807070732E0,-6.159083843E-1,-5.428852439E-1
2.955206280E-1,8.835801125E0,-6.494272351E-1,-4.902127981E-1
2.980083370E-1,8.859743118E0,-6.733692288E-1,-4.327519536E-1
3.004960450E-1,8.874108315E0,-7.068880796E-1,-4.040215313E-1
3.029837530E-1,8.835801125E0,-7.116764784E-1,-4.088099301E-1
3.054714620E-1,8.811859131E0,-7.212532759E-1,-4.135983288E-1
3.079591700E-1,8.792705536E0,-7.260416746E-1,-4.183867574E-1
3.104468780E-1,8.749609947E0,-6.973112226E-1,-4.423287511E-1
3.129345870E-1,8.720879555E0,-6.733692288E-1,-4.662707746E-1
3.154222950E-1,8.692149162E0,-6.494272351E-1,-5.189431906E-1
3.179100030E-1,8.663418770E0,-6.446388364E-1,-5.764040351E-1
3.203977120E-1,8.649053574E0,-6.254851818E-1,-6.530185342E-1
3.228854200E-1,8.649053574E0,-6.350619793E-1,-7.104793787E-1
3.253731280E-1,8.644265175E0,-6.637924314E-1,-7.727286220E-1
3.278608370E-1,8.644265175E0,-6.685808301E-1,-7.823054194E-1
3.303485450E-1,8.644265175E0,-6.685808301E-1,-7.918822169E-1
3.328362530E-1,8.610746384E0,-6.733692288E-1,-8.062474132E-1
3.353239620E-1,8.577227592E0,-6.829460263E-1,-7.966706157E-1
3.378116700E-1,8.553285599E0,-6.637924314E-1,-7.679402232E-1
3.402993780E-1,8.529343605E0,-6.542156339E-1,-7.679402232E-1
3.427870870E-1,8.519766808E0,-6.542156339E-1,-7.439981699E-1
3.452747950E-1,8.543708801E0,-6.350619793E-1,-7.296329737E-1
3.477625030E-1,8.548497200E0,-6.111199856E-1,-7.200561762E-1
3.502502120E-1,8.572439194E0,-6.206967831E-1,-7.344213724E-1
3.527379200E-1,8.582015991E0,-6.111199856E-1,-7.439981699E-1
3.552256280E-1,8.610746384E0,-6.206967831E-1,-7.487865686E-1
3.577133370E-1,8.625111580E0,-6.254851818E-1,-7.775170207E-1
3.602010450E-1,8.653841972E0,-6.542156339E-1,-7.727286220E-1
3.626887530E-1,8.701725960E0,-6.829460263E-1,-7.583633661E-1
3.651764620E-1,8.706514359E0,-7.020996213E-1,-7.535749674E-1
3.676641700E-1,8.730456352E0,-7.164648771E-1,-7.823054194E-1
3.701518780E-1,8.773551941E0,-7.308300734E-1,-8.014590144E-1
3.726395870E-1,8.792705536E0,-7.547720671E-1,-8.158242106E-1
3.751272950E-1,8.811859131E0,-7.691373229E-1,-8.349778652E-1
3.776150030E-1,8.821435928E0,-7.595604658E-1,-8.637082577E-1
3.801027120E-1,8.845377922E0,-7.499836683E-1,-8.924387097E-1
3.825904200E-1,8.859743118E0,-7.691373229E-1,-9.259575009E-1
3.850781280E-1,8.878896713E0,-7.643488646E-1,-9.642647505E-1
3.875658370E-1,8.893261909E0,-7.787141204E-1,-9.929951429E-1
3.900535450E-1,8.950722694E0,-8.122329116E-1,-1.026513934E0
3.925412530E-1,9.008183479E0,-8.553285599E-1,-1.064821243E0
3.950289620E-1,9.094375610E0,-8.840589523E-1,-1.107916832E0
3.975166700E-1,9.190143585E0,-9.367313981E-1,-1.170166135E0
4.000043780E-1,9.271546364E0,-9.989806414E-1,-1.208473325E0
4.024920870E-1,9.343372345E0,-1.037287831E0,-1.270722508E0
4.049797950E-1,9.415198326E0,-1.070806742E0,-1.289876223E0
4.074675030E-1,9.501389503E0,-1.099537134E0,-1.309029818E0
4.099552120E-1,9.578003883E0,-1.113902330E0,-1.323395014E0
4.124429200E-1,9.668983459E0,-1.147421122E0,-1.328183413E0
4.149306280E-1,9.769539833E0,-1.171363235E0,-1.332971811E0
4.174183370E-1,9.884461403E0,-1.185728431E0,-1.337760210E0
4.199060450E-1,9.975440979E0,-1.204882026E0,-1.323395014E0
4.223937530E-1,1.005684471E1,-1.252766013E0,-1.318606615E0
4.248814620E-1,1.014303589E1,-1.291073322E0,-1.313818216E0
4.273691700E-1,1.021965027E1,-1.315015316E0,-1.299453020E0
4.298568780E-1,1.028668785E1,-1.358110905E0,-1.265934110E0
4.323445870E-1,1.035851383E1,-1.420360208E0,-1.251568913E0
4.348322950E-1,1.041597462E1,-1.473032594E0,-1.241992116E0
4.373200030E-1,1.047343540E1,-1.496974587E0,-1.261145711E0
4.398077120E-1,1.052131939E1,-1.530493379E0,-1.246780515E0
4.422954200E-1,1.057878017E1,-1.544858694E0,-1.222838521E0
4.447831280E-1,1.061708736E1,-1.564012289E0,-1.208473325E0
4.472708370E-1,1.065539455E1,-1.578377485E0,-1.189319730E0
4.497585450E-1,1.068891335E1,-1.587954283E0,-1.179742932E0
4.522462530E-1,1.072243214E1,-1.592742682E0,-1.170166135E0
4.547339620E-1,1.075116253E1,-1.607107878E0,-1.141435623E0
4.572216700E-1,1.078468132E1,-1.602319479E0,-1.155800819E0
4.597093780E-1,1.079904652E1,-1.597531080E0,-1.160589218E0
4.621970870E-1,1.081820011E1,-1.578377485E0,-1.165377736E0
4.646847950E-1,1.083256531E1,-1.578377485E0,-1.170166135E0
4.671725030E-1,1.084693050E1,-1.554435492E0,-1.213261724E0
4.696602120E-1,1.082777691E1,-1.530493379E0,-1.241992116E0
4.721479200E-1,1.082777691E1,-1.506551385E0,-1.270722508E0
4.746356280E-1,1.080862331E1,-1.482609391E0,-1.309029818E0
4.771233370E-1,1.077989292E1,-1.458667397E0,-1.356913805E0
4.796110450E-1,1.074158573E1,-1.429937005E0,-1.404797792E0
4.820987530E-1,1.069849014E1,-1.401206493E0,-1.447893500E0
4.845864620E-1,1.066975975E1,-1.382052898E0,-1.500565886E0
4.870741700E-1,1.060751057E1,-1.348534107E0,-1.543661594E0
4.895618780E-1,1.053568459E1,-1.343745708E0,-1.558026791E0
4.920495870E-1,1.046864700E1,-1.310226917E0,-1.591545582E0
4.945372950E-1,1.040160942E1,-1.286284804E0,-1.634641171E0
4.970250030E-1,1.034414864E1,-1.247977614E0,-1.672948480E0
4.995127120E-1,1.030584145E1,-1.228824019E0,-1.730409265E0
5.020004200E-1,1.029626465E1,-1.195305228E0,-1.768716455E0
5.044881280E-1,1.028668785E1,-1.156997919E0,-1.792658567E0
5.069758370E-1,1.026753426E1,-1.161786318E0,-1.835754156E0
5.094635450E-1,1.025316906E1,-1.152209520E0,-1.893214941E0
5.119512530E-1,1.023401546E1,-1.152209520E0,-1.907580256E0
5.144389620E-1,1.021007347E1,-1.147421122E0,-1.931522250E0
5.169266700E-1,1.019570827E1,-1.147421122E0,-1.945887446E0
5.194143780E-1,1.016218948E1,-1.128267527E0,-1.955464244E0
5.219020870E-1,1.012388229E1,-1.118690729E0,-1.941099048E0
5.243897950E-1,1.009994030E1,-1.099537134E0,-1.917157054E0
5.268775030E-1,1.006642151E1,-1.099537134E0,-1.893214941E0
5.293652120E-1,1.004247856E1,-1.075595140E0,-1.907580256E0
5.318529200E-1,1.003769016E1,-1.046864748E0,-1.912368655E0
5.343406280E-1,9.865307808E0,-9.510966539E-1,-2.127846718E0
5.368283370E-1,9.702502251E0,-8.936358094E-1,-2.300229311E0
5.393160450E-1,9.841365814E0,-9.175778031E-1,-2.041655540E0
5.418037530E-1,9.932345390E0,-9.463081956E-1,-1.830965757E0
5.442914620E-1,9.975440979E0,-1.013345838E0,-1.672948480E0
5.467791700E-1,9.975440979E0,-1.080383539E0,-1.524507880E0
5.492668780E-1,9.941922188E0,-1.118690729E0,-1.395220995E0
5.517545870E-1,9.917980194E0,-1.142632723E0,-1.285087705E0
5.542422950E-1,9.874884605E0,-1.123479128E0,-1.213261724E0
5.567300030E-1,9.793481827E0,-1.085171938E0,-1.227626920E0
5.592177120E-1,9.683348656E0,-9.989806414E-1,-1.285087705E0
5.617054200E-1,9.582792282E0,-9.558850527E-1,-1.323395014E0
5.641931280E-1,9.515754700E0,-9.175778031E-1,-1.309029818E0
5.666808370E-1,9.510966301E0,-9.032126069E-1,-1.261145711E0
5.691685450E-1,9.515754700E0,-9.175778031E-1,-1.203684926E0
5.716562530E-1,9.520543098E0,-9.223662019E-1,-1.131858826E0
5.741439620E-1,9.501389503E0,-9.798270464E-1,-1.064821243E0
5.766316700E-1,9.491812706E0,-1.018134236E0,-9.929951429E-1
5.791193780E-1,9.467870712E0,-1.032499433E0,-9.259575009E-1
5.816070870E-1,9.429563522E0,-1.042076349E0,-8.493430614E-1
5.840947950E-1,9.367314339E0,-1.018134236E0,-7.727286220E-1
5.865825030E-1,9.309853554E0,-9.941922426E-1,-7.009025216E-1
5.890702120E-1,9.242815971E0,-9.702502489E-1,-6.147112846E-1
5.915579200E-1,9.185355186E0,-9.463081956E-1,-5.285200477E-1
5.940456280E-1,9.099164009E0,-9.080010056E-1,-4.327519536E-1
5.965333370E-1,9.032125473E0,-8.936358094E-1,-3.513490856E-1
5.990210450E-1,8.965087891E0,-8.984242082E-1,-2.651578486E-1
6.015087530E-1,8.878896713E0,-8.744821548E-1,-1.981201917E-1
6.039964620E-1,8.773551941E0,-8.744821548E-1,-9.756372124E-2
6.064841180E-1,8.696937561E0,-8.361749649E-1,7.781155407E-3
6.089717740E-1,8.615534782E0,-8.026561141E-1,1.035492271E-1
6.114594300E-1,8.548497200E0,-7.595604658E-1,1.897404790E-1
6.139470870E-1,8.471882820E0,-7.068880796E-1,2.519897223E-1
6.164347430E-1,8.414422035E0,-6.829460263E-1,3.046621680E-1
6.189223990E-1,8.337807655E0,-6.542156339E-1,2.998737693E-1
6.214100550E-1,8.265981674E0,-6.302735806E-1,2.807201445E-1
6.238977120E-1,8.265981674E0,-6.015431881E-1,3.525462151E-1
6.263853680E-1,8.289923668E0,-5.871779919E-1,4.578910768E-1
6.288730240E-1,8.294712067E0,-5.680243373E-1,5.297171474E-1
6.313606800E-1,8.285135269E0,-5.871779919E-1,5.871779919E-1
6.338483370E-1,8.275558472E0,-5.776011348E-1,6.350619793E-1
6.363359930E-1,8.246828079E0,-5.536591411E-1,6.590040326E-1
6.388236490E-1,8.227674484E0,-5.249287486E-1,6.446388364E-1
6.413113050E-1,8.227674484E0,-4.866214991E-1,6.206967831E-1
6.437989620E-1,8.242039680E0,-4.531026781E-1,5.776011348E-1
6.462866180E-1,8.265981674E0,-4.291606545E-1,5.201402903E-1
6.487742740E-1,8.309077263E0,-4.147954583E-1,4.866214991E-1
6.512619300E-1,8.361749649E0,-4.052186310E-1,4.435258508E-1
6.537495870E-1,8.404845238E0,-4.195838571E-1,3.956418335E-1
6.562372430E-1,8.476671219E0,-4.291606545E-1,3.669114113E-1
6.587248990E-1,8.534132004E0,-4.770447016E-1,3.238157928E-1
6.612125550E-1,8.572439194E0,-4.866214991E-1,2.855085433E-1
6.637002120E-1,8.620323181E0,-5.249287486E-1,2.280477136E-1
6.661878680E-1,8.672995567E0,-5.440823436E-1,1.753752679E-1
6.686755240E-1,8.706514359E0,-5.584475398E-1,1.131260321E-1
6.711631800E-1,8.759186745E0,-5.680243373E-1,7.481880486E-2
6.736508370E-1,8.802282333E0,-5.871779919E-1,2.693476900E-2
6.761384930E-1,8.826224327E0,-5.919663906E-1,-5.925649032E-2
6.786262010E-1,8.864531517E0,-6.063315868E-1,-1.358709484E-1
6.811139100E-1,8.902838707E0,-6.111199856E-1,-2.124854028E-1
6.836016180E-1,8.917203903E0,-6.206967831E-1,-2.890998423E-1
6.860893260E-1,8.931569099E0,-6.446388364E-1,-3.705027103E-1
6.885770350E-1,8.969876289E0,-6.877344251E-1,-4.327519536E-1
6.910647430E-1,8.984241486E0,-6.973112226E-1,-4.854243994E-1
6.935524510E-1,8.998606682E0,-7.020996213E-1,-5.428852439E-1
6.960401600E-1,9.022548676E0,-7.308300734E-1,-5.955576897E-1
6.985278680E-1,9.041702271E0,-7.308300734E-1,-6.482301354E-1
7.010155760E-1,9.070432663E0,-7.356184721E-1,-6.865373254E-1
7.035032850E-1,9.089587212E0,-7.404068708E-1,-7.392097712E-1
7.059909930E-1,9.080010414E0,-7.404068708E-1,-7.775170207E-1
7.084787010E-1,9.070432663E0,-7.356184721E-1,-8.349778652E-1
7.109664100E-1,9.027337074E0,-7.356184721E-1,-8.828618526E-1
7.134541180E-1,8.974664688E0,-7.308300734E-1,-9.115923047E-1
7.159418260E-1,8.931569099E0,-7.164648771E-1,-9.451110959E-1
7.184295350E-1,8.869319916E0,-7.020996213E-1,-9.690531492E-1
7.209172430E-1,8.797493935E0,-6.781576276E-1,-1.007360339E0
7.234049510E-1,8.768763542E0,-6.733692288E-1,-1.026513934E0
7.258926600E-1,8.696937561E0,-6.494272351E-1,-1.050456047E0
7.283803680E-1,8.615534782E0,-6.398503780E-1,-1.083974838E0
7.308680760E-1,8.543708801E0,-6.015431881E-1,-1.098340034E0
7.333557850E-1,8.481459618E0,-5.823895931E-1,-1.098340034E0
7.358434930E-1,8.404845238E0,-5.728127360E-1,-1.107916832E0
7.383312010E-1,8.366538048E0,-5.536591411E-1,-1.103128433E0
7.408189100E-1,8.323442459E0,-5.345055461E-1,-1.117493629E0
7.433066180E-1,8.299500465E0,-5.249287486E-1,-1.112705231E0
7.457943260E-1,8.285135269E0,-5.105634928E-1,-1.117493629E0
7.482820350E-1,8.280346870E0,-5.009866953E-1,-1.127070427E0
7.507697430E-1,8.275558472E0,-4.866214991E-1,-1.127070427E0
7.532574510E-1,8.280346870E0,-4.914098978E-1,-1.127070427E0
7.557451600E-1,8.280346870E0,-4.722562730E-1,-1.160589218E0
7.582328680E-1,8.270770073E0,-4.626794755E-1,-1.194108129E0
7.607205760E-1,8.280346870E0,-4.674678743E-1,-1.241992116E0
7.632082850E-1,8.285135269E0,-4.722562730E-1,-1.275510907E0
7.656959930E-1,8.294712067E0,-4.674678743E-1,-1.299453020E0
7.681837010E-1,8.285135269E0,-4.722562730E-1,-1.352125406E0
7.706714100E-1,8.285135269E0,-4.626794755E-1,-1.376067400E0
7.731591180E-1,8.285135269E0,-4.674678743E-1,-1.400009394E0
7.756468260E-1,8.270770073E0,-4.483142793E-1,-1.447893500E0
7.781345350E-1,8.261193275E0,-4.291606545E-1,-1.514931083E0
7.806222430E-1,8.251616478E0,-4.052186310E-1,-1.581968784E0
7.831099510E-1,8.261193275E0,-4.052186310E-1,-1.653794765E0
7.855976600E-1,8.222886086E0,-3.908534348E-1,-1.716044068E0
7.880853680E-1,8.184578896E0,-4.100070298E-1,-1.792658567E0
7.905730760E-1,8.155848503E0,-3.908534348E-1,-1.854907751E0
7.930607850E-1,8.112752914E0,-3.956418335E-1,-1.926733851E0
7.955484930E-1,8.060079575E0,-3.908534348E-1,-2.008136749E0
7.980362010E-1,8.016983986E0,-3.956418335E-1,-2.079962730E0
8.005239100E-1,7.954735279E0,-4.052186310E-1,-2.151788712E0
8.030116180E-1,7.873332500E0,-4.052186310E-1,-2.204461098E0
8.054993260E-1,7.767987251E0,-4.100070298E-1,-2.271498919E0
8.079870350E-1,7.648277283E0,-3.956418335E-1,-2.333748102E0
8.104747430E-1,7.518990517E0,-3.669114113E-1,-2.386420488E0
8.129624510E-1,7.399280548E0,-3.381809890E-1,-2.415150881E0
8.154501600E-1,7.298723698E0,-3.046621680E-1,-2.429516077E0
8.179378680E-1,7.159860134E0,-2.615665495E-1,-2.434304476E0
8.204255760E-1,7.068880558E0,-2.088941038E-1,-2.410362482E0
8.229132850E-1,6.973112583E0,-1.801636815E-1,-2.391208887E0
8.254009930E-1,6.877344608E0,-1.514332592E-1,-2.362478495E0
8.278887010E-1,6.786364555E0,-1.370680481E-1,-2.348113298E0
8.303764100E-1,6.719326973E0,-1.227028370E-1,-2.295440912E0
8.328641180E-1,6.671442986E0,-1.083376259E-1,-2.252345324E0
8.353518260E-1,6.618770599E0,-9.876082093E-2,-2.199672699E0
8.378395350E-1,6.580463409E0,-1.083376259E-1,-2.123058319E0
8.403272430E-1,6.532579422E0,-1.370680481E-1,-2.075174332E0
8.428149510E-1,6.513425827E0,-1.418564469E-1,-2.008136749E0
8.453026600E-1,6.489483833E0,-1.753752679E-1,-1.931522250E0
8.477903680E-1,6.470330238E0,-2.041056901E-1,-1.859696150E0
8.502780760E-1,6.465541840E0,-2.232593149E-1,-1.797446966E0
8.527657850E-1,6.460753441E0,-2.424129248E-1,-1.730409265E0
8.552534930E-1,6.479907036E0,-2.998737693E-1,-1.653794765E0
8.577412010E-1,6.503849030E0,-3.429693878E-1,-1.586757183E0
8.602289100E-1,6.523002625E0,-3.860650361E-1,-1.510142684E0
8.627166180E-1,6.551733017E0,-4.339490533E-1,-1.419163108E0
8.652043260E-1,6.580463409E0,-4.866214991E-1,-1.332971811E0
8.676920350E-1,6.599617004E0,-5.201402903E-1,-1.280299306E0
8.701797430E-1,6.633135796E0,-5.776011348E-1,-1.218050122E0
8.726674510E-1,6.666654587E0,-6.159083843E-1,-1.155800819E0
8.751551600E-1,6.676231384E0,-6.637924314E-1,-1.098340034E0
8.776428680E-1,6.700173378E0,-7.116764784E-1,-1.036090732E0
8.801305760E-1,6.733692169E0,-7.739257216E-1,-1.002571940E0
8.826182850E-1,6.757634163E0,-8.457517624E-1,-9.498994946E-1
8.851059930E-1,6.781576157E0,-8.936358094E-1,-9.259575009E-1
8.875937010E-1,6.819883347E0,-9.606734514E-1,-8.684966564E-1
8.900814100E-1,6.862978935E0,-1.032499433E0,-8.637082577E-1
8.925691180E-1,6.910863400E0,-1.080383539E0,-8.397662640E-1
8.950568260E-1,6.963535786E0,-1.147421122E0,-8.158242106E-1
8.975445350E-1,7.035361767E0,-1.214458823E0,-8.014590144E-1
9.000322430E-1,7.107187748E0,-1.267131209E0,-7.775170207E-1
9.025199510E-1,7.207744122E0,-1.334168911E0,-7.583633661E-1
9.050076600E-1,7.293935299E0,-1.391629696E0,-7.583633661E-1
9.074953680E-1,7.380126953E0,-1.429937005E0,-7.679402232E-1
9.099830760E-1,7.461529732E0,-1.506551385E0,-7.631517649E-1
9.124707850E-1,7.552509308E0,-1.578377485E0,-7.918822169E-1
9.149584930E-1,7.672219276E0,-1.635838270E0,-8.349778652E-1
9.174462010E-1,7.782352448E0,-1.693299174E0,-8.780734539E-1
9.199339100E-1,7.892486095E0,-1.755548358E0,-9.355342984E-1
9.224216180E-1,7.988254070E0,-1.793855667E0,-9.690531492E-1
9.249093260E-1,8.103176117E0,-1.817797661E0,-1.007360339E0
9.273970350E-1,8.194155693E0,-1.836951256E0,-1.050456047E0
9.298847430E-1,8.275558472E0,-1.836951256E0,-1.079186440E0
9.323724510E-1,8.318654060E0,-1.832162857E0,-1.127070427E0
9.348601600E-1,8.361749649E0,-1.822586060E0,-1.160589218E0
9.373478680E-1,8.414422035E0,-1.798644066E0,-1.227626920E0
9.398355760E-1,8.462306023E0,-1.745971560E0,-1.280299306E0
9.423232850E-1,8.510190010E0,-1.702875972E0,-1.318606615E0
9.448109930E-1,8.558073997E0,-1.650203466E0,-1.342548609E0
9.472987010E-1,8.625111580E0,-1.611896276E0,-1.380855799E0
9.497864100E-1,8.692149162E0,-1.583165884E0,-1.395220995E0
9.522741180E-1,8.740033150E0,-1.559223890E0,-1.423951507E0
9.547618260E-1,8.802282333E0,-1.530493379E0,-1.452681899E0
9.572495350E-1,8.893261909E0,-1.501762986E0,-1.476623893E0
9.597372430E-1,8.955511093E0,-1.482609391E0,-1.510142684E0
9.622249510E-1,9.008183479E0,-1.463455796E0,-1.524507880E0
9.647126600E-1,9.041702271E0,-1.429937005E0,-1.529296279E0
9.672003680E-1,9.070432663E0,-1.391629696E0,-1.538873196E0
9.696880760E-1,9.103952408E0,-1.353322506E0,-1.534084797E0
9.721757850E-1,9.137471199E0,-1.300650120E0,-1.514931083E0
9.746634930E-1,9.170989990E0,-1.252766013E0,-1.476623893E0
9.771512010E-1,9.242815971E0,-1.204882026E0,-1.433528304E0
9.796389100E-1,9.300276756E0,-1.147421122E0,-1.390432596E0
9.821266180E-1,9.381679535E0,-1.094748735E0,-1.371279001E0
9.846143260E-1,9.453505516E0,-1.032499433E0,-1.376067400E0
9.871020350E-1,9.520543098E0,-9.702502489E-1,-1.356913805E0
9.895897430E-1,9.578003883E0,-9.319429994E-1,-1.328183413E0
9.920774510E-1,9.640253067E0,-8.840589523E-1,-1.323395014E0
9.945651600E-1,9.692925453E0,-8.457517624E-1,-1.285087705E0
9.970528680E-1,9.745597839E0,-8.361749649E-1,-1.294664621E0
9.995405760E-1,9.798270226E0,-8.170213103E-1,-1.289876223E0
1.002028285E0,9.846154213E0,-8.074445128E-1,-1.285087705E0
1.004515993E0,9.908403397E0,-7.835025191E-1,-1.285087705E0
1.007003701E0,9.946710587E0,-7.787141204E-1,-1.332971811E0
1.009491410E0,9.965864182E0,-7.691373229E-1,-1.366490602E0
1.011979118E0,9.970652580E0,-7.451952696E-1,-1.414374709E0
1.014466826E0,9.975440979E0,-7.308300734E-1,-1.476623893E0
1.016954535E0,9.999382973E0,-7.116764784E-1,-1.524507880E0
1.019442243E0,9.989806175E0,-6.781576276E-1,-1.591545582E0
1.021929951E0,9.999382973E0,-6.398503780E-1,-1.644217968E0
1.024417660E0,9.994594574E0,-6.206967831E-1,-1.677736878E0
1.026905368E0,9.970652580E0,-5.919663906E-1,-1.744774461E0
1.029393076E0,9.937133789E0,-6.063315868E-1,-1.797446966E0
1.031880785E0,9.879673004E0,-5.823895931E-1,-1.854907751E0
1.034368493E0,9.817423820E0,-5.680243373E-1,-1.893214941E0
1.036856201E0,9.769539833E0,-5.488707423E-1,-1.945887446E0
1.039343910E0,9.731232643E0,-5.392939448E-1,-2.017713547E0
1.041831618E0,9.688137054E0,-5.440823436E-1,-2.070385933E0
1.044319326E0,9.678560257E0,-5.201402903E-1,-2.132635117E0
1.046807035E0,9.664195061E0,-5.249287486E-1,-2.257133722E0
1.049294743E0,9.635464668E0,-5.057750940E-1,-2.367266893E0
1.051782451E0,9.630676270E0,-5.201402903E-1,-2.463035107E0
1.054270160E0,9.621099472E0,-5.392939448E-1,-2.597110271E0
1.056757868E0,9.597157478E0,-5.345055461E-1,-2.702455282E0
1.059245576E0,9.582792282E0,-5.488707423E-1,-2.812588453E0
1.061733285E0,9.587580681E0,-5.536591411E-1,-2.927510023E0
1.064220993E0,9.568427086E0,-5.632359385E-1,-2.994547844E0
1.066708701E0,9.592369080E0,-5.776011348E-1,-3.123834610E0
1.069196410E0,9.606734276E0,-5.823895931E-1,-3.205237627E0
1.071684066E0,9.640253067E0,-6.063315868E-1,-3.310582399E0
1.074171722E0,9.712079048E0,-6.206967831E-1,-3.415927172E0
1.076659378E0,9.764751434E0,-6.350619793E-1,-3.502118587E0
1.079147035E0,9.817423820E0,-6.637924314E-1,-3.578732967E0
1.081634691E0,9.870096207E0,-7.020996213E-1,-3.650558949E0
1.084122347E0,9.917980194E0,-7.308300734E-1,-3.736750364E0
1.086610003E0,9.937133789E0,-7.547720671E-1,-3.794211149E0
1.089097660E0,9.941922188E0,-7.978677154E-1,-3.822941542E0
1.091585316E0,9.951498985E0,-7.978677154E-1,-3.803787947E0
1.094072972E0,9.941922188E0,-7.930793166E-1,-3.784634352E0
1.096560628E0,9.937133789E0,-7.978677154E-1,-3.755903959E0
1.099048285E0,9.927556992E0,-7.691373229E-1,-3.746327162E0
1.101535941E0,9.917980194E0,-7.691373229E-1,-3.736750364E0
1.104023597E0,9.898826599E0,-7.787141204E-1,-3.708019972E0
1.106511253E0,9.884461403E0,-7.691373229E-1,-3.693654776E0
1.108998910E0,9.860519409E0,-7.835025191E-1,-3.645770550E0
1.111486566E0,9.831789017E0,-7.978677154E-1,-3.602674961E0
1.113974222E0,9.798270226E0,-8.122329116E-1,-3.540425777E0
1.116461878E0,9.759963036E0,-8.122329116E-1,-3.502118587E0
1.118949535E0,9.731232643E0,-8.265981078E-1,-3.415927172E0
1.121437191E0,9.707290649E0,-8.218097091E-1,-3.353677988E0
1.123924847E0,9.692925453E0,-8.409633636E-1,-3.286640406E0
1.126412503E0,9.673771858E0,-8.553285599E-1,-3.248333216E0
1.128900160E0,9.625887871E0,-8.792705536E-1,-3.190872431E0
1.131387816E0,9.601945877E0,-9.032126069E-1,-3.114257812E0
1.133875472E0,9.568427086E0,-9.463081956E-1,-3.042431831E0
1.136363128E0,9.539696693E0,-9.702502489E-1,-2.946663857E0
1.138850785E0,9.515754700E0,-9.989806414E-1,-2.846107244E0
1.141338441E0,9.448717117E0,-1.037287831E0,-2.769492865E0
1.143826149E0,9.424775124E0,-1.056441545E0,-2.707243681E0
1.146313858E0,9.391256332E0,-1.070806742E0,-2.606687069E0
1.148801566E0,9.348160744E0,-1.085171938E0,-2.520495892E0
1.151289274E0,9.300276756E0,-1.104325533E0,-2.453458309E0
1.153776983E0,9.252392769E0,-1.128267527E0,-2.391208887E0
1.156264691E0,9.204508781E0,-1.133055925E0,-2.338536501E0
1.158752399E0,9.151836395E0,-1.152209520E0,-2.295440912E0
1.161240108E0,9.123106003E0,-1.166574836E0,-2.233191729E0
1.163727816E0,9.094375610E0,-1.185728431E0,-2.214038134E0
1.166215524E0,9.036913872E0,-1.195305228E0,-2.190095901E0
1.168703233E0,8.993818283E0,-1.195305228E0,-2.142211914E0
1.171190941E0,8.969876289E0,-1.200093627E0,-2.113481522E0
1.173678649E0,8.945934296E0,-1.209670424E0,-2.099116325E0
1.176166358E0,8.936357498E0,-1.209670424E0,-2.089539528E0
1.178654066E0,8.950722694E0,-1.214458823E0,-2.079962730E0
1.181141774E0,8.974664688E0,-1.214458823E0,-2.103904724E0
1.183629483E0,8.993818283E0,-1.238400817E0,-2.113481522E0
1.186117191E0,9.012971878E0,-1.233612418E0,-2.113481522E0
1.188604899E0,9.032125473E0,-1.252766013E0,-2.123058319E0
1.191092608E0,9.075222015E0,-1.291073322E0,-2.151788712E0
1.193580316E0,9.113529205E0,-1.310226917E0,-2.170942307E0
1.196068024E0,9.151836395E0,-1.338957310E0,-2.175730705E0
1.198555733E0,9.194931984E0,-1.358110905E0,-2.204461098E0
1.201043441E0,9.228450775E0,-1.367687702E0,-2.228403330E0
1.203531149E0,9.290699959E0,-1.382052898E0,-2.233191729E0
1.206018858E0,9.338583946E0,-1.396418095E0,-2.218826532E0
1.208506566E0,9.367314339E0,-1.410783410E0,-2.214038134E0
1.210994274E0,9.396044731E0,-1.444302201E0,-2.228403330E0
1.213481983E0,9.424775124E0,-1.458667397E0,-2.228403330E0
1.215969691E0,9.463082314E0,-1.477820992E0,-2.247556925E0
1.218457399E0,9.458293915E0,-1.492186189E0,-2.261922121E0
1.220945108E0,9.458293915E0,-1.525704980E0,-2.314594507E0
1.223432816E0,9.453505516E0,-1.530493379E0,-2.372055292E0
1.225920524E0,9.448717117E0,-1.535281897E0,-2.434304476E0
1.228408233E0,9.448717117E0,-1.564012289E0,-2.467823505E0
1.230895941E0,9.453505516E0,-1.578377485E0,-2.506130695E0
1.233383649E0,9.448717117E0,-1.578377485E0,-2.539649487E0
1.235871358E0,9.463082314E0,-1.564012289E0,-2.577956676E0
1.238359066E0,9.439140320E0,-1.568800688E0,-2.621052265E0
1.240846774E0,9.439140320E0,-1.583165884E0,-2.673724651E0
1.243334483E0,9.434351921E0,-1.583165884E0,-2.697666883E0
1.245822191E0,9.443928719E0,-1.583165884E0,-2.735974073E0
1.248309899E0,9.463082314E0,-1.607107878E0,-2.779069662E0
1.250797608E0,9.510966301E0,-1.611896276E0,-2.836530447E0
1.253285316E0,9.539696693E0,-1.631049871E0,-2.874837637E0
1.255773024E0,9.578003883E0,-1.645415068E0,-2.932298422E0
1.258260733E0,9.616311073E0,-1.664568782E0,-2.980182648E0
1.260748441E0,9.659406662E0,-1.664568782E0,-3.018489838E0
1.263236149E0,9.702502251E0,-1.683722377E0,-3.037643433E0
1.265723858E0,9.736021042E0,-1.683722377E0,-3.042431831E0
1.268211566E0,9.769539833E0,-1.688510776E0,-3.047220230E0
1.270699274E0,9.793481827E0,-1.669357181E0,-3.047220230E0
1.273186983E0,9.788693428E0,-1.645415068E0,-3.075950623E0
1.275674691E0,9.822212219E0,-1.631049871E0,-3.066373825E0
1.278162399E0,9.841365814E0,-1.626261473E0,-3.066373825E0
1.280650108E0,9.874884605E0,-1.602319479E0,-3.080739021E0
1.283137816E0,9.898826599E0,-1.602319479E0,-3.080739021E0
1.285625524E0,9.932345390E0,-1.621473074E0,-3.109469414E0
1.288113233E0,9.965864182E0,-1.631049871E0,-3.138199806E0
1.290600941E0,9.999382973E0,-1.650203466E0,-3.128623009E0
1.293088649E0,1.003290176E1,-1.650203466E0,-3.138199806E0
1.295576358E0,1.006163311E1,-1.674145579E0,-3.152565002E0
1.298064066E0,1.008557510E1,-1.674145579E0,-3.186083794E0
1.300551774E0,1.013345909E1,-1.664568782E0,-3.229179621E0
1.303039483E0,1.019570827E1,-1.664568782E0,-3.296217203E0
1.305527191E0,1.024359226E1,-1.693299174E0,-3.372831583E0
1.308014899E0,1.029626465E1,-1.702875972E0,-3.463811398E0
1.310502608E0,1.034893703E1,-1.745971560E0,-3.545214176E0
1.312990316E0,1.040639782E1,-1.779490471E0,-3.626616955E0
1.315478024E0,1.044470501E1,-1.817797661E0,-3.693654776E0
1.317965733E0,1.047343540E1,-1.836951256E0,-3.746327162E0
1.320453441E0,1.049737740E1,-1.860893250E0,-3.784634352E0
1.322941149E0,1.052610779E1,-1.889623642E0,-3.784634352E0
1.325428858E0,1.052610779E1,-1.875258446E0,-3.784634352E0
1.327916566E0,1.050695419E1,-1.860893250E0,-3.789422750E0
1.330404274E0,1.050695419E1,-1.856104851E0,-3.775057554E0
1.332891983E0,1.050216579E1,-1.832162857E0,-3.779845953E0
1.335379691E0,1.050216579E1,-1.813009262E0,-3.770269156E0
1.337867399E0,1.050695419E1,-1.813009262E0,-3.794211149E0
1.340355108E0,1.052610779E1,-1.813009262E0,-3.798999548E0
1.342842816E0,1.050695419E1,-1.803432465E0,-3.779845953E0
1.345330524E0,1.052131939E1,-1.836951256E0,-3.760692358E0
1.347818233E0,1.051653099E1,-1.851316452E0,-3.731961966E0
1.350305941E0,1.052131939E1,-1.846528053E0,-3.684077978E0
1.352793649E0,1.051653099E1,-1.870470047E0,-3.636193752E0
1.355281358E0,1.053568459E1,-1.856104851E0,-3.597886562E0
1.357769066E0,1.054047298E1,-1.832162857E0,-3.554790974E0
1.360256774E0,1.052610779E1,-1.822586060E0,-3.526060581E0
1.362744483E0,1.052610779E1,-1.789067268E0,-3.506906986E0
1.365232191E0,1.054526138E1,-1.736394763E0,-3.487753391E0
1.367719899E0,1.055004978E1,-1.722029567E0,-3.478176594E0
1.370207608E0,1.056441498E1,-1.669357181E0,-3.468599796E0
1.372695316E0,1.055483818E1,-1.635838270E0,-3.463811398E0
1.375183024E0,1.055962658E1,-1.621473074E0,-3.459022999E0
1.377670733E0,1.052610779E1,-1.578377485E0,-3.439869404E0
1.380158441E0,1.052131939E1,-1.549647093E0,-3.430292368E0
1.382646149E0,1.050695419E1,-1.501762986E0,-3.415927172E0
1.385133858E0,1.048780060E1,-1.468244195E0,-3.353677988E0
1.387621566E0,1.045428181E1,-1.410783410E0,-3.320159197E0
1.390109274E0,1.043033981E1,-1.372476101E0,-3.286640406E0
1.392596983E0,1.042555141E1,-1.348534107E0,-3.272275209E0
1.395084691E0,1.041597462E1,-1.295861721E0,-3.248333216E0
1.397572399E0,1.041597462E1,-1.271919608E0,-3.238756418E0
1.400060108E0,1.041597462E1,-1.262342811E0,-3.243544817E0
1.402547816E0,1.040639782E1,-1.238400817E0,-3.238756418E0
1.405035524E0,1.038724422E1,-1.224035621E0,-3.253121614E0
1.407523233E0,1.038724422E1,-1.209670424E0,-3.272275209E0
1.410010941E0,1.039682102E1,-1.200093627E0,-3.267486811E0
1.412498649E0,1.040639782E1,-1.200093627E0,-3.248333216E0
1.414986358E0,1.041118622E1,-1.200093627E0,-3.243544817E0
1.417474066E0,1.040639782E1,-1.185728431E0,-3.238756418E0
1.419961774E0,1.040160942E1,-1.166574836E0,-3.219602823E0
1.422449483E0,1.038245583E1,-1.156997919E0,-3.195660830E0
1.424937191E0,1.037287903E1,-1.147421122E0,-3.157353401E0
1.427424899E0,1.033457184E1,-1.133055925E0,-3.114257812E0
1.429912608E0,1.031541824E1,-1.128267527E0,-3.066373825E0
1.432400316E0,1.029626465E1,-1.085171938E0,-3.018489838E0
1.434888024E0,1.029626465E1,-1.066018343E0,-2.951452255E0
1.437375733E0,1.027232265E1,-1.046864748E0,-2.903568029E0
1.439863441E0,1.026753426E1,-1.018134236E0,-2.850895643E0
1.442351149E0,1.026753426E1,-9.894038439E-1,-2.807800055E0
1.444838858E0,1.025795746E1,-9.750386477E-1,-2.774281263E0
1.447326566E0,1.023401546E1,-9.558850527E-1,-2.731185675E0
1.449814274E0,1.021486187E1,-9.415197968E-1,-2.702455282E0
1.452301983E0,1.017655468E1,-9.032126069E-1,-2.659359455E0
1.454789691E0,1.010951710E1,-8.792705536E-1,-2.630629063E0
1.457277399E0,1.003769016E1,-8.457517624E-1,-2.601898670E0
1.459765108E0,9.985017776E0,-8.026561141E-1,-2.573168278E0
1.462252816E0,9.903614998E0,-7.787141204E-1,-2.549226284E0
1.464740524E0,9.817423820E0,-7.451952696E-1,-2.534861088E0
1.467228233E0,9.779116631E0,-7.212532759E-1,-2.534861088E0
1.469715941E0,9.721655846E0,-6.925228238E-1,-2.515707493E0
1.472203649E0,9.697713852E0,-6.637924314E-1,-2.506130695E0
1.474691358E0,9.654618263E0,-6.254851818E-1,-2.491765499E0
1.477179066E0,9.621099472E0,-5.919663906E-1,-2.486977100E0
1.479666774E0,9.568427086E0,-5.823895931E-1,-2.510919094E0
1.482154483E0,9.525331497E0,-5.632359385E-1,-2.544437885E0
1.484642191E0,9.491812706E0,-5.536591411E-1,-2.568379879E0
1.487129899E0,9.472659111E0,-5.345055461E-1,-2.577956676E0
1.489617608E0,9.458293915E0,-5.249287486E-1,-2.587533474E0
1.492105316E0,9.453505516E0,-5.105634928E-1,-2.597110271E0
1.494593024E0,9.448717117E0,-5.057750940E-1,-2.635417461E0
1.497080733E0,9.458293915E0,-4.961982965E-1,-2.673724651E0
1.499568441E0,9.458293915E0,-4.866214991E-1,-2.702455282E0
1.502056149E0,9.467870712E0,-4.914098978E-1,-2.755127668E0
1.504543858E0,9.453505516E0,-4.770447016E-1,-2.831742048E0
1.507031566E0,9.424775124E0,-4.866214991E-1,-2.898779631E0
1.509519274E0,9.405621529E0,-5.105634928E-1,-2.961029053E0
1.512006983E0,9.391256332E0,-5.345055461E-1,-3.032855034E0
1.514494691E0,9.367314339E0,-5.488707423E-1,-3.066373825E0
1.516982399E0,9.319430351E0,-5.776011348E-1,-3.119046211E0
1.519470108E0,9.295488358E0,-5.871779919E-1,-3.123834610E0
1.521957816E0,9.285911560E0,-5.967547894E-1,-3.147776604E0
1.524445524E0,9.252392769E0,-6.206967831E-1,-3.162141800E0
1.526933233E0,9.238027573E0,-6.494272351E-1,-3.171718597E0
1.529420941E0,9.214085579E0,-6.733692288E-1,-3.171718597E0
1.531908649E0,9.218873978E0,-6.973112226E-1,-3.138199806E0
1.534396358E0,9.190143585E0,-7.212532759E-1,-3.109469414E0
1.536884066E0,9.185355186E0,-7.547720671E-1,-3.095104218E0
1.539371774E0,9.180566788E0,-7.835025191E-1,-3.056797028E0
1.541859483E0,9.194931984E0,-8.218097091E-1,-3.032855034E0
1.544347191E0,9.185355186E0,-8.744821548E-1,-2.989759445E0
1.546834899E0,9.194931984E0,-9.127894044E-1,-2.956240654E0
1.549322608E0,9.194931984E0,-9.702502489E-1,-2.903568029E0
1.551810316E0,9.238027573E0,-9.989806414E-1,-2.846107244E0
1.554298024E0,9.261969566E0,-1.037287831E0,-2.807800055E0
1.556785733E0,9.300276756E0,-1.066018343E0,-2.759916067E0
1.559273441E0,9.333795547E0,-1.094748735E0,-2.731185675E0
1.561761149E0,9.367314339E0,-1.099537134E0,-2.731185675E0
1.564248858E0,9.386467934E0,-1.118690729E0,-2.688089848E0
1.566736566E0,9.410409927E0,-1.123479128E0,-2.654571056E0
1.569224222E0,9.448717117E0,-1.123479128E0,-2.625840664E0
1.571711878E0,9.487024307E0,-1.137844324E0,-2.592321873E0
1.574199535E0,9.520543098E0,-1.142632723E0,-2.577956676E0
1.576687191E0,9.544485092E0,-1.137844324E0,-2.582745075E0
1.579174847E0,9.587580681E0,-1.142632723E0,-2.587533474E0
1.581662503E0,9.606734276E0,-1.147421122E0,-2.587533474E0
1.584150160E0,9.645041466E0,-1.166574836E0,-2.625840664E0
1.586637816E0,9.678560257E0,-1.156997919E0,-2.654571056E0
1.589125472E0,9.726444244E0,-1.166574836E0,-2.697666883E0
1.591613128E0,9.759963036E0,-1.161786318E0,-2.750339270E0
1.594100785E0,9.759963036E0,-1.190516829E0,-2.803011656E0
1.596588441E0,9.759963036E0,-1.200093627E0,-2.870049238E0
1.599076097E0,9.750386238E0,-1.209670424E0,-2.927510023E0
1.601563753E0,9.745597839E0,-1.224035621E0,-2.975394249E0
1.604051410E0,9.736021042E0,-1.243189216E0,-3.008913040E0
1.606539066E0,9.726444244E0,-1.262342811E0,-3.075950623E0
1.609026722E0,9.683348656E0,-1.281496406E0,-3.138199806E0
1.611514378E0,9.664195061E0,-1.271919608E0,-3.214814425E0
1.614002035E0,9.659406662E0,-1.267131209E0,-3.301005602E0
1.616489691E0,9.640253067E0,-1.252766013E0,-3.368043184E0
1.618977347E0,9.621099472E0,-1.257554412E0,-3.454234600E0
1.621465003E0,9.597157478E0,-1.238400817E0,-3.535637379E0
1.623952660E0,9.592369080E0,-1.243189216E0,-3.602674961E0
1.626440316E0,9.582792282E0,-1.243189216E0,-3.636193752E0
1.628927972E0,9.558850288E0,-1.233612418E0,-3.684077978E0
1.631415628E0,9.525331497E0,-1.243189216E0,-3.693654776E0
1.633903285E0,9.506177902E0,-1.271919608E0,-3.727173567E0
1.636390941E0,9.491812706E0,-1.276708007E0,-3.751115561E0
1.638878597E0,9.472659111E0,-1.276708007E0,-3.770269156E0
1.641366305E0,9.458293915E0,-1.276708007E0,-3.779845953E0
1.643854014E0,9.482235909E0,-1.291073322E0,-3.770269156E0
1.646341722E0,9.482235909E0,-1.310226917E0,-3.751115561E0
1.648829430E0,9.496601105E0,-1.310226917E0,-3.722385168E0
1.651317139E0,9.501389503E0,-1.310226917E0,-3.679289579E0
1.653804847E0,9.515754700E0,-1.319803715E0,-3.655347347E0
1.656292555E0,9.534908295E0,-1.358110905E0,-3.631405354E0
1.658780264E0,9.578003883E0,-1.372476101E0,-3.612251759E0
1.661267972E0,9.611522675E0,-1.401206493E0,-3.569156170E0
1.663755680E0,9.664195061E0,-1.425148606E0,-3.526060581E0
1.666243389E0,9.697713852E0,-1.449090600E0,-3.482964993E0
1.668731097E0,9.731232643E0,-1.477820992E0,-3.444657803E0
1.671218805E0,9.759963036E0,-1.506551385E0,-3.391985178E0
1.673706514E0,9.769539833E0,-1.511339784E0,-3.344101191E0
1.676194222E0,9.759963036E0,-1.506551385E0,-3.291428804E0
1.678681930E0,9.788693428E0,-1.516128182E0,-3.238756418E0
1.681169639E0,9.817423820E0,-1.506551385E0,-3.200449228E0
1.683657347E0,9.822212219E0,-1.501762986E0,-3.162141800E0
1.686145055E0,9.822212219E0,-1.511339784E0,-3.142988205E0
1.688632764E0,9.822212219E0,-1.516128182E0,-3.109469414E0
1.691120472E0,9.817423820E0,-1.511339784E0,-3.066373825E0
1.693608180E0,9.817423820E0,-1.506551385E0,-3.042431831E0
1.696095889E0,9.779116631E0,-1.511339784E0,-3.032855034E0
1.698583597E0,9.736021042E0,-1.492186189E0,-2.994547844E0
1.701071305E0,9.702502251E0,-1.468244195E0,-2.946663857E0
1.703559014E0,9.678560257E0,-1.434725404E0,-2.922721624E0
1.706046722E0,9.645041466E0,-1.405994892E0,-2.893991232E0
1.708534430E0,9.630676270E0,-1.396418095E0,-2.850895643E0
1.711022139E0,9.558850288E0,-1.362899303E0,-2.826953650E0
1.713509847E0,9.506177902E0,-1.343745708E0,-2.798223257E0
1.715997555E0,9.477447510E0,-1.310226917E0,-2.764704466E0
1.718485264E0,9.439140320E0,-1.257554412E0,-2.716820478E0
1.720972972E0,9.391256332E0,-1.214458823E0,-2.702455282E0
1.723460680E0,9.338583946E0,-1.156997919E0,-2.673724651E0
1.725948389E0,9.276334763E0,-1.109113932E0,-2.654571056E0
1.728436097E0,9.228450775E0,-1.066018343E0,-2.640205860E0
1.730923805E0,9.199720383E0,-1.008557439E0,-2.630629063E0
1.733411514E0,9.161413193E0,-9.606734514E-1,-2.630629063E0
1.735899222E0,9.147047997E0,-9.223662019E-1,-2.635417461E0
1.738386930E0,9.156624794E0,-9.080010056E-1,-2.659359455E0
1.740874639E0,9.161413193E0,-8.553285599E-1,-2.668936253E0
1.743362347E0,9.161413193E0,-8.361749649E-1,-2.683301449E0
1.745850055E0,9.166201591E0,-8.122329116E-1,-2.683301449E0
1.748337764E0,9.190143585E0,-8.170213103E-1,-2.678513050E0
1.750825472E0,9.180566788E0,-8.074445128E-1,-2.668936253E0
1.753313180E0,9.209297180E0,-8.313865662E-1,-2.673724651E0
1.755800889E0,9.233239174E0,-8.313865662E-1,-2.659359455E0
1.758288597E0,9.285911560E0,-8.074445128E-1,-2.640205860E0
1.760776305E0,9.319430351E0,-8.218097091E-1,-2.649782658E0
1.763264014E0,9.329007149E0,-8.457517624E-1,-2.649782658E0
1.765751722E0,9.343372345E0,-8.553285599E-1,-2.644994259E0
1.768239430E0,9.362525940E0,-8.649053574E-1,-2.640205860E0
1.770727139E0,9.376891136E0,-8.696937561E-1,-2.654571056E0
1.773214847E0,9.400833130E0,-8.696937561E-1,-2.659359455E0
1.775702555E0,9.419986725E0,-8.840589523E-1,-2.664147854E0
1.778190264E0,9.443928719E0,-8.649053574E-1,-2.654571056E0
1.780677972E0,9.472659111E0,-8.601169586E-1,-2.625840664E0
1.783165680E0,9.482235909E0,-8.601169586E-1,-2.611475468E0
1.785653389E0,9.487024307E0,-8.457517624E-1,-2.582745075E0
1.788141097E0,9.496601105E0,-8.409633636E-1,-2.582745075E0
1.790628805E0,9.501389503E0,-8.457517624E-1,-2.577956676E0
1.793116514E0,9.491812706E0,-8.505401611E-1,-2.530072689E0
1.795604222E0,9.472659111E0,-8.361749649E-1,-2.520495892E0
1.798091930E0,9.482235909E0,-8.265981078E-1,-2.486977100E0
1.800579639E0,9.491812706E0,-8.170213103E-1,-2.472611904E0
1.803067347E0,9.496601105E0,-8.170213103E-1,-2.443881273E0
1.805555055E0,9.496601105E0,-7.978677154E-1,-2.405574083E0
1.808042764E0,9.491812706E0,-7.835025191E-1,-2.362478495E0
1.810530472E0,9.491812706E0,-7.691373229E-1,-2.333748102E0
1.813018180E0,9.520543098E0,-7.451952696E-1,-2.285864115E0
1.815505889E0,9.530119896E0,-7.451952696E-1,-2.261922121E0
1.817993597E0,9.525331497E0,-7.308300734E-1,-2.233191729E0
1.820481305E0,9.525331497E0,-7.356184721E-1,-2.214038134E0
1.822969014E0,9.530119896E0,-7.356184721E-1,-2.199672699E0
1.825456722E0,9.506177902E0,-7.068880796E-1,-2.151788712E0
1.827944430E0,9.501389503E0,-7.020996213E-1,-2.118269920E0
1.830432139E0,9.491812706E0,-6.925228238E-1,-2.060809135E0
1.832919847E0,9.482235909E0,-6.877344251E-1,-2.032078743E0
1.835407555E0,9.472659111E0,-6.781576276E-1,-1.998559833E0
1.837895264E0,9.443928719E0,-6.829460263E-1,-1.984194636E0
1.840382972E0,9.429563522E0,-7.116764784E-1,-1.974617839E0
1.842870680E0,9.415198326E0,-7.068880796E-1,-1.965041041E0
1.845358389E0,9.386467934E0,-7.164648771E-1,-1.979406238E0
1.847846097E0,9.357737541E0,-7.404068708E-1,-1.979406238E0
1.850333805E0,9.338583946E0,-7.451952696E-1,-1.988983035E0
1.852821514E0,9.324218750E0,-7.451952696E-1,-1.993771434E0
1.855309222E0,9.309853554E0,-7.499836683E-1,-1.993771434E0
1.857796930E0,9.276334763E0,-7.404068708E-1,-1.969829440E0
1.860284639E0,9.261969566E0,-7.212532759E-1,-1.950675845E0
1.862772347E0,9.257181168E0,-7.308300734E-1,-1.917157054E0
1.865260055E0,9.228450775E0,-7.164648771E-1,-1.874061346E0
1.867747764E0,9.218873978E0,-7.116764784E-1,-1.840542555E0
1.870235472E0,9.199720383E0,-7.068880796E-1,-1.807023764E0
1.872723180E0,9.204508781E0,-7.020996213E-1,-1.754351258E0
1.875210889E0,9.180566788E0,-7.068880796E-1,-1.716044068E0
1.877698597E0,9.175778389E0,-7.068880796E-1,-1.701678872E0
1.880186305E0,9.156624794E0,-7.164648771E-1,-1.692102075E0
1.882674014E0,9.147047997E0,-7.260416746E-1,-1.625064373E0
1.885161722E0,9.127894402E0,-7.212532759E-1,-1.605910778E0
1.887649430E0,9.127894402E0,-7.260416746E-1,-1.577180386E0
1.890137139E0,9.137471199E0,-7.164648771E-1,-1.572391987E0
1.892624847E0,9.166201591E0,-7.164648771E-1,-1.553238392E0
1.895112555E0,9.204508781E0,-7.260416746E-1,-1.519719481E0
1.897600264E0,9.242815971E0,-7.499836683E-1,-1.490989089E0
1.900087972E0,9.271546364E0,-7.739257216E-1,-1.467047095E0
1.902575680E0,9.290699959E0,-8.218097091E-1,-1.447893500E0
1.905063389E0,9.305065155E0,-8.505401611E-1,-1.423951507E0
1.907551097E0,9.352949142E0,-8.744821548E-1,-1.366490602E0
1.910038805E0,9.396044731E0,-8.744821548E-1,-1.318606615E0
1.912526514E0,9.439140320E0,-9.032126069E-1,-1.280299306E0
1.915014222E0,9.506177902E0,-8.840589523E-1,-1.275510907E0
1.917501930E0,9.573215485E0,-8.936358094E-1,-1.275510907E0
1.919989639E0,9.621099472E0,-8.840589523E-1,-1.280299306E0
1.922477347E0,9.645041466E0,-9.223662019E-1,-1.280299306E0
1.924965055E0,9.683348656E0,-9.223662019E-1,-1.251568913E0
1.927452764E0,9.702502251E0,-9.223662019E-1,-1.227626920E0
1.929940472E0,9.726444244E0,-9.032126069E-1,-1.174954534E0
1.932428180E0,9.774328232E0,-8.840589523E-1,-1.122282028E0
1.934915889E0,9.812635422E0,-8.649053574E-1,-1.103128433E0
1.937403597E0,9.831789017E0,-8.457517624E-1,-1.083974838E0
1.939891305E0,9.870096207E0,-8.026561141E-1,-1.079186440E0
1.942379014E0,9.903614998E0,-7.835025191E-1,-1.098340034E0
1.944866722E0,9.922768593E0,-7.739257216E-1,-1.141435623E0
1.947354430E0,9.951498985E0,-7.547720671E-1,-1.203684926E0
1.949842139E0,9.951498985E0,-7.451952696E-1,-1.289876223E0
1.952329847E0,9.975440979E0,-7.547720671E-1,-1.390432596E0
1.954817555E0,9.985017776E0,-7.308300734E-1,-1.500565886E0
1.957305264E0,9.975440979E0,-7.116764784E-1,-1.601122379E0
1.959792972E0,9.970652580E0,-6.829460263E-1,-1.701678872E0
1.962280680E0,9.989806175E0,-6.590040326E-1,-1.821388960E0
1.964768389E0,9.999382973E0,-6.446388364E-1,-1.941099048E0
1.967256097E0,1.000417137E1,-6.254851818E-1,-2.079962730E0
1.969743805E0,9.999382973E0,-6.159083843E-1,-2.223614931E0
1.972231514E0,1.000417137E1,-6.111199856E-1,-2.376843691E0
1.974719222E0,1.002811337E1,-5.919663906E-1,-2.549226284E0
1.977206930E0,1.001853657E1,-5.919663906E-1,-2.726397276E0
1.979694639E0,1.005205631E1,-6.063315868E-1,-2.908356428E0
1.982182347E0,1.004247856E1,-6.206967831E-1,-3.075950623E0
1.984670055E0,1.004247856E1,-6.446388364E-1,-3.210026026E0
1.987157764E0,1.004247856E1,-6.733692288E-1,-3.339312792E0
1.989645472E0,1.004247856E1,-7.068880796E-1,-3.435081005E0
1.992133180E0,1.003769016E1,-7.116764784E-1,-3.521272182E0
1.994620889E0,1.004247856E1,-7.164648771E-1,-3.602674961E0
1.997108597E0,1.006642151E1,-7.116764784E-1,-3.650558949E0
1.999596305E0,1.008078671E1,-7.164648771E-1,-3.717596769E0
2.002084014E0,1.009994030E1,-7.212532759E-1,-3.765480757E0
2.004571722E0,1.014303589E1,-7.164648771E-1,-3.846883535E0
2.007059430E0,1.018134308E1,-7.547720671E-1,-3.923498154E0
2.009547139E0,1.021486187E1,-7.787141204E-1,-3.976170540E0
2.012034847E0,1.026274586E1,-8.122329116E-1,-4.033631325E0
2.014522555E0,1.031062984E1,-8.505401611E-1,-4.081515312E0
2.017010264E0,1.033936024E1,-8.984242082E-1,-4.100668907E0
2.019497972E0,1.036809063E1,-9.080010056E-1,-4.129399300E0
2.021985680E0,1.036809063E1,-9.223662019E-1,-4.153341293E0
2.024473389E0,1.040639782E1,-9.319429994E-1,-4.138976097E0
2.026961097E0,1.043033981E1,-9.415197968E-1,-4.100668907E0
2.029448805E0,1.043033981E1,-9.367313981E-1,-4.081515312E0
2.031936514E0,1.043033981E1,-9.367313981E-1,-4.062361717E0
2.034424222E0,1.043033981E1,-9.223662019E-1,-4.033631325E0
2.036911930E0,1.043512821E1,-9.127894044E-1,-3.990535736E0
2.039399639E0,1.043991661E1,-9.319429994E-1,-3.966593742E0
2.041887347E0,1.043512821E1,-9.271546006E-1,-3.913921118E0
2.044375055E0,1.043033981E1,-9.510966539E-1,-3.866037130E0
2.046862764E0,1.039682102E1,-9.702502489E-1,-3.813364744E0
2.049350472E0,1.035851383E1,-9.941922426E-1,-3.770269156E0
2.051838180E0,1.032978344E1,-1.003769040E0,-3.736750364E0
2.054325889E0,1.030584145E1,-1.008557439E0,-3.712808371E0
2.056813597E0,1.026753426E1,-9.941922426E-1,-3.645770550E0
2.059301305E0,1.023401546E1,-9.702502489E-1,-3.573944569E0
2.061789014E0,1.018613148E1,-9.463081956E-1,-3.502118587E0
2.064276722E0,1.016697788E1,-9.175778031E-1,-3.454234600E0
2.066764378E0,1.012867069E1,-9.032126069E-1,-3.420715570E0
2.069252035E0,1.008078671E1,-8.936358094E-1,-3.368043184E0
2.071739691E0,1.006163311E1,-8.840589523E-1,-3.324947596E0
2.074227347E0,1.001374817E1,-8.888474107E-1,-3.253121614E0
2.076715003E0,9.965864182E0,-8.744821548E-1,-3.190872431E0
2.079202660E0,9.927556992E0,-8.505401611E-1,-3.123834610E0
2.081690316E0,9.884461403E0,-8.265981078E-1,-3.071162224E0
2.084177972E0,9.846154213E0,-8.122329116E-1,-3.018489838E0
2.086665628E0,9.812635422E0,-7.739257216E-1,-2.961029053E0
2.089153285E0,9.759963036E0,-7.356184721E-1,-2.893991232E0
2.091640941E0,9.721655846E0,-7.020996213E-1,-2.826953650E0
2.094128597E0,9.707290649E0,-6.877344251E-1,-2.759916067E0
2.096616253E0,9.688137054E0,-6.542156339E-1,-2.712032080E0
2.099103910E0,9.649829865E0,-6.159083843E-1,-2.664147854E0
2.101591566E0,9.640253067E0,-6.159083843E-1,-2.635417461E0
2.104079222E0,9.597157478E0,-5.823895931E-1,-2.630629063E0
2.106566878E0,9.582792282E0,-5.776011348E-1,-2.644994259E0
2.109054535E0,9.558850288E0,-5.680243373E-1,-2.654571056E0
2.111542191E0,9.534908295E0,-5.823895931E-1,-2.644994259E0
2.114029847E0,9.506177902E0,-5.871779919E-1,-2.668936253E0
2.116517503E0,9.467870712E0,-5.871779919E-1,-2.654571056E0
2.119005160E0,9.434351921E0,-5.919663906E-1,-2.664147854E0
2.121492816E0,9.419986725E0,-6.254851818E-1,-2.697666883E0
2.123980472E0,9.405621529E0,-6.398503780E-1,-2.692878246E0
2.126468128E0,9.372102737E0,-6.350619793E-1,-2.721608877E0
2.128955785E0,9.357737541E0,-6.446388364E-1,-2.755127668E0
2.131443441E0,9.376891136E0,-6.637924314E-1,-2.779069662E0
2.133931097E0,9.410409927E0,-6.781576276E-1,-2.812588453E0
2.136418753E0,9.448717117E0,-7.164648771E-1,-2.860472441E0
2.138906462E0,9.472659111E0,-7.404068708E-1,-2.889202833E0
2.141394170E0,9.496601105E0,-8.122329116E-1,-2.917933226E0
2.143881878E0,9.539696693E0,-8.553285599E-1,-2.932298422E0
2.146369587E0,9.573215485E0,-9.080010056E-1,-2.927510023E0
2.148857295E0,9.611522675E0,-9.415197968E-1,-2.922721624E0
2.151345003E0,9.635464668E0,-9.654618502E-1,-2.903568029E0
2.153832712E0,9.668983459E0,-9.846154451E-1,-2.841318846E0
2.156320420E0,9.702502251E0,-1.013345838E0,-2.793434858E0
2.158808128E0,9.774328232E0,-1.027711034E0,-2.764704466E0
2.161295837E0,9.817423820E0,-1.046864748E0,-2.721608877E0
2.163783545E0,9.874884605E0,-1.066018343E0,-2.664147854E0
2.166271253E0,9.908403397E0,-1.118690729E0,-2.621052265E0
2.168758962E0,9.961075783E0,-1.156997919E0,-2.544437885E0
2.171246670E0,1.002332497E1,-1.190516829E0,-2.506130695E0
2.173734378E0,1.007120991E1,-1.204882026E0,-2.434304476E0
2.176222087E0,1.011909389E1,-1.200093627E0,-2.352901697E0
2.178709795E0,1.018134308E1,-1.219247222E0,-2.309806108E0
2.181197503E0,1.022922707E1,-1.219247222E0,-2.247556925E0
2.183685212E0,1.027711105E1,-1.204882026E0,-2.199672699E0
2.186172920E0,1.034414864E1,-1.195305228E0,-2.170942307E0
2.188660628E0,1.039682102E1,-1.200093627E0,-2.132635117E0
2.191148337E0,1.043512821E1,-1.209670424E0,-2.127846718E0
2.193636045E0,1.049258900E1,-1.190516829E0,-2.142211914E0
2.196123753E0,1.053089619E1,-1.180940032E0,-2.156577110E0
2.198611462E0,1.057878017E1,-1.161786318E0,-2.156577110E0
2.201099170E0,1.063145256E1,-1.147421122E0,-2.175730705E0
2.203586878E0,1.066975975E1,-1.142632723E0,-2.218826532E0
2.206074587E0,1.066497135E1,-1.109113932E0,-2.247556925E0
2.208562295E0,1.064102936E1,-1.109113932E0,-2.295440912E0
2.211050003E0,1.062187576E1,-1.085171938E0,-2.338536501E0
2.213537712E0,1.058356857E1,-1.046864748E0,-2.362478495E0
2.216025420E0,1.054526138E1,-1.013345838E0,-2.400785685E0
2.218513128E0,1.048780060E1,-9.654618502E-1,-2.439092875E0
2.221000837E0,1.043033981E1,-9.080010056E-1,-2.486977100E0
2.223488545E0,1.038245583E1,-8.457517624E-1,-2.525284290E0
2.225976253E0,1.032978344E1,-8.218097091E-1,-2.592321873E0
2.228463962E0,1.027711105E1,-7.739257216E-1,-2.654571056E0
2.230951670E0,1.026753426E1,-7.595604658E-1,-2.712032080E0
2.233439378E0,1.024838066E1,-7.404068708E-1,-2.803011656E0
2.235927087E0,1.021965027E1,-7.451952696E-1,-2.908356428E0
2.238414795E0,1.021965027E1,-7.308300734E-1,-2.994547844E0
2.240902503E0,1.020049667E1,-7.308300734E-1,-3.066373825E0
2.243390212E0,1.021486187E1,-7.404068708E-1,-3.152565002E0
2.245877920E0,1.022922707E1,-7.260416746E-1,-3.214814425E0
2.248365628E0,1.025795746E1,-7.164648771E-1,-3.267486811E0
2.250853337E0,1.028668785E1,-7.260416746E-1,-3.320159197E0
2.253341045E0,1.032020664E1,-7.164648771E-1,-3.344101191E0
2.255828753E0,1.036809063E1,-7.212532759E-1,-3.358466387E0
2.258316462E0,1.039203262E1,-7.356184721E-1,-3.368043184E0
2.260804170E0,1.042555141E1,-7.404068708E-1,-3.363254786E0
2.263291878E0,1.046385860E1,-7.643488646E-1,-3.334524393E0
2.265779587E0,1.052131939E1,-7.739257216E-1,-3.315370798E0
2.268267295E0,1.059314537E1,-7.882909179E-1,-3.301005602E0
2.270755003E0,1.064581776E1,-7.978677154E-1,-3.272275209E0
2.273242712E0,1.072243214E1,-8.074445128E-1,-3.248333216E0
2.275730420E0,1.077510452E1,-8.074445128E-1,-3.257910013E0
2.278218128E0,1.082777691E1,-8.170213103E-1,-3.267486811E0
2.280705837E0,1.088044930E1,-8.457517624E-1,-3.257910013E0
2.283193545E0,1.092833328E1,-8.553285599E-1,-3.248333216E0
2.285681253E0,1.098100567E1,-8.601169586E-1,-3.262698412E0
2.288168962E0,1.101452446E1,-8.696937561E-1,-3.277063608E0
2.290656670E0,1.105762100E1,-8.744821548E-1,-3.301005602E0
2.293144378E0,1.109113979E1,-8.792705536E-1,-3.305794001E0
2.295632087E0,1.111029339E1,-8.984242082E-1,-3.315370798E0
2.298119795E0,1.113423538E1,-8.984242082E-1,-3.363254786E0
2.300607503E0,1.113902378E1,-9.080010056E-1,-3.406350374E0
2.303095212E0,1.112465858E1,-9.080010056E-1,-3.454234600E0
2.305582920E0,1.110071659E1,-8.792705536E-1,-3.439869404E0
2.308070628E0,1.105762100E1,-8.696937561E-1,-3.473388195E0
2.310558337E0,1.103367901E1,-8.553285599E-1,-3.482964993E0
2.313046045E0,1.100015926E1,-8.409633636E-1,-3.506906986E0
2.315533753E0,1.097142887E1,-8.170213103E-1,-3.521272182E0
2.318021462E0,1.095706367E1,-7.835025191E-1,-3.521272182E0
2.320509170E0,1.092833328E1,-7.547720671E-1,-3.526060581E0
2.322996878E0,1.089960289E1,-7.164648771E-1,-3.535637379E0
2.325484587E0,1.087087250E1,-7.116764784E-1,-3.530848980E0
2.327972295E0,1.084693050E1,-6.973112226E-1,-3.521272182E0
2.330460003E0,1.083735371E1,-6.733692288E-1,-3.502118587E0
2.332947712E0,1.082777691E1,-6.446388364E-1,-3.463811398E0
2.335435420E0,1.082777691E1,-6.254851818E-1,-3.473388195E0
2.337923128E0,1.083256531E1,-6.063315868E-1,-3.444657803E0
2.340410837E0,1.083735371E1,-6.063315868E-1,-3.435081005E0
2.342898545E0,1.084214211E1,-5.967547894E-1,-3.411138773E0
2.345386253E0,1.086608410E1,-6.206967831E-1,-3.391985178E0
2.347873962E0,1.086608410E1,-5.919663906E-1,-3.358466387E0
2.350361670E0,1.086129570E1,-5.680243373E-1,-3.315370798E0
2.352849378E0,1.089002609E1,-5.488707423E-1,-3.281852007E0
2.355337087E0,1.092354488E1,-5.345055461E-1,-3.238756418E0
2.357824795E0,1.096664047E1,-5.249287486E-1,-3.214814425E0
2.360312503E0,1.100973606E1,-5.057750940E-1,-3.186083794E0
2.362800212E0,1.103846741E1,-5.009866953E-1,-3.171718597E0
2.365287920E0,1.106240940E1,-4.961982965E-1,-3.142988205E0
2.367775628E0,1.110071659E1,-5.153518915E-1,-3.123834610E0
2.370263337E0,1.112465858E1,-5.153518915E-1,-3.095104218E0
2.372751045E0,1.115817738E1,-5.201402903E-1,-3.080739021E0
2.375238753E0,1.116775417E1,-5.297171474E-1,-3.061585426E0
2.377726462E0,1.120127296E1,-5.249287486E-1,-3.071162224E0
2.380214170E0,1.123958015E1,-5.392939448E-1,-3.080739021E0
2.382701878E0,1.126352215E1,-5.297171474E-1,-3.090315819E0
2.385189587E0,1.129225254E1,-5.297171474E-1,-3.128623009E0
2.387677295E0,1.131619453E1,-5.297171474E-1,-3.142988205E0
2.390165003E0,1.134013653E1,-5.392939448E-1,-3.128623009E0
2.392652712E0,1.133534813E1,-5.536591411E-1,-3.123834610E0
2.395140420E0,1.133055973E1,-5.440823436E-1,-3.123834610E0
2.397628128E0,1.131140614E1,-5.440823436E-1,-3.114257812E0
2.400115837E0,1.129704094E1,-5.345055461E-1,-3.095104218E0
2.402603545E0,1.126831055E1,-4.961982965E-1,-3.066373825E0
2.405091253E0,1.128267574E1,-4.866214991E-1,-3.061585426E0
2.407578962E0,1.124915695E1,-4.722562730E-1,-3.061585426E0
2.410066670E0,1.124915695E1,-4.674678743E-1,-3.047220230E0
2.412554378E0,1.125394535E1,-4.435258508E-1,-3.075950623E0
2.415042087E0,1.124436855E1,-4.243722558E-1,-3.080739021E0
2.417529795E0,1.124436855E1,-4.195838571E-1,-3.085527420E0
2.420017503E0,1.123958015E1,-4.195838571E-1,-3.080739021E0
2.422505212E0,1.123479176E1,-4.100070298E-1,-3.071162224E0
2.424992920E0,1.122521496E1,-4.147954583E-1,-3.071162224E0
2.427480628E0,1.124915695E1,-3.956418335E-1,-3.071162224E0
2.429968337E0,1.123479176E1,-3.908534348E-1,-3.066373825E0
2.432456045E0,1.123479176E1,-3.956418335E-1,-3.109469414E0
2.434943753E0,1.122042656E1,-3.956418335E-1,-3.104681015E0
2.437431462E0,1.122521496E1,-4.004302323E-1,-3.128623009E0
2.439919170E0,1.122042656E1,-4.195838571E-1,-3.157353401E0
2.442406878E0,1.119648457E1,-4.243722558E-1,-3.166930199E0
2.444894587E0,1.120127296E1,-4.483142793E-1,-3.186083794E0
2.447382295E0,1.120606136E1,-4.483142793E-1,-3.195660830E0
2.449870003E0,1.119648457E1,-4.578910768E-1,-3.219602823E0
2.452357712E0,1.119648457E1,-4.722562730E-1,-3.248333216E0
2.454845420E0,1.119648457E1,-4.626794755E-1,-3.267486811E0
2.457333128E0,1.120606136E1,-4.818331003E-1,-3.301005602E0
2.459820837E0,1.120127296E1,-4.961982965E-1,-3.301005602E0
2.462308545E0,1.119648457E1,-5.201402903E-1,-3.339312792E0
2.464796253E0,1.121563816E1,-5.345055461E-1,-3.353677988E0
2.467283962E0,1.122521496E1,-5.392939448E-1,-3.382408381E0
2.469771670E0,1.123958015E1,-5.632359385E-1,-3.406350374E0
2.472259378E0,1.127309895E1,-5.632359385E-1,-3.463811398E0
2.474747087E0,1.128267574E1,-5.871779919E-1,-3.497330189E0
2.477234795E0,1.132577133E1,-6.159083843E-1,-3.535637379E0
2.479722503E0,1.132577133E1,-6.254851818E-1,-3.573944569E0
2.482210212E0,1.131140614E1,-6.446388364E-1,-3.621828556E0
2.484697920E0,1.129225254E1,-6.685808301E-1,-3.650558949E0
2.487185628E0,1.127309895E1,-6.781576276E-1,-3.693654776E0
2.489673337E0,1.126352215E1,-6.637924314E-1,-3.712808371E0
2.492161045E0,1.124915695E1,-6.637924314E-1,-3.751115561E0
2.494648753E0,1.120127296E1,-6.542156339E-1,-3.784634352E0
2.497136462E0,1.117254257E1,-6.494272351E-1,-3.837306738E0
2.499624170E0,1.114381218E1,-6.446388364E-1,-3.875613928E0
2.502111878E0,1.110550499E1,-6.398503780E-1,-3.904344320E0
2.504599587E0,1.104325581E1,-6.254851818E-1,-3.937863350E0
2.507087295E0,1.100973606E1,-6.159083843E-1,-3.947440147E0
2.509575003E0,1.096664047E1,-6.159083843E-1,-3.942651749E0
2.512062712E0,1.091396809E1,-6.159083843E-1,-3.952228546E0
2.514550420E0,1.086608410E1,-5.967547894E-1,-3.985747337E0
2.517038128E0,1.081341171E1,-5.871779919E-1,-4.028842926E0
2.519525837E0,1.076073933E1,-6.063315868E-1,-4.038419724E0
2.522013545E0,1.071764374E1,-5.823895931E-1,-4.057573318E0
2.524501253E0,1.067933655E1,-5.584475398E-1,-4.071938515E0
2.526988910E0,1.065060616E1,-5.488707423E-1,-4.091092110E0
2.529476566E0,1.063145256E1,-5.297171474E-1,-4.086303711E0
2.531964222E0,1.061229897E1,-5.105634928E-1,-4.100668907E0
2.534451878E0,1.059314537E1,-5.105634928E-1,-4.115034103E0
2.536939535E0,1.058356857E1,-5.105634928E-1,-4.100668907E0
2.539427191E0,1.055962658E1,-5.105634928E-1,-4.124610901E0
2.541914847E0,1.055004978E1,-5.297171474E-1,-4.105457306E0
2.544402503E0,1.050216579E1,-5.201402903E-1,-4.071938515E0
2.546890160E0,1.045428181E1,-5.392939448E-1,-4.076726913E0
2.549377816E0,1.043033981E1,-5.440823436E-1,-3.990535736E0
2.551865472E0,1.041118622E1,-5.536591411E-1,-3.909132719E0
2.554353128E0,1.039682102E1,-5.680243373E-1,-3.842095137E0
2.556840785E0,1.039203262E1,-6.015431881E-1,-3.765480757E0
2.559328441E0,1.037766743E1,-6.015431881E-1,-3.669712543E0
2.561816097E0,1.036330223E1,-6.015431881E-1,-3.569156170E0
2.564303753E0,1.036809063E1,-6.206967831E-1,-3.439869404E0
2.566791410E0,1.036809063E1,-6.206967831E-1,-3.334524393E0
2.569279066E0,1.037766743E1,-6.159083843E-1,-3.238756418E0
2.571766722E0,1.038245583E1,-6.159083843E-1,-3.123834610E0
2.574254378E0,1.039203262E1,-5.967547894E-1,-3.028066635E0
2.576742035E0,1.039203262E1,-5.776011348E-1,-2.932298422E0
2.579229691E0,1.039203262E1,-5.632359385E-1,-2.836530447E0
2.581717347E0,1.038724422E1,-5.440823436E-1,-2.745550871E0
2.584205003E0,1.039682102E1,-5.201402903E-1,-2.659359455E0
2.586692660E0,1.039682102E1,-5.009866953E-1,-2.577956676E0
2.589180316E0,1.038245583E1,-4.674678743E-1,-2.525284290E0
2.591667972E0,1.037287903E1,-4.483142793E-1,-2.486977100E0
2.594155628E0,1.036330223E1,-4.339490533E-1,-2.467823505E0
2.596643285E0,1.035851383E1,-4.100070298E-1,-2.463035107E0
2.599130993E0,1.034414864E1,-3.908534348E-1,-2.482188702E0
2.601618701E0,1.033457184E1,-3.860650361E-1,-2.515707493E0
2.604106410E0,1.031541824E1,-3.621230125E-1,-2.554014683E0
2.606594118E0,1.026274586E1,-3.621230125E-1,-2.606687069E0
2.609081826E0,1.020049667E1,-3.477577865E-1,-2.635417461E0
2.611569535E0,1.014303589E1,-3.573346138E-1,-2.697666883E0
2.614057243E0,1.007120991E1,-3.477577865E-1,-2.755127668E0
2.616544951E0,1.000895977E1,-3.286041915E-1,-2.788646460E0
2.619032660E0,9.941922188E0,-3.094505668E-1,-2.836530447E0
2.621520368E0,9.879673004E0,-2.902969420E-1,-2.884414434E0
2.624008076E0,9.817423820E0,-2.424129248E-1,-2.941875219E0
2.626495785E0,9.764751434E0,-2.280477136E-1,-2.984971046E0
2.628983493E0,9.712079048E0,-2.041056901E-1,-3.023278236E0
2.631471201E0,9.673771858E0,-1.849520802E-1,-3.023278236E0
2.633958910E0,9.645041466E0,-1.610100716E-1,-3.080739021E0
2.636446618E0,9.616311073E0,-1.514332592E-1,-3.071162224E0
2.638934326E0,9.592369080E0,-1.418564469E-1,-3.066373825E0
2.641422035E0,9.587580681E0,-1.322796494E-1,-3.080739021E0
2.643909743E0,9.554061890E0,-1.370680481E-1,-3.071162224E0
2.646397451E0,9.530119896E0,-1.514332592E-1,-3.066373825E0
2.648885160E0,9.534908295E0,-1.753752679E-1,-3.075950623E0
2.651372868E0,9.530119896E0,-2.041056901E-1,-3.052008629E0
2.653860576E0,9.544485092E0,-2.424129248E-1,-2.999336243E0
2.656348285E0,9.539696693E0,-2.711433470E-1,-2.937086821E0
2.658835993E0,9.578003883E0,-3.094505668E-1,-2.884414434E0
2.661323701E0,9.606734276E0,-3.525462151E-1,-2.826953650E0
2.663811410E0,9.649829865E0,-3.860650361E-1,-2.779069662E0
2.666299118E0,9.678560257E0,-4.243722558E-1,-2.731185675E0
2.668786826E0,9.697713852E0,-4.674678743E-1,-2.697666883E0
2.671274535E0,9.726444244E0,-5.105634928E-1,-2.659359455E0
2.673762243E0,9.774328232E0,-5.392939448E-1,-2.644994259E0
2.676249951E0,9.831789017E0,-5.776011348E-1,-2.621052265E0
2.678737660E0,9.870096207E0,-6.206967831E-1,-2.563591480E0
2.681225368E0,9.908403397E0,-6.350619793E-1,-2.534861088E0
2.683713076E0,9.946710587E0,-6.542156339E-1,-2.501342297E0
2.686200785E0,9.989806175E0,-6.733692288E-1,-2.496553898E0
2.688688493E0,9.994594574E0,-6.925228238E-1,-2.501342297E0
2.691176201E0,1.000417137E1,-6.973112226E-1,-2.520495892E0
2.693663910E0,1.002332497E1,-7.068880796E-1,-2.568379879E0
2.696151618E0,1.003290176E1,-7.260416746E-1,-2.592321873E0
2.698639326E0,1.004247856E1,-7.308300734E-1,-2.630629063E0
2.701127035E0,1.004726696E1,-7.260416746E-1,-2.659359455E0
2.703614743E0,1.006163311E1,-7.260416746E-1,-2.712032080E0
2.706102451E0,1.006642151E1,-7.260416746E-1,-2.779069662E0
2.708590160E0,1.005684471E1,-7.356184721E-1,-2.812588453E0
2.711077868E0,1.004247856E1,-7.260416746E-1,-2.846107244E0
2.713565576E0,1.003290176E1,-7.404068708E-1,-2.879626036E0
2.716053285E0,1.001853657E1,-7.356184721E-1,-2.927510023E0
2.718540993E0,9.999382973E0,-7.356184721E-1,-2.984971046E0
2.721028701E0,9.975440979E0,-7.595604658E-1,-3.032855034E0
2.723516410E0,9.951498985E0,-7.643488646E-1,-3.056797028E0
2.726004118E0,9.946710587E0,-7.499836683E-1,-3.095104218E0
2.728491826E0,9.956287384E0,-7.595604658E-1,-3.114257812E0
2.730979535E0,9.965864182E0,-7.739257216E-1,-3.162141800E0
2.733467243E0,9.975440979E0,-7.787141204E-1,-3.214814425E0
2.735954951E0,9.965864182E0,-7.739257216E-1,-3.238756418E0
2.738442660E0,9.961075783E0,-7.930793166E-1,-3.277063608E0
2.740930368E0,9.946710587E0,-7.882909179E-1,-3.301005602E0
2.743418076E0,9.932345390E0,-7.882909179E-1,-3.315370798E0
2.745905785E0,9.932345390E0,-7.978677154E-1,-3.348889589E0
2.748393493E0,9.922768593E0,-8.122329116E-1,-3.358466387E0
2.750881201E0,9.894038200E0,-7.930793166E-1,-3.358466387E0
2.753368910E0,9.879673004E0,-7.835025191E-1,-3.382408381E0
2.755856618E0,9.865307808E0,-7.835025191E-1,-3.382408381E0
2.758344326E0,9.831789017E0,-7.739257216E-1,-3.377619982E0
2.760832035E0,9.827000618E0,-7.643488646E-1,-3.368043184E0
2.763319743E0,9.841365814E0,-7.595604658E-1,-3.368043184E0
2.765807451E0,9.831789017E0,-7.547720671E-1,-3.382408381E0
2.768295160E0,9.831789017E0,-7.499836683E-1,-3.382408381E0
2.770782868E0,9.831789017E0,-7.499836683E-1,-3.377619982E0
2.773270576E0,9.855731010E0,-7.356184721E-1,-3.396773577E0
2.775758285E0,9.850942612E0,-7.260416746E-1,-3.391985178E0
2.778245993E0,9.827000618E0,-7.404068708E-1,-3.368043184E0
2.780733701E0,9.831789017E0,-7.356184721E-1,-3.353677988E0
2.783221410E0,9.836577415E0,-7.451952696E-1,-3.324947596E0
2.785709118E0,9.827000618E0,-7.451952696E-1,-3.281852007E0
2.788196826E0,9.807847023E0,-7.356184721E-1,-3.248333216E0
2.790684535E0,9.807847023E0,-7.308300734E-1,-3.214814425E0
2.793172243E0,9.807847023E0,-7.212532759E-1,-3.210026026E0
2.795659951E0,9.793481827E0,-7.116764784E-1,-3.181295395E0
2.798147660E0,9.779116631E0,-6.877344251E-1,-3.171718597E0
2.800635368E0,9.759963036E0,-6.781576276E-1,-3.142988205E0
2.803123076E0,9.721655846E0,-6.637924314E-1,-3.099892616E0
2.805610785E0,9.688137054E0,-6.542156339E-1,-3.071162224E0
2.808098493E0,9.673771858E0,-6.542156339E-1,-3.032855034E0
2.810586201E0,9.640253067E0,-6.350619793E-1,-2.999336243E0
2.813073910E0,9.606734276E0,-6.302735806E-1,-2.970605850E0
2.815561618E0,9.573215485E0,-6.302735806E-1,-2.932298422E0
2.818049326E0,9.539696693E0,-6.350619793E-1,-2.922721624E0
2.820537035E0,9.530119896E0,-6.015431881E-1,-2.913144827E0
2.823024743E0,9.501389503E0,-6.015431881E-1,-2.893991232E0
2.825512451E0,9.482235909E0,-5.728127360E-1,-2.903568029E0
2.828000160E0,9.463082314E0,-5.584475398E-1,-2.903568029E0
2.830487868E0,9.439140320E0,-5.728127360E-1,-2.884414434E0
2.832975576E0,9.415198326E0,-5.776011348E-1,-2.884414434E0
2.835463285E0,9.405621529E0,-5.823895931E-1,-2.889202833E0
2.837950993E0,9.381679535E0,-5.919663906E-1,-2.903568029E0
2.840438701E0,9.367314339E0,-5.919663906E-1,-2.932298422E0
2.842926410E0,9.372102737E0,-5.967547894E-1,-2.965817451E0
2.845414118E0,9.376891136E0,-5.967547894E-1,-2.980182648E0
2.847901826E0,9.376891136E0,-6.063315868E-1,-3.004124641E0
2.850389535E0,9.372102737E0,-5.919663906E-1,-3.056797028E0
2.852877243E0,9.357737541E0,-6.015431881E-1,-3.090315819E0
2.855364951E0,9.357737541E0,-5.871779919E-1,-3.119046211E0
2.857852660E0,9.367314339E0,-5.680243373E-1,-3.128623009E0
2.860340368E0,9.362525940E0,-5.440823436E-1,-3.162141800E0
2.862828076E0,9.357737541E0,-5.297171474E-1,-3.219602823E0
2.865315785E0,9.352949142E0,-5.249287486E-1,-3.243544817E0
2.867803493E0,9.372102737E0,-5.249287486E-1,-3.286640406E0
2.870291201E0,9.376891136E0,-5.153518915E-1,-3.324947596E0
2.872778910E0,9.391256332E0,-5.153518915E-1,-3.344101191E0
2.875266618E0,9.400833130E0,-5.009866953E-1,-3.368043184E0
2.877754326E0,9.391256332E0,-4.961982965E-1,-3.363254786E0
2.880242035E0,9.381679535E0,-4.914098978E-1,-3.363254786E0
2.882729743E0,9.391256332E0,-4.866214991E-1,-3.353677988E0
2.885217451E0,9.400833130E0,-4.866214991E-1,-3.344101191E0
2.887705160E0,9.419986725E0,-4.578910768E-1,-3.329735994E0
2.890192868E0,9.439140320E0,-4.531026781E-1,-3.334524393E0
2.892680576E0,9.434351921E0,-4.578910768E-1,-3.305794001E0
2.895168285E0,9.434351921E0,-4.626794755E-1,-3.291428804E0
2.897655993E0,9.415198326E0,-4.818331003E-1,-3.262698412E0
2.900143701E0,9.400833130E0,-4.818331003E-1,-3.229179621E0
2.902631410E0,9.386467934E0,-5.009866953E-1,-3.190872431E0
2.905119118E0,9.343372345E0,-5.153518915E-1,-3.138199806E0
2.907606826E0,9.324218750E0,-5.536591411E-1,-3.075950623E0
2.910094535E0,9.290699959E0,-5.632359385E-1,-3.008913040E0
2.912582243E0,9.242815971E0,-5.680243373E-1,-2.951452255E0
2.915069951E0,9.190143585E0,-6.015431881E-1,-2.879626036E0
2.917557660E0,9.137471199E0,-6.015431881E-1,-2.812588453E0
2.920045368E0,9.094375610E0,-6.206967831E-1,-2.731185675E0
2.922533076E0,9.051279068E0,-6.206967831E-1,-2.668936253E0
2.925020785E0,9.008183479E0,-6.302735806E-1,-2.587533474E0
2.927508493E0,8.960299492E0,-6.590040326E-1,-2.530072689E0
2.929996201E0,8.921992302E0,-6.494272351E-1,-2.448669672E0
2.932483910E0,8.898050308E0,-6.637924314E-1,-2.381632090E0
2.934971618E0,8.850166321E0,-6.733692288E-1,-2.305017710E0
2.937459326E0,8.807070732E0,-7.068880796E-1,-2.247556925E0
2.939947035E0,8.768763542E0,-7.164648771E-1,-2.218826532E0
2.942434743E0,8.725667953E0,-7.404068708E-1,-2.166153908E0
2.944922451E0,8.701725960E0,-7.547720671E-1,-2.127846718E0
2.947410108E0,8.668207169E0,-7.739257216E-1,-2.089539528E0
2.949897764E0,8.649053574E0,-7.739257216E-1,-2.089539528E0
2.952385420E0,8.610746384E0,-7.978677154E-1,-2.079962730E0
2.954873076E0,8.586804390E0,-7.978677154E-1,-2.051232338E0
2.957360733E0,8.548497200E0,-7.930793166E-1,-2.079962730E0
2.959848389E0,8.529343605E0,-7.787141204E-1,-2.070385933E0
2.962336045E0,8.534132004E0,-7.691373229E-1,-2.051232338E0
2.964823701E0,8.548497200E0,-7.739257216E-1,-2.065597534E0
2.967311358E0,8.562862396E0,-7.691373229E-1,-2.070385933E0
2.969799014E0,8.577227592E0,-7.691373229E-1,-2.103904724E0
2.972286670E0,8.601169586E0,-7.691373229E-1,-2.142211914E0
2.974774326E0,8.620323181E0,-7.499836683E-1,-2.180519104E0
2.977261983E0,8.682572365E0,-7.739257216E-1,-2.252345324E0
2.979749639E0,8.706514359E0,-7.691373229E-1,-2.319382906E0
2.982237295E0,8.744821548E0,-7.643488646E-1,-2.376843691E0
2.984724951E0,8.773551941E0,-7.787141204E-1,-2.429516077E0
2.987212608E0,8.802282333E0,-8.074445128E-1,-2.501342297E0
2.989700264E0,8.835801125E0,-8.218097091E-1,-2.587533474E0
2.992187920E0,8.850166321E0,-8.505401611E-1,-2.673724651E0
2.994675576E0,8.869319916E0,-8.505401611E-1,-2.726397276E0
2.997163233E0,8.888473511E0,-8.601169586E-1,-2.779069662E0
2.999650889E0,8.888473511E0,-8.840589523E-1,-2.807800055E0
3.002138545E0,8.845377922E0,-8.840589523E-1,-2.850895643E0
3.004626201E0,8.821435928E0,-8.601169586E-1,-2.917933226E0
3.007113858E0,8.807070732E0,-8.505401611E-1,-2.946663857E0
3.009601514E0,8.778340340E0,-8.409633636E-1,-2.965817451E0
3.012089170E0,8.754398346E0,-8.505401611E-1,-2.994547844E0
3.014576826E0,8.744821548E0,-8.457517624E-1,-3.013701439E0
3.017064483E0,8.740033150E0,-8.170213103E-1,-3.028066635E0
3.019552139E0,8.716091156E0,-7.930793166E-1,-3.071162224E0
3.022039847E0,8.696937561E0,-7.739257216E-1,-3.042431831E0
3.024527555E0,8.682572365E0,-7.643488646E-1,-3.028066635E0
3.027015264E0,8.644265175E0,-7.499836683E-1,-3.023278236E0
3.029502972E0,8.610746384E0,-7.356184721E-1,-2.994547844E0
3.031990680E0,8.577227592E0,-7.164648771E-1,-2.965817451E0
3.034478389E0,8.558073997E0,-6.925228238E-1,-2.937086821E0
3.036966097E0,8.510190010E0,-6.494272351E-1,-2.898779631E0
3.039453805E0,8.452729225E0,-6.302735806E-1,-2.865260839E0
3.041941514E0,8.414422035E0,-5.871779919E-1,-2.860472441E0
3.044429222E0,8.380903244E0,-5.536591411E-1,-2.855684042E0
3.046916930E0,8.333019257E0,-5.249287486E-1,-2.831742048E0
3.049404639E0,8.285135269E0,-4.914098978E-1,-2.822165251E0
3.051892347E0,8.232462883E0,-4.770447016E-1,-2.807800055E0
3.054380055E0,8.160636902E0,-4.674678743E-1,-2.798223257E0
3.056867764E0,8.093599319E0,-4.626794755E-1,-2.793434858E0
3.059355472E0,8.016983986E0,-4.578910768E-1,-2.793434858E0
3.061843180E0,7.930793285E0,-4.674678743E-1,-2.788646460E0
3.064330889E0,7.868544102E0,-4.387374520E-1,-2.788646460E0
3.066818597E0,7.791929245E0,-4.291606545E-1,-2.793434858E0
3.069306305E0,7.715314865E0,-4.291606545E-1,-2.769492865E0
3.071794014E0,7.638700485E0,-4.195838571E-1,-2.755127668E0
3.074281722E0,7.576451302E0,-4.100070298E-1,-2.731185675E0
3.076769430E0,7.499836922E0,-4.052186310E-1,-2.716820478E0
3.079257139E0,7.451952934E0,-3.908534348E-1,-2.697666883E0
3.081744847E0,7.389703751E0,-3.716998100E-1,-2.673724651E0
3.084232555E0,7.351396084E0,-3.429693878E-1,-2.668936253E0
3.086720264E0,7.351396084E0,-3.333925903E-1,-2.635417461E0
3.089207972E0,7.360973358E0,-3.190273643E-1,-2.587533474E0
3.091695680E0,7.384915352E0,-2.998737693E-1,-2.549226284E0
3.094183389E0,7.413645744E0,-2.998737693E-1,-2.525284290E0
3.096671097E0,7.456741333E0,-3.238157928E-1,-2.463035107E0
3.099158805E0,7.514202118E0,-3.333925903E-1,-2.405574083E0
3.101646514E0,7.566874504E0,-3.716998100E-1,-2.352901697E0
3.104134222E0,7.643488884E0,-3.716998100E-1,-2.281075716E0
3.106621930E0,7.705738068E0,-3.764882088E-1,-2.199672699E0
3.109109639E0,7.796717644E0,-3.956418335E-1,-2.113481522E0
3.111597347E0,7.873332500E0,-3.812766075E-1,-2.056020737E0
3.114085055E0,7.949946880E0,-3.621230125E-1,-2.008136749E0
3.116572764E0,8.031349182E0,-3.525462151E-1,-1.945887446E0
3.119060472E0,8.112752914E0,-3.429693878E-1,-1.912368655E0
3.121548180E0,8.146271706E0,-3.381809890E-1,-1.859696150E0
3.124035889E0,8.179790497E0,-3.333925903E-1,-1.821388960E0
3.126523597E0,8.227674484E0,-3.477577865E-1,-1.787870169E0
3.129011305E0,8.242039680E0,-3.238157928E-1,-1.773504853E0
3.131499014E0,8.256404877E0,-3.286041915E-1,-1.754351258E0
3.133986722E0,8.280346870E0,-3.094505668E-1,-1.749562860E0
3.136474430E0,8.265981674E0,-2.807201445E-1,-1.754351258E0
3.138962139E0,8.251616478E0,-2.472013235E-1,-1.754351258E0
3.141449847E0,8.227674484E0,-2.041056901E-1,-1.778293371E0
3.143937555E0,8.208520889E0,-1.610100716E-1,-1.802235365E0
3.146425264E0,8.175002098E0,-9.876082093E-2,-1.811812162E0
3.148912972E0,8.122329712E0,-3.651157767E-2,-1.835754156E0
3.151400680E0,8.079233170E0,1.795651275E-3,-1.878849745E0
3.153888389E0,8.016983986E0,5.925649032E-2,-1.912368655E0
3.156376097E0,7.964312077E0,1.167173311E-1,-1.950675845E0
3.158863805E0,7.892486095E0,1.885433793E-1,-1.993771434E0
3.161351514E0,7.811082840E0,2.507926226E-1,-2.017713547E0
3.163839222E0,7.748833656E0,3.178302646E-1,-2.079962730E0
3.166326930E0,7.672219276E0,3.657143116E-1,-2.123058319E0
3.168814639E0,7.576451302E0,4.327519536E-1,-2.147000313E0
3.171302347E0,7.504625320E0,4.854243994E-1,-2.185307503E0
3.173790055E0,7.437587738E0,5.572504401E-1,-2.199672699E0
3.176277764E0,7.375338554E0,6.147112846E-1,-2.204461098E0
3.178765472E0,7.308300495E0,6.817489266E-1,-2.214038134E0
3.181253180E0,7.241262913E0,7.392097712E-1,-2.223614931E0
3.183740889E0,7.174225330E0,7.870938182E-1,-2.228403330E0
3.186228597E0,7.126341343E0,8.397662640E-1,-2.242768526E0
3.188716305E0,7.097610950E0,8.684966564E-1,-2.237980127E0
3.191204014E0,7.073668957E0,9.163807034E-1,-2.233191729E0
3.193691722E0,7.044938564E0,9.546879530E-1,-2.218826532E0
3.196179430E0,7.025784969E0,9.690531492E-1,-2.204461098E0
3.198667139E0,7.001842976E0,9.929951429E-1,-2.223614931E0
3.201154847E0,6.982689381E0,9.834183455E-1,-2.228403330E0
3.203642555E0,6.958747387E0,9.786299467E-1,-2.209249735E0
3.206130264E0,6.968324184E0,9.834183455E-1,-2.214038134E0
3.208617972E0,6.958747387E0,9.834183455E-1,-2.223614931E0
3.211105680E0,6.958747387E0,9.929951429E-1,-2.199672699E0
3.213593389E0,6.963535786E0,1.002571940E0,-2.209249735E0
3.216081097E0,6.982689381E0,9.977835417E-1,-2.209249735E0
3.218568805E0,6.992266178E0,9.882067442E-1,-2.218826532E0
3.221056514E0,6.992266178E0,9.786299467E-1,-2.233191729E0
3.223544222E0,6.968324184E0,9.690531492E-1,-2.218826532E0
3.226031930E0,6.963535786E0,9.546879530E-1,-2.209249735E0
3.228519639E0,6.968324184E0,9.546879530E-1,-2.199672699E0
3.231007347E0,6.953958988E0,9.498994946E-1,-2.161365509E0
3.233495055E0,6.944382191E0,9.546879530E-1,-2.166153908E0
3.235982764E0,6.925228596E0,9.690531492E-1,-2.151788712E0
3.238470472E0,6.882133007E0,9.594763517E-1,-2.161365509E0
3.240958180E0,6.843825340E0,9.642647505E-1,-2.156577110E0
3.243445889E0,6.824671745E0,9.642647505E-1,-2.170942307E0
3.245933597E0,6.800729752E0,9.451110959E-1,-2.175730705E0
3.248421305E0,6.786364555E0,9.451110959E-1,-2.190095901E0
3.250909014E0,6.767210960E0,9.451110959E-1,-2.204461098E0
3.253396722E0,6.771999359E0,9.403226972E-1,-2.228403330E0
3.255884430E0,6.786364555E0,9.355342984E-1,-2.252345324E0
3.258372139E0,6.762422562E0,9.115923047E-1,-2.314594507E0
3.260859847E0,6.767210960E0,8.828618526E-1,-2.343324900E0
3.263347555E0,6.757634163E0,8.493430614E-1,-2.338536501E0
3.265835264E0,6.714538574E0,8.206126094E-1,-2.343324900E0
3.268322972E0,6.704961777E0,7.870938182E-1,-2.352901697E0
3.270810680E0,6.709750175E0,7.823054194E-1,-2.328959703E0
3.273298389E0,6.690596581E0,7.823054194E-1,-2.338536501E0
3.275786097E0,6.676231384E0,7.583633661E-1,-2.328959703E0
3.278273805E0,6.657077789E0,7.392097712E-1,-2.314594507E0
3.280761514E0,6.671442986E0,7.104793787E-1,-2.314594507E0
3.283249222E0,6.681019783E0,6.769605279E-1,-2.319382906E0
3.285736930E0,6.690596581E0,6.434416771E-1,-2.324171305E0
3.288224639E0,6.714538574E0,5.955576897E-1,-2.305017710E0
3.290712347E0,6.733692169E0,5.476736426E-1,-2.305017710E0
3.293200055E0,6.738480568E0,5.045779943E-1,-2.290652514E0
3.295687764E0,6.771999359E0,4.519055784E-1,-2.271498919E0
3.298175472E0,6.805518150E0,3.992331326E-1,-2.257133722E0
3.300663180E0,6.824671745E0,3.369838893E-1,-2.233191729E0
3.303150889E0,6.877344608E0,2.795230448E-1,-2.194884300E0
3.305638597E0,6.920440197E0,2.316390127E-1,-2.170942307E0
3.308126305E0,6.949170589E0,1.789665818E-1,-2.151788712E0
3.310614014E0,7.011419773E0,1.167173311E-1,-2.123058319E0
3.313101722E0,7.078457355E0,4.010287672E-2,-2.103904724E0
3.315589430E0,7.164648533E0,-4.608838260E-2,-2.103904724E0
3.318077139E0,7.241262913E0,-1.466448605E-1,-2.108693123E0
3.320564847E0,7.313088894E0,-2.424129248E-1,-2.099116325E0
3.323052555E0,7.404068947E0,-3.477577865E-1,-2.103904724E0
3.325540264E0,7.485471725E0,-4.531026781E-1,-2.113481522E0
3.328027972E0,7.562086105E0,-5.536591411E-1,-2.118269920E0
3.330515680E0,7.681796074E0,-6.590040326E-1,-2.118269920E0
3.333003389E0,7.791929245E0,-7.691373229E-1,-2.151788712E0
3.335491097E0,7.906851292E0,-8.649053574E-1,-2.127846718E0
3.337978805E0,8.060079575E0,-9.510966539E-1,-2.127846718E0
3.340466514E0,8.198944092E0,-1.042076349E0,-2.127846718E0
3.342954222E0,8.342596054E0,-1.118690729E0,-2.142211914E0
3.345441930E0,8.491036415E0,-1.180940032E0,-2.132635117E0
3.347929587E0,8.620323181E0,-1.257554412E0,-2.137423515E0
3.350417243E0,8.768763542E0,-1.310226917E0,-2.175730705E0
3.352904899E0,8.869319916E0,-1.372476101E0,-2.180519104E0
3.355392555E0,8.979453087E0,-1.425148606E0,-2.185307503E0
3.357880212E0,9.089587212E0,-1.473032594E0,-2.194884300E0
3.360367868E0,9.214085579E0,-1.511339784E0,-2.218826532E0
3.362855524E0,9.329007149E0,-1.549647093E0,-2.266710520E0
3.365343180E0,9.424775124E0,-1.578377485E0,-2.295440912E0
3.367830837E0,9.525331497E0,-1.583165884E0,-2.333748102E0
3.370318493E0,9.611522675E0,-1.592742682E0,-2.376843691E0
3.372806149E0,9.688137054E0,-1.602319479E0,-2.443881273E0
3.375293805E0,9.774328232E0,-1.607107878E0,-2.515707493E0
3.377781462E0,9.860519409E0,-1.607107878E0,-2.582745075E0
3.380269118E0,9.932345390E0,-1.597531080E0,-2.649782658E0
3.382756774E0,9.989806175E0,-1.587954283E0,-2.735974073E0
3.385244430E0,1.004247856E1,-1.559223890E0,-2.812588453E0
3.387732087E0,1.009036350E1,-1.549647093E0,-2.870049238E0
3.390219743E0,1.011909389E1,-1.520916581E0,-2.951452255E0
3.392707399E0,1.013824749E1,-1.511339784E0,-3.018489838E0
3.395195055E0,1.015261269E1,-1.492186189E0,-3.066373825E0
3.397682712E0,1.016697788E1,-1.453878999E0,-3.123834610E0
3.400170368E0,1.018134308E1,-1.391629696E0,-3.181295395E0
3.402658024E0,1.019091988E1,-1.367687702E0,-3.214814425E0
3.405145680E0,1.020049667E1,-1.315015316E0,-3.267486811E0
3.407633337E0,1.020528507E1,-1.252766013E0,-3.291428804E0
3.410120993E0,1.020528507E1,-1.180940032E0,-3.310582399E0
3.412608649E0,1.020528507E1,-1.123479128E0,-3.324947596E0
3.415096305E0,1.020049667E1,-1.056441545E0,-3.315370798E0
3.417583962E0,1.019091988E1,-9.750386477E-1,-3.310582399E0
3.420071618E0,1.019091988E1,-8.936358094E-1,-3.281852007E0
3.422559274E0,1.018613148E1,-8.122329116E-1,-3.248333216E0
3.425046983E0,1.019091988E1,-7.260416746E-1,-3.181295395E0
3.427534691E0,1.020049667E1,-6.637924314E-1,-3.133411407E0
3.430022399E0,1.021486187E1,-5.967547894E-1,-3.090315819E0
3.432510108E0,1.020528507E1,-5.057750940E-1,-3.047220230E0
3.434997816E0,1.022443867E1,-4.243722558E-1,-3.008913040E0
3.437485524E0,1.023401546E1,-3.669114113E-1,-2.951452255E0
3.439973233E0,1.022443867E1,-2.950853705E-1,-2.917933226E0
3.442460941E0,1.021965027E1,-2.136825025E-1,-2.884414434E0
3.444948649E0,1.021965027E1,-1.418564469E-1,-2.826953650E0
3.447436358E0,1.020528507E1,-7.003039867E-2,-2.788646460E0
3.449924066E0,1.019570827E1,1.795651275E-3,-2.731185675E0
3.452411774E0,1.018134308E1,6.404489279E-2,-2.673724651E0
3.454899483E0,1.018134308E1,1.550245583E-1,-2.625840664E0
3.457387191E0,1.016697788E1,2.268506140E-1,-2.582745075E0
3.459874899E0,1.012867069E1,3.130418658E-1,-2.515707493E0
3.462362608E0,1.011430550E1,3.800795078E-1,-2.458246708E0
3.464850316E0,1.009036350E1,4.423287511E-1,-2.424727678E0
3.467338024E0,1.004247856E1,5.093663931E-1,-2.395997286E0
3.469825733E0,1.000895977E1,5.716156363E-1,-2.367266893E0
3.472313441E0,9.975440979E0,6.338648796E-1,-2.352901697E0
3.474801149E0,9.941922188E0,6.961141229E-1,-2.319382906E0
3.477288858E0,9.917980194E0,7.439981699E-1,-2.314594507E0
3.479776566E0,9.874884605E0,7.918822169E-1,-2.276287317E0
3.482264274E0,9.822212219E0,8.445546627E-1,-2.228403330E0
3.484751983E0,9.798270226E0,8.780734539E-1,-2.180519104E0
3.487239691E0,9.750386238E0,9.307458997E-1,-2.132635117E0
3.489727399E0,9.692925453E0,9.451110959E-1,-2.079962730E0
3.492215108E0,9.659406662E0,9.882067442E-1,-2.008136749E0
3.494702816E0,9.606734276E0,1.026513934E0,-1.950675845E0
3.497190524E0,9.563638687E0,1.045667648E0,-1.854907751E0
3.499678233E0,9.506177902E0,1.055244446E0,-1.783081770E0
3.502165941E0,9.482235909E0,1.074398041E0,-1.730409265E0
3.504653649E0,9.429563522E0,1.069609642E0,-1.668160081E0
3.507141358E0,9.400833130E0,1.074398041E0,-1.605910778E0
3.509629066E0,9.357737541E0,1.050456047E0,-1.558026791E0
3.512116774E0,9.338583946E0,1.026513934E0,-1.495777488E0
3.514604483E0,9.300276756E0,9.977835417E-1,-1.438316703E0
3.517092191E0,9.247604370E0,9.786299467E-1,-1.366490602E0
3.519579899E0,9.194931984E0,9.594763517E-1,-1.299453020E0
3.522067608E0,9.132682800E0,9.403226972E-1,-1.241992116E0
3.524555316E0,9.099164009E0,9.163807034E-1,-1.194108129E0
3.527043024E0,9.084798813E0,8.972271085E-1,-1.127070427E0
3.529530733E0,9.056067467E0,8.780734539E-1,-1.045667648E0
3.532018441E0,9.022548676E0,8.541314602E-1,-9.642647505E-1
3.534506149E0,8.998606682E0,8.301894665E-1,-9.068039060E-1
3.536993858E0,8.969876289E0,7.918822169E-1,-8.301894665E-1
3.539481566E0,8.931569099E0,7.535749674E-1,-7.823054194E-1
3.541969274E0,8.902838707E0,7.200561762E-1,-6.961141229E-1
3.544456983E0,8.888473511E0,6.913257241E-1,-6.099228859E-1
3.546944691E0,8.883685112E0,6.625953317E-1,-5.428852439E-1
3.549432399E0,8.874108315E0,6.338648796E-1,-4.854243994E-1
3.551920108E0,8.850166321E0,5.955576897E-1,-4.040215313E-1
3.554407816E0,8.831012726E0,5.428852439E-1,-3.369838893E-1
3.556895524E0,8.826224327E0,5.237316489E-1,-2.795230448E-1
3.559383233E0,8.816647530E0,5.093663931E-1,-2.364274114E-1
3.561870941E0,8.807070732E0,4.519055784E-1,-1.837549806E-1
3.564358649E0,8.811859131E0,3.992331326E-1,-1.454477459E-1
3.566846358E0,8.802282333E0,3.752911091E-1,-1.310825497E-1
3.569334066E0,8.811859131E0,3.321954906E-1,-1.262941360E-1
3.571821774E0,8.831012726E0,2.938882709E-1,-1.167173311E-1
3.574309483E0,8.821435928E0,2.651578486E-1,-1.167173311E-1
3.576797191E0,8.826224327E0,2.220622003E-1,-1.358709484E-1
3.579284899E0,8.826224327E0,1.885433793E-1,-1.598129570E-1
3.581772608E0,8.821435928E0,1.837549806E-1,-1.741781682E-1
3.584260316E0,8.821435928E0,1.646013707E-1,-1.933317930E-1
3.586748024E0,8.821435928E0,1.550245583E-1,-2.172738016E-1
3.589235733E0,8.811859131E0,1.310825497E-1,-2.699462473E-1
3.591723441E0,8.797493935E0,1.167173311E-1,-3.321954906E-1
3.594211149E0,8.787917137E0,1.167173311E-1,-3.800795078E-1
3.596698858E0,8.787917137E0,1.071405262E-1,-4.183867574E-1
3.599186566E0,8.773551941E0,9.756372124E-2,-4.902127981E-1
3.601674274E0,8.759186745E0,1.071405262E-1,-5.524620414E-1
3.604161983E0,8.749609947E0,1.358709484E-1,-6.051344872E-1
3.606649691E0,8.735244751E0,1.215057373E-1,-6.817489266E-1
3.609137399E0,8.759186745E0,1.119289324E-1,-7.727286220E-1
3.611625108E0,8.787917137E0,1.119289324E-1,-8.732850552E-1
3.614112816E0,8.797493935E0,1.071405262E-1,-9.690531492E-1
3.616600524E0,8.826224327E0,1.167173311E-1,-1.060032845E0
3.619088233E0,8.854954720E0,1.167173311E-1,-1.155800819E0
3.621575941E0,8.883685112E0,1.071405262E-1,-1.232415318E0
3.624063649E0,8.893261909E0,1.262941360E-1,-1.304241419E0
3.626551358E0,8.945934296E0,1.358709484E-1,-1.361702204E0
3.629039066E0,8.950722694E0,1.406593472E-1,-1.433528304E0
3.631526774E0,8.989029884E0,1.646013707E-1,-1.510142684E0
3.634014483E0,9.051279068E0,1.837549806E-1,-1.553238392E0
3.636502191E0,9.113529205E0,1.789665818E-1,-1.629852772E0
3.638989899E0,9.151836395E0,2.076970041E-1,-1.668160081E0
3.641477608E0,9.199720383E0,2.268506140E-1,-1.730409265E0
3.643965316E0,9.247604370E0,2.364274114E-1,-1.768716455E0
3.646453024E0,9.309853554E0,2.460042238E-1,-1.797446966E0
3.648940733E0,9.348160744E0,2.507926226E-1,-1.830965757E0
3.651428441E0,9.405621529E0,2.699462473E-1,-1.854907751E0
3.653916149E0,9.472659111E0,2.651578486E-1,-1.859696150E0
3.656403858E0,9.530119896E0,2.795230448E-1,-1.854907751E0
3.658891566E0,9.582792282E0,2.938882709E-1,-1.859696150E0
3.661379274E0,9.640253067E0,2.986766696E-1,-1.888426542E0
3.663866983E0,9.692925453E0,3.130418658E-1,-1.874061346E0
3.666354691E0,9.750386238E0,3.274070919E-1,-1.898003340E0
3.668842399E0,9.803058624E0,3.513490856E-1,-1.874061346E0
3.671330108E0,9.874884605E0,3.609259129E-1,-1.898003340E0
3.673817816E0,9.937133789E0,3.657143116E-1,-1.883638144E0
3.676305524E0,9.970652580E0,3.896563351E-1,-1.883638144E0
3.678793233E0,1.002332497E1,4.088099301E-1,-1.893214941E0
3.681280941E0,1.004726696E1,4.183867574E-1,-1.878849745E0
3.683768649E0,1.007120991E1,4.375403523E-1,-1.883638144E0
3.686256358E0,1.010951710E1,4.423287511E-1,-1.864484549E0
3.688744066E0,1.013824749E1,4.614823759E-1,-1.864484549E0
3.691231774E0,1.016218948E1,4.662707746E-1,-1.869272947E0
3.693719483E0,1.019091988E1,4.806360006E-1,-1.883638144E0
3.696207191E0,1.021007347E1,4.950011969E-1,-1.893214941E0
3.698694899E0,1.021486187E1,4.854243994E-1,-1.893214941E0
3.701182608E0,1.020528507E1,4.950011969E-1,-1.888426542E0
3.703670316E0,1.022443867E1,4.997895956E-1,-1.902791858E0
3.706158024E0,1.022922707E1,4.902127981E-1,-1.912368655E0
3.708645733E0,1.021486187E1,4.902127981E-1,-1.888426542E0
3.711133441E0,1.021007347E1,4.997895956E-1,-1.898003340E0
3.713621149E0,1.021486187E1,5.141547918E-1,-1.888426542E0
3.716108858E0,1.021486187E1,5.093663931E-1,-1.902791858E0
3.718596566E0,1.022443867E1,5.141547918E-1,-1.888426542E0
3.721084274E0,1.021486187E1,5.141547918E-1,-1.898003340E0
3.723571983E0,1.021007347E1,5.141547918E-1,-1.902791858E0
3.726059691E0,1.021007347E1,5.141547918E-1,-1.883638144E0
3.728547347E0,1.020049667E1,5.093663931E-1,-1.898003340E0
3.731035003E0,1.019091988E1,5.045779943E-1,-1.888426542E0
3.733522660E0,1.020049667E1,5.093663931E-1,-1.893214941E0
3.736010316E0,1.019091988E1,5.141547918E-1,-1.902791858E0
3.738497972E0,1.021007347E1,5.093663931E-1,-1.888426542E0
3.740985628E0,1.021486187E1,5.093663931E-1,-1.907580256E0
3.743473285E0,1.023401546E1,4.854243994E-1,-1.898003340E0
3.745960941E0,1.023880386E1,4.758476019E-1,-1.893214941E0
3.748448597E0,1.022922707E1,4.662707746E-1,-1.869272947E0
3.750936253E0,1.022922707E1,4.423287511E-1,-1.854907751E0
3.753423910E0,1.022443867E1,4.279635549E-1,-1.864484549E0
3.755911566E0,1.018613148E1,4.183867574E-1,-1.864484549E0
3.758399222E0,1.018134308E1,4.279635549E-1,-1.859696150E0
3.760886878E0,1.016697788E1,4.327519536E-1,-1.830965757E0
3.763374535E0,1.017176628E1,4.135983288E-1,-1.821388960E0
3.765862191E0,1.014303589E1,4.135983288E-1,-1.792658567E0
3.768349847E0,1.012867069E1,4.088099301E-1,-1.773504853E0
3.770837503E0,1.011909389E1,3.848679364E-1,-1.754351258E0
3.773325160E0,1.010472870E1,3.705027103E-1,-1.754351258E0
3.775812816E0,1.008557510E1,3.800795078E-1,-1.754351258E0
3.778300472E0,1.008078671E1,3.705027103E-1,-1.735197663E0
3.780788128E0,1.005684471E1,3.609259129E-1,-1.730409265E0
3.783275785E0,1.004247856E1,3.561375141E-1,-1.720832467E0
3.785763441E0,1.001853657E1,3.465606868E-1,-1.711255670E0
3.788251097E0,9.985017776E0,3.417722881E-1,-1.725620866E0
3.790738753E0,9.965864182E0,3.609259129E-1,-1.730409265E0
3.793226410E0,9.913191795E0,3.657143116E-1,-1.706467271E0
3.795714066E0,9.884461403E0,3.944447339E-1,-1.711255670E0
3.798201722E0,9.846154213E0,3.896563351E-1,-1.711255670E0
3.800689378E0,9.803058624E0,3.896563351E-1,-1.735197663E0
3.803177035E0,9.769539833E0,3.944447339E-1,-1.768716455E0
3.805664743E0,9.740809441E0,4.135983288E-1,-1.778293371E0
3.808152451E0,9.726444244E0,4.231751561E-1,-1.787870169E0
3.810640160E0,9.707290649E0,4.231751561E-1,-1.802235365E0
3.813127868E0,9.678560257E0,4.375403523E-1,-1.826177359E0
3.815615576E0,9.683348656E0,4.566939771E-1,-1.811812162E0
3.818103285E0,9.673771858E0,4.806360006E-1,-1.821388960E0
3.820590993E0,9.649829865E0,4.806360006E-1,-1.821388960E0
3.823078701E0,9.640253067E0,4.902127981E-1,-1.830965757E0
3.825566410E0,9.630676270E0,4.997895956E-1,-1.835754156E0
3.828054118E0,9.635464668E0,4.997895956E-1,-1.826177359E0
3.830541826E0,9.592369080E0,5.093663931E-1,-1.807023764E0
3.833029535E0,9.582792282E0,4.997895956E-1,-1.802235365E0
3.835517243E0,9.592369080E0,4.854243994E-1,-1.783081770E0
3.838004951E0,9.558850288E0,4.854243994E-1,-1.783081770E0
3.840492660E0,9.539696693E0,4.902127981E-1,-1.773504853E0
3.842980368E0,9.558850288E0,4.950011969E-1,-1.778293371E0
3.845468076E0,9.568427086E0,4.950011969E-1,-1.768716455E0
3.847955785E0,9.563638687E0,4.902127981E-1,-1.783081770E0
3.850443493E0,9.563638687E0,4.902127981E-1,-1.787870169E0
3.852931201E0,9.578003883E0,4.662707746E-1,-1.778293371E0
3.855418910E0,9.582792282E0,4.327519536E-1,-1.783081770E0
3.857906618E0,9.592369080E0,4.327519536E-1,-1.797446966E0
3.860394326E0,9.606734276E0,4.279635549E-1,-1.807023764E0
3.862882035E0,9.601945877E0,4.183867574E-1,-1.811812162E0
3.865369743E0,9.597157478E0,4.040215313E-1,-1.826177359E0
3.867857451E0,9.611522675E0,4.088099301E-1,-1.840542555E0
3.870345160E0,9.611522675E0,4.183867574E-1,-1.840542555E0
3.872832868E0,9.625887871E0,4.040215313E-1,-1.864484549E0
3.875320576E0,9.630676270E0,3.944447339E-1,-1.893214941E0
3.877808285E0,9.630676270E0,3.896563351E-1,-1.912368655E0
3.880295993E0,9.625887871E0,3.800795078E-1,-1.917157054E0
3.882783701E0,9.630676270E0,3.609259129E-1,-1.945887446E0
3.885271410E0,9.640253067E0,3.561375141E-1,-1.950675845E0
3.887759118E0,9.635464668E0,3.465606868E-1,-1.950675845E0
3.890246826E0,9.635464668E0,3.417722881E-1,-1.969829440E0
3.892734535E0,9.625887871E0,3.226186931E-1,-1.974617839E0
3.895222243E0,9.640253067E0,3.226186931E-1,-1.974617839E0
3.897709951E0,9.649829865E0,3.178302646E-1,-1.955464244E0
3.900197660E0,9.649829865E0,3.082534671E-1,-1.945887446E0
3.902685368E0,9.645041466E0,3.130418658E-1,-1.936310649E0
3.905173076E0,9.645041466E0,2.938882709E-1,-1.917157054E0
3.907660785E0,9.630676270E0,2.843114436E-1,-1.893214941E0
3.910148493E0,9.630676270E0,2.795230448E-1,-1.869272947E0
3.912636201E0,9.621099472E0,2.795230448E-1,-1.840542555E0
3.915123910E0,9.621099472E0,2.747346461E-1,-1.821388960E0
3.917611618E0,9.621099472E0,2.603694201E-1,-1.811812162E0
3.920099326E0,9.606734276E0,2.412158251E-1,-1.778293371E0
3.922587035E0,9.601945877E0,2.316390127E-1,-1.735197663E0
3.925074743E0,9.592369080E0,2.076970041E-1,-1.701678872E0
3.927562451E0,9.578003883E0,1.981201917E-1,-1.677736878E0
3.930050160E0,9.568427086E0,2.076970041E-1,-1.644217968E0
3.932537868E0,9.539696693E0,1.885433793E-1,-1.620275974E0
3.935025576E0,9.534908295E0,1.741781682E-1,-1.591545582E0
3.937513285E0,9.525331497E0,1.741781682E-1,-1.562815189E0
3.940000993E0,9.520543098E0,1.885433793E-1,-1.538873196E0
3.942488701E0,9.525331497E0,2.076970041E-1,-1.510142684E0
3.944976410E0,9.525331497E0,1.933317930E-1,-1.476623893E0
3.947464118E0,9.544485092E0,1.885433793E-1,-1.452681899E0
3.949951826E0,9.563638687E0,1.981201917E-1,-1.438316703E0
3.952439535E0,9.582792282E0,1.741781682E-1,-1.423951507E0
3.954927243E0,9.592369080E0,1.646013707E-1,-1.404797792E0
3.957414951E0,9.606734276E0,1.598129570E-1,-1.395220995E0
3.959902660E0,9.611522675E0,1.646013707E-1,-1.376067400E0
3.962390368E0,9.616311073E0,1.502361596E-1,-1.371279001E0
3.964878076E0,9.645041466E0,1.406593472E-1,-1.361702204E0
3.967365785E0,9.659406662E0,1.310825497E-1,-1.356913805E0
3.969853493E0,9.668983459E0,1.167173311E-1,-1.337760210E0
3.972341201E0,9.692925453E0,1.023521200E-1,-1.332971811E0
3.974828910E0,9.721655846E0,1.119289324E-1,-1.332971811E0
3.977316618E0,9.736021042E0,9.277531505E-2,-1.337760210E0
3.979804326E0,9.769539833E0,8.319851011E-2,-1.342548609E0
3.982292035E0,9.783905029E0,5.446808785E-2,-1.347337008E0
3.984779743E0,9.798270226E0,4.489128292E-2,-1.342548609E0
3.987267451E0,9.812635422E0,1.137245819E-2,-1.352125406E0
3.989755160E0,9.812635422E0,-7.781155407E-3,-1.352125406E0
3.992242868E0,9.831789017E0,-2.693476900E-2,-1.352125406E0
3.994730576E0,9.831789017E0,-5.566519126E-2,-1.347337008E0
3.997218285E0,9.831789017E0,-5.566519126E-2,-1.342548609E0
3.999705993E0,9.827000618E0,-6.524199992E-2,-1.337760210E0
4.002193701E0,9.850942612E0,-7.481880486E-2,-1.304241419E0
4.004681410E0,9.860519409E0,-1.035492271E-1,-1.304241419E0
4.007169118E0,9.870096207E0,-1.131260321E-1,-1.299453020E0
4.009656826E0,9.889249802E0,-1.131260321E-1,-1.275510907E0
4.012144535E0,9.903614998E0,-9.876082093E-2,-1.280299306E0
4.014632243E0,9.932345390E0,-1.035492271E-1,-1.280299306E0
4.017119951E0,9.941922188E0,-1.179144308E-1,-1.275510907E0
4.019607660E0,9.927556992E0,-1.370680481E-1,-1.275510907E0
4.022095368E0,9.932345390E0,-1.466448605E-1,-1.285087705E0
4.024583076E0,9.922768593E0,-1.370680481E-1,-1.294664621E0
4.027070785E0,9.913191795E0,-1.370680481E-1,-1.294664621E0
4.029558493E0,9.922768593E0,-1.274912357E-1,-1.304241419E0
4.032046201E0,9.927556992E0,-1.274912357E-1,-1.285087705E0
4.034533910E0,9.922768593E0,-1.370680481E-1,-1.294664621E0
4.037021618E0,9.956287384E0,-1.370680481E-1,-1.285087705E0
4.039509326E0,9.965864182E0,-1.274912357E-1,-1.270722508E0
4.041997035E0,9.965864182E0,-1.322796494E-1,-1.261145711E0
4.044484743E0,9.956287384E0,-1.418564469E-1,-1.270722508E0
4.046972451E0,9.946710587E0,-1.227028370E-1,-1.285087705E0
4.049460160E0,9.961075783E0,-1.322796494E-1,-1.299453020E0
4.051947868E0,9.965864182E0,-1.322796494E-1,-1.304241419E0
4.054435576E0,9.985017776E0,-1.322796494E-1,-1.304241419E0
4.056923285E0,9.994594574E0,-1.322796494E-1,-1.328183413E0
4.059410993E0,9.994594574E0,-1.131260321E-1,-1.361702204E0
4.061898701E0,9.994594574E0,-1.179144308E-1,-1.371279001E0
4.064386410E0,1.001853657E1,-1.179144308E-1,-1.390432596E0
4.066874118E0,9.989806175E0,-1.083376259E-1,-1.423951507E0
4.069361826E0,9.985017776E0,-1.131260321E-1,-1.457470298E0
4.071849535E0,9.961075783E0,-1.083376259E-1,-1.490989089E0
4.074337243E0,9.970652580E0,-1.083376259E-1,-1.510142684E0
4.076824951E0,9.965864182E0,-1.035492271E-1,-1.543661594E0
4.079312660E0,9.941922188E0,-9.876082093E-2,-1.577180386E0
4.081800368E0,9.937133789E0,-8.439560980E-2,-1.596333981E0
4.084288076E0,9.913191795E0,-7.481880486E-2,-1.625064373E0
4.086775785E0,9.903614998E0,-7.481880486E-2,-1.644217968E0
4.089263493E0,9.884461403E0,-6.045359373E-2,-1.653794765E0
4.091751149E0,9.870096207E0,-4.608838260E-2,-1.668160081E0
4.094238805E0,9.865307808E0,-4.129998013E-2,-1.672948480E0
4.096726462E0,9.831789017E0,-3.172317147E-2,-1.677736878E0
4.099214118E0,9.817423820E0,-3.172317147E-2,-1.701678872E0
4.101701774E0,9.822212219E0,-2.693476900E-2,-1.716044068E0
4.104189430E0,9.817423820E0,-4.608838260E-2,-1.711255670E0
4.106677087E0,9.798270226E0,-6.045359373E-2,-1.730409265E0
4.109164743E0,9.783905029E0,-4.608838260E-2,-1.744774461E0
4.111652399E0,9.779116631E0,-5.566519126E-2,-1.759139657E0
4.114140055E0,9.759963036E0,-5.566519126E-2,-1.759139657E0
4.116627712E0,9.750386238E0,-7.003039867E-2,-1.773504853E0
4.119115368E0,9.740809441E0,-6.524199992E-2,-1.783081770E0
4.121603024E0,9.712079048E0,-5.566519126E-2,-1.797446966E0
4.124090680E0,9.692925453E0,-6.045359373E-2,-1.816600561E0
4.126578337E0,9.683348656E0,-7.003039867E-2,-1.816600561E0
4.129065993E0,9.688137054E0,-6.045359373E-2,-1.821388960E0
4.131553649E0,9.673771858E0,-6.045359373E-2,-1.802235365E0
4.134041305E0,9.635464668E0,-7.003039867E-2,-1.759139657E0
4.136528962E0,9.601945877E0,-5.087678507E-2,-1.720832467E0
4.139016618E0,9.544485092E0,-6.524199992E-2,-1.672948480E0
4.141504274E0,9.491812706E0,-5.566519126E-2,-1.625064373E0
4.143991930E0,9.453505516E0,-2.693476900E-2,-1.586757183E0
4.146479587E0,9.386467934E0,-2.214636654E-2,-1.534084797E0
4.148967243E0,9.357737541E0,1.795651275E-3,-1.481412292E0
4.151454899E0,9.329007149E0,4.489128292E-2,-1.423951507E0
4.153942555E0,9.285911560E0,5.925649032E-2,-1.385644197E0
4.156430212E0,9.252392769E0,8.798690885E-2,-1.347337008E0
4.158917868E0,9.228450775E0,1.071405262E-1,-1.309029818E0
4.161405524E0,9.190143585E0,1.119289324E-1,-1.265934110E0
4.163893180E0,9.147047997E0,1.358709484E-1,-1.222838521E0
4.166380837E0,9.103952408E0,1.550245583E-1,-1.165377736E0
4.168868545E0,9.056067467E0,1.646013707E-1,-1.136647224E0
4.171356253E0,9.008183479E0,1.693897694E-1,-1.122282028E0
4.173843962E0,8.950722694E0,1.885433793E-1,-1.117493629E0
4.176331670E0,8.907627106E0,2.124854028E-1,-1.103128433E0
4.178819378E0,8.854954720E0,2.172738016E-1,-1.088763237E0
4.181307087E0,8.802282333E0,2.460042238E-1,-1.088763237E0
4.183794795E0,8.730456352E0,2.651578486E-1,-1.055244446E0
4.186282503E0,8.663418770E0,2.938882709E-1,-1.040879130E0
4.188770212E0,8.601169586E0,3.274070919E-1,-1.002571940E0
4.191257920E0,8.553285599E0,3.705027103E-1,-1.012148738E0
4.193745628E0,8.514978409E0,3.992331326E-1,-9.834183455E-1
4.196233337E0,8.452729225E0,4.183867574E-1,-9.451110959E-1
4.198721045E0,8.400056839E0,4.375403523E-1,-9.259575009E-1
4.201208753E0,8.328230858E0,4.423287511E-1,-9.163807034E-1
4.203696462E0,8.270770073E0,4.279635549E-1,-9.068039060E-1
4.206184170E0,8.232462883E0,4.327519536E-1,-9.115923047E-1
4.208671878E0,8.179790497E0,4.183867574E-1,-9.163807034E-1
4.211159587E0,8.127118111E0,4.040215313E-1,-9.115923047E-1
4.213647295E0,8.103176117E0,3.992331326E-1,-9.211691022E-1
4.216135003E0,8.036137581E0,3.896563351E-1,-9.355342984E-1
4.218622712E0,7.978677273E0,3.752911091E-1,-9.307458997E-1
4.221110420E0,7.940370083E0,3.609259129E-1,-9.355342984E-1
4.223598128E0,7.897274494E0,3.513490856E-1,-9.307458997E-1
4.226085837E0,7.858967304E0,3.369838893E-1,-9.546879530E-1
4.228573545E0,7.815871239E0,3.226186931E-1,-9.546879530E-1
4.231061253E0,7.767987251E0,3.082534671E-1,-9.259575009E-1
4.233548962E0,7.739256859E0,2.747346461E-1,-9.498994946E-1
4.236036670E0,7.710526466E0,2.699462473E-1,-9.355342984E-1
4.238524378E0,7.672219276E0,2.460042238E-1,-9.211691022E-1
4.241012087E0,7.643488884E0,2.076970041E-1,-9.068039060E-1
4.243499795E0,7.619546890E0,1.981201917E-1,-9.068039060E-1
4.245987503E0,7.590816498E0,1.789665818E-1,-8.828618526E-1
4.248475212E0,7.576451302E0,1.693897694E-1,-8.924387097E-1
4.250962920E0,7.542932510E0,1.598129570E-1,-8.972271085E-1
4.253450628E0,7.528567314E0,1.454477459E-1,-9.020155072E-1
4.255938337E0,7.504625320E0,1.262941360E-1,-8.972271085E-1
4.258426045E0,7.480683327E0,1.119289324E-1,-8.972271085E-1
4.260913753E0,7.471106529E0,1.023521200E-1,-9.115923047E-1
4.263401462E0,7.461529732E0,9.756372124E-2,-9.307458997E-1
4.265889170E0,7.442376137E0,9.756372124E-2,-9.738415480E-1
4.268376878E0,7.428010941E0,8.319851011E-2,-1.016937137E0
4.270864587E0,7.428010941E0,7.841010392E-2,-1.069609642E0
4.273352295E0,7.451952934E0,6.404489279E-2,-1.146224022E0
4.275840003E0,7.451952934E0,4.010287672E-2,-1.213261724E0
4.278327712E0,7.437587738E0,-2.992752008E-3,-1.275510907E0
4.280815420E0,7.451952934E0,-4.608838260E-2,-1.342548609E0
4.283303128E0,7.466318130E0,-8.918401599E-2,-1.404797792E0
4.285790837E0,7.461529732E0,-1.322796494E-1,-1.457470298E0
4.288278545E0,7.475894928E0,-1.610100716E-1,-1.514931083E0
4.290766253E0,7.485471725E0,-2.088941038E-1,-1.581968784E0
4.293253962E0,7.490260124E0,-2.232593149E-1,-1.620275974E0
4.295741670E0,7.475894928E0,-2.376245260E-1,-1.658583283E0
4.298229378E0,7.475894928E0,-2.472013235E-1,-1.696890473E0
4.300717087E0,7.480683327E0,-2.424129248E-1,-1.711255670E0
4.303204795E0,7.480683327E0,-2.328361124E-1,-1.730409265E0
4.305692503E0,7.480683327E0,-2.232593149E-1,-1.749562860E0
4.308180212E0,7.480683327E0,-2.088941038E-1,-1.720832467E0
4.310667920E0,7.471106529E0,-1.993172914E-1,-1.687313676E0
4.313155628E0,7.461529732E0,-1.897404790E-1,-1.677736878E0
4.315643337E0,7.451952934E0,-1.705868691E-1,-1.639429569E0
4.318131045E0,7.456741333E0,-1.514332592E-1,-1.591545582E0
4.320618753E0,7.466318130E0,-1.322796494E-1,-1.524507880E0
4.323106462E0,7.480683327E0,-1.179144308E-1,-1.471835494E0
4.325594170E0,7.495048523E0,-9.876082093E-2,-1.409586191E0
4.328081878E0,7.490260124E0,-8.918401599E-2,-1.371279001E0
4.330569587E0,7.504625320E0,-6.045359373E-2,-1.323395014E0
4.333057295E0,7.504625320E0,-4.608838260E-2,-1.294664621E0
4.335545003E0,7.499836922E0,-3.172317147E-2,-1.270722508E0
4.338032712E0,7.509413719E0,-1.256955881E-2,-1.251568913E0
4.340520420E0,7.490260124E0,2.094926499E-2,-1.251568913E0
4.343008128E0,7.485471725E0,2.573766746E-2,-1.241992116E0
4.345495837E0,7.475894928E0,4.967968538E-2,-1.265934110E0
4.347983545E0,7.456741333E0,7.362170517E-2,-1.265934110E0
4.350471253E0,7.432799339E0,1.167173311E-1,-1.275510907E0
4.352958962E0,7.394492149E0,1.598129570E-1,-1.304241419E0
4.355446670E0,7.356184959E0,1.741781682E-1,-1.323395014E0
4.357934378E0,7.317877293E0,2.076970041E-1,-1.371279001E0
4.360422087E0,7.289146900E0,2.220622003E-1,-1.409586191E0
4.362909795E0,7.231686115E0,2.507926226E-1,-1.462258697E0
4.365397503E0,7.188590527E0,2.651578486E-1,-1.510142684E0
4.367885212E0,7.140706539E0,2.890998423E-1,-1.524507880E0
4.370372920E0,7.097610950E0,2.938882709E-1,-1.553238392E0
4.372860628E0,7.054515362E0,3.082534671E-1,-1.596333981E0
4.375348337E0,7.030573368E0,2.986766696E-1,-1.644217968E0
4.377836045E0,6.992266178E0,2.938882709E-1,-1.672948480E0
4.380323753E0,6.944382191E0,2.747346461E-1,-1.701678872E0
4.382811462E0,6.910863400E0,2.507926226E-1,-1.749562860E0
4.385299170E0,6.906075001E0,2.460042238E-1,-1.739986062E0
4.387786878E0,6.896498203E0,2.460042238E-1,-1.735197663E0
4.390274587E0,6.901286602E0,2.172738016E-1,-1.701678872E0
4.392762295E0,6.930016994E0,1.981201917E-1,-1.682525277E0
4.395250003E0,6.958747387E0,1.885433793E-1,-1.682525277E0
4.397737712E0,6.982689381E0,1.741781682E-1,-1.620275974E0
4.400225420E0,7.020996571E0,1.310825497E-1,-1.596333981E0
4.402713128E0,7.083245754E0,7.362170517E-2,-1.572391987E0
4.405200837E0,7.155071735E0,2.573766746E-2,-1.538873196E0
4.407688545E0,7.212532520E0,-5.087678507E-2,-1.510142684E0
4.410176253E0,7.289146900E0,-1.035492271E-1,-1.490989089E0
4.412663962E0,7.375338554E0,-1.657984704E-1,-1.500565886E0
4.415151670E0,7.447164536E0,-2.184709013E-1,-1.510142684E0
4.417639378E0,7.514202118E0,-2.615665495E-1,-1.486200690E0
4.420127087E0,7.566874504E0,-3.142389655E-1,-1.467047095E0
4.422614795E0,7.643488884E0,-3.669114113E-1,-1.443105102E0
4.425102503E0,7.720103264E0,-4.052186310E-1,-1.371279001E0
4.427590212E0,7.777564049E0,-4.339490533E-1,-1.328183413E0
4.430077920E0,7.858967304E0,-4.578910768E-1,-1.275510907E0
4.432565628E0,7.935581684E0,-4.770447016E-1,-1.246780515E0
4.435053285E0,7.993042469E0,-4.818331003E-1,-1.213261724E0
4.437540941E0,8.045714378E0,-5.201402903E-1,-1.203684926E0
4.440028597E0,8.122329712E0,-5.201402903E-1,-1.203684926E0
4.442516253E0,8.170213699E0,-5.345055461E-1,-1.203684926E0
4.445003910E0,8.218097687E0,-5.584475398E-1,-1.198896527E0
4.447491566E0,8.265981674E0,-5.728127360E-1,-1.198896527E0
4.449979222E0,8.294712067E0,-5.776011348E-1,-1.189319730E0
4.452466878E0,8.294712067E0,-5.919663906E-1,-1.189319730E0
4.454954535E0,8.309077263E0,-5.967547894E-1,-1.146224022E0
4.457442191E0,8.318654060E0,-6.111199856E-1,-1.151012421E0
4.459929847E0,8.309077263E0,-5.967547894E-1,-1.155800819E0
4.462417503E0,8.323442459E0,-5.967547894E-1,-1.141435623E0
4.464905160E0,8.313865662E0,-5.871779919E-1,-1.122282028E0
4.467392816E0,8.309077263E0,-5.871779919E-1,-1.131858826E0
4.469880472E0,8.299500465E0,-5.871779919E-1,-1.127070427E0
4.472368128E0,8.270770073E0,-5.680243373E-1,-1.151012421E0
4.474855785E0,8.261193275E0,-5.488707423E-1,-1.160589218E0
4.477343441E0,8.246828079E0,-5.297171474E-1,-1.174954534E0
4.479831097E0,8.222886086E0,-5.392939448E-1,-1.198896527E0
4.482318753E0,8.237251282E0,-5.009866953E-1,-1.222838521E0
4.484806410E0,8.237251282E0,-4.914098978E-1,-1.237203717E0
4.487294066E0,8.227674484E0,-4.914098978E-1,-1.232415318E0
4.489781722E0,8.232462883E0,-5.057750940E-1,-1.218050122E0
4.492269378E0,8.246828079E0,-4.961982965E-1,-1.227626920E0
4.494757035E0,8.261193275E0,-4.866214991E-1,-1.232415318E0
4.497244691E0,8.275558472E0,-4.866214991E-1,-1.218050122E0
4.499732347E0,8.289923668E0,-4.531026781E-1,-1.241992116E0
4.502220003E0,8.299500465E0,-4.435258508E-1,-1.227626920E0
4.504707660E0,8.318654060E0,-4.243722558E-1,-1.227626920E0
4.507195316E0,8.342596054E0,-3.956418335E-1,-1.198896527E0
4.509682972E0,8.371326447E0,-3.669114113E-1,-1.170166135E0
4.512170628E0,8.404845238E0,-3.429693878E-1,-1.117493629E0
4.514658337E0,8.457517624E0,-3.190273643E-1,-1.079186440E0
4.517146045E0,8.510190010E0,-2.950853705E-1,-1.050456047E0
4.519633753E0,8.553285599E0,-2.615665495E-1,-1.002571940E0
4.522121462E0,8.596381187E0,-2.328361124E-1,-9.929951429E-1
4.524609170E0,8.644265175E0,-2.280477136E-1,-9.786299467E-1
4.527096878E0,8.696937561E0,-2.184709013E-1,-9.546879530E-1
4.529584587E0,8.735244751E0,-1.993172914E-1,-9.355342984E-1
4.532072295E0,8.783128738E0,-1.801636815E-1,-9.259575009E-1
4.534560003E0,8.811859131E0,-1.753752679E-1,-9.115923047E-1
4.537047712E0,8.840589523E0,-1.657984704E-1,-9.068039060E-1
4.539535420E0,8.912415504E0,-1.418564469E-1,-9.020155072E-1
4.542023128E0,8.955511093E0,-1.131260321E-1,-8.780734539E-1
4.544510837E0,9.012971878E0,-8.918401599E-2,-8.828618526E-1
4.546998545E0,9.036913872E0,-6.524199992E-2,-8.493430614E-1
4.549486253E0,9.070432663E0,-6.524199992E-2,-8.684966564E-1
4.551973962E0,9.132682800E0,-5.087678507E-2,-8.972271085E-1
4.554461670E0,9.185355186E0,-4.129998013E-2,-9.546879530E-1
4.556949378E0,9.218873978E0,-2.693476900E-2,-9.929951429E-1
4.559437087E0,9.257181168E0,-2.214636654E-2,-1.036090732E0
4.561924795E0,9.290699959E0,-1.256955881E-2,-1.098340034E0
4.564412503E0,9.324218750E0,-3.172317147E-2,-1.146224022E0
4.566900212E0,9.362525940E0,-2.214636654E-2,-1.189319730E0
4.569387920E0,9.396044731E0,-2.992752008E-3,-1.232415318E0
4.571875628E0,9.439140320E0,2.573766746E-2,-1.285087705E0
4.574363337E0,9.491812706E0,4.967968538E-2,-1.347337008E0
4.576851045E0,9.520543098E0,8.319851011E-2,-1.404797792E0
4.579338753E0,9.544485092E0,1.023521200E-1,-1.481412292E0
4.581826462E0,9.573215485E0,1.071405262E-1,-1.572391987E0
4.584314170E0,9.601945877E0,1.310825497E-1,-1.663371682E0
4.586801878E0,9.616311073E0,1.310825497E-1,-1.778293371E0
4.589289587E0,9.635464668E0,1.406593472E-1,-1.883638144E0
4.591777295E0,9.654618263E0,1.550245583E-1,-1.993771434E0
4.594265003E0,9.707290649E0,1.741781682E-1,-2.089539528E0
4.596752712E0,9.726444244E0,1.885433793E-1,-2.190095901E0
4.599240420E0,9.745597839E0,2.076970041E-1,-2.285864115E0
4.601728128E0,9.764751434E0,2.172738016E-1,-2.391208887E0
4.604215837E0,9.779116631E0,2.507926226E-1,-2.477400303E0
4.606703545E0,9.793481827E0,2.651578486E-1,-2.582745075E0
4.609191253E0,9.827000618E0,2.699462473E-1,-2.702455282E0
4.611678962E0,9.879673004E0,2.699462473E-1,-2.807800055E0
4.614166670E0,9.917980194E0,2.555810213E-1,-2.913144827E0
4.616654378E0,9.961075783E0,2.268506140E-1,-3.013701439E0
4.619142087E0,9.975440979E0,2.076970041E-1,-3.095104218E0
4.621629795E0,9.994594574E0,1.789665818E-1,-3.162141800E0
4.624117503E0,1.002332497E1,1.741781682E-1,-3.224391222E0
4.626605212E0,1.004726696E1,1.646013707E-1,-3.272275209E0
4.629092920E0,1.005684471E1,1.598129570E-1,-3.315370798E0
4.631580628E0,1.005205631E1,1.550245583E-1,-3.353677988E0
4.634068337E0,1.007120991E1,1.598129570E-1,-3.382408381E0
4.636556045E0,1.009994030E1,1.550245583E-1,-3.430292368E0
4.639043753E0,1.012388229E1,1.598129570E-1,-3.468599796E0
4.641531462E0,1.014303589E1,1.598129570E-1,-3.497330189E0
4.644019170E0,1.015740108E1,1.646013707E-1,-3.545214176E0
4.646506878E0,1.016218948E1,1.646013707E-1,-3.564367771E0
4.648994587E0,1.017655468E1,1.646013707E-1,-3.583521366E0
4.651482295E0,1.018134308E1,1.646013707E-1,-3.597886562E0
4.653970003E0,1.020528507E1,1.550245583E-1,-3.612251759E0
4.656457712E0,1.021007347E1,1.358709484E-1,-3.617040157E0
4.658945420E0,1.019570827E1,1.262941360E-1,-3.617040157E0
4.661433128E0,1.019570827E1,1.119289324E-1,-3.631405354E0
4.663920837E0,1.019570827E1,8.319851011E-2,-3.664924145E0
4.666408545E0,1.018134308E1,7.841010392E-2,-3.664924145E0
4.668896253E0,1.018613148E1,4.010287672E-2,-3.684077978E0
4.671383962E0,1.019570827E1,3.531447425E-2,-3.679289579E0
4.673871670E0,1.021007347E1,1.795651275E-3,-3.669712543E0
4.676359378E0,1.023401546E1,-1.735796221E-2,-3.650558949E0
4.678847087E0,1.022443867E1,-4.608838260E-2,-3.645770550E0
4.681334795E0,1.020528507E1,-7.481880486E-2,-3.617040157E0
4.683822503E0,1.021007347E1,-9.876082093E-2,-3.573944569E0
4.686310212E0,1.017176628E1,-1.274912357E-1,-3.521272182E0
4.688797920E0,1.015740108E1,-1.514332592E-1,-3.454234600E0
4.691285628E0,1.013824749E1,-1.945288926E-1,-3.396773577E0
4.693773337E0,1.010951710E1,-2.041056901E-1,-3.363254786E0
4.696261045E0,1.011909389E1,-1.993172914E-1,-3.286640406E0
4.698748753E0,1.010472870E1,-1.897404790E-1,-3.229179621E0
4.701236462E0,1.008557510E1,-1.801636815E-1,-3.162141800E0
4.703724170E0,1.005684471E1,-1.705868691E-1,-3.090315819E0
4.706211878E0,1.003769016E1,-1.322796494E-1,-3.018489838E0
4.708699587E0,1.001374817E1,-1.083376259E-1,-2.908356428E0
4.711187295E0,1.000895977E1,-7.960720360E-2,-2.826953650E0
4.713675003E0,9.970652580E0,-6.045359373E-2,-2.745550871E0
4.716162712E0,9.941922188E0,-4.129998013E-2,-2.635417461E0
4.718650420E0,9.927556992E0,-4.129998013E-2,-2.539649487E0
4.721138128E0,9.903614998E0,-1.735796221E-2,-2.434304476E0
4.723625837E0,9.879673004E0,-1.735796221E-2,-2.338536501E0
4.726113545E0,9.879673004E0,-2.992752008E-3,-2.266710520E0
4.728601253E0,9.870096207E0,3.531447425E-2,-2.199672699E0
4.731088962E0,9.846154213E0,6.883329898E-2,-2.161365509E0
4.733576670E0,9.831789017E0,7.841010392E-2,-2.118269920E0
4.736064378E0,9.822212219E0,1.119289324E-1,-2.060809135E0
4.738552087E0,9.807847023E0,1.215057373E-1,-1.974617839E0
4.741039795E0,9.812635422E0,1.310825497E-1,-1.931522250E0
4.743527503E0,9.788693428E0,1.502361596E-1,-1.883638144E0
4.746015212E0,9.759963036E0,1.406593472E-1,-1.821388960E0
4.748502920E0,9.740809441E0,1.454477459E-1,-1.759139657E0
4.750990628E0,9.716867447E0,1.693897694E-1,-1.716044068E0
4.753478337E0,9.692925453E0,2.029085904E-1,-1.706467271E0
4.755966045E0,9.659406662E0,2.124854028E-1,-1.649006367E0
4.758453753E0,9.649829865E0,2.268506140E-1,-1.591545582E0
4.760941462E0,9.621099472E0,2.507926226E-1,-1.548449993E0
4.763429170E0,9.592369080E0,2.603694201E-1,-1.500565886E0
4.765916878E0,9.601945877E0,2.460042238E-1,-1.462258697E0
4.768404587E0,9.592369080E0,2.507926226E-1,-1.438316703E0
4.770892243E0,9.592369080E0,2.412158251E-1,-1.414374709E0
4.773379899E0,9.601945877E0,2.555810213E-1,-1.404797792E0
4.775867555E0,9.601945877E0,2.460042238E-1,-1.395220995E0
4.778355212E0,9.606734276E0,2.316390127E-1,-1.400009394E0
4.780842868E0,9.611522675E0,2.172738016E-1,-1.385644197E0
4.783330524E0,9.649829865E0,2.029085904E-1,-1.414374709E0
4.785818180E0,9.688137054E0,2.316390127E-1,-1.438316703E0
4.788305837E0,9.745597839E0,2.364274114E-1,-1.476623893E0
4.790793493E0,9.793481827E0,2.460042238E-1,-1.514931083E0
4.793281149E0,9.850942612E0,2.460042238E-1,-1.562815189E0
4.795768805E0,9.903614998E0,2.316390127E-1,-1.605910778E0
4.798256462E0,9.927556992E0,2.029085904E-1,-1.682525277E0
4.800744118E0,9.956287384E0,1.837549806E-1,-1.739986062E0
4.803231774E0,9.980229378E0,1.789665818E-1,-1.763928056E0
4.805719430E0,1.001374817E1,1.789665818E-1,-1.840542555E0
4.808207087E0,1.002332497E1,1.885433793E-1,-1.893214941E0
4.810694743E0,1.002811337E1,1.933317930E-1,-1.955464244E0
4.813182399E0,1.002332497E1,2.172738016E-1,-1.998559833E0
4.815670055E0,1.001374817E1,2.460042238E-1,-2.056020737E0
4.818157712E0,9.994594574E0,2.747346461E-1,-2.118269920E0
4.820645368E0,1.000417137E1,2.890998423E-1,-2.180519104E0
4.823133024E0,1.000895977E1,2.938882709E-1,-2.237980127E0
4.825620680E0,1.001853657E1,2.986766696E-1,-2.319382906E0
4.828108337E0,1.002332497E1,3.034650683E-1,-2.372055292E0
4.830595993E0,1.003290176E1,3.178302646E-1,-2.453458309E0
4.833083649E0,1.003769016E1,3.034650683E-1,-2.496553898E0
4.835571305E0,1.004247856E1,3.226186931E-1,-2.563591480E0
4.838058962E0,1.003769016E1,3.465606868E-1,-2.621052265E0
4.840546618E0,1.003769016E1,3.513490856E-1,-2.697666883E0
4.843034274E0,1.004726696E1,3.609259129E-1,-2.750339270E0
4.845521930E0,1.005205631E1,3.800795078E-1,-2.807800055E0
4.848009587E0,1.007120991E1,3.609259129E-1,-2.870049238E0
4.850497295E0,1.011430550E1,3.561375141E-1,-2.951452255E0
4.852985003E0,1.013824749E1,3.417722881E-1,-3.018489838E0
4.855472712E0,1.016697788E1,3.321954906E-1,-3.099892616E0
4.857960420E0,1.018613148E1,3.130418658E-1,-3.162141800E0
4.860448128E0,1.019570827E1,2.890998423E-1,-3.219602823E0
4.862935837E0,1.019570827E1,2.603694201E-1,-3.272275209E0
4.865423545E0,1.020049667E1,2.460042238E-1,-3.320159197E0
4.867911253E0,1.019570827E1,2.412158251E-1,-3.363254786E0
4.870398962E0,1.017655468E1,2.412158251E-1,-3.391985178E0
4.872886670E0,1.017655468E1,2.460042238E-1,-3.444657803E0
4.875374378E0,1.018134308E1,2.412158251E-1,-3.487753391E0
4.877862087E0,1.018134308E1,2.555810213E-1,-3.535637379E0
4.880349795E0,1.017655468E1,2.555810213E-1,-3.597886562E0
4.882837503E0,1.017176628E1,2.651578486E-1,-3.655347347E0
4.885325212E0,1.016697788E1,2.795230448E-1,-3.684077978E0
4.887812920E0,1.016218948E1,2.795230448E-1,-3.727173567E0
4.890300628E0,1.016218948E1,2.795230448E-1,-3.775057554E0
4.892788337E0,1.016218948E1,2.890998423E-1,-3.808576345E0
4.895276045E0,1.015261269E1,2.986766696E-1,-3.870825529E0
4.897763753E0,1.014782429E1,2.986766696E-1,-3.933074951E0
4.900251462E0,1.015261269E1,3.130418658E-1,-3.961805344E0
4.902739170E0,1.016218948E1,3.130418658E-1,-4.004900932E0
4.905226878E0,1.018134308E1,3.226186931E-1,-4.071938515E0
4.907714587E0,1.021486187E1,3.465606868E-1,-4.148552895E0
4.910202295E0,1.023401546E1,3.609259129E-1,-4.201225281E0
4.912690003E0,1.023401546E1,3.848679364E-1,-4.287416458E0
4.915177712E0,1.026753426E1,3.465606868E-1,-4.373608112E0
4.917665420E0,1.027711105E1,3.369838893E-1,-4.483741283E0
4.920153128E0,1.029147625E1,3.417722881E-1,-4.584297657E0
4.922640837E0,1.030584145E1,3.465606868E-1,-4.680065632E0
4.925128545E0,1.030584145E1,3.369838893E-1,-4.780622005E0
4.927616253E0,1.031541824E1,3.130418658E-1,-4.862025261E0
4.930103962E0,1.032499504E1,3.034650683E-1,-4.943428040E0
4.932591670E0,1.032978344E1,2.843114436E-1,-4.986523628E0
4.935079378E0,1.033457184E1,2.603694201E-1,-5.000888824E0
4.937567087E0,1.033457184E1,2.795230448E-1,-5.029619217E0
4.940054795E0,1.032499504E1,2.747346461E-1,-5.039196014E0
4.942542503E0,1.031062984E1,2.747346461E-1,-5.043984413E0
4.945030212E0,1.030105305E1,2.843114436E-1,-5.024830818E0
4.947517920E0,1.028668785E1,2.890998423E-1,-4.991312027E0
4.950005628E0,1.028189945E1,2.747346461E-1,-4.972158432E0
4.952493337E0,1.025316906E1,2.555810213E-1,-4.929062843E0
4.954981045E0,1.021965027E1,2.460042238E-1,-4.890755653E0
4.957468753E0,1.019570827E1,2.364274114E-1,-4.847660065E0
4.959956462E0,1.017655468E1,2.268506140E-1,-4.790199280E0
4.962444170E0,1.013824749E1,2.172738016E-1,-4.747103214E0
4.964931878E0,1.011430550E1,2.076970041E-1,-4.680065632E0
4.967419587E0,1.009036350E1,2.029085904E-1,-4.646546841E0
4.969907295E0,1.005684471E1,2.268506140E-1,-4.598662853E0
4.972395003E0,1.002811337E1,2.220622003E-1,-4.555567265E0
4.974882712E0,9.985017776E0,2.268506140E-1,-4.512471676E0
4.977370420E0,9.951498985E0,2.316390127E-1,-4.502894878E0
4.979858128E0,9.913191795E0,2.364274114E-1,-4.507683277E0
4.982345837E0,9.894038200E0,2.172738016E-1,-4.522048473E0
4.984833545E0,9.913191795E0,2.029085904E-1,-4.531625271E0
4.987321253E0,9.908403397E0,1.741781682E-1,-4.555567265E0
4.989808962E0,9.922768593E0,1.454477459E-1,-4.579509258E0
4.992296670E0,9.917980194E0,1.167173311E-1,-4.598662853E0
4.994784378E0,9.903614998E0,6.883329898E-2,-4.603451252E0
4.997272087E0,9.855731010E0,1.616086066E-2,-4.589086056E0
4.999759795E0,9.846154213E0,-3.172317147E-2,-4.569932461E0
5.002247503E0,9.807847023E0,-7.481880486E-2,-4.531625271E0
5.004735212E0,9.764751434E0,-1.035492271E-1,-4.488529682E0
5.007222920E0,9.731232643E0,-1.274912357E-1,-4.426280499E0
5.009710628E0,9.683348656E0,-1.610100716E-1,-4.325724125E0
5.012198337E0,9.649829865E0,-1.993172914E-1,-4.244320869E0
5.014686045E0,9.616311073E0,-2.328361124E-1,-4.182071686E0
5.017173753E0,9.592369080E0,-2.519897223E-1,-4.086303711E0
5.019661462E0,9.568427086E0,-2.519897223E-1,-4.009689331E0
5.022149170E0,9.534908295E0,-2.902969420E-1,-3.909132719E0
5.024636878E0,9.515754700E0,-2.855085433E-1,-3.803787947E0
5.027124587E0,9.515754700E0,-2.950853705E-1,-3.722385168E0
5.029612295E0,9.520543098E0,-3.046621680E-1,-3.636193752E0
5.032100003E0,9.515754700E0,-2.998737693E-1,-3.554790974E0
5.034587712E0,9.520543098E0,-2.807201445E-1,-3.468599796E0
5.037075420E0,9.539696693E0,-2.567781210E-1,-3.391985178E0
5.039563128E0,9.544485092E0,-2.376245260E-1,-3.320159197E0
5.042050837E0,9.544485092E0,-2.041056901E-1,-3.286640406E0
5.044538545E0,9.549273491E0,-1.705868691E-1,-3.262698412E0
5.047026253E0,9.544485092E0,-1.322796494E-1,-3.253121614E0
5.049513962E0,9.549273491E0,-1.131260321E-1,-3.243544817E0
5.052001670E0,9.549273491E0,-7.481880486E-2,-3.248333216E0
5.054489378E0,9.539696693E0,-4.608838260E-2,-3.272275209E0
5.056977087E0,9.515754700E0,-3.651157767E-2,-3.324947596E0
5.059464795E0,9.501389503E0,-2.693476900E-2,-3.387196779E0
5.061952503E0,9.463082314E0,-1.256955881E-2,-3.459022999E0
5.064440212E0,9.415198326E0,-7.781155407E-3,-3.511695385E0
5.066927920E0,9.357737541E0,-7.781155407E-3,-3.607463360E0
5.069415628E0,9.309853554E0,1.795651275E-3,-3.645770550E0
5.071903337E0,9.295488358E0,6.584054790E-3,-3.746327162E0
5.074391045E0,9.238027573E0,2.573766746E-2,-3.822941542E0
5.076878753E0,9.194931984E0,3.052607179E-2,-3.913921118E0
5.079366462E0,9.132682800E0,3.052607179E-2,-4.009689331E0
5.081854170E0,9.060855865E0,3.531447425E-2,-4.081515312E0
5.084341878E0,8.993818283E0,-2.992752008E-3,-4.162918091E0
5.086829587E0,8.965087891E0,-2.992752008E-3,-4.234744072E0
5.089317295E0,8.950722694E0,-3.172317147E-2,-4.316147327E0
5.091805003E0,8.926780701E0,-4.129998013E-2,-4.397550106E0
5.094292660E0,8.931569099E0,-6.524199992E-2,-4.483741283E0
5.096780316E0,8.965087891E0,-9.397241473E-2,-4.569932461E0
5.099267972E0,8.998606682E0,-1.466448605E-1,-4.627393246E0
5.101755628E0,9.070432663E0,-2.088941038E-1,-4.675277233E0
5.104243285E0,9.147047997E0,-2.759317458E-1,-4.718372822E0
