"Time (s)","Acceleration x (m/s^2)","Acceleration y (m/s^2)","Acceleration z (m/s^2)"
3.272166700E-2,-9.738415718E0,-1.516128182E0,1.463455796E0
3.519781300E-2,-9.738415718E0,-1.530493379E0,1.516128182E0
3.767484400E-2,-9.762357712E0,-1.564012289E0,1.597531080E0
4.015317800E-2,-9.843760490E0,-1.559223890E0,1.683722377E0
4.263312500E-2,-9.920374870E0,-1.544858694E0,1.789067268E0
4.511494800E-2,-9.996989250E0,-1.530493379E0,1.884835243E0
4.759880300E-2,-1.005923843E1,-1.482609391E0,1.990180135E0
5.008479200E-2,-1.013106441E1,-1.458667397E0,2.090736628E0
5.257078200E-2,-1.018852520E1,-1.405994892E0,2.152985811E0
5.505895900E-2,-1.023162079E1,-1.377264500E0,2.186504602E0
5.754921900E-2,-1.027950478E1,-1.343745708E0,2.186504602E0
6.004140700E-2,-1.033217716E1,-1.291073322E0,2.172139406E0
6.253526100E-2,-1.038484955E1,-1.257554412E0,2.138620615E0
6.503046900E-2,-1.045188713E1,-1.209670424E0,2.076371431E0
6.752666700E-2,-1.049977112E1,-1.185728431E0,1.990180135E0
7.002349000E-2,-1.053328991E1,-1.142632723E0,1.927930951E0
7.252057300E-2,-1.054286766E1,-1.085171938E0,1.827374458E0
7.501463600E-2,-1.053328991E1,-1.037287831E0,1.693299174E0
7.750244800E-2,-1.052850151E1,-1.008557439E0,1.544858694E0
7.999026100E-2,-1.049498272E1,-1.013345838E0,1.410783410E0
8.247807300E-2,-1.045667553E1,-1.018134236E0,1.271919608E0
8.496588600E-2,-1.040400314E1,-1.046864748E0,1.156997919E0
8.745369800E-2,-1.038006115E1,-1.080383539E0,1.089960337E0
8.994151100E-2,-1.036090755E1,-1.128267527E0,1.018134236E0
9.242932300E-2,-1.032738876E1,-1.214458823E0,9.558850527E-1
9.491713600E-2,-1.025077438E1,-1.276708007E0,9.367313981E-1
9.740494800E-2,-1.017894840E1,-1.362899303E0,9.175778031E-1
9.989276100E-2,-1.011191082E1,-1.468244195E0,9.319429994E-1
1.023805730E-1,-1.001614285E1,-1.564012289E0,9.702502489E-1
1.048683860E-1,-9.944316864E0,-1.645415068E0,9.846154451E-1
1.073561980E-1,-9.891644478E0,-1.741183162E0,1.042076349E0
1.098440110E-1,-9.838972092E0,-1.813009262E0,1.118690729E0
1.123318230E-1,-9.829395294E0,-1.860893250E0,1.243189216E0
1.148196360E-1,-9.834183693E0,-1.894412041E0,1.372476101E0
1.173074480E-1,-9.838972092E0,-1.932719350E0,1.482609391E0
1.197952610E-1,-9.858125687E0,-1.966238141E0,1.626261473E0
1.222830730E-1,-9.867702484E0,-2.009333849E0,1.745971560E0
1.247708860E-1,-9.882067680E0,-2.033275843E0,1.827374458E0
1.272586980E-1,-9.906009674E0,-2.066794634E0,1.903988957E0
1.297465110E-1,-9.939528465E0,-2.076371431E0,2.004545450E0
1.322343230E-1,-9.973047256E0,-2.062006235E0,2.090736628E0
1.347221360E-1,-9.996989250E0,-2.047641039E0,2.172139406E0
1.372099480E-1,-1.004008484E1,-2.014122248E0,2.224812031E0
1.396977610E-1,-1.008796883E1,-1.985391736E0,2.287061214E0
1.421855730E-1,-1.010233402E1,-1.932719350E0,2.344521999E0
1.446733860E-1,-1.018852520E1,-1.889623642E0,2.387617588E0
1.471611980E-1,-1.023640919E1,-1.846528053E0,2.411559582E0
1.496490110E-1,-1.028908157E1,-1.822586060E0,2.387617588E0
1.521368230E-1,-1.032260036E1,-1.803432465E0,2.349310398E0
1.546246360E-1,-1.029865837E1,-1.798644066E0,2.277484417E0
1.571124480E-1,-1.026513958E1,-1.793855667E0,2.215235233E0
1.596002610E-1,-1.022683239E1,-1.798644066E0,2.114678621E0
1.620880730E-1,-1.018373680E1,-1.813009262E0,2.014122248E0
1.645758860E-1,-1.014542961E1,-1.813009262E0,1.908777356E0
1.670636980E-1,-1.011669922E1,-1.798644066E0,1.822586060E0
1.695515110E-1,-1.011669922E1,-1.798644066E0,1.765125155E0
1.720393230E-1,-1.011669922E1,-1.793855667E0,1.702875972E0
1.745271360E-1,-1.010712242E1,-1.760336757E0,1.669357181E0
1.770149480E-1,-1.010712242E1,-1.750759959E0,1.645415068E0
1.795027610E-1,-1.011191082E1,-1.765125155E0,1.573589087E0
1.819905730E-1,-1.012627602E1,-1.765125155E0,1.506551385E0
1.844783860E-1,-1.014064121E1,-1.798644066E0,1.449090600E0
1.869661980E-1,-1.017894840E1,-1.817797661E0,1.401206493E0
1.894540110E-1,-1.020767879E1,-1.846528053E0,1.362899303E0
1.919418230E-1,-1.024598598E1,-1.875258446E0,1.329380512E0
1.944296360E-1,-1.029865837E1,-1.875258446E0,1.300650120E0
1.969174480E-1,-1.036090755E1,-1.875258446E0,1.295861721E0
1.994052610E-1,-1.040879154E1,-1.860893250E0,1.291073322E0
2.018930730E-1,-1.049019432E1,-1.841739655E0,1.291073322E0
2.043808860E-1,-1.056680965E1,-1.836951256E0,1.271919608E0
2.068686980E-1,-1.061948204E1,-1.822586060E0,1.262342811E0
2.093565110E-1,-1.067694283E1,-1.808220863E0,1.267131209E0
2.118443230E-1,-1.073919201E1,-1.817797661E0,1.257554412E0
2.143321360E-1,-1.077271080E1,-1.817797661E0,1.271919608E0
2.168199480E-1,-1.084453678E1,-1.836951256E0,1.276708007E0
2.193077610E-1,-1.089242077E1,-1.856104851E0,1.276708007E0
2.217955730E-1,-1.094030476E1,-1.894412041E0,1.286284804E0
2.242833860E-1,-1.096903515E1,-1.923142552E0,1.262342811E0
2.267711980E-1,-1.096903515E1,-1.947084546E0,1.247977614E0
2.292590110E-1,-1.094988155E1,-1.994968534E0,1.233612418E0
2.317468230E-1,-1.088763237E1,-2.023699045E0,1.243189216E0
2.342346360E-1,-1.084453678E1,-2.038064241E0,1.271919608E0
2.367224480E-1,-1.079665279E1,-2.076371431E0,1.291073322E0
2.392102610E-1,-1.074876881E1,-2.133832216E0,1.310226917E0
2.416980730E-1,-1.070567322E1,-2.181716204E0,1.353322506E0
2.441858860E-1,-1.069609642E1,-2.229600430E0,1.425148606E0
2.466736980E-1,-1.070088482E1,-2.282272816E0,1.535281897E0
2.491615110E-1,-1.072003841E1,-2.358887196E0,1.650203466E0
2.516493230E-1,-1.072482681E1,-2.454655409E0,1.755548358E0
2.541371360E-1,-1.072003841E1,-2.569576979E0,1.851316452E0
2.566249480E-1,-1.072003841E1,-2.708440781E0,1.923142552E0
2.591127610E-1,-1.072961521E1,-2.847304344E0,1.956661344E0
2.616005730E-1,-1.070088482E1,-2.957437754E0,1.966238141E0
2.640883860E-1,-1.068173122E1,-3.048417330E0,1.980603337E0
2.665761980E-1,-1.066257763E1,-3.110666513E0,1.975814939E0
2.690640110E-1,-1.066736603E1,-3.120243311E0,1.947084546E0
2.715518230E-1,-1.072003841E1,-3.134608507E0,1.913565755E0
2.740396360E-1,-1.083017159E1,-3.134608507E0,1.865681648E0
2.765274480E-1,-1.094509315E1,-3.134608507E0,1.784278870E0
2.790152610E-1,-1.107437992E1,-3.120243311E0,1.688510776E0
2.815030730E-1,-1.119408989E1,-3.077147722E0,1.602319479E0
2.839908860E-1,-1.132337666E1,-3.014898539E0,1.516128182E0
2.864786980E-1,-1.142872143E1,-2.938283920E0,1.425148606E0
2.889665110E-1,-1.156279755E1,-2.818573952E0,1.286284804E0
2.914543230E-1,-1.172560310E1,-2.708440781E0,1.075595140E0
2.939421360E-1,-1.187883186E1,-2.579153776E0,8.457517624E-1
2.964299480E-1,-1.205600262E1,-2.416347980E0,6.302735806E-1
2.989177610E-1,-1.224753857E1,-2.287061214E0,4.100070298E-1
3.014055730E-1,-1.246301651E1,-2.162562609E0,1.705868691E-1
3.038933860E-1,-1.269286060E1,-2.042852640E0,-5.446808785E-2
3.063811980E-1,-1.290833855E1,-1.927930951E0,-2.603694201E-1
3.088690110E-1,-1.309987450E1,-1.832162857E0,-4.231751561E-1
3.113568230E-1,-1.323394966E1,-1.765125155E0,-5.476736426E-1
3.138446360E-1,-1.331535244E1,-1.712452769E0,-6.386532784E-1
3.163324480E-1,-1.332971764E1,-1.693299174E0,-7.104793787E-1
3.188202610E-1,-1.332014084E1,-1.674145579E0,-7.344213724E-1
3.213080730E-1,-1.329619884E1,-1.631049871E0,-7.296329737E-1
3.237958860E-1,-1.328183365E1,-1.631049871E0,-6.769605279E-1
3.262836980E-1,-1.331056404E1,-1.640626669E0,-5.811924338E-1
3.287715110E-1,-1.331535244E1,-1.678933978E0,-4.088099301E-1
3.312593230E-1,-1.332014084E1,-1.712452769E0,-1.981201917E-1
3.337471360E-1,-1.325789165E1,-1.769913554E0,7.481880486E-2
3.362349480E-1,-1.321958447E1,-1.817797661E0,3.333925903E-1
3.387227610E-1,-1.318127728E1,-1.875258446E0,6.302735806E-1
3.412105730E-1,-1.311423969E1,-1.913565755E0,9.319429994E-1
3.436983860E-1,-1.306635571E1,-1.961449742E0,1.247977614E0
3.461861980E-1,-1.301368332E1,-2.018910646E0,1.540070295E0
3.486740110E-1,-1.296579933E1,-2.071583033E0,1.836951256E0
3.511618230E-1,-1.293228054E1,-2.114678621E0,2.167351007E0
3.536496360E-1,-1.289397335E1,-2.138620615E0,2.454655409E0
3.561374480E-1,-1.286045456E1,-2.152985811E0,2.761113167E0
3.586252610E-1,-1.285087776E1,-2.152985811E0,3.005321741E0
3.611130730E-1,-1.286524296E1,-2.162562609E0,3.220799923E0
3.636008860E-1,-1.286524296E1,-2.162562609E0,3.431489468E0
3.660886980E-1,-1.284130096E1,-2.167351007E0,3.570353270E0
3.685765110E-1,-1.280778217E1,-2.196081400E0,3.656544447E0
3.710643230E-1,-1.275989819E1,-2.239177227E0,3.656544447E0
3.735521360E-1,-1.269764900E1,-2.291849613E0,3.646967649E0
3.760399480E-1,-1.263061142E1,-2.325368404E0,3.594295263E0
3.785277610E-1,-1.256357384E1,-2.334945202E0,3.527257681E0
3.810155730E-1,-1.252526665E1,-2.339733601E0,3.450643301E0
3.835033860E-1,-1.253005505E1,-2.339733601E0,3.378817081E0
3.859911980E-1,-1.254442024E1,-2.306214809E0,3.297414303E0
3.884790110E-1,-1.254920864E1,-2.296638012E0,3.168127298E0
3.909668230E-1,-1.255878544E1,-2.306214809E0,3.029263735E0
3.934546360E-1,-1.258272743E1,-2.315791607E0,2.837727547E0
3.959424480E-1,-1.258751583E1,-2.334945202E0,2.607884169E0
3.984302610E-1,-1.256357384E1,-2.354098797E0,2.382829189E0
4.009180730E-1,-1.256357384E1,-2.349310398E0,2.133832216E0
4.034058860E-1,-1.258751583E1,-2.306214809E0,1.894412041E0
4.058936980E-1,-1.264976501E1,-2.196081400E0,1.674145579E0
4.083815110E-1,-1.271201420E1,-2.071583033E0,1.468244195E0
4.108693230E-1,-1.273595619E1,-1.951872945E0,1.276708007E0
4.133571360E-1,-1.272159100E1,-1.880046844E0,1.075595140E0
4.158449480E-1,-1.267370701E1,-1.880046844E0,8.601169586E-1
4.183327610E-1,-1.259230423E1,-1.961449742E0,6.254851818E-1
4.208205730E-1,-1.244865131E1,-2.042852640E0,4.195838571E-1
4.233083860E-1,-1.230978775E1,-2.100313425E0,2.328361124E-1
4.257961980E-1,-1.216613579E1,-2.152985811E0,8.439560980E-2
4.282840110E-1,-1.203206062E1,-2.157774210E0,-3.531447425E-2
4.307718230E-1,-1.197459984E1,-2.143409014E0,-1.454477459E-1
4.332596360E-1,-1.193150425E1,-2.105101824E0,-2.268506140E-1
4.357474480E-1,-1.191235065E1,-2.085948229E0,-2.938882709E-1
4.382352610E-1,-1.191235065E1,-2.071583033E0,-3.082534671E-1
4.407230730E-1,-1.192671585E1,-2.028487444E0,-2.699462473E-1
4.432108860E-1,-1.196502304E1,-1.985391736E0,-2.076970041E-1
4.456986980E-1,-1.202727222E1,-1.937507749E0,-1.023521200E-1
4.481865110E-1,-1.213261700E1,-1.880046844E0,5.087678507E-2
4.506743230E-1,-1.225711536E1,-1.813009262E0,2.280477136E-1
4.531621360E-1,-1.240076733E1,-1.731606364E0,4.674678743E-1
4.556499480E-1,-1.256357384E1,-1.693299174E0,6.973112226E-1
4.581377610E-1,-1.275989819E1,-1.678933978E0,9.415197968E-1
4.606255730E-1,-1.292749214E1,-1.664568782E0,1.176151633E0
4.631133860E-1,-1.307593250E1,-1.635838270E0,1.377264500E0
4.656011980E-1,-1.320043087E1,-1.645415068E0,1.540070295E0
4.680890110E-1,-1.328183365E1,-1.669357181E0,1.669357181E0
4.705768750E-1,-1.328662205E1,-1.731606364E0,1.765125155E0
4.730647400E-1,-1.325310326E1,-1.789067268E0,1.813009262E0
4.755526050E-1,-1.320043087E1,-1.832162857E0,1.846528053E0
4.780404690E-1,-1.312860489E1,-1.875258446E0,1.880046844E0
4.805283340E-1,-1.305677891E1,-1.923142552E0,1.884835243E0
4.830161980E-1,-1.298016453E1,-1.932719350E0,1.903988957E0
4.855040630E-1,-1.289876175E1,-1.937507749E0,1.889623642E0
4.879923440E-1,-1.280778217E1,-1.971026540E0,1.875258446E0
4.904806250E-1,-1.269286060E1,-2.042852640E0,1.856104851E0
4.929684380E-1,-1.252526665E1,-2.129043818E0,1.841739655E0
4.954562500E-1,-1.235767174E1,-2.196081400E0,1.822586060E0
4.979440630E-1,-1.219965458E1,-2.258330822E0,1.813009262E0
5.004318750E-1,-1.204642582E1,-2.311003208E0,1.841739655E0
5.029196880E-1,-1.190756226E1,-2.373252392E0,1.875258446E0
5.054075000E-1,-1.180700588E1,-2.435501575E0,1.894412041E0
5.078953130E-1,-1.172560310E1,-2.483385801E0,1.937507749E0
5.103831250E-1,-1.162983513E1,-2.531269789E0,1.951872945E0
5.128709380E-1,-1.155322075E1,-2.588730574E0,1.932719350E0
5.153587500E-1,-1.146224022E1,-2.631826162E0,1.875258446E0
5.178465630E-1,-1.143829823E1,-2.650979757E0,1.803432465E0
5.203343750E-1,-1.145745182E1,-2.650979757E0,1.717241168E0
5.228221880E-1,-1.149575901E1,-2.665344954E0,1.631049871E0
5.253100000E-1,-1.158195114E1,-2.617460966E0,1.501762986E0
5.277978130E-1,-1.172560310E1,-2.540846586E0,1.386841297E0
5.302856250E-1,-1.187883186E1,-2.464232206E0,1.271919608E0
5.327734380E-1,-1.206079102E1,-2.382829189E0,1.161786318E0
5.352612500E-1,-1.225232697E1,-2.282272816E0,1.051653147E0
5.377490630E-1,-1.241034412E1,-2.200869799E0,9.223662019E-1
5.402368750E-1,-1.253484344E1,-2.152985811E0,7.978677154E-1
5.427246880E-1,-1.258751583E1,-2.100313425E0,6.877344251E-1
5.452125000E-1,-1.261145782E1,-2.042852640E0,5.776011348E-1
5.477005730E-1,-1.262103462E1,-1.980603337E0,4.674678743E-1
5.501882820E-1,-1.266413021E1,-1.913565755E0,4.052186310E-1
5.526759900E-1,-1.273116779E1,-1.865681648E0,4.339490533E-1
5.551636980E-1,-1.282693577E1,-1.836951256E0,4.914098978E-1
5.576514070E-1,-1.297537613E1,-1.808220863E0,6.254851818E-1
5.601391150E-1,-1.311423969E1,-1.813009262E0,8.218097091E-1
5.626268230E-1,-1.319085407E1,-1.808220863E0,1.008557439E0
5.651145320E-1,-1.319564247E1,-1.813009262E0,1.171363235E0
5.676022400E-1,-1.316691208E1,-1.789067268E0,1.300650120E0
5.700899480E-1,-1.308072090E1,-1.741183162E0,1.396418095E0
5.725776570E-1,-1.298016453E1,-1.650203466E0,1.458667397E0
5.750653650E-1,-1.289876175E1,-1.516128182E0,1.506551385E0
5.775530730E-1,-1.277426338E1,-1.329380512E0,1.540070295E0
5.800408340E-1,-1.266891861E1,-1.123479128E0,1.549647093E0
5.825286460E-1,-1.253484344E1,-9.606734514E-1,1.549647093E0
5.850164590E-1,-1.240555573E1,-8.313865662E-1,1.492186189E0
5.875042710E-1,-1.225711536E1,-7.308300734E-1,1.415571809E0
5.899920840E-1,-1.212782860E1,-6.733692288E-1,1.295861721E0
5.924798960E-1,-1.193629265E1,-6.446388364E-1,1.185728431E0
5.949677090E-1,-1.172081470E1,-6.637924314E-1,1.037287831E0
5.974555210E-1,-1.150533581E1,-6.925228238E-1,8.553285599E-1
5.999433860E-1,-1.128028107E1,-7.499836683E-1,7.068880796E-1
6.024312500E-1,-1.106001472E1,-7.978677154E-1,5.776011348E-1
6.049191150E-1,-1.085890198E1,-8.409633636E-1,4.578910768E-1
6.074069800E-1,-1.073440361E1,-9.080010056E-1,4.052186310E-1
6.098948440E-1,-1.065300083E1,-9.702502489E-1,3.860650361E-1
6.123827090E-1,-1.059554005E1,-1.051653147E0,3.669114113E-1
6.148705730E-1,-1.054765606E1,-1.142632723E0,3.573346138E-1
6.173584380E-1,-1.049977112E1,-1.243189216E0,3.381809890E-1
6.198463030E-1,-1.043752193E1,-1.315015316E0,3.286041915E-1
6.223341670E-1,-1.039442635E1,-1.367687702E0,3.046621680E-1
6.248220320E-1,-1.035611916E1,-1.401206493E0,3.142389655E-1
6.273098960E-1,-1.038006115E1,-1.444302201E0,3.621230125E-1
6.297977610E-1,-1.042315674E1,-1.473032594E0,4.100070298E-1
6.322856250E-1,-1.049019432E1,-1.511339784E0,4.770447016E-1
6.347734900E-1,-1.051892471E1,-1.554435492E0,5.440823436E-1
6.372613550E-1,-1.054765606E1,-1.578377485E0,6.254851818E-1
6.397492190E-1,-1.057638645E1,-1.578377485E0,7.212532759E-1
6.422370840E-1,-1.059075165E1,-1.516128182E0,7.978677154E-1
6.447249480E-1,-1.056202126E1,-1.449090600E0,8.744821548E-1
6.472128130E-1,-1.052850151E1,-1.382052898E0,9.127894044E-1
6.497006780E-1,-1.051892471E1,-1.343745708E0,9.798270464E-1
6.521885420E-1,-1.050455952E1,-1.300650120E0,1.037287831E0
6.546764070E-1,-1.047582912E1,-1.271919608E0,1.094748735E0
6.571642710E-1,-1.040879154E1,-1.219247222E0,1.113902330E0
6.596521360E-1,-1.036569595E1,-1.147421122E0,1.089960337E0
6.621400000E-1,-1.031781197E1,-1.046864748E0,1.022922635E0
6.646278130E-1,-1.028908157E1,-9.175778031E-1,9.127894044E-1
6.671156250E-1,-1.029865837E1,-7.739257216E-1,7.691373229E-1
6.696034380E-1,-1.028908157E1,-6.302735806E-1,6.159083843E-1
6.720912500E-1,-1.024119759E1,-4.818331003E-1,4.531026781E-1
6.745790630E-1,-1.018852520E1,-3.621230125E-1,3.142389655E-1
6.770668750E-1,-1.010712242E1,-2.950853705E-1,1.993172914E-1
6.795546880E-1,-9.992200851E0,-2.376245260E-1,1.179144308E-1
6.820425000E-1,-9.915586472E0,-2.328361124E-1,5.566519126E-2
6.845303130E-1,-9.829395294E0,-2.663549483E-1,2.693476900E-2
6.870181250E-1,-9.728838921E0,-3.286041915E-1,1.735796221E-2
6.895059380E-1,-9.633070946E0,-3.908534348E-1,5.566519126E-2
6.919937500E-1,-9.522936821E0,-4.722562730E-1,1.179144308E-1
6.944815630E-1,-9.388861656E0,-5.440823436E-1,2.088941038E-1
6.969693750E-1,-9.273940086E0,-6.398503780E-1,3.046621680E-1
6.994571880E-1,-9.149441719E0,-7.451952696E-1,3.908534348E-1
7.019450000E-1,-9.024943352E0,-8.696937561E-1,4.722562730E-1
7.044328130E-1,-8.919598579E0,-1.042076349E0,5.536591411E-1
7.069206250E-1,-8.814253807E0,-1.224035621E0,6.733692288E-1
7.094084380E-1,-8.708909035E0,-1.396418095E0,7.835025191E-1
7.118962500E-1,-8.603564262E0,-1.535281897E0,9.032126069E-1
7.143840630E-1,-8.483853340E0,-1.654991984E0,1.008557439E0
7.168718750E-1,-8.402450562E0,-1.693299174E0,1.109113932E0
7.193596880E-1,-8.349778175E0,-1.678933978E0,1.200093627E0
7.218475000E-1,-8.297105789E0,-1.631049871E0,1.281496406E0
7.243353130E-1,-8.244433403E0,-1.564012289E0,1.358110905E0
7.268231250E-1,-8.196549416E0,-1.492186189E0,1.405994892E0
7.293109380E-1,-8.177395821E0,-1.444302201E0,1.434725404E0
7.317987500E-1,-8.201337814E0,-1.396418095E0,1.468244195E0
7.342865630E-1,-8.282740593E0,-1.343745708E0,1.482609391E0
7.367743750E-1,-8.416815758E0,-1.286284804E0,1.525704980E0
7.392621880E-1,-8.584410667E0,-1.214458823E0,1.554435492E0
7.417500000E-1,-8.732851028E0,-1.128267527E0,1.587954283E0
7.442378130E-1,-8.876502991E0,-9.941922426E-1,1.607107878E0
7.467256250E-1,-8.972270966E0,-8.361749649E-1,1.583165884E0
7.492134380E-1,-9.068038940E0,-6.685808301E-1,1.535281897E0
7.517012500E-1,-9.168595314E0,-5.345055461E-1,1.420360208E0
7.541890630E-1,-9.245209694E0,-4.147954583E-1,1.310226917E0
7.566768750E-1,-9.269151688E0,-3.238157928E-1,1.195305228E0
7.591646880E-1,-9.278728485E0,-2.759317458E-1,1.089960337E0
7.616525000E-1,-9.307458878E0,-2.472013235E-1,9.846154451E-1
7.641403130E-1,-9.345766068E0,-2.232593149E-1,8.744821548E-1
7.666281250E-1,-9.369708061E0,-2.376245260E-1,7.547720671E-1
7.691159380E-1,-9.412803650E0,-2.663549483E-1,6.446388364E-1
7.716037500E-1,-9.446322441E0,-2.902969420E-1,5.345055461E-1
7.740915630E-1,-9.503783226E0,-3.046621680E-1,4.387374520E-1
7.765793750E-1,-9.575610161E0,-3.333925903E-1,3.238157928E-1
7.790671880E-1,-9.642647743E0,-3.716998100E-1,2.088941038E-1
7.815550000E-1,-9.704896927E0,-4.435258508E-1,1.035492271E-1
7.840428130E-1,-9.791088104E0,-5.536591411E-1,-4.010287672E-2
7.865306250E-1,-9.891644478E0,-6.685808301E-1,-1.502361596E-1
7.890184380E-1,-9.973047256E0,-8.074445128E-1,-2.603694201E-1
7.915062500E-1,-1.008796883E1,-9.319429994E-1,-3.417722881E-1
7.939940630E-1,-1.019331360E1,-1.037287831E0,-4.040215313E-1
7.964818750E-1,-1.030344677E1,-1.128267527E0,-4.566939771E-1
7.989696880E-1,-1.038484955E1,-1.204882026E0,-4.231751561E-1
8.014575000E-1,-1.042794514E1,-1.267131209E0,-3.561375141E-1
8.039453130E-1,-1.049977112E1,-1.291073322E0,-2.507926226E-1
8.064331250E-1,-1.054286766E1,-1.295861721E0,-1.167173311E-1
8.089209380E-1,-1.060032845E1,-1.271919608E0,4.608838260E-2
8.114087500E-1,-1.066736603E1,-1.224035621E0,2.088941038E-1
8.138965630E-1,-1.074398041E1,-1.161786318E0,3.669114113E-1
8.163843750E-1,-1.082059479E1,-1.051653147E0,5.536591411E-1
8.188721880E-1,-1.085890198E1,-9.415197968E-1,7.356184721E-1
8.213600000E-1,-1.088763237E1,-8.744821548E-1,8.553285599E-1
8.238478130E-1,-1.089242077E1,-8.218097091E-1,9.127894044E-1
8.263356250E-1,-1.088284397E1,-7.930793166E-1,9.558850527E-1
8.288234380E-1,-1.084453678E1,-7.547720671E-1,9.654618502E-1
8.313112500E-1,-1.082538319E1,-7.212532759E-1,9.223662019E-1
8.337990630E-1,-1.083974838E1,-7.212532759E-1,9.510966539E-1
8.362868750E-1,-1.089242077E1,-7.356184721E-1,9.798270464E-1
8.387746880E-1,-1.094030476E1,-7.595604658E-1,1.003769040E0
8.412625000E-1,-1.092115116E1,-7.787141204E-1,1.013345838E0
8.437503130E-1,-1.083017159E1,-8.218097091E-1,9.941922426E-1
8.462381250E-1,-1.069130802E1,-8.505401611E-1,9.223662019E-1
8.487259380E-1,-1.051413631E1,-8.936358094E-1,8.361749649E-1
8.512137500E-1,-1.038484955E1,-9.032126069E-1,6.829460263E-1
8.537015630E-1,-1.019331360E1,-9.798270464E-1,4.818331003E-1
8.561893750E-1,-9.915586472E0,-1.056441545E0,4.818331003E-1
8.586771880E-1,-9.647436142E0,-1.085171938E0,5.057750940E-1
8.611650000E-1,-9.403226852E0,-1.152209520E0,5.249287486E-1
8.636528130E-1,-9.149441719E0,-1.238400817E0,5.488707423E-1
8.661406250E-1,-8.862137794E0,-1.310226917E0,5.919663906E-1
8.686284380E-1,-8.531737328E0,-1.348534107E0,6.542156339E-1
8.711162500E-1,-8.167819023E0,-1.377264500E0,7.595604658E-1
8.736040630E-1,-7.770381451E0,-1.382052898E0,8.601169586E-1
8.760918750E-1,-7.363367558E0,-1.377264500E0,9.846154451E-1
8.785796880E-1,-6.994660378E0,-1.377264500E0,1.147421122E0
8.810675000E-1,-6.649895191E0,-1.358110905E0,1.353322506E0
8.835553130E-1,-6.309918404E0,-1.310226917E0,1.621473074E0
8.860431250E-1,-5.955576897E0,-1.252766013E0,1.918354154E0
8.885309380E-1,-5.577292919E0,-1.142632723E0,2.234388828E0
8.910187500E-1,-5.246892929E0,-1.042076349E0,2.579153776E0
8.935065630E-1,-4.921281815E0,-9.510966539E-1,2.885611534E0
8.959943750E-1,-4.533421040E0,-8.696937561E-1,3.144185305E0
8.984821880E-1,-4.145560265E0,-7.691373229E-1,3.402759075E0
9.009700000E-1,-3.776853085E0,-6.350619793E-1,3.680486679E0
9.034578130E-1,-3.451241732E0,-4.578910768E-1,3.953425646E0
9.059456250E-1,-3.187879562E0,-2.663549483E-1,4.231153011E0
9.084334380E-1,-2.991554976E0,-5.566519126E-2,4.465784550E0
9.109212500E-1,-2.852691412E0,1.310825497E-1,4.609436989E0
9.134090630E-1,-2.680308819E0,3.561375141E-1,4.657320976E0
9.158968750E-1,-2.512714624E0,5.524620414E-1,4.647744179E0
9.183846880E-1,-2.330755472E0,7.104793787E-1,4.561553001E0
9.208725000E-1,-2.120065689E0,8.684966564E-1,4.398746967E0
9.233603130E-1,-1.942894697E0,9.882067442E-1,4.245518208E0
9.258481250E-1,-1.765723705E0,1.107916832E0,4.073135853E0
9.283359380E-1,-1.578976035E0,1.213261724E0,3.900753021E0
9.308237500E-1,-1.363497853E0,1.337760210E0,3.733159065E0
9.333115630E-1,-1.109712481E0,1.462258697E0,3.541622877E0
9.357993750E-1,-8.224082589E-1,1.577180386E0,3.330933094E0
9.382871880E-1,-5.446808934E-1,1.706467271E0,3.081936121E0
9.407750000E-1,-2.908954918E-1,1.811812162E0,2.813785553E0
9.432628130E-1,-7.541735470E-2,1.945887446E0,2.545634985E0
9.457506250E-1,8.738835901E-2,2.094327927E0,2.277484417E0
9.482384380E-1,2.214636505E-1,2.261922121E0,2.033275843E0
9.507262500E-1,3.363853395E-1,2.395997286E0,1.798644066E0
9.532140630E-1,4.273650050E-1,2.510919094E0,1.564012289E0
9.557018750E-1,5.087678432E-1,2.577956676E0,1.362899303E0
9.581896880E-1,5.470750928E-1,2.616263866E0,1.180940032E0
9.606775000E-1,5.470750928E-1,2.640205860E0,1.046864748E0
9.631653130E-1,4.848258495E-1,2.630629063E0,9.319429994E-1
9.656531250E-1,4.034229815E-1,2.630629063E0,8.505401611E-1
9.681409380E-1,3.124433160E-1,2.597110271E0,7.595604658E-1
9.706287500E-1,2.070984542E-1,2.520495892E0,6.398503780E-1
9.731165630E-1,7.781155407E-2,2.410362482E0,4.674678743E-1
9.756043750E-1,-4.189852998E-2,2.266710520E0,2.567781210E-1
9.780921880E-1,-1.568202078E-1,2.089539528E0,3.651157767E-2
9.805800000E-1,-2.956839204E-1,1.898003340E0,-2.460042238E-1
9.830678130E-1,-4.441244006E-1,1.672948480E0,-5.380968451E-1
9.855556250E-1,-6.500257850E-1,1.433528304E0,-8.493430614E-1
9.880434380E-1,-9.277531505E-1,1.194108129E0,-1.165377736E0
9.905312500E-1,-1.238999367E0,9.642647505E-1,-1.452681899E0
9.930190630E-1,-1.564610839E0,7.200561762E-1,-1.735197663E0
9.955068750E-1,-1.832761407E0,4.566939771E-1,-1.993771434E0
9.979946880E-1,-2.076969862E0,2.029085904E-1,-2.252345324E0
1.000482500E0,-2.254140854E0,-2.693476900E-2,-2.544437885E0
1.002970313E0,-2.421735048E0,-2.232593149E-1,-2.812588453E0
1.005458125E0,-2.574964046E0,-4.004302323E-1,-3.119046211E0
1.007946511E0,-2.709039211E0,-5.871779919E-1,-3.435081005E0
1.010434063E0,-2.843114614E0,-7.691373229E-1,-3.731961966E0
1.012921615E0,-3.005920172E0,-9.558850527E-1,-4.004900932E0
1.015409167E0,-3.187879562E0,-1.137844324E0,-4.210802078E0
1.017896719E0,-3.379415751E0,-1.377264500E0,-4.421492100E0
1.020384271E0,-3.618835926E0,-1.597531080E0,-4.569932461E0
1.022871875E0,-3.891774893E0,-1.865681648E0,-4.727949619E0
1.025359532E0,-4.246116638E0,-2.167351007E0,-4.895544052E0
1.027847240E0,-4.605247021E0,-2.526481390E0,-5.053561211E0
1.030335000E0,-4.969165802E0,-2.952649355E0,-5.211578369E0
1.032822813E0,-5.357026100E0,-3.364451885E0,-5.336077213E0
1.035310678E0,-5.725733280E0,-3.766677856E0,-5.474940777E0
1.037798594E0,-6.060921669E0,-4.121019840E0,-5.585073948E0
1.040286563E0,-6.396110058E0,-4.408323765E0,-5.690418720E0
1.042774532E0,-6.755239964E0,-4.614225388E0,-5.781398773E0
1.045262500E0,-7.138312340E0,-4.767454147E0,-5.848436356E0
1.047751146E0,-7.511807919E0,-4.863222122E0,-5.877166748E0
1.050239063E0,-7.832630634E0,-4.944624901E0,-5.853224754E0
1.052726875E0,-8.158242226E0,-5.002085686E0,-5.771821976E0
1.055214688E0,-8.488641739E0,-5.054758549E0,-5.647323132E0
1.057702500E0,-8.833407402E0,-5.093065739E0,-5.484517574E0
1.060190313E0,-9.159018517E0,-5.126584530E0,-5.288193226E0
1.062678073E0,-9.465476036E0,-5.155314922E0,-5.058349609E0
1.065165834E0,-9.757569313E0,-5.198410511E0,-4.833294868E0
1.067653594E0,-1.003050804E1,-5.246294498E0,-4.627393246E0
1.070141355E0,-1.028908157E1,-5.275024891E0,-4.469376087E0
1.072629115E0,-1.053328991E1,-5.298966885E0,-4.335300922E0
1.075116875E0,-1.072003841E1,-5.337274075E0,-4.249109268E0
1.077604636E0,-1.086369038E1,-5.346850872E0,-4.182071686E0
1.080092396E0,-1.094988155E1,-5.385158062E0,-4.143764496E0
1.082580157E0,-1.099776554E1,-5.404311657E0,-4.143764496E0
1.085067917E0,-1.101213074E1,-5.423465252E0,-4.129399300E0
1.087555678E0,-1.100734234E1,-5.428253651E0,-4.148552895E0
1.090043438E0,-1.097861195E1,-5.437830448E0,-4.162918091E0
1.092531198E0,-1.093551636E1,-5.476137638E0,-4.210802078E0
1.095018959E0,-1.091157436E1,-5.524022102E0,-4.234744072E0
1.097506719E0,-1.090678596E1,-5.552752495E0,-4.244320869E0
1.099994480E0,-1.089720917E1,-5.586271286E0,-4.201225281E0
1.102482240E0,-1.092115116E1,-5.605424881E0,-4.129399300E0
1.104970000E0,-1.094509315E1,-5.619790077E0,-4.062361717E0
1.107457761E0,-1.098340034E1,-5.634155273E0,-3.980958939E0
1.109945521E0,-1.094988155E1,-5.648520470E0,-3.913921118E0
1.112433282E0,-1.087326717E1,-5.667674065E0,-3.832518339E0
1.114921042E0,-1.080144119E1,-5.634155273E0,-3.784634352E0
1.117408803E0,-1.070567322E1,-5.576694489E0,-3.755903959E0
1.119896563E0,-1.063863564E1,-5.519233704E0,-3.712808371E0
1.122384323E0,-1.060032845E1,-5.428253651E0,-3.669712543E0
1.124872136E0,-1.059075165E1,-5.313332081E0,-3.640982151E0
1.127359948E0,-1.058117485E1,-5.198410511E0,-3.607463360E0
1.129847761E0,-1.060990524E1,-5.064335346E0,-3.569156170E0
1.132335573E0,-1.063863564E1,-4.949413300E0,-3.559579372E0
1.134823386E0,-1.072003841E1,-4.891952515E0,-3.526060581E0
1.137311198E0,-1.076792240E1,-4.839280128E0,-3.497330189E0
1.139799011E0,-1.082538319E1,-4.791396141E0,-3.478176594E0
1.142286823E0,-1.085890198E1,-4.777030945E0,-3.454234600E0
1.144774636E0,-1.088763237E1,-4.748300552E0,-3.468599796E0
1.147262448E0,-1.089242077E1,-4.719570160E0,-3.511695385E0
1.149750261E0,-1.090678596E1,-4.662109375E0,-3.550002575E0
1.152238073E0,-1.087326717E1,-4.628590584E0,-3.583521366E0
1.154725886E0,-1.079665279E1,-4.547187805E0,-3.617040157E0
1.157213698E0,-1.070088482E1,-4.475361347E0,-3.636193752E0
1.159701511E0,-1.056202126E1,-4.403535366E0,-3.669712543E0
1.162189323E0,-1.041357994E1,-4.293402195E0,-3.617040157E0
1.164677136E0,-1.027950478E1,-4.173692226E0,-3.502118587E0
1.167164948E0,-1.022204399E1,-4.058770657E0,-3.329735994E0
1.169652761E0,-1.020289040E1,-3.953425646E0,-3.085527420E0
1.172140573E0,-1.024598598E1,-3.843292236E0,-2.798223257E0
1.174628386E0,-1.027950478E1,-3.771466255E0,-2.486977100E0
1.177116198E0,-1.030823517E1,-3.670909643E0,-2.194884300E0
1.179604011E0,-1.032738876E1,-3.546411276E0,-1.941099048E0
1.182091823E0,-1.030823517E1,-3.436278105E0,-1.749562860E0
1.184579636E0,-1.028908157E1,-3.292625904E0,-1.567603588E0
1.187067448E0,-1.023640919E1,-3.134608507E0,-1.400009394E0
1.189555261E0,-1.019331360E1,-2.986168146E0,-1.256357312E0
1.192043073E0,-1.013585281E1,-2.847304344E0,-1.117493629E0
1.194530886E0,-1.004008484E1,-2.756324768E0,-9.594763517E-1
1.197018698E0,-9.949105263E0,-2.694075346E0,-8.014590144E-1
1.199506511E0,-9.824606895E0,-2.660556555E0,-6.961141229E-1
1.201994323E0,-9.690531731E0,-2.665344954E0,-6.530185342E-1
1.204482136E0,-9.551667213E0,-2.708440781E0,-6.530185342E-1
1.206969948E0,-9.446322441E0,-2.775478363E0,-6.769605279E-1
1.209457761E0,-9.374496460E0,-2.890399933E0,-7.631517649E-1
1.211945573E0,-9.340977669E0,-2.990956545E0,-8.637082577E-1
1.214433386E0,-9.340977669E0,-3.077147722E0,-9.451110959E-1
1.216921198E0,-9.326612473E0,-3.139396906E0,-1.026513934E0
1.219409011E0,-9.293093681E0,-3.148973703E0,-1.131858826E0
1.221896823E0,-9.264363289E0,-3.129820108E0,-1.203684926E0
1.224384636E0,-9.235632896E0,-3.057994127E0,-1.261145711E0
1.226872448E0,-9.226056099E0,-2.981379747E0,-1.299453020E0
1.229360261E0,-9.245209694E0,-2.914341927E0,-1.304241419E0
1.231848073E0,-9.278728485E0,-2.861669540E0,-1.280299306E0
1.234335886E0,-9.317035675E0,-2.813785553E0,-1.251568913E0
1.236823698E0,-9.364919662E0,-2.765901566E0,-1.222838521E0
1.239311511E0,-9.403226852E0,-2.737171173E0,-1.194108129E0
1.241799323E0,-9.441534042E0,-2.674921751E0,-1.213261724E0
1.244287136E0,-9.479841232E0,-2.612672567E0,-1.218050122E0
1.246774948E0,-9.508571625E0,-2.531269789E0,-1.232415318E0
1.249262761E0,-9.546878815E0,-2.459443808E0,-1.222838521E0
1.251750573E0,-9.556455612E0,-2.363675594E0,-1.222838521E0
1.254238386E0,-9.522936821E0,-2.296638012E0,-1.227626920E0
1.256726198E0,-9.489418030E0,-2.267907619E0,-1.218050122E0
1.259214011E0,-9.422380447E0,-2.325368404E0,-1.227626920E0
1.261701823E0,-9.350554466E0,-2.425924778E0,-1.227626920E0
1.264189636E0,-9.321824074E0,-2.574365377E0,-1.246780515E0
1.266677448E0,-9.273940086E0,-2.737171173E0,-1.265934110E0
1.269165261E0,-9.221267700E0,-2.904765129E0,-1.309029818E0
1.271653073E0,-9.211690903E0,-3.038840532E0,-1.347337008E0
1.274140886E0,-9.187748909E0,-3.125031710E0,-1.404797792E0
1.276628698E0,-9.182960510E0,-3.187281132E0,-1.471835494E0
1.279116511E0,-9.206902504E0,-3.254318714E0,-1.514931083E0
1.281604323E0,-9.240421295E0,-3.335721493E0,-1.562815189E0
1.284092136E0,-9.297882080E0,-3.455431700E0,-1.605910778E0
1.286579948E0,-9.369708061E0,-3.599083662E0,-1.653794765E0
1.289067761E0,-9.417592049E0,-3.761889458E0,-1.744774461E0
1.291555573E0,-9.431957245E0,-3.934272051E0,-1.864484549E0
1.294043386E0,-9.470264435E0,-4.063559055E0,-2.012925148E0
1.296531198E0,-9.484629631E0,-4.159327030E0,-2.166153908E0
1.299019011E0,-9.503783226E0,-4.178480625E0,-2.314594507E0
1.301506823E0,-9.522936821E0,-4.097077847E0,-2.424727678E0
1.303994636E0,-9.546878815E0,-3.958214045E0,-2.506130695E0
1.306482448E0,-9.556455612E0,-3.819350243E0,-2.582745075E0
1.308970261E0,-9.575610161E0,-3.699640274E0,-2.611475468E0
1.311458073E0,-9.623494148E0,-3.575141668E0,-2.601898670E0
1.313945886E0,-9.652224541E0,-3.508104086E0,-2.582745075E0
1.316433698E0,-9.652224541E0,-3.455431700E0,-2.554014683E0
1.318921511E0,-9.633070946E0,-3.407547474E0,-2.501342297E0
1.321409323E0,-9.599552155E0,-3.340509892E0,-2.439092875E0
1.323897136E0,-9.537302017E0,-3.244741917E0,-2.362478495E0
1.326384948E0,-9.451110840E0,-3.158550501E0,-2.252345324E0
1.328872761E0,-9.355342865E0,-3.053205729E0,-2.118269920E0
1.331360573E0,-9.249998093E0,-2.986168146E0,-1.993771434E0
1.333848386E0,-9.163806915E0,-2.957437754E0,-1.874061346E0
1.336336198E0,-9.068038940E0,-2.962226152E0,-1.768716455E0
1.338824011E0,-8.972270966E0,-3.024475336E0,-1.754351258E0
1.341311823E0,-8.919598579E0,-3.072359324E0,-1.792658567E0
1.343799636E0,-8.857349396E0,-3.153762102E0,-1.893214941E0
1.346287448E0,-8.780735016E0,-3.235165119E0,-2.003348351E0
1.348775261E0,-8.752004623E0,-3.302202702E0,-2.127846718E0
1.351263073E0,-8.761581421E0,-3.369240284E0,-2.261922121E0
1.353750886E0,-8.833407402E0,-3.417124271E0,-2.386420488E0
1.356238698E0,-8.943540573E0,-3.488950491E0,-2.477400303E0
1.358726511E0,-9.044096947E0,-3.579930067E0,-2.577956676E0
1.361214323E0,-9.115922928E0,-3.661332846E0,-2.668936253E0
1.363702136E0,-9.163806915E0,-3.742735863E0,-2.807800055E0
1.366189948E0,-9.154230118E0,-3.776254654E0,-2.956240654E0
1.368677761E0,-9.115922928E0,-3.776254654E0,-3.085527420E0
1.371165573E0,-9.053673744E0,-3.728370667E0,-3.195660830E0
1.373653386E0,-9.068038940E0,-3.642179251E0,-3.267486811E0
1.376141198E0,-9.154230118E0,-3.512892485E0,-3.296217203E0
1.378629011E0,-9.254786491E0,-3.354875088E0,-3.272275209E0
1.381116823E0,-9.379284859E0,-3.244741917E0,-3.219602823E0
1.383604636E0,-9.446322441E0,-3.144185305E0,-3.190872431E0
1.386092448E0,-9.479841232E0,-3.048417330E0,-3.171718597E0
1.388580261E0,-9.479841232E0,-2.967014551E0,-3.195660830E0
1.391068073E0,-9.451110840E0,-2.890399933E0,-3.200449228E0
1.393555886E0,-9.360131264E0,-2.780266762E0,-3.243544817E0
1.396043698E0,-9.259574890E0,-2.670133352E0,-3.277063608E0
1.398531511E0,-9.178172112E0,-2.521692991E0,-3.315370798E0
1.401019323E0,-9.091980934E0,-2.411559582E0,-3.324947596E0
1.403507136E0,-9.039308548E0,-2.315791607E0,-3.281852007E0
1.405994948E0,-9.058462143E0,-2.263119221E0,-3.200449228E0
1.408482761E0,-9.039308548E0,-2.253542423E0,-3.080739021E0
1.410970573E0,-9.024943352E0,-2.287061214E0,-2.956240654E0
1.413458386E0,-8.996212959E0,-2.339733601E0,-2.822165251E0
1.415946198E0,-8.933963776E0,-2.392405987E0,-2.731185675E0
1.418434011E0,-8.862137794E0,-2.406771183E0,-2.649782658E0
1.420921823E0,-8.742427826E0,-2.401982784E0,-2.592321873E0
1.423409636E0,-8.589199066E0,-2.430713177E0,-2.563591480E0
1.425897448E0,-8.388085365E0,-2.411559582E0,-2.534861088E0
1.428385261E0,-8.196549416E0,-2.416347980E0,-2.501342297E0
1.430873073E0,-7.966706276E0,-2.416347980E0,-2.424727678E0
1.433360886E0,-7.756016254E0,-2.421136379E0,-2.319382906E0
1.435848698E0,-7.526173115E0,-2.430713177E0,-2.223614931E0
1.438336511E0,-7.258022308E0,-2.430713177E0,-2.084751129E0
1.440824323E0,-6.985083580E0,-2.416347980E0,-1.974617839E0
1.443312136E0,-6.716932774E0,-2.387617588E0,-1.845330954E0
1.445799948E0,-6.434417248E0,-2.330156803E0,-1.744774461E0
1.448287761E0,-6.151901245E0,-2.263119221E0,-1.610699177E0
1.450775573E0,-5.888539314E0,-2.172139406E0,-1.500565886E0
1.453263386E0,-5.653907299E0,-2.085948229E0,-1.419163108E0
1.455751198E0,-5.443217754E0,-1.994968534E0,-1.361702204E0
1.458239011E0,-5.213374138E0,-1.932719350E0,-1.289876223E0
1.460726823E0,-4.993107796E0,-1.870470047E0,-1.222838521E0
1.463214636E0,-4.777629375E0,-1.813009262E0,-1.151012421E0
1.465702448E0,-4.605247021E0,-1.760336757E0,-1.107916832E0
1.468190261E0,-4.475960255E0,-1.741183162E0,-1.050456047E0
1.470678073E0,-4.423287868E0,-1.731606364E0,-9.929951429E-1
1.473165886E0,-4.408922195E0,-1.760336757E0,-9.355342984E-1
1.475653698E0,-4.442441463E0,-1.803432465E0,-8.876502514E-1
1.478141511E0,-4.480748653E0,-1.856104851E0,-8.589198589E-1
1.480629323E0,-4.576516628E0,-1.899200439E0,-8.780734539E-1
1.483117136E0,-4.696226597E0,-1.908777356E0,-9.211691022E-1
1.485604948E0,-4.815936565E0,-1.927930951E0,-9.977835417E-1
1.488092761E0,-4.978742599E0,-1.918354154E0,-1.079186440E0
1.490580573E0,-5.122394562E0,-1.889623642E0,-1.189319730E0
1.493068386E0,-5.208585739E0,-1.875258446E0,-1.275510907E0
1.495556198E0,-5.266046524E0,-1.808220863E0,-1.380855799E0
1.498044011E0,-5.294776917E0,-1.745971560E0,-1.457470298E0
1.500531823E0,-5.313930511E0,-1.654991984E0,-1.524507880E0
1.503019636E0,-5.294776917E0,-1.583165884E0,-1.591545582E0
1.505507448E0,-5.275623322E0,-1.511339784E0,-1.668160081E0
1.507995261E0,-5.280411720E0,-1.449090600E0,-1.739986062E0
1.510483073E0,-5.256469727E0,-1.415571809E0,-1.811812162E0
1.512970886E0,-5.203797340E0,-1.367687702E0,-1.893214941E0
1.515458698E0,-5.112817764E0,-1.343745708E0,-1.960252643E0
1.517946511E0,-5.036203384E0,-1.319803715E0,-2.032078743E0
1.520434323E0,-4.926070213E0,-1.310226917E0,-2.118269920E0
1.522922136E0,-4.825513363E0,-1.319803715E0,-2.180519104E0
1.525409948E0,-4.748898983E0,-1.362899303E0,-2.185307503E0
1.527897761E0,-4.710591793E0,-1.396418095E0,-2.199672699E0
1.530385573E0,-4.710591793E0,-1.458667397E0,-2.170942307E0
1.532873386E0,-4.734533787E0,-1.544858694E0,-2.118269920E0
1.535361198E0,-4.791994572E0,-1.573589087E0,-2.032078743E0
1.537849011E0,-4.835090160E0,-1.592742682E0,-1.917157054E0
1.540336823E0,-4.902127743E0,-1.583165884E0,-1.807023764E0
1.542824636E0,-4.940435410E0,-1.554435492E0,-1.682525277E0
1.545312448E0,-4.954800606E0,-1.530493379E0,-1.605910778E0
1.547800261E0,-5.002684593E0,-1.477820992E0,-1.538873196E0
1.550288073E0,-5.088875771E0,-1.463455796E0,-1.486200690E0
1.552775886E0,-5.237316132E0,-1.458667397E0,-1.443105102E0
1.555263698E0,-5.414487362E0,-1.506551385E0,-1.414374709E0
1.557751511E0,-5.615600109E0,-1.549647093E0,-1.361702204E0
1.560239323E0,-5.773617268E0,-1.621473074E0,-1.275510907E0
1.562727136E0,-5.922058105E0,-1.678933978E0,-1.194108129E0
1.565214948E0,-6.022614479E0,-1.702875972E0,-1.131858826E0
1.567702761E0,-6.070498466E0,-1.702875972E0,-1.079186440E0
1.570190573E0,-6.065710068E0,-1.678933978E0,-1.064821243E0
1.572678386E0,-6.017826080E0,-1.631049871E0,-1.069609642E0
1.575166198E0,-5.941211700E0,-1.544858694E0,-1.107916832E0
1.577654011E0,-5.840654850E0,-1.496974587E0,-1.174954534E0
1.580141823E0,-5.764040470E0,-1.468244195E0,-1.265934110E0
1.582629636E0,-5.716156483E0,-1.449090600E0,-1.342548609E0
1.585117448E0,-5.668272495E0,-1.487397790E0,-1.414374709E0
1.587605261E0,-5.629965305E0,-1.530493379E0,-1.510142684E0
1.590093073E0,-5.601234913E0,-1.587954283E0,-1.620275974E0
1.592580886E0,-5.577292919E0,-1.635838270E0,-1.768716455E0
1.595068698E0,-5.558139324E0,-1.707664371E0,-1.936310649E0
1.597556511E0,-5.562927723E0,-1.765125155E0,-2.099116325E0
1.600044323E0,-5.591658115E0,-1.836951256E0,-2.290652514E0
1.602532136E0,-5.668272495E0,-1.894412041E0,-2.467823505E0
1.605019948E0,-5.840654850E0,-1.932719350E0,-2.673724651E0
1.607507761E0,-6.070498466E0,-1.942296147E0,-2.836530447E0
1.609995573E0,-6.329071999E0,-1.942296147E0,-2.956240654E0
1.612483386E0,-6.568492413E0,-1.903988957E0,-3.013701439E0
1.614971198E0,-6.755239964E0,-1.841739655E0,-3.052008629E0
1.617459011E0,-6.898892403E0,-1.741183162E0,-3.052008629E0
1.619946823E0,-7.032967567E0,-1.616684675E0,-3.037643433E0
1.622434636E0,-7.167042732E0,-1.473032594E0,-3.028066635E0
1.624922448E0,-7.286752701E0,-1.362899303E0,-3.013701439E0
1.627410261E0,-7.396886349E0,-1.247977614E0,-2.965817451E0
1.629898073E0,-7.526173115E0,-1.152209520E0,-2.879626036E0
1.632385886E0,-7.645883083E0,-1.066018343E0,-2.721608877E0
1.634873698E0,-7.779958248E0,-1.008557439E0,-2.510919094E0
1.637361511E0,-7.904457092E0,-9.558850527E-1,-2.252345324E0
1.639849323E0,-8.005013466E0,-8.888474107E-1,-1.955464244E0
1.642337136E0,-8.105569839E0,-8.074445128E-1,-1.649006367E0
1.644824948E0,-8.158242226E0,-7.164648771E-1,-1.323395014E0
1.647312761E0,-8.167819023E0,-6.111199856E-1,-1.012148738E0
1.649800573E0,-8.105569839E0,-4.866214991E-1,-7.200561762E-1
1.652288386E0,-8.019378662E0,-3.621230125E-1,-4.519055784E-1
1.654776198E0,-7.914033890E0,-2.136825025E-1,-2.460042238E-1
1.657264011E0,-7.765593052E0,-7.960720360E-2,-8.319851011E-2
1.659751823E0,-7.631517887E0,2.094926499E-2,8.439560980E-2
1.662239636E0,-7.468712330E0,5.925649032E-2,2.041056901E-1
1.664727448E0,-7.305906296E0,4.489128292E-2,2.950853705E-1
1.667215261E0,-7.119158745E0,-2.214636654E-2,3.716998100E-1
1.669703073E0,-6.941987991E0,-1.274912357E-1,3.860650361E-1
1.672190886E0,-6.793547153E0,-2.519897223E-1,3.573346138E-1
1.674678698E0,-6.692990780E0,-3.908534348E-1,3.046621680E-1
1.677166511E0,-6.649895191E0,-5.680243373E-1,1.993172914E-1
1.679654323E0,-6.640318394E0,-8.074445128E-1,6.524199992E-2
1.682142136E0,-6.673837185E0,-1.089960337E0,-1.406593472E-1
1.684629948E0,-6.736086369E0,-1.396418095E0,-3.321954906E-1
1.687117761E0,-6.812700748E0,-1.722029567E0,-4.997895956E-1
1.689605573E0,-6.855796337E0,-1.971026540E0,-6.290764809E-1
1.692093386E0,-6.894104004E0,-2.157774210E0,-7.152677774E-1
1.694581198E0,-6.941987991E0,-2.277484417E0,-7.918822169E-1
1.697069011E0,-7.047332764E0,-2.334945202E0,-8.014590144E-1
1.699556823E0,-7.214926720E0,-2.339733601E0,-7.966706157E-1
1.702044636E0,-7.435193539E0,-2.334945202E0,-7.870938182E-1
1.704532448E0,-7.679401875E0,-2.306214809E0,-7.679402232E-1
1.707020261E0,-7.976283073E0,-2.301426411E0,-7.056909800E-1
1.709508073E0,-8.287528992E0,-2.277484417E0,-6.290764809E-1
1.711995886E0,-8.565256119E0,-2.263119221E0,-5.189431906E-1
1.714483698E0,-8.795100212E0,-2.220023632E0,-3.992331326E-1
1.716971511E0,-8.967482567E0,-2.167351007E0,-2.699462473E-1
1.719459323E0,-9.077615738E0,-2.076371431E0,-1.262941360E-1
1.721947136E0,-9.096769333E0,-1.942296147E0,-2.573766746E-2
1.724434948E0,-9.087192535E0,-1.789067268E0,1.735796221E-2
1.726922761E0,-9.020154953E0,-1.602319479E0,5.566519126E-2
1.729410573E0,-8.933963776E0,-1.358110905E0,7.003039867E-2
1.731898386E0,-8.804677010E0,-1.089960337E0,5.087678507E-2
1.734386198E0,-8.646659851E0,-8.074445128E-1,-1.795651275E-3
1.736874011E0,-8.455122948E0,-5.345055461E-1,-8.319851011E-2
1.739361823E0,-8.215703011E0,-2.519897223E-1,-2.029085904E-1
1.741849636E0,-7.976283073E0,1.616086066E-2,-3.561375141E-1
1.744337448E0,-7.789535046E0,2.555810213E-1,-5.141547918E-1
1.746825261E0,-7.736862659E0,4.566939771E-1,-6.865373254E-1
1.749313073E0,-7.894880295E0,4.997895956E-1,-8.445546627E-1
1.751800886E0,-8.254010201E0,3.226186931E-1,-9.977835417E-1
1.754288698E0,-8.718485832E0,-5.566519126E-2,-1.165377736E0
1.756776511E0,-9.111134529E0,-5.584475398E-1,-1.256357312E0
1.759264323E0,-9.417592049E0,-1.022922635E0,-1.304241419E0
1.761752136E0,-9.637859344E0,-1.348534107E0,-1.299453020E0
1.764239948E0,-9.738415718E0,-1.554435492E0,-1.304241419E0
1.766727761E0,-9.786299706E0,-1.578377485E0,-1.285087705E0
1.769215573E0,-9.815030098E0,-1.501762986E0,-1.285087705E0
1.771703386E0,-9.843760490E0,-1.334168911E0,-1.342548609E0
1.774191198E0,-9.910798073E0,-1.142632723E0,-1.476623893E0
1.776679011E0,-9.996989250E0,-9.702502489E-1,-1.625064373E0
1.779166823E0,-1.015500641E1,-7.930793166E-1,-1.778293371E0
1.781654636E0,-1.033217716E1,-6.590040326E-1,-1.888426542E0
1.784142448E0,-1.053807831E1,-5.871779919E-1,-1.965041041E0
1.786630261E0,-1.073440361E1,-5.392939448E-1,-1.998559833E0
1.789118073E0,-1.089720917E1,-5.153518915E-1,-2.008136749E0
1.791605886E0,-1.101213074E1,-5.009866953E-1,-1.993771434E0
1.794093698E0,-1.100734234E1,-4.722562730E-1,-1.979406238E0
1.796581511E0,-1.092593956E1,-4.195838571E-1,-1.969829440E0
1.799069323E0,-1.077271080E1,-3.333925903E-1,-1.965041041E0
1.801557136E0,-1.051413631E1,-2.184709013E-1,-1.979406238E0
1.804044948E0,-1.021246719E1,-8.918401599E-2,-1.993771434E0
1.806532761E0,-9.867702484E0,5.925649032E-2,-2.012925148E0
1.809020573E0,-9.508571625E0,2.268506140E-1,-2.017713547E0
1.811508386E0,-9.202114105E0,3.896563351E-1,-1.993771434E0
1.813996198E0,-8.866926193E0,4.997895956E-1,-1.950675845E0
1.816484011E0,-8.613141060E0,5.764040351E-1,-1.874061346E0
1.818971823E0,-8.493430138E0,5.524620414E-1,-1.802235365E0
1.821459636E0,-8.555679321E0,3.992331326E-1,-1.716044068E0
1.823947448E0,-8.780735016E0,2.094926499E-2,-1.572391987E0
1.826435261E0,-9.111134529E0,-5.776011348E-1,-1.376067400E0
1.828923073E0,-9.479841232E0,-1.281496406E0,-1.122282028E0
1.831410886E0,-9.776722908E0,-1.923142552E0,-8.876502514E-1
1.833898698E0,-9.958682060E0,-2.411559582E0,-6.961141229E-1
1.836386511E0,-1.004966164E1,-2.718017578E0,-5.093663931E-1
1.838874323E0,-1.010712242E1,-2.866457939E0,-4.614823759E-1
1.841362136E0,-1.013585281E1,-2.904765129E0,-4.902127981E-1
1.843849948E0,-1.023162079E1,-2.842515945E0,-5.572504401E-1
1.846337761E0,-1.037527275E1,-2.698863983E0,-6.625953317E-1
1.848825573E0,-1.057159805E1,-2.488174200E0,-7.679402232E-1
1.851313386E0,-1.081101799E1,-2.291849613E0,-8.493430614E-1
1.853801198E0,-1.108874512E1,-2.119467020E0,-9.355342984E-1
1.856289011E0,-1.137604904E1,-1.942296147E0,-9.977835417E-1
1.858776823E0,-1.162983513E1,-1.779490471E0,-1.045667648E0
1.861264636E0,-1.188840866E1,-1.592742682E0,-1.069609642E0
1.863752448E0,-1.207036781E1,-1.382052898E0,-1.098340034E0
1.866240261E0,-1.219486618E1,-1.161786318E0,-1.088763237E0
1.868728073E0,-1.225711536E1,-9.367313981E-1,-1.093551636E0
1.871215886E0,-1.221401978E1,-6.973112226E-1,-1.093551636E0
1.873703698E0,-1.208952141E1,-4.866214991E-1,-1.117493629E0
1.876191511E0,-1.189319706E1,-2.711433470E-1,-1.136647224E0
1.878679323E0,-1.164898872E1,-9.876082093E-2,-1.141435623E0
1.881167136E0,-1.138083744E1,3.531447425E-2,-1.170166135E0
1.883654948E0,-1.112226391E1,1.262941360E-1,-1.141435623E0
1.886142761E0,-1.085890198E1,1.789665818E-1,-1.122282028E0
1.888630573E0,-1.059554005E1,1.981201917E-1,-1.050456047E0
1.891118386E0,-1.035133076E1,2.364274114E-1,-9.498994946E-1
1.893606198E0,-1.018852520E1,2.172738016E-1,-8.397662640E-1
1.896094011E0,-1.012148762E1,1.071405262E-1,-6.913257241E-1
1.898581823E0,-1.014542961E1,-1.274912357E-1,-5.428852439E-1
1.901069636E0,-1.026513958E1,-4.818331003E-1,-3.561375141E-1
1.903557396E0,-1.043273354E1,-9.080010056E-1,-1.981201917E-1
1.906045157E0,-1.058117485E1,-1.382052898E0,-4.010287672E-2
1.908532917E0,-1.066736603E1,-1.803432465E0,4.129998013E-2
1.911020678E0,-1.066257763E1,-2.148197412E0,5.566519126E-2
1.913508438E0,-1.060032845E1,-2.416347980E0,-1.795651275E-3
1.915996198E0,-1.050455952E1,-2.607884169E0,-7.362170517E-2
1.918483959E0,-1.040400314E1,-2.751536369E0,-1.933317930E-1
1.920971719E0,-1.031302357E1,-2.842515945E0,-3.274070919E-1
1.923459480E0,-1.025077438E1,-2.904765129E0,-4.231751561E-1
1.925947240E0,-1.020767879E1,-2.947860956E0,-5.524620414E-1
1.928435000E0,-1.020767879E1,-2.976591349E0,-6.434416771E-1
1.930922761E0,-1.026513958E1,-3.005321741E0,-7.344213724E-1
1.933410521E0,-1.033696556E1,-3.024475336E0,-8.254010081E-1
1.935898282E0,-1.040400314E1,-2.986168146E0,-8.972271085E-1
1.938386042E0,-1.046625233E1,-2.914341927E0,-9.929951429E-1
1.940873803E0,-1.054286766E1,-2.828150749E0,-1.060032845E0
1.943361563E0,-1.062427044E1,-2.694075346E0,-1.107916832E0
1.945849323E0,-1.073919201E1,-2.483385801E0,-1.122282028E0
1.948337084E0,-1.092593956E1,-2.224812031E0,-1.093551636E0
1.950824844E0,-1.111747551E1,-1.908777356E0,-1.060032845E0
1.953312605E0,-1.133295345E1,-1.583165884E0,-1.055244446E0
1.955800365E0,-1.149575901E1,-1.262342811E0,-1.098340034E0
1.958288125E0,-1.160589314E1,-9.989806414E-1,-1.165377736E0
1.960775886E0,-1.166814232E1,-7.451952696E-1,-1.251568913E0
1.963263646E0,-1.171602631E1,-5.249287486E-1,-1.356913805E0
1.965751407E0,-1.175433350E1,-3.238157928E-1,-1.433528304E0
1.968239167E0,-1.176391029E1,-1.083376259E-1,-1.524507880E0
1.970726928E0,-1.178785229E1,9.277531505E-2,-1.601122379E0
1.973214740E0,-1.180221748E1,2.699462473E-1,-1.658583283E0
1.975702553E0,-1.185010147E1,3.944447339E-1,-1.706467271E0
1.978190365E0,-1.192192745E1,4.040215313E-1,-1.701678872E0
1.980678178E0,-1.202248383E1,3.274070919E-1,-1.629852772E0
1.983165990E0,-1.215177059E1,1.693897694E-1,-1.490989089E0
1.985653803E0,-1.229063416E1,-5.087678507E-2,-1.294664621E0
1.988141615E0,-1.243907452E1,-3.190273643E-1,-1.064821243E0
1.990629428E0,-1.253484344E1,-6.015431881E-1,-8.493430614E-1
1.993117240E0,-1.255878544E1,-9.032126069E-1,-7.104793787E-1
1.995605053E0,-1.249653530E1,-1.176151633E0,-6.721721292E-1
1.998092865E0,-1.237203693E1,-1.377264500E0,-7.009025216E-1
2.000580678E0,-1.219486618E1,-1.535281897E0,-7.870938182E-1
2.003068490E0,-1.204163742E1,-1.674145579E0,-8.876502514E-1
2.005556303E0,-1.191713905E1,-1.789067268E0,-9.738415480E-1
2.008044115E0,-1.180221748E1,-1.889623642E0,-1.012148738E0
2.010531928E0,-1.171602631E1,-1.971026540E0,-1.021725535E0
2.013019740E0,-1.164420033E1,-2.038064241E0,-1.012148738E0
2.015507553E0,-1.161546993E1,-2.076371431E0,-9.738415480E-1
2.017995365E0,-1.162983513E1,-2.124255419E0,-9.307458997E-1
2.020483178E0,-1.162504673E1,-2.090736628E0,-8.110358119E-1
2.022970990E0,-1.163941193E1,-2.038064241E0,-6.434416771E-1
2.025458803E0,-1.163941193E1,-1.971026540E0,-4.854243994E-1
2.027946615E0,-1.164420033E1,-1.894412041E0,-3.369838893E-1
2.030434428E0,-1.162025833E1,-1.803432465E0,-1.789665818E-1
2.032922240E0,-1.156279755E1,-1.712452769E0,-3.531447425E-2
2.035410053E0,-1.147181702E1,-1.640626669E0,7.003039867E-2
2.037897865E0,-1.138562584E1,-1.544858694E0,1.274912357E-1
2.040385678E0,-1.130901146E1,-1.429937005E0,1.705868691E-1
2.042873490E0,-1.120845509E1,-1.305438519E0,2.232593149E-1
2.045361303E0,-1.108395672E1,-1.180940032E0,2.807201445E-1
2.047849115E0,-1.096903515E1,-1.027711034E0,3.381809890E-1
2.050336928E0,-1.083017159E1,-8.744821548E-1,4.052186310E-1
2.052824740E0,-1.070088482E1,-7.116764784E-1,4.818331003E-1
2.055312553E0,-1.056680965E1,-5.488707423E-1,5.728127360E-1
2.057800365E0,-1.041357994E1,-4.387374520E-1,6.350619793E-1
2.060288178E0,-1.028908157E1,-3.477577865E-1,6.781576276E-1
2.062775990E0,-1.017416000E1,-3.190273643E-1,7.116764784E-1
2.065263803E0,-1.012627602E1,-3.381809890E-1,7.308300734E-1
2.067752292E0,-1.018852520E1,-4.147954583E-1,7.499836683E-1
2.070240417E0,-1.037527275E1,-6.015431881E-1,7.547720671E-1
2.072728230E0,-1.069130802E1,-8.888474107E-1,7.547720671E-1
2.075216042E0,-1.104564953E1,-1.291073322E0,7.451952696E-1
2.077703855E0,-1.138083744E1,-1.722029567E0,7.499836683E-1
2.080191667E0,-1.162504673E1,-2.152985811E0,6.685808301E-1
2.082679480E0,-1.172081470E1,-2.488174200E0,4.961982965E-1
2.085167240E0,-1.168250751E1,-2.694075346E0,2.328361124E-1
2.087655000E0,-1.154843235E1,-2.823362350E0,-1.358709484E-1
2.090142761E0,-1.143350983E1,-2.895188332E0,-5.524620414E-1
2.092630521E0,-1.135210705E1,-2.919130325E0,-9.642647505E-1
2.095118282E0,-1.129464626E1,-2.866457939E0,-1.304241419E0
2.097606042E0,-1.124676228E1,-2.751536369E0,-1.586757183E0
2.100093803E0,-1.122760868E1,-2.583942175E0,-1.797446966E0
2.102581563E0,-1.125155067E1,-2.358887196E0,-1.965041041E0
2.105069323E0,-1.130422306E1,-2.133832216E0,-2.065597534E0
2.107557084E0,-1.137126064E1,-1.927930951E0,-2.132635117E0
2.110044844E0,-1.148618221E1,-1.745971560E0,-2.147000313E0
2.112532605E0,-1.155800915E1,-1.578377485E0,-2.161365509E0
2.115020365E0,-1.162504673E1,-1.453878999E0,-2.156577110E0
2.117508125E0,-1.167771912E1,-1.377264500E0,-2.175730705E0
2.119995886E0,-1.167771912E1,-1.319803715E0,-2.175730705E0
2.122483646E0,-1.159631634E1,-1.276708007E0,-2.156577110E0
2.124971407E0,-1.151012421E1,-1.238400817E0,-2.156577110E0
2.127459167E0,-1.138562584E1,-1.224035621E0,-2.151788712E0
2.129946928E0,-1.122282028E1,-1.204882026E0,-2.118269920E0
2.132434688E0,-1.106959152E1,-1.185728431E0,-2.108693123E0
2.134922448E0,-1.089720917E1,-1.161786318E0,-2.103904724E0
2.137410209E0,-1.073440361E1,-1.137844324E0,-2.051232338E0
2.139897969E0,-1.055244446E1,-1.123479128E0,-1.988983035E0
2.142385730E0,-1.039442635E1,-1.142632723E0,-1.898003340E0
2.144873490E0,-1.018852520E1,-1.209670424E0,-1.811812162E0
2.147361250E0,-9.996989250E0,-1.267131209E0,-1.663371682E0
2.149849011E0,-9.815030098E0,-1.329380512E0,-1.500565886E0
2.152336771E0,-9.657012939E0,-1.410783410E0,-1.285087705E0
2.154824584E0,-9.527725220E0,-1.496974587E0,-1.045667648E0
2.157312396E0,-9.436745644E0,-1.621473074E0,-7.918822169E-1
2.159800209E0,-9.398438454E0,-1.755548358E0,-4.997895956E-1
2.162288021E0,-9.408015251E0,-1.918354154E0,-2.029085904E-1
2.164775834E0,-9.465476036E0,-2.090736628E0,1.227028370E-1
2.167263646E0,-9.575610161E0,-2.272696018E0,4.483142793E-1
2.169751459E0,-9.680954933E0,-2.421136379E0,7.787141204E-1
2.172239271E0,-9.771934509E0,-2.540846586E0,1.080383539E0
2.174727084E0,-9.858125687E0,-2.612672567E0,1.343745708E0
2.177214896E0,-9.910798073E0,-2.646191359E0,1.540070295E0
2.179702709E0,-9.968258858E0,-2.593518972E0,1.669357181E0
2.182190521E0,-1.001614285E1,-2.531269789E0,1.674145579E0
2.184678334E0,-1.009275723E1,-2.430713177E0,1.635838270E0
2.187166146E0,-1.017894840E1,-2.291849613E0,1.564012289E0
2.189653959E0,-1.028908157E1,-2.133832216E0,1.410783410E0
2.192141771E0,-1.042315674E1,-1.985391736E0,1.228824019E0
2.194629584E0,-1.057638645E1,-1.856104851E0,1.003769040E0
2.197117396E0,-1.070567322E1,-1.698087573E0,7.739257216E-1
2.199605209E0,-1.084932518E1,-1.578377485E0,5.201402903E-1
2.202093021E0,-1.099297714E1,-1.477820992E0,2.711433470E-1
2.204580834E0,-1.112226391E1,-1.358110905E0,1.256955881E-2
2.207068646E0,-1.128506947E1,-1.257554412E0,-2.124854028E-1
2.209556459E0,-1.143350983E1,-1.166574836E0,-4.135983288E-1
2.212044271E0,-1.159152794E1,-1.056441545E0,-5.859808922E-1
2.214532084E0,-1.173996830E1,-9.319429994E-1,-7.296329737E-1
2.217019896E0,-1.183094788E1,-8.122329116E-1,-8.397662640E-1
2.219507709E0,-1.188840866E1,-7.116764784E-1,-9.163807034E-1
2.221995521E0,-1.188840866E1,-6.398503780E-1,-9.690531492E-1
2.224483334E0,-1.181179428E1,-5.680243373E-1,-9.929951429E-1
2.226971146E0,-1.173996830E1,-5.009866953E-1,-9.977835417E-1
2.229458959E0,-1.163462353E1,-4.531026781E-1,-9.690531492E-1
2.231946771E0,-1.146224022E1,-4.435258508E-1,-9.355342984E-1
2.234434584E0,-1.126112747E1,-4.483142793E-1,-8.876502514E-1
2.236922396E0,-1.104086113E1,-4.770447016E-1,-8.158242106E-1
2.239410209E0,-1.079186440E1,-5.345055461E-1,-7.200561762E-1
2.241898021E0,-1.052371311E1,-6.015431881E-1,-5.907692909E-1
2.244385834E0,-1.030344677E1,-6.973112226E-1,-4.327519536E-1
2.246873646E0,-1.014064121E1,-8.218097091E-1,-2.555810213E-1
2.249361459E0,-9.963470459E0,-9.558850527E-1,-7.362170517E-2
2.251849271E0,-9.824606895E0,-1.113902330E0,1.514332592E-1
2.254337084E0,-9.700108528E0,-1.286284804E0,4.195838571E-1
2.256824896E0,-9.618705750E0,-1.468244195E0,6.637924314E-1
2.259312709E0,-9.570821762E0,-1.674145579E0,9.080010056E-1
2.261800521E0,-9.556455612E0,-1.880046844E0,1.185728431E0
2.264288334E0,-9.575610161E0,-2.085948229E0,1.415571809E0
2.266776146E0,-9.628282547E0,-2.296638012E0,1.688510776E0
2.269263959E0,-9.743204117E0,-2.430713177E0,1.899200439E0
2.271751771E0,-9.819818497E0,-2.516904593E0,2.071583033E0
2.274239584E0,-9.886856079E0,-2.512116194E0,2.196081400E0
2.276727396E0,-9.963470459E0,-2.449866772E0,2.258330822E0
2.279215209E0,-1.003050804E1,-2.315791607E0,2.282272816E0
2.281703021E0,-1.012627602E1,-2.162562609E0,2.210446835E0
2.284190834E0,-1.024598598E1,-2.004545450E0,2.129043818E0
2.286678646E0,-1.036090755E1,-1.832162857E0,1.980603337E0
2.289166459E0,-1.048540592E1,-1.688510776E0,1.827374458E0
2.291654271E0,-1.061469364E1,-1.535281897E0,1.659780383E0
2.294142084E0,-1.074398041E1,-1.391629696E0,1.501762986E0
2.296629896E0,-1.088284397E1,-1.281496406E0,1.367687702E0
2.299117709E0,-1.101213074E1,-1.185728431E0,1.257554412E0
2.301605521E0,-1.116057110E1,-1.066018343E0,1.137844324E0
2.304093334E0,-1.137126064E1,-9.319429994E-1,9.846154451E-1
2.306581146E0,-1.161068153E1,-7.691373229E-1,8.457517624E-1
2.309068959E0,-1.181179428E1,-5.967547894E-1,7.643488646E-1
2.311556771E0,-1.191235065E1,-4.483142793E-1,6.159083843E-1
2.314044584E0,-1.196502304E1,-3.333925903E-1,4.818331003E-1
2.316532396E0,-1.192192745E1,-2.998737693E-1,3.429693878E-1
2.319020209E0,-1.182615948E1,-2.855085433E-1,2.232593149E-1
2.321508021E0,-1.169208431E1,-3.142389655E-1,1.418564469E-1
2.323995834E0,-1.151970100E1,-4.052186310E-1,1.131260321E-1
2.326483646E0,-1.133774185E1,-5.009866953E-1,1.418564469E-1
2.328971459E0,-1.114620590E1,-6.542156339E-1,1.993172914E-1
2.331459271E0,-1.099297714E1,-8.170213103E-1,3.286041915E-1
2.333947084E0,-1.088284397E1,-1.013345838E0,4.866214991E-1
2.336434896E0,-1.080622959E1,-1.267131209E0,6.733692288E-1
2.338922709E0,-1.075355721E1,-1.511339784E0,8.649053574E-1
2.341410521E0,-1.066736603E1,-1.765125155E0,1.037287831E0
2.343898334E0,-1.052850151E1,-1.999756932E0,1.147421122E0
2.346386146E0,-1.034175396E1,-2.157774210E0,1.214458823E0
2.348873959E0,-1.014542961E1,-2.267907619E0,1.233612418E0
2.351361771E0,-9.992200851E0,-2.315791607E0,1.243189216E0
2.353849584E0,-9.819818497E0,-2.354098797E0,1.262342811E0
2.356337396E0,-9.709685326E0,-2.358887196E0,1.305438519E0
2.358825209E0,-9.652224541E0,-2.363675594E0,1.372476101E0
2.361313021E0,-9.647436142E0,-2.373252392E0,1.453878999E0
2.363800834E0,-9.657012939E0,-2.392405987E0,1.525704980E0
2.366288646E0,-9.680954933E0,-2.445078373E0,1.592742682E0
2.368776459E0,-9.700108528E0,-2.502539396E0,1.626261473E0
2.371264271E0,-9.719262123E0,-2.545634985E0,1.654991984E0
2.373752084E0,-9.733627319E0,-2.560000181E0,1.683722377E0
2.376239896E0,-9.781511307E0,-2.545634985E0,1.707664371E0
2.378727709E0,-9.838972092E0,-2.502539396E0,1.750759959E0
2.381215521E0,-9.929951668E0,-2.483385801E0,1.832162857E0
2.383703334E0,-1.004487324E1,-2.459443808E0,1.913565755E0
2.386191146E0,-1.016937160E1,-2.454655409E0,2.028487444E0
2.388678959E0,-1.029386997E1,-2.469020605E0,2.105101824E0
2.391166771E0,-1.042794514E1,-2.483385801E0,2.186504602E0
2.393654584E0,-1.057159805E1,-2.526481390E0,2.258330822E0
2.396142396E0,-1.068173122E1,-2.536058187E0,2.287061214E0
2.398630209E0,-1.081101799E1,-2.502539396E0,2.258330822E0
2.401118021E0,-1.091157436E1,-2.445078373E0,2.186504602E0
2.403605834E0,-1.099776554E1,-2.387617588E0,2.090736628E0
2.406093646E0,-1.104564953E1,-2.334945202E0,1.966238141E0
2.408581459E0,-1.107916832E1,-2.296638012E0,1.822586060E0
2.411069271E0,-1.106959152E1,-2.301426411E0,1.659780383E0
2.413557084E0,-1.100255394E1,-2.320580006E0,1.496974587E0
2.416044896E0,-1.090678596E1,-2.334945202E0,1.343745708E0
2.418532709E0,-1.080144119E1,-2.354098797E0,1.219247222E0
2.421020521E0,-1.069609642E1,-2.339733601E0,1.089960337E0
2.423508334E0,-1.055244446E1,-2.339733601E0,9.798270464E-1
2.425996146E0,-1.038484955E1,-2.330156803E0,8.553285599E-1
2.428483959E0,-1.021725559E1,-2.263119221E0,6.973112226E-1
2.430971771E0,-1.004008484E1,-2.191293001E0,5.440823436E-1
2.433459584E0,-9.853337288E0,-2.143409014E0,4.147954583E-1
2.435947396E0,-9.704896927E0,-2.090736628E0,3.238157928E-1
2.438435209E0,-9.580398560E0,-2.119467020E0,2.855085433E-1
2.440923021E0,-9.441534042E0,-2.133832216E0,3.860650361E-1
2.443410834E0,-9.350554466E0,-2.124255419E0,5.584475398E-1
2.445898646E0,-9.307458878E0,-2.090736628E0,7.978677154E-1
2.448386459E0,-9.293093681E0,-2.052429438E0,1.089960337E0
2.450874271E0,-9.321824074E0,-1.990180135E0,1.391629696E0
2.453362084E0,-9.360131264E0,-1.899200439E0,1.611896276E0
2.455849896E0,-9.412803650E0,-1.832162857E0,1.784278870E0
2.458337709E0,-9.431957245E0,-1.798644066E0,1.927930951E0
2.460825521E0,-9.475052834E0,-1.736394763E0,2.081159830E0
2.463313334E0,-9.594763756E0,-1.693299174E0,2.220023632E0
2.465801146E0,-9.910798073E0,-1.717241168E0,2.445078373E0
2.468288959E0,-9.877279282E0,-1.880046844E0,2.928707123E0
2.470776771E0,-9.781511307E0,-1.808220863E0,3.091512918E0
2.473264584E0,-1.004487324E1,-1.453878999E0,3.024475336E0
2.475752396E0,-1.037527275E1,-1.094748735E0,2.828150749E0
2.478240209E0,-1.051413631E1,-8.696937561E-1,2.603095770E0
2.480728021E0,-1.060511684E1,-7.356184721E-1,2.349310398E0
2.483215834E0,-1.071525002E1,-6.925228238E-1,2.057217836E0
2.485703646E0,-1.087805557E1,-6.829460263E-1,1.817797661E0
2.488191459E0,-1.101691914E1,-6.494272351E-1,1.640626669E0
2.490679271E0,-1.114141750E1,-5.536591411E-1,1.520916581E0
2.493167084E0,-1.123239708E1,-4.387374520E-1,1.439513803E0
2.495654896E0,-1.130422306E1,-3.333925903E-1,1.338957310E0
2.498142709E0,-1.136647224E1,-2.424129248E-1,1.195305228E0
2.500630521E0,-1.139041424E1,-1.897404790E-1,1.013345838E0
2.503118334E0,-1.136647224E1,-1.897404790E-1,7.547720671E-1
2.505606146E0,-1.132337666E1,-2.424129248E-1,4.531026781E-1
2.508093959E0,-1.132337666E1,-3.333925903E-1,1.083376259E-1
2.510581771E0,-1.128506947E1,-4.674678743E-1,-2.507926226E-1
2.513069584E0,-1.122760868E1,-6.398503780E-1,-5.716156363E-1
2.515557396E0,-1.113184071E1,-8.313865662E-1,-8.445546627E-1
2.518045209E0,-1.094988155E1,-1.056441545E0,-1.103128433E0
2.520533021E0,-1.072482681E1,-1.276708007E0,-1.294664621E0
2.523020834E0,-1.046146393E1,-1.506551385E0,-1.385644197E0
2.525508646E0,-1.017416000E1,-1.736394763E0,-1.414374709E0
2.527996563E0,-9.920374870E0,-1.942296147E0,-1.400009394E0
2.530484428E0,-9.728838921E0,-2.124255419E0,-1.289876223E0
2.532972240E0,-9.551667213E0,-2.306214809E0,-1.021725535E0
2.535460053E0,-9.403226852E0,-2.488174200E0,-6.482301354E-1
2.537947865E0,-9.264363289E0,-2.650979757E0,-2.268506140E-1
2.540435678E0,-9.125499725E0,-2.785055161E0,1.897404790E-1
2.542923490E0,-9.034520149E0,-2.938283920E0,6.063315868E-1
2.545411303E0,-8.996212959E0,-3.034052134E0,1.022922635E0
2.547899063E0,-8.991424561E0,-3.110666513E0,1.453878999E0
2.550386823E0,-9.010578156E0,-3.139396906E0,1.841739655E0
2.552874584E0,-9.082404137E0,-3.091512918E0,2.224812031E0
2.555362344E0,-9.192537308E0,-2.986168146E0,2.545634985E0
2.557850105E0,-9.345766068E0,-2.847304344E0,2.852092743E0
2.560337865E0,-9.513360023E0,-2.674921751E0,3.110666513E0
2.562825625E0,-9.680954933E0,-2.483385801E0,3.297414303E0
2.565313386E0,-9.843760490E0,-2.315791607E0,3.431489468E0
2.567801146E0,-9.968258858E0,-2.181716204E0,3.488950491E0
2.570288907E0,-1.009754562E1,-2.052429438E0,3.455431700E0
2.572776667E0,-1.022204399E1,-1.947084546E0,3.354875088E0
2.575264428E0,-1.041357994E1,-1.884835243E0,3.306991100E0
2.577752188E0,-1.039442635E1,-1.947084546E0,3.383605480E0
2.580239948E0,-1.018373680E1,-1.889623642E0,3.254318714E0
2.582727709E0,-1.022204399E1,-1.631049871E0,2.746747971E0
2.585215469E0,-1.032260036E1,-1.358110905E0,2.095525026E0
2.587703230E0,-1.030344677E1,-1.147421122E0,1.487397790E0
2.590190990E0,-1.021246719E1,-1.027711034E0,9.463081956E-1
2.592678750E0,-1.015500641E1,-9.463081956E-1,5.584475398E-1
2.595166511E0,-1.018852520E1,-8.984242082E-1,2.711433470E-1
2.597654271E0,-1.021725559E1,-8.744821548E-1,6.045359373E-2
2.600142032E0,-1.026513958E1,-8.696937561E-1,-1.071405262E-1
2.602629792E0,-1.033696556E1,-8.601169586E-1,-2.890998423E-1
2.605117553E0,-1.034654236E1,-8.457517624E-1,-4.662707746E-1
2.607605313E0,-1.033217716E1,-8.313865662E-1,-6.194996834E-1
2.610093073E0,-1.026992798E1,-7.930793166E-1,-7.248445749E-1
2.612580834E0,-1.015979481E1,-7.451952696E-1,-8.254010081E-1
2.615068594E0,-1.006881523E1,-6.877344251E-1,-9.115923047E-1
2.617556355E0,-9.977835655E0,-6.446388364E-1,-9.834183455E-1
2.620044167E0,-9.925163269E0,-6.350619793E-1,-1.040879130E0
2.622531980E0,-9.910798073E0,-6.159083843E-1,-1.093551636E0
2.625019792E0,-9.934740067E0,-6.206967831E-1,-1.151012421E0
2.627507605E0,-9.987412453E0,-6.302735806E-1,-1.232415318E0
2.629995417E0,-1.005923843E1,-6.254851818E-1,-1.313818216E0
2.632483230E0,-1.015021801E1,-6.446388364E-1,-1.347337008E0
2.634971042E0,-1.024119759E1,-6.398503780E-1,-1.318606615E0
2.637458855E0,-1.033696556E1,-6.590040326E-1,-1.237203717E0
2.639946667E0,-1.043752193E1,-6.542156339E-1,-1.098340034E0
2.642434480E0,-1.054765606E1,-6.590040326E-1,-9.355342984E-1
2.644922292E0,-1.067694283E1,-6.542156339E-1,-7.487865686E-1
2.647410105E0,-1.080144119E1,-6.637924314E-1,-5.811924338E-1
2.649897917E0,-1.091157436E1,-6.829460263E-1,-4.375403523E-1
2.652385730E0,-1.096903515E1,-7.499836683E-1,-3.178302646E-1
2.654873542E0,-1.096424675E1,-8.457517624E-1,-1.981201917E-1
2.657361355E0,-1.092115116E1,-9.894038439E-1,-1.119289324E-1
2.659849167E0,-1.081101799E1,-1.137844324E0,-5.925649032E-2
2.662336980E0,-1.067694283E1,-1.291073322E0,-1.616086066E-2
2.664824792E0,-1.052850151E1,-1.444302201E0,1.256955881E-2
2.667312605E0,-1.035133076E1,-1.583165884E0,4.608838260E-2
2.669800417E0,-1.018373680E1,-1.698087573E0,9.876082093E-2
2.672288230E0,-1.003050804E1,-1.827374458E0,1.705868691E-1
2.674776042E0,-9.858125687E0,-1.956661344E0,2.615665495E-1
2.677263855E0,-9.671378136E0,-2.081159830E0,3.381809890E-1
2.679751667E0,-9.479841232E0,-2.239177227E0,4.243722558E-1
2.682239480E0,-9.321824074E0,-2.406771183E0,4.722562730E-1
2.684727292E0,-9.216479301E0,-2.569576979E0,5.632359385E-1
2.687215105E0,-9.096769333E0,-2.746747971E0,6.302735806E-1
2.689702917E0,-8.972270966E0,-2.928707123E0,7.212532759E-1
2.692190730E0,-8.876502991E0,-3.096301317E0,8.218097091E-1
2.694678542E0,-8.780735016E0,-3.216011524E0,9.558850527E-1
2.697166355E0,-8.713697433E0,-3.321356297E0,1.046864748E0
2.699654167E0,-8.675390244E0,-3.412335873E0,1.142632723E0
2.702141980E0,-8.665813446E0,-3.469796896E0,1.257554412E0
2.704629792E0,-8.665813446E0,-3.522469282E0,1.362899303E0
2.707117605E0,-8.684967041E0,-3.560776472E0,1.449090600E0
2.709605417E0,-8.747216225E0,-3.565564871E0,1.540070295E0
2.712093230E0,-8.814253807E0,-3.570353270E0,1.626261473E0
2.714581042E0,-8.866926193E0,-3.541622877E0,1.693299174E0
2.717068855E0,-8.900444984E0,-3.484162092E0,1.741183162E0
2.719556667E0,-8.933963776E0,-3.436278105E0,1.755548358E0
2.722044480E0,-8.967482567E0,-3.388393879E0,1.745971560E0
2.724532292E0,-8.986636162E0,-3.297414303E0,1.717241168E0
2.727020105E0,-9.029731750E0,-3.220799923E0,1.669357181E0
2.729507917E0,-9.068038940E0,-3.134608507E0,1.631049871E0
2.731995730E0,-9.106346130E0,-3.000533342E0,1.583165884E0
2.734483542E0,-9.154230118E0,-2.856881142E0,1.530493379E0
2.736971355E0,-9.245209694E0,-2.722805977E0,1.482609391E0
2.739459167E0,-9.321824074E0,-2.574365377E0,1.463455796E0
2.741946980E0,-9.436745644E0,-2.421136379E0,1.453878999E0
2.744434792E0,-9.566033363E0,-2.263119221E0,1.439513803E0
2.746922605E0,-9.680954933E0,-2.133832216E0,1.410783410E0
2.749410417E0,-9.795876503E0,-2.033275843E0,1.367687702E0
2.751898230E0,-9.915586472E0,-1.937507749E0,1.319803715E0
2.754386042E0,-1.003050804E1,-1.865681648E0,1.271919608E0
2.756873855E0,-1.011191082E1,-1.803432465E0,1.228824019E0
2.759361667E0,-1.019331360E1,-1.779490471E0,1.195305228E0
2.761849480E0,-1.024598598E1,-1.745971560E0,1.190516829E0
2.764337292E0,-1.024598598E1,-1.707664371E0,1.204882026E0
2.766825105E0,-1.022683239E1,-1.693299174E0,1.204882026E0
2.769312917E0,-1.018852520E1,-1.693299174E0,1.228824019E0
2.771800730E0,-1.011191082E1,-1.712452769E0,1.291073322E0
2.774288542E0,-1.005445004E1,-1.731606364E0,1.329380512E0
2.776776355E0,-9.996989250E0,-1.755548358E0,1.372476101E0
2.779264167E0,-9.925163269E0,-1.798644066E0,1.415571809E0
2.781751980E0,-9.886856079E0,-1.836951256E0,1.463455796E0
2.784239792E0,-9.872490883E0,-1.903988957E0,1.525704980E0
2.786727605E0,-9.838972092E0,-1.956661344E0,1.592742682E0
2.789215417E0,-9.767146111E0,-2.018910646E0,1.678933978E0
2.791703230E0,-9.709685326E0,-2.062006235E0,1.726817966E0
2.794191042E0,-9.652224541E0,-2.076371431E0,1.745971560E0
2.796678855E0,-9.609128952E0,-2.085948229E0,1.736394763E0
2.799166667E0,-9.570821762E0,-2.100313425E0,1.731606364E0
2.801654480E0,-9.532513618E0,-2.109890223E0,1.722029567E0
2.804142292E0,-9.508571625E0,-2.114678621E0,1.669357181E0
2.806630105E0,-9.494206429E0,-2.085948229E0,1.607107878E0
2.809117917E0,-9.489418030E0,-2.081159830E0,1.530493379E0
2.811605730E0,-9.494206429E0,-2.062006235E0,1.453878999E0
2.814093542E0,-9.470264435E0,-2.033275843E0,1.386841297E0
2.816581355E0,-9.446322441E0,-2.009333849E0,1.319803715E0
2.819069167E0,-9.417592049E0,-1.980603337E0,1.219247222E0
2.821556980E0,-9.369708061E0,-1.947084546E0,1.113902330E0
2.824044792E0,-9.350554466E0,-1.903988957E0,1.042076349E0
2.826532605E0,-9.355342865E0,-1.880046844E0,9.750386477E-1
2.829020417E0,-9.360131264E0,-1.846528053E0,8.888474107E-1
2.831508230E0,-9.374496460E0,-1.808220863E0,8.696937561E-1
2.833996042E0,-9.388861656E0,-1.793855667E0,8.649053574E-1
2.836483855E0,-9.431957245E0,-1.745971560E0,8.936358094E-1
2.838971667E0,-9.489418030E0,-1.688510776E0,9.415197968E-1
2.841459480E0,-9.585186958E0,-1.611896276E0,1.003769040E0
2.843947292E0,-9.685743332E0,-1.544858694E0,1.109113932E0
2.846435105E0,-9.786299706E0,-1.473032594E0,1.233612418E0
2.848922917E0,-9.872490883E0,-1.382052898E0,1.396418095E0
2.851410730E0,-9.953893661E0,-1.300650120E0,1.525704980E0
2.853898542E0,-1.001135445E1,-1.233612418E0,1.674145579E0
2.856386355E0,-1.006881523E1,-1.190516829E0,1.789067268E0
2.858874167E0,-1.009754562E1,-1.123479128E0,1.875258446E0
2.861361980E0,-1.012148762E1,-1.075595140E0,1.956661344E0
2.863849792E0,-1.015979481E1,-1.037287831E0,2.018910646E0
2.866337605E0,-1.019331360E1,-1.008557439E0,2.076371431E0
2.868825417E0,-1.022204399E1,-9.558850527E-1,2.100313425E0
2.871313230E0,-1.026992798E1,-9.223662019E-1,2.148197412E0
2.873801042E0,-1.031781197E1,-9.175778031E-1,2.176927805E0
2.876288855E0,-1.035611916E1,-9.271546006E-1,2.196081400E0
2.878776667E0,-1.039442635E1,-9.271546006E-1,2.215235233E0
2.881264480E0,-1.037527275E1,-9.463081956E-1,2.210446835E0
2.883752292E0,-1.037527275E1,-9.558850527E-1,2.176927805E0
2.886240105E0,-1.035133076E1,-9.798270464E-1,2.129043818E0
2.888727917E0,-1.027950478E1,-1.008557439E0,2.109890223E0
2.891215730E0,-1.018373680E1,-1.042076349E0,2.047641039E0
2.893703542E0,-1.011669922E1,-1.075595140E0,1.990180135E0
2.896191355E0,-1.004966164E1,-1.118690729E0,1.880046844E0
2.898679167E0,-9.987412453E0,-1.161786318E0,1.774701953E0
2.901166980E0,-9.920374870E0,-1.228824019E0,1.669357181E0
2.903654792E0,-9.853337288E0,-1.295861721E0,1.535281897E0
2.906142605E0,-9.791088104E0,-1.372476101E0,1.415571809E0
2.908630417E0,-9.724050522E0,-1.439513803E0,1.305438519E0
2.911118230E0,-9.685743332E0,-1.520916581E0,1.247977614E0
2.913606042E0,-9.637859344E0,-1.587954283E0,1.176151633E0
2.916093855E0,-9.589975357E0,-1.640626669E0,1.123479128E0
2.918581667E0,-9.570821762E0,-1.688510776E0,1.156997919E0
2.921069480E0,-9.546878815E0,-1.731606364E0,1.152209520E0
2.923557292E0,-9.518148422E0,-1.736394763E0,1.195305228E0
2.926045105E0,-9.503783226E0,-1.750759959E0,1.224035621E0
2.928532917E0,-9.484629631E0,-1.745971560E0,1.281496406E0
2.931020730E0,-9.460687637E0,-1.765125155E0,1.348534107E0
2.933508542E0,-9.431957245E0,-1.750759959E0,1.444302201E0
2.935996355E0,-9.412803650E0,-1.736394763E0,1.544858694E0
2.938484167E0,-9.398438454E0,-1.698087573E0,1.626261473E0
2.940971980E0,-9.403226852E0,-1.683722377E0,1.688510776E0
2.943459792E0,-9.417592049E0,-1.631049871E0,1.741183162E0
2.945947605E0,-9.417592049E0,-1.597531080E0,1.808220863E0
2.948435417E0,-9.436745644E0,-1.559223890E0,1.875258446E0
2.950923230E0,-9.484629631E0,-1.487397790E0,1.923142552E0
2.953411042E0,-9.518148422E0,-1.391629696E0,1.961449742E0
2.955898855E0,-9.589975357E0,-1.300650120E0,2.009333849E0
2.958386667E0,-9.647436142E0,-1.200093627E0,2.038064241E0
2.960874480E0,-9.724050522E0,-1.113902330E0,2.052429438E0
2.963362292E0,-9.781511307E0,-1.008557439E0,2.047641039E0
2.965850105E0,-9.848548889E0,-9.319429994E-1,2.009333849E0
2.968337917E0,-9.925163269E0,-8.553285599E-1,1.961449742E0
2.970825730E0,-9.982624054E0,-7.930793166E-1,1.880046844E0
2.973313542E0,-1.004487324E1,-7.164648771E-1,1.769913554E0
2.975801355E0,-1.008796883E1,-6.685808301E-1,1.659780383E0
2.978289167E0,-1.014542961E1,-6.111199856E-1,1.554435492E0
2.980776980E0,-1.018373680E1,-5.584475398E-1,1.434725404E0
2.983264740E0,-1.018852520E1,-5.297171474E-1,1.329380512E0
2.985752500E0,-1.019810200E1,-5.105634928E-1,1.219247222E0
2.988240261E0,-1.016458321E1,-5.297171474E-1,1.109113932E0
2.990728021E0,-1.012148762E1,-5.440823436E-1,1.042076349E0
2.993215782E0,-1.007360363E1,-5.871779919E-1,9.702502489E-1
2.995703542E0,-1.004966164E1,-6.542156339E-1,8.792705536E-1
2.998191303E0,-1.003529644E1,-7.643488646E-1,7.691373229E-1
3.000679063E0,-1.002571964E1,-8.984242082E-1,6.973112226E-1
3.003166823E0,-9.982624054E0,-1.056441545E0,6.302735806E-1
3.005654584E0,-9.901221275E0,-1.219247222E0,6.015431881E-1
3.008142344E0,-9.786299706E0,-1.348534107E0,5.584475398E-1
3.010630105E0,-9.685743332E0,-1.477820992E0,5.009866953E-1
3.013117865E0,-9.551667213E0,-1.554435492E0,4.626794755E-1
3.015605625E0,-9.436745644E0,-1.626261473E0,4.339490533E-1
3.018093386E0,-9.312247276E0,-1.683722377E0,4.147954583E-1
3.020581146E0,-9.206902504E0,-1.731606364E0,3.956418335E-1
3.023068907E0,-9.125499725E0,-1.736394763E0,3.908534348E-1
3.025556667E0,-9.091980934E0,-1.750759959E0,3.764882088E-1
3.028044428E0,-9.063250542E0,-1.745971560E0,3.333925903E-1
3.030532188E0,-9.077615738E0,-1.726817966E0,2.950853705E-1
3.033019948E0,-9.111134529E0,-1.683722377E0,2.711433470E-1
3.035507709E0,-9.168595314E0,-1.631049871E0,2.615665495E-1
3.037995469E0,-9.216479301E0,-1.564012289E0,2.807201445E-1
3.040483230E0,-9.288305283E0,-1.473032594E0,3.046621680E-1
3.042970990E0,-9.360131264E0,-1.348534107E0,3.142389655E-1
3.045458750E0,-9.422380447E0,-1.267131209E0,3.190273643E-1
3.047946511E0,-9.470264435E0,-1.133055925E0,3.333925903E-1
3.050434271E0,-9.513360023E0,-1.013345838E0,3.429693878E-1
3.052922032E0,-9.575610161E0,-8.936358094E-1,3.573346138E-1
3.055409792E0,-9.633070946E0,-7.787141204E-1,3.908534348E-1
3.057897605E0,-9.695320129E0,-6.781576276E-1,4.195838571E-1
3.060385417E0,-9.781511307E0,-6.159083843E-1,4.435258508E-1
3.062873230E0,-9.858125687E0,-5.776011348E-1,4.531026781E-1
3.065361042E0,-9.906009674E0,-5.776011348E-1,4.674678743E-1
3.067848855E0,-9.929951668E0,-5.871779919E-1,4.961982965E-1
3.070336667E0,-9.949105263E0,-5.919663906E-1,5.584475398E-1
3.072824480E0,-9.944316864E0,-6.063315868E-1,6.063315868E-1
3.075312292E0,-9.925163269E0,-6.398503780E-1,6.685808301E-1
3.077800105E0,-9.891644478E0,-6.733692288E-1,7.212532759E-1
3.080287917E0,-9.877279282E0,-7.020996213E-1,7.787141204E-1
3.082775730E0,-9.843760490E0,-7.643488646E-1,8.265981078E-1
3.085263542E0,-9.810241699E0,-8.313865662E-1,8.792705536E-1
3.087751355E0,-9.795876503E0,-9.175778031E-1,9.415197968E-1
3.090239167E0,-9.776722908E0,-1.013345838E0,9.941922426E-1
3.092726980E0,-9.743204117E0,-1.099537134E0,1.070806742E0
3.095214792E0,-9.709685326E0,-1.156997919E0,1.180940032E0
3.097702605E0,-9.704896927E0,-1.176151633E0,1.257554412E0
3.100190417E0,-9.685743332E0,-1.185728431E0,1.310226917E0
3.102678230E0,-9.661801338E0,-1.156997919E0,1.401206493E0
3.105166042E0,-9.647436142E0,-1.128267527E0,1.458667397E0
3.107653855E0,-9.637859344E0,-1.128267527E0,1.506551385E0
3.110141667E0,-9.642647743E0,-1.128267527E0,1.535281897E0
3.112629480E0,-9.637859344E0,-1.118690729E0,1.554435492E0
3.115117292E0,-9.652224541E0,-1.099537134E0,1.568800688E0
3.117605105E0,-9.661801338E0,-1.046864748E0,1.573589087E0
3.120092917E0,-9.676166534E0,-1.018134236E0,1.587954283E0
3.122580730E0,-9.680954933E0,-9.702502489E-1,1.587954283E0
3.125068542E0,-9.700108528E0,-9.463081956E-1,1.573589087E0
3.127556355E0,-9.743204117E0,-9.080010056E-1,1.516128182E0
3.130044167E0,-9.791088104E0,-8.744821548E-1,1.434725404E0
3.132531980E0,-9.810241699E0,-8.649053574E-1,1.334168911E0
3.135019792E0,-9.838972092E0,-8.888474107E-1,1.219247222E0
3.137507605E0,-9.843760490E0,-9.175778031E-1,1.085171938E0
3.139995417E0,-9.858125687E0,-9.606734514E-1,9.415197968E-1
3.142483230E0,-9.853337288E0,-9.941922426E-1,7.978677154E-1
3.144971042E0,-9.829395294E0,-1.037287831E0,6.398503780E-1
3.147458855E0,-9.791088104E0,-1.113902330E0,5.105634928E-1
3.149946667E0,-9.752780914E0,-1.176151633E0,3.860650361E-1
3.152434480E0,-9.714473724E0,-1.214458823E0,2.615665495E-1
3.154922292E0,-9.652224541E0,-1.267131209E0,1.705868691E-1
3.157410105E0,-9.580398560E0,-1.291073322E0,7.481880486E-2
3.159897917E0,-9.522936821E0,-1.324592113E0,-1.616086066E-2
3.162385730E0,-9.475052834E0,-1.353322506E0,-8.798690885E-2
3.164873542E0,-9.408015251E0,-1.386841297E0,-1.550245583E-1
3.167361355E0,-9.360131264E0,-1.405994892E0,-1.933317930E-1
3.169849167E0,-9.340977669E0,-1.434725404E0,-2.172738016E-1
3.172336980E0,-9.350554466E0,-1.449090600E0,-2.220622003E-1
3.174824792E0,-9.360131264E0,-1.453878999E0,-2.172738016E-1
3.177312605E0,-9.398438454E0,-1.449090600E0,-1.933317930E-1
3.179800417E0,-9.446322441E0,-1.434725404E0,-1.406593472E-1
3.182288230E0,-9.494206429E0,-1.410783410E0,-3.531447425E-2
3.184776042E0,-9.575610161E0,-1.382052898E0,4.608838260E-2
3.187263855E0,-9.642647743E0,-1.348534107E0,1.753752679E-1
3.189751667E0,-9.676166534E0,-1.295861721E0,2.902969420E-1
3.192239480E0,-9.695320129E0,-1.252766013E0,3.956418335E-1
3.194727292E0,-9.714473724E0,-1.200093627E0,4.961982965E-1
3.197215105E0,-9.738415718E0,-1.161786318E0,5.871779919E-1
3.199702917E0,-9.771934509E0,-1.137844324E0,6.781576276E-1
3.202190730E0,-9.824606895E0,-1.118690729E0,7.451952696E-1
3.204678542E0,-9.858125687E0,-1.099537134E0,8.409633636E-1
3.207166355E0,-9.910798073E0,-1.051653147E0,9.463081956E-1
3.209654167E0,-9.944316864E0,-1.018134236E0,1.027711034E0
3.212141980E0,-9.973047256E0,-9.750386477E-1,1.118690729E0
3.214629792E0,-9.992200851E0,-9.606734514E-1,1.219247222E0
3.217117605E0,-1.000177765E1,-9.463081956E-1,1.300650120E0
3.219605417E0,-9.996989250E0,-9.319429994E-1,1.358110905E0
3.222093230E0,-9.977835655E0,-9.367313981E-1,1.415571809E0
3.224581042E0,-9.982624054E0,-9.415197968E-1,1.501762986E0
3.227068855E0,-9.939528465E0,-9.654618502E-1,1.549647093E0
3.229556667E0,-9.872490883E0,-1.008557439E0,1.607107878E0
3.232044480E0,-9.843760490E0,-1.051653147E0,1.645415068E0
3.234532292E0,-9.810241699E0,-1.094748735E0,1.674145579E0
3.237020105E0,-9.786299706E0,-1.142632723E0,1.698087573E0
3.239507917E0,-9.757569313E0,-1.195305228E0,1.726817966E0
3.241995730E0,-9.762357712E0,-1.233612418E0,1.755548358E0
3.244483542E0,-9.719262123E0,-1.262342811E0,1.755548358E0
3.246971355E0,-9.690531731E0,-1.286284804E0,1.774701953E0
3.249459167E0,-9.657012939E0,-1.305438519E0,1.784278870E0
3.251946980E0,-9.613917351E0,-1.319803715E0,1.765125155E0
3.254434792E0,-9.604340553E0,-1.329380512E0,1.750759959E0
3.256922605E0,-9.609128952E0,-1.343745708E0,1.722029567E0
3.259410417E0,-9.609128952E0,-1.386841297E0,1.674145579E0
3.261898230E0,-9.637859344E0,-1.420360208E0,1.631049871E0
3.264386042E0,-9.647436142E0,-1.468244195E0,1.578377485E0
3.266873855E0,-9.647436142E0,-1.501762986E0,1.535281897E0
3.269361667E0,-9.637859344E0,-1.511339784E0,1.496974587E0
3.271849480E0,-9.628282547E0,-1.535281897E0,1.420360208E0
3.274337292E0,-9.623494148E0,-1.530493379E0,1.353322506E0
3.276825105E0,-9.599552155E0,-1.525704980E0,1.286284804E0
3.279312917E0,-9.599552155E0,-1.511339784E0,1.219247222E0
3.281800730E0,-9.604340553E0,-1.506551385E0,1.133055925E0
3.284288542E0,-9.594763756E0,-1.496974587E0,1.099537134E0
3.286776355E0,-9.609128952E0,-1.487397790E0,1.051653147E0
3.289264167E0,-9.637859344E0,-1.473032594E0,9.989806414E-1
3.291751980E0,-9.661801338E0,-1.444302201E0,9.367313981E-1
3.294239792E0,-9.680954933E0,-1.434725404E0,8.840589523E-1
3.296727605E0,-9.690531731E0,-1.434725404E0,8.457517624E-1
3.299215417E0,-9.685743332E0,-1.420360208E0,7.978677154E-1
3.301703230E0,-9.680954933E0,-1.410783410E0,7.499836683E-1
3.304191042E0,-9.704896927E0,-1.405994892E0,7.116764784E-1
3.306678855E0,-9.724050522E0,-1.382052898E0,6.494272351E-1
3.309166667E0,-9.714473724E0,-1.362899303E0,5.967547894E-1
3.311654480E0,-9.719262123E0,-1.353322506E0,5.536591411E-1
3.314142292E0,-9.728838921E0,-1.329380512E0,5.345055461E-1
3.316630105E0,-9.704896927E0,-1.319803715E0,5.153518915E-1
3.319117917E0,-9.676166534E0,-1.315015316E0,5.297171474E-1
3.321605730E0,-9.671378136E0,-1.319803715E0,5.201402903E-1
3.324093542E0,-9.680954933E0,-1.338957310E0,5.105634928E-1
3.326581355E0,-9.676166534E0,-1.338957310E0,5.345055461E-1
3.329069167E0,-9.676166534E0,-1.358110905E0,5.440823436E-1
3.331556980E0,-9.661801338E0,-1.353322506E0,5.776011348E-1
3.334044792E0,-9.657012939E0,-1.338957310E0,6.159083843E-1
3.336532605E0,-9.652224541E0,-1.305438519E0,6.733692288E-1
3.339020417E0,-9.666589737E0,-1.286284804E0,7.212532759E-1
3.341508230E0,-9.676166534E0,-1.276708007E0,7.643488646E-1
3.343996042E0,-9.680954933E0,-1.262342811E0,8.026561141E-1
3.346483855E0,-9.690531731E0,-1.267131209E0,8.601169586E-1
3.348971667E0,-9.724050522E0,-1.252766013E0,9.127894044E-1
3.351459480E0,-9.757569313E0,-1.233612418E0,9.558850527E-1
3.353947292E0,-9.805453300E0,-1.228824019E0,1.042076349E0
3.356435105E0,-9.843760490E0,-1.238400817E0,1.104325533E0
3.358922865E0,-9.882067680E0,-1.238400817E0,1.185728431E0
3.361410625E0,-9.910798073E0,-1.219247222E0,1.247977614E0
3.363898386E0,-9.944316864E0,-1.209670424E0,1.310226917E0
3.366386146E0,-9.958682060E0,-1.209670424E0,1.391629696E0
3.368873907E0,-9.958682060E0,-1.228824019E0,1.434725404E0
3.371361667E0,-9.944316864E0,-1.224035621E0,1.487397790E0
3.373849428E0,-9.915586472E0,-1.238400817E0,1.487397790E0
3.376337188E0,-9.877279282E0,-1.257554412E0,1.482609391E0
3.378824948E0,-9.829395294E0,-1.286284804E0,1.434725404E0
3.381312709E0,-9.781511307E0,-1.329380512E0,1.382052898E0
3.383800469E0,-9.724050522E0,-1.367687702E0,1.329380512E0
3.386288230E0,-9.676166534E0,-1.391629696E0,1.286284804E0
3.388775990E0,-9.633070946E0,-1.425148606E0,1.271919608E0
3.391263750E0,-9.594763756E0,-1.458667397E0,1.228824019E0
3.393751511E0,-9.580398560E0,-1.496974587E0,1.190516829E0
3.396239271E0,-9.585186958E0,-1.530493379E0,1.166574836E0
3.398727032E0,-9.551667213E0,-1.587954283E0,1.147421122E0
3.401214792E0,-9.532513618E0,-1.631049871E0,1.118690729E0
3.403702553E0,-9.508571625E0,-1.678933978E0,1.094748735E0
3.406190313E0,-9.470264435E0,-1.722029567E0,1.080383539E0
3.408678073E0,-9.446322441E0,-1.755548358E0,1.056441545E0
3.411165834E0,-9.427168846E0,-1.784278870E0,1.037287831E0
3.413653594E0,-9.422380447E0,-1.784278870E0,1.042076349E0
3.416141355E0,-9.422380447E0,-1.779490471E0,1.037287831E0
3.418629115E0,-9.388861656E0,-1.755548358E0,1.046864748E0
3.421116875E0,-9.388861656E0,-1.726817966E0,1.051653147E0
3.423604636E0,-9.393650055E0,-1.693299174E0,1.037287831E0
3.426092396E0,-9.412803650E0,-1.654991984E0,1.032499433E0
3.428580157E0,-9.431957245E0,-1.631049871E0,1.032499433E0
3.431067917E0,-9.446322441E0,-1.607107878E0,1.027711034E0
3.433555678E0,-9.465476036E0,-1.564012289E0,1.027711034E0
3.436043438E0,-9.484629631E0,-1.530493379E0,1.022922635E0
3.438531250E0,-9.518148422E0,-1.487397790E0,1.032499433E0
3.441019063E0,-9.561244011E0,-1.444302201E0,1.027711034E0
3.443506875E0,-9.599552155E0,-1.386841297E0,9.989806414E-1
3.445994688E0,-9.618705750E0,-1.334168911E0,9.798270464E-1
3.448482500E0,-9.666589737E0,-1.267131209E0,9.654618502E-1
3.450970313E0,-9.704896927E0,-1.214458823E0,9.367313981E-1
3.453458125E0,-9.747992516E0,-1.137844324E0,9.032126069E-1
3.455945938E0,-9.781511307E0,-1.070806742E0,8.505401611E-1
3.458433750E0,-9.848548889E0,-9.989806414E-1,8.122329116E-1
3.460921563E0,-9.906009674E0,-9.415197968E-1,7.739257216E-1
3.463409375E0,-9.977835655E0,-9.032126069E-1,7.068880796E-1
3.465897188E0,-1.001614285E1,-9.032126069E-1,6.302735806E-1
3.468385000E0,-1.003050804E1,-8.984242082E-1,5.680243373E-1
3.470872813E0,-1.005445004E1,-9.127894044E-1,4.961982965E-1
3.473360625E0,-1.003529644E1,-9.367313981E-1,4.483142793E-1
3.475848438E0,-1.002571964E1,-9.558850527E-1,4.243722558E-1
3.478336250E0,-9.982624054E0,-9.989806414E-1,3.956418335E-1
3.480824063E0,-9.944316864E0,-1.051653147E0,3.956418335E-1
3.483311875E0,-9.886856079E0,-1.118690729E0,4.052186310E-1
3.485799688E0,-9.805453300E0,-1.180940032E0,3.908534348E-1
3.488287500E0,-9.728838921E0,-1.247977614E0,4.291606545E-1
3.490775313E0,-9.647436142E0,-1.324592113E0,4.578910768E-1
3.493263125E0,-9.556455612E0,-1.396418095E0,4.914098978E-1
3.495750938E0,-9.475052834E0,-1.458667397E0,5.057750940E-1
3.498238750E0,-9.427168846E0,-1.496974587E0,5.392939448E-1
3.500726563E0,-9.384073257E0,-1.530493379E0,5.871779919E-1
3.503214375E0,-9.345766068E0,-1.544858694E0,6.398503780E-1
3.505702188E0,-9.340977669E0,-1.540070295E0,7.308300734E-1
3.508190000E0,-9.350554466E0,-1.549647093E0,8.122329116E-1
3.510677813E0,-9.364919662E0,-1.554435492E0,9.080010056E-1
3.513165625E0,-9.393650055E0,-1.564012289E0,9.941922426E-1
3.515653438E0,-9.403226852E0,-1.554435492E0,1.070806742E0
3.518141250E0,-9.431957245E0,-1.525704980E0,1.128267527E0
3.520629063E0,-9.475052834E0,-1.506551385E0,1.200093627E0
3.523116875E0,-9.513360023E0,-1.492186189E0,1.233612418E0
3.525604688E0,-9.537302017E0,-1.473032594E0,1.262342811E0
3.528092500E0,-9.575610161E0,-1.449090600E0,1.305438519E0
3.530580313E0,-9.628282547E0,-1.449090600E0,1.315015316E0
3.533068125E0,-9.695320129E0,-1.434725404E0,1.315015316E0
3.535555938E0,-9.771934509E0,-1.405994892E0,1.310226917E0
3.538043750E0,-9.858125687E0,-1.386841297E0,1.334168911E0
3.540531563E0,-9.949105263E0,-1.334168911E0,1.324592113E0
3.543019375E0,-1.002093124E1,-1.286284804E0,1.300650120E0
3.545507188E0,-1.008796883E1,-1.238400817E0,1.291073322E0
3.547995000E0,-1.015021801E1,-1.195305228E0,1.276708007E0
3.550482813E0,-1.023162079E1,-1.190516829E0,1.238400817E0
3.552970625E0,-1.030344677E1,-1.200093627E0,1.195305228E0
3.555458438E0,-1.036569595E1,-1.262342811E0,1.118690729E0
3.557946250E0,-1.038484955E1,-1.334168911E0,1.032499433E0
3.560434063E0,-1.040879154E1,-1.410783410E0,9.894038439E-1
3.562921875E0,-1.043752193E1,-1.482609391E0,9.319429994E-1
3.565409688E0,-1.047582912E1,-1.578377485E0,8.553285599E-1
3.567897500E0,-1.046625233E1,-1.678933978E0,8.026561141E-1
3.570385313E0,-1.044709873E1,-1.789067268E0,7.451952696E-1
3.572873125E0,-1.043273354E1,-1.932719350E0,6.542156339E-1
3.575360938E0,-1.037048435E1,-2.085948229E0,6.206967831E-1
3.577848750E0,-1.031781197E1,-2.243965626E0,6.494272351E-1
3.580336563E0,-1.025556278E1,-2.397194386E0,6.398503780E-1
3.582824375E0,-1.015500641E1,-2.574365377E0,6.542156339E-1
3.585312188E0,-1.002571964E1,-2.741959572E0,6.925228238E-1
3.587800000E0,-9.915586472E0,-2.895188332E0,6.925228238E-1
3.590287813E0,-9.848548889E0,-3.067570925E0,7.116764784E-1
3.592775625E0,-9.819818497E0,-3.235165119E0,7.547720671E-1
3.595263438E0,-9.771934509E0,-3.431489468E0,7.787141204E-1
3.597751250E0,-9.714473724E0,-3.575141668E0,8.505401611E-1
3.600239063E0,-9.685743332E0,-3.694851875E0,9.127894044E-1
3.602726875E0,-9.680954933E0,-3.790619850E0,9.702502489E-1
3.605214688E0,-9.666589737E0,-3.872022629E0,1.032499433E0
3.607702500E0,-9.671378136E0,-3.939060450E0,1.061229944E0
3.610190313E0,-9.676166534E0,-4.001309395E0,1.118690729E0
3.612678125E0,-9.700108528E0,-4.039616585E0,1.176151633E0
3.615165938E0,-9.762357712E0,-4.063559055E0,1.204882026E0
3.617653750E0,-9.834183693E0,-4.082712650E0,1.243189216E0
3.620141563E0,-9.901221275E0,-4.082712650E0,1.281496406E0
3.622629375E0,-9.996989250E0,-4.073135853E0,1.315015316E0
3.625117188E0,-1.010233402E1,-4.063559055E0,1.324592113E0
3.627605000E0,-1.024119759E1,-4.044404984E0,1.319803715E0
3.630092813E0,-1.036569595E1,-4.006097794E0,1.319803715E0
3.632580625E0,-1.048061752E1,-3.958214045E0,1.324592113E0
3.635068438E0,-1.060990524E1,-3.929483652E0,1.343745708E0
3.637556250E0,-1.070567322E1,-3.886387825E0,1.348534107E0
3.640044063E0,-1.076313400E1,-3.809773445E0,1.343745708E0
3.642531875E0,-1.081580639E1,-3.709217072E0,1.353322506E0
3.645019688E0,-1.088284397E1,-3.589506865E0,1.391629696E0
3.647507500E0,-1.099776554E1,-3.455431700E0,1.415571809E0
3.649995313E0,-1.111268711E1,-3.321356297E0,1.434725404E0
3.652483125E0,-1.116057110E1,-3.177704096E0,1.463455796E0
3.654970938E0,-1.117972469E1,-3.048417330E0,1.506551385E0
3.657458750E0,-1.118451309E1,-2.914341927E0,1.549647093E0
3.659946563E0,-1.117972469E1,-2.804208755E0,1.616684675E0
3.662434375E0,-1.120366669E1,-2.732382774E0,1.645415068E0
3.664922188E0,-1.121803188E1,-2.660556555E0,1.669357181E0
3.667410000E0,-1.123718548E1,-2.579153776E0,1.688510776E0
3.669897813E0,-1.126112747E1,-2.516904593E0,1.722029567E0
3.672385625E0,-1.133295345E1,-2.435501575E0,1.760336757E0
3.674873438E0,-1.141435623E1,-2.363675594E0,1.779490471E0
3.677361250E0,-1.150054741E1,-2.272696018E0,1.789067268E0
3.679849063E0,-1.156758595E1,-2.176927805E0,1.817797661E0
3.682336875E0,-1.166335392E1,-2.071583033E0,1.836951256E0
3.684824688E0,-1.173996830E1,-1.985391736E0,1.870470047E0
3.687312500E0,-1.183094788E1,-1.870470047E0,1.870470047E0
3.689800313E0,-1.194108105E1,-1.745971560E0,1.851316452E0
3.692288125E0,-1.205600262E1,-1.602319479E0,1.832162857E0
3.694775938E0,-1.221880817E1,-1.444302201E0,1.817797661E0
3.697263698E0,-1.241513252E1,-1.257554412E0,1.793855667E0
3.699751459E0,-1.265455341E1,-1.085171938E0,1.741183162E0
3.702239219E0,-1.290355015E1,-9.319429994E-1,1.650203466E0
3.704726980E0,-1.314775848E1,-7.978677154E-1,1.564012289E0
3.707214740E0,-1.338239002E1,-6.685808301E-1,1.429937005E0
3.709702500E0,-1.359786892E1,-5.871779919E-1,1.281496406E0
3.712190261E0,-1.379898167E1,-5.345055461E-1,1.137844324E0
3.714678021E0,-1.399051762E1,-4.674678743E-1,9.654618502E-1
3.717165782E0,-1.412938118E1,-4.339490533E-1,7.691373229E-1
3.719653542E0,-1.425387955E1,-4.243722558E-1,6.063315868E-1
3.722141303E0,-1.434007072E1,-4.387374520E-1,4.339490533E-1
3.724629063E0,-1.435922432E1,-4.770447016E-1,2.663549483E-1
3.727116823E0,-1.433528233E1,-5.728127360E-1,7.960720360E-2
3.729604584E0,-1.424430275E1,-7.308300734E-1,-1.262941360E-1
3.732092344E0,-1.410065079E1,-9.415197968E-1,-3.226186931E-1
3.734580105E0,-1.391390324E1,-1.214458823E0,-4.806360006E-1
3.737067865E0,-1.367448330E1,-1.544858694E0,-6.194996834E-1
3.739555625E0,-1.344942760E1,-1.903988957E0,-7.296329737E-1
3.742043386E0,-1.323873806E1,-2.258330822E0,-7.392097712E-1
3.744531146E0,-1.297058773E1,-2.593518972E0,-7.152677774E-1
3.747018907E0,-1.267370701E1,-2.895188332E0,-6.482301354E-1
3.749506667E0,-1.234809494E1,-3.177704096E0,-5.620388389E-1
3.751994428E0,-1.203684902E1,-3.436278105E0,-4.758476019E-1
3.754482188E0,-1.175912189E1,-3.666121244E0,-3.896563351E-1
3.756969948E0,-1.151012421E1,-3.886387825E0,-2.938882709E-1
3.759457709E0,-1.131858826E1,-4.063559055E0,-1.646013707E-1
3.761945469E0,-1.117972469E1,-4.202422619E0,-2.094926499E-2
3.764433230E0,-1.110789871E1,-4.312555790E0,1.322796494E-1
3.766920990E0,-1.109832191E1,-4.393958569E0,2.567781210E-1
3.769408750E0,-1.115099430E1,-4.427477360E0,3.716998100E-1
3.771896511E0,-1.126591587E1,-4.432265759E0,4.818331003E-1
3.774384271E0,-1.139520264E1,-4.403535366E0,5.392939448E-1
3.776872032E0,-1.160589314E1,-4.317344189E0,6.015431881E-1
3.779359844E0,-1.182615948E1,-4.197634220E0,6.590040326E-1
3.781847657E0,-1.203684902E1,-4.077924252E0,6.973112226E-1
3.784335469E0,-1.222838497E1,-3.953425646E0,7.164648771E-1
3.786823282E0,-1.243428612E1,-3.833715439E0,7.116764784E-1
3.789311094E0,-1.259709263E1,-3.709217072E0,7.020996213E-1
3.791798907E0,-1.274074459E1,-3.584718466E0,6.781576276E-1
3.794286719E0,-1.288439655E1,-3.436278105E0,6.781576276E-1
3.796774532E0,-1.302804852E1,-3.239953518E0,6.781576276E-1
3.799262344E0,-1.316212368E1,-3.005321741E0,6.829460263E-1
3.801750157E0,-1.328183365E1,-2.761113167E0,7.020996213E-1
3.804237969E0,-1.336323643E1,-2.497750998E0,6.925228238E-1
3.806725782E0,-1.342548561E1,-2.239177227E0,6.494272351E-1
3.809213594E0,-1.349731255E1,-2.004545450E0,6.111199856E-1
3.811701407E0,-1.351646614E1,-1.822586060E0,5.440823436E-1
3.814189219E0,-1.352125454E1,-1.707664371E0,4.626794755E-1
3.816677032E0,-1.348773575E1,-1.621473074E0,3.477577865E-1
3.819164844E0,-1.340633202E1,-1.568800688E0,2.041056901E-1
3.821652657E0,-1.329141045E1,-1.578377485E0,6.045359373E-2
3.824140469E0,-1.317648888E1,-1.631049871E0,-8.798690885E-2
3.826628282E0,-1.305199051E1,-1.712452769E0,-2.076970041E-1
3.829116094E0,-1.290833855E1,-1.851316452E0,-2.747346461E-1
3.831603907E0,-1.276468658E1,-1.980603337E0,-2.986766696E-1
3.834091719E0,-1.264018822E1,-2.114678621E0,-2.843114436E-1
3.836579532E0,-1.248695850E1,-2.224812031E0,-2.507926226E-1
3.839067344E0,-1.236724854E1,-2.349310398E0,-2.268506140E-1
3.841555157E0,-1.224275017E1,-2.454655409E0,-1.741781682E-1
3.844042969E0,-1.215177059E1,-2.579153776E0,-1.406593472E-1
3.846530782E0,-1.209430981E1,-2.674921751E0,-9.277531505E-2
3.849018594E0,-1.207036781E1,-2.775478363E0,-1.137245819E-2
3.851506407E0,-1.207036781E1,-2.861669540E0,1.083376259E-1
3.853994219E0,-1.209909821E1,-2.904765129E0,1.945288926E-1
3.856482032E0,-1.212304020E1,-2.938283920E0,3.046621680E-1
3.858969844E0,-1.215177059E1,-2.928707123E0,3.812766075E-1
3.861457657E0,-1.218050098E1,-2.909553528E0,4.674678743E-1
3.863945469E0,-1.223317337E1,-2.871246338E0,5.249287486E-1
3.866433282E0,-1.231457615E1,-2.856881142E0,6.015431881E-1
3.868921094E0,-1.237203693E1,-2.804208755E0,6.877344251E-1
3.871408907E0,-1.243907452E1,-2.741959572E0,7.643488646E-1
3.873896719E0,-1.248217010E1,-2.646191359E0,8.792705536E-1
3.876384532E0,-1.248217010E1,-2.526481390E0,9.463081956E-1
3.878872344E0,-1.249174690E1,-2.421136379E0,9.989806414E-1
3.881360157E0,-1.248217010E1,-2.325368404E0,1.056441545E0
3.883847969E0,-1.250132370E1,-2.243965626E0,1.104325533E0
3.886335782E0,-1.253005505E1,-2.181716204E0,1.123479128E0
3.888823594E0,-1.252047825E1,-2.129043818E0,1.156997919E0
3.891311407E0,-1.254442024E1,-2.066794634E0,1.171363235E0
3.893799219E0,-1.257793903E1,-1.999756932E0,1.190516829E0
3.896287032E0,-1.261624622E1,-1.913565755E0,1.228824019E0
3.898774844E0,-1.266891861E1,-1.822586060E0,1.252766013E0
3.901262657E0,-1.270722580E1,-1.698087573E0,1.238400817E0
3.903750469E0,-1.271201420E1,-1.592742682E0,1.200093627E0
3.906238282E0,-1.269286060E1,-1.496974587E0,1.147421122E0
3.908726094E0,-1.264976501E1,-1.415571809E0,1.066018343E0
3.911213907E0,-1.259709263E1,-1.377264500E0,9.894038439E-1
3.913701719E0,-1.258751583E1,-1.338957310E0,9.127894044E-1
3.916189532E0,-1.256357384E1,-1.291073322E0,8.074445128E-1
3.918677344E0,-1.253963184E1,-1.228824019E0,6.733692288E-1
3.921165157E0,-1.255399704E1,-1.147421122E0,5.440823436E-1
3.923652969E0,-1.256836224E1,-1.075595140E0,3.860650361E-1
3.926140782E0,-1.257315063E1,-1.022922635E0,2.424129248E-1
3.928628594E0,-1.255399704E1,-9.989806414E-1,1.370680481E-1
3.931116407E0,-1.252047825E1,-1.032499433E0,1.735796221E-2
3.933604219E0,-1.245343971E1,-1.104325533E0,-5.446808785E-2
3.936092032E0,-1.234809494E1,-1.190516829E0,-1.023521200E-1
3.938579844E0,-1.225232697E1,-1.262342811E0,-1.550245583E-1
3.941067657E0,-1.210388660E1,-1.329380512E0,-1.646013707E-1
3.943555469E0,-1.197938824E1,-1.396418095E0,-1.598129570E-1
3.946043282E0,-1.184052467E1,-1.468244195E0,-1.071405262E-1
3.948531094E0,-1.171602631E1,-1.525704980E0,-3.531447425E-2
3.951018907E0,-1.160110474E1,-1.554435492E0,6.045359373E-2
3.953506719E0,-1.150533581E1,-1.559223890E0,1.562216580E-1
3.955994532E0,-1.142872143E1,-1.549647093E0,2.567781210E-1
3.958482344E0,-1.140477943E1,-1.511339784E0,3.764882088E-1
3.960970157E0,-1.141914463E1,-1.449090600E0,4.914098978E-1
3.963457969E0,-1.146224022E1,-1.410783410E0,5.871779919E-1
3.965945782E0,-1.151012421E1,-1.348534107E0,6.685808301E-1
3.968433594E0,-1.162983513E1,-1.295861721E0,7.356184721E-1
3.970921407E0,-1.172081470E1,-1.243189216E0,7.978677154E-1
3.973409219E0,-1.182137108E1,-1.200093627E0,8.601169586E-1
3.975897032E0,-1.188362026E1,-1.109113932E0,8.840589523E-1
3.978384844E0,-1.189798546E1,-9.702502489E-1,8.984242082E-1
3.980872657E0,-1.189319706E1,-7.739257216E-1,9.127894044E-1
3.983360469E0,-1.186446667E1,-5.871779919E-1,9.032126069E-1
3.985848282E0,-1.184052467E1,-3.812766075E-1,8.744821548E-1
3.988336094E0,-1.185488987E1,-1.897404790E-1,8.265981078E-1
3.990823907E0,-1.187404346E1,-4.129998013E-2,8.265981078E-1
3.993311719E0,-1.191235065E1,9.277531505E-2,8.074445128E-1
3.995799480E0,-1.191235065E1,1.741781682E-1,7.930793166E-1
3.998287240E0,-1.185488987E1,2.316390127E-1,8.026561141E-1
4.000775000E0,-1.175433350E1,2.603694201E-1,8.122329116E-1
4.003262761E0,-1.159152794E1,2.795230448E-1,7.930793166E-1
4.005750521E0,-1.141914463E1,2.890998423E-1,7.978677154E-1
4.008238282E0,-1.121803188E1,2.890998423E-1,7.787141204E-1
4.010726042E0,-1.100255394E1,2.651578486E-1,7.739257216E-1
4.013213803E0,-1.083974838E1,2.172738016E-1,7.835025191E-1
4.015701563E0,-1.067215443E1,1.406593472E-1,8.122329116E-1
4.018189323E0,-1.055723286E1,4.489128292E-2,8.265981078E-1
4.020677084E0,-1.045188713E1,-5.087678507E-2,8.840589523E-1
4.023164844E0,-1.032738876E1,-1.849520802E-1,9.510966539E-1
4.025652605E0,-1.017894840E1,-3.333925903E-1,1.018134236E0
4.028140365E0,-9.982624054E0,-5.105634928E-1,1.066018343E0
4.030628125E0,-9.767146111E0,-6.542156339E-1,1.056441545E0
4.033115886E0,-9.570821762E0,-7.978677154E-1,1.080383539E0
4.035603646E0,-9.374496460E0,-8.649053574E-1,1.089960337E0
4.038091407E0,-9.202114105E0,-9.175778031E-1,1.123479128E0
4.040579167E0,-9.077615738E0,-8.984242082E-1,1.142632723E0
4.043066928E0,-8.972270966E0,-8.696937561E-1,1.161786318E0
4.045554688E0,-8.943540573E0,-7.978677154E-1,1.204882026E0
4.048042448E0,-8.948328972E0,-7.404068708E-1,1.204882026E0
4.050530209E0,-8.996212959E0,-6.685808301E-1,1.200093627E0
4.053017969E0,-9.068038940E0,-6.111199856E-1,1.195305228E0
4.055505730E0,-9.149441719E0,-5.297171474E-1,1.209670424E0
4.057993490E0,-9.221267700E0,-4.291606545E-1,1.214458823E0
4.060481250E0,-9.293093681E0,-2.902969420E-1,1.166574836E0
4.062969011E0,-9.364919662E0,-1.035492271E-1,1.118690729E0
4.065456771E0,-9.436745644E0,6.404489279E-2,1.046864748E0
4.067944532E0,-9.522936821E0,2.412158251E-1,9.702502489E-1
4.070432292E0,-9.551667213E0,4.183867574E-1,9.223662019E-1
4.072920053E0,-9.613917351E0,5.476736426E-1,8.984242082E-1
4.075407813E0,-9.657012939E0,6.242880821E-1,8.696937561E-1
4.077895573E0,-9.695320129E0,7.104793787E-1,8.170213103E-1
4.080383334E0,-9.728838921E0,7.583633661E-1,7.739257216E-1
4.082871146E0,-9.767146111E0,7.918822169E-1,7.356184721E-1
4.085358959E0,-9.757569313E0,8.206126094E-1,7.164648771E-1
4.087846771E0,-9.704896927E0,8.684966564E-1,7.260416746E-1
4.090334584E0,-9.613917351E0,8.732850552E-1,7.164648771E-1
4.092822396E0,-9.479841232E0,8.828618526E-1,7.451952696E-1
4.095310209E0,-9.364919662E0,8.541314602E-1,7.451952696E-1
4.097798021E0,-9.245209694E0,8.062474132E-1,7.691373229E-1
4.100285834E0,-9.135076523E0,7.056909800E-1,7.882909179E-1
4.102773646E0,-9.039308548E0,5.668272376E-1,8.122329116E-1
4.105261459E0,-8.967482567E0,3.944447339E-1,8.265981078E-1
4.107749271E0,-8.924386978E0,1.981201917E-1,8.361749649E-1
4.110237084E0,-8.871714592E0,2.094926499E-2,8.984242082E-1
4.112724896E0,-8.795100212E0,-1.035492271E-1,9.510966539E-1
4.115212709E0,-8.713697433E0,-1.753752679E-1,9.750386477E-1
4.117700521E0,-8.637083054E0,-2.519897223E-1,1.018134236E0
4.120188334E0,-8.622717857E0,-3.142389655E-1,1.085171938E0
4.122676146E0,-8.656236649E0,-4.004302323E-1,1.142632723E0
4.125163959E0,-8.728062630E0,-5.297171474E-1,1.243189216E0
4.127651771E0,-8.842984200E0,-6.973112226E-1,1.324592113E0
4.130139584E0,-8.977059364E0,-8.505401611E-1,1.415571809E0
4.132627396E0,-9.115922928E0,-9.654618502E-1,1.496974587E0
4.135115209E0,-9.254786491E0,-1.085171938E0,1.583165884E0
4.137603021E0,-9.408015251E0,-1.156997919E0,1.659780383E0
4.140090834E0,-9.522936821E0,-1.219247222E0,1.741183162E0
4.142578646E0,-9.661801338E0,-1.276708007E0,1.836951256E0
4.145066459E0,-9.819818497E0,-1.338957310E0,1.942296147E0
4.147554271E0,-9.992200851E0,-1.405994892E0,2.042852640E0
4.150042084E0,-1.015021801E1,-1.463455796E0,2.100313425E0
4.152529896E0,-1.029865837E1,-1.492186189E0,2.052429438E0
4.155017709E0,-1.041357994E1,-1.511339784E0,1.927930951E0
4.157505521E0,-1.054286766E1,-1.544858694E0,1.731606364E0
4.159993334E0,-1.067694283E1,-1.611896276E0,1.463455796E0
4.162481146E0,-1.078228760E1,-1.674145579E0,1.128267527E0
4.164968959E0,-1.086369038E1,-1.702875972E0,7.499836683E-1
4.167456771E0,-1.091636276E1,-1.664568782E0,3.525462151E-1
4.169944584E0,-1.092593956E1,-1.587954283E0,-7.841010392E-2
4.172432396E0,-1.093551636E1,-1.482609391E0,-4.902127981E-1
4.174920209E0,-1.089720917E1,-1.386841297E0,-8.828618526E-1
4.177408021E0,-1.087326717E1,-1.286284804E0,-1.289876223E0
4.179895834E0,-1.086847878E1,-1.214458823E0,-1.682525277E0
4.182383646E0,-1.092593956E1,-1.185728431E0,-2.012925148E0
4.184871459E0,-1.101213074E1,-1.152209520E0,-2.314594507E0
4.187359271E0,-1.110311031E1,-1.128267527E0,-2.558803082E0
4.189847084E0,-1.111747551E1,-1.104325533E0,-2.707243681E0
4.192334896E0,-1.105043793E1,-1.075595140E0,-2.826953650E0
4.194822709E0,-1.089242077E1,-1.037287831E0,-2.908356428E0
4.197310521E0,-1.070088482E1,-9.846154451E-1,-2.946663857E0
4.199798334E0,-1.051413631E1,-9.798270464E-1,-2.922721624E0
4.202286146E0,-1.034654236E1,-1.027711034E0,-2.831742048E0
4.204773959E0,-1.018373680E1,-1.142632723E0,-2.731185675E0
4.207261771E0,-9.977835655E0,-1.286284804E0,-2.601898670E0
4.209749584E0,-9.747992516E0,-1.386841297E0,-2.443881273E0
4.212237396E0,-9.475052834E0,-1.382052898E0,-2.333748102E0
4.214725209E0,-9.168595314E0,-1.329380512E0,-2.218826532E0
4.217213021E0,-8.876502991E0,-1.233612418E0,-2.099116325E0
4.219700834E0,-8.637083054E0,-1.156997919E0,-1.955464244E0
4.222188646E0,-8.354566574E0,-1.094748735E0,-1.687313676E0
4.224676459E0,-8.139088631E0,-1.008557439E0,-1.256357312E0
4.227164271E0,-7.957129478E0,-9.654618502E-1,-7.918822169E-1
4.229652084E0,-7.799111843E0,-9.175778031E-1,-3.321954906E-1
4.232139896E0,-7.617152691E0,-8.649053574E-1,7.481880486E-2
4.234627709E0,-7.406463146E0,-7.739257216E-1,3.812766075E-1
4.237115521E0,-7.152677536E0,-6.781576276E-1,6.398503780E-1
4.239603334E0,-6.922834396E0,-5.776011348E-1,8.696937561E-1
4.242091146E0,-6.745663166E0,-5.009866953E-1,1.061229944E0
4.244578959E0,-6.611588001E0,-4.578910768E-1,1.257554412E0
4.247066771E0,-6.511031628E0,-4.291606545E-1,1.429937005E0
4.249554584E0,-6.405686855E0,-4.387374520E-1,1.587954283E0
4.252042396E0,-6.271611214E0,-4.578910768E-1,1.698087573E0
4.254530209E0,-6.123170853E0,-4.770447016E-1,1.760336757E0
4.257018021E0,-5.922058105E0,-4.626794755E-1,1.784278870E0
4.259505834E0,-5.720944881E0,-4.674678743E-1,1.741183162E0
4.261993646E0,-5.486313343E0,-4.722562730E-1,1.640626669E0
4.264481459E0,-5.266046524E0,-4.961982965E-1,1.506551385E0
4.266969271E0,-5.108029366E0,-5.201402903E-1,1.405994892E0
4.269457084E0,-4.997896194E0,-5.057750940E-1,1.334168911E0
4.271944896E0,-4.897339344E0,-4.435258508E-1,1.276708007E0
4.274432709E0,-4.791994572E0,-3.812766075E-1,1.247977614E0
4.276920521E0,-4.653131008E0,-3.429693878E-1,1.195305228E0
4.279408334E0,-4.442441463E0,-3.286041915E-1,1.061229944E0
4.281896094E0,-4.212597847E0,-3.381809890E-1,8.840589523E-1
4.284383855E0,-3.954024076E0,-3.238157928E-1,7.020996213E-1
4.286871615E0,-3.748122692E0,-2.615665495E-1,5.345055461E-1
4.289359375E0,-3.570951939E0,-1.370680481E-1,4.387374520E-1
4.291847136E0,-3.470395327E0,4.010287672E-2,3.669114113E-1
4.294334896E0,-3.355473757E0,2.412158251E-1,3.142389655E-1
4.296822657E0,-3.226186752E0,4.662707746E-1,2.519897223E-1
4.299310417E0,-3.087323189E0,6.386532784E-1,1.610100716E-1
4.301798178E0,-2.934094191E0,7.439981699E-1,3.651157767E-2
4.304285938E0,-2.785653591E0,8.254010081E-1,-8.798690885E-2
4.306773698E0,-2.642001629E0,8.828618526E-1,-2.029085904E-1
4.309261459E0,-2.512714624E0,8.924387097E-1,-3.274070919E-1
4.311749219E0,-2.402581453E0,8.780734539E-1,-5.093663931E-1
4.314236980E0,-2.306813240E0,8.445546627E-1,-7.344213724E-1
4.316724740E0,-2.196680069E0,8.158242106E-1,-9.929951429E-1
4.319212500E0,-2.105700493E0,7.966706157E-1,-1.280299306E0
4.321700261E0,-2.062604666E0,7.823054194E-1,-1.581968784E0
4.324188021E0,-2.053027868E0,7.679402232E-1,-1.854907751E0
4.326675782E0,-2.076969862E0,7.631517649E-1,-2.137423515E0
4.329163542E0,-2.115277290E0,7.679402232E-1,-2.400785685E0
4.331651303E0,-2.163161278E0,7.535749674E-1,-2.611475468E0
4.334139063E0,-2.220622063E0,7.535749674E-1,-2.783858061E0
4.336626823E0,-2.287659645E0,7.487865686E-1,-2.870049238E0
4.339114584E0,-2.345120668E0,7.439981699E-1,-2.922721624E0
4.341602344E0,-2.378639460E0,7.439981699E-1,-2.893991232E0
4.344090105E0,-2.421735048E0,7.727286220E-1,-2.860472441E0
4.346577865E0,-2.469619036E0,8.110358119E-1,-2.779069662E0
4.349065625E0,-2.498349428E0,8.780734539E-1,-2.683301449E0
4.351553386E0,-2.555810213E0,9.259575009E-1,-2.525284290E0
4.354041146E0,-2.661155224E0,9.642647505E-1,-2.367266893E0
4.356528907E0,-2.771288395E0,9.977835417E-1,-2.199672699E0
4.359016667E0,-2.890998602E0,9.977835417E-1,-2.017713547E0
4.361504428E0,-2.996343374E0,9.882067442E-1,-1.850119352E0
4.363992188E0,-3.087323189E0,9.786299467E-1,-1.658583283E0
4.366479948E0,-3.163937569E0,9.642647505E-1,-1.481412292E0
4.368967709E0,-3.259705544E0,9.211691022E-1,-1.332971811E0
4.371455469E0,-3.408146143E0,8.637082577E-1,-1.189319730E0
4.373943282E0,-3.575740337E0,7.966706157E-1,-1.079186440E0
4.376431094E0,-3.800795317E0,7.296329737E-1,-9.834183455E-1
4.378918907E0,-4.049792290E0,6.721721292E-1,-9.259575009E-1
4.381406719E0,-4.313154221E0,6.051344872E-1,-9.259575009E-1
4.383894532E0,-4.523844242E0,5.237316489E-1,-9.786299467E-1
4.386382344E0,-4.696226597E0,3.992331326E-1,-1.093551636E0
4.388870157E0,-4.859032154E0,1.981201917E-1,-1.246780515E0
4.391357969E0,-5.012261391E0,-6.524199992E-2,-1.404797792E0
4.393845782E0,-5.146336555E0,-3.525462151E-1,-1.572391987E0
4.396333594E0,-5.280411720E0,-6.542156339E-1,-1.706467271E0
4.398821407E0,-5.371391296E0,-9.271546006E-1,-1.816600561E0
4.401309219E0,-5.471948147E0,-1.147421122E0,-1.869272947E0
4.403797032E0,-5.529408932E0,-1.367687702E0,-1.888426542E0
4.406284844E0,-5.596446514E0,-1.525704980E0,-1.859696150E0
4.408772657E0,-5.697002888E0,-1.678933978E0,-1.768716455E0
4.411260469E0,-5.807136059E0,-1.836951256E0,-1.649006367E0
4.413748282E0,-5.974730492E0,-2.004545450E0,-1.529296279E0
4.416236094E0,-6.142324448E0,-2.167351007E0,-1.352125406E0
4.418723907E0,-6.314706802E0,-2.334945202E0,-1.146224022E0
4.421211719E0,-6.482301235E0,-2.430713177E0,-9.307458997E-1
4.423699532E0,-6.659471989E0,-2.531269789E0,-7.009025216E-1
4.426187344E0,-6.812700748E0,-2.617460966E0,-4.710591733E-1
4.428675157E0,-6.980295181E0,-2.737171173E0,-3.082534671E-1
4.431162969E0,-7.119158745E0,-2.885611534E0,-2.220622003E-1
4.433650782E0,-7.262810707E0,-3.034052134E0,-2.507926226E-1
4.436138594E0,-7.372944355E0,-3.220799923E0,-3.226186931E-1
4.438626407E0,-7.483077526E0,-3.417124271E0,-5.380968451E-1
4.441114219E0,-7.612364292E0,-3.646967649E0,-7.296329737E-1
4.443602032E0,-7.727285862E0,-3.886387825E0,-9.115923047E-1
4.446089844E0,-7.866149902E0,-4.101866245E0,-1.093551636E0
4.448577657E0,-7.961917877E0,-4.293402195E0,-1.275510907E0
4.451065469E0,-8.048109055E0,-4.460996151E0,-1.471835494E0
4.453553282E0,-8.124723434E0,-4.575918198E0,-1.706467271E0
4.456041094E0,-8.191761017E0,-4.681262970E0,-1.945887446E0
4.458528907E0,-8.287528992E0,-4.772242546E0,-2.209249735E0
4.461016719E0,-8.378508568E0,-4.853645325E0,-2.486977100E0
4.463504532E0,-8.440757751E0,-4.939836502E0,-2.783858061E0
4.465992344E0,-8.493430138E0,-4.992508888E0,-3.080739021E0
4.468480157E0,-8.503006935E0,-5.016450882E0,-3.396773577E0
4.470967969E0,-8.469488144E0,-5.006874084E0,-3.722385168E0
4.473455782E0,-8.402450562E0,-4.997297287E0,-4.062361717E0
4.475943594E0,-8.344989777E0,-5.016450882E0,-4.340089321E0
4.478431407E0,-8.311470985E0,-5.078700542E0,-4.574720860E0
4.480919219E0,-8.306682587E0,-5.169680119E0,-4.766256809E0
4.483407032E0,-8.297105789E0,-5.294178486E0,-4.871602058E0
4.485894844E0,-8.292317390E0,-5.413888454E0,-4.948216438E0
4.488382657E0,-8.292317390E0,-5.524022102E0,-5.029619217E0
4.490870469E0,-8.249221802E0,-5.581482887E0,-5.063138008E0
4.493358282E0,-8.234856606E0,-5.600636482E0,-5.034407616E0
4.495846094E0,-8.225279808E0,-5.600636482E0,-4.953004837E0
4.498333907E0,-8.230068207E0,-5.591059685E0,-4.823718071E0
4.500821719E0,-8.249221802E0,-5.567117691E0,-4.665700436E0
4.503309532E0,-8.263586998E0,-5.547964096E0,-4.498106480E0
4.505797344E0,-8.306682587E0,-5.524022102E0,-4.316147327E0
4.508285157E0,-8.344989777E0,-5.466560841E0,-4.110245705E0
4.510772969E0,-8.378508568E0,-5.404311657E0,-3.885190725E0
4.513260782E0,-8.416815758E0,-5.332485676E0,-3.664924145E0
4.515748594E0,-8.392873764E0,-5.227140903E0,-3.439869404E0
4.518236407E0,-8.340201378E0,-5.121796131E0,-3.233968019E0
4.520724219E0,-8.254010201E0,-4.992508888E0,-3.037643433E0
4.523212032E0,-8.191761017E0,-4.858433723E0,-2.870049238E0
4.525699844E0,-8.153453827E0,-4.772242546E0,-2.683301449E0
4.528187657E0,-8.163030624E0,-4.666897774E0,-2.477400303E0
4.530675469E0,-8.206126213E0,-4.561553001E0,-2.252345324E0
4.533163282E0,-8.287528992E0,-4.441842556E0,-2.060809135E0
4.535651094E0,-8.364143372E0,-4.302978992E0,-1.888426542E0
4.538138907E0,-8.450334549E0,-4.140173435E0,-1.739986062E0
4.540626719E0,-8.550890923E0,-3.934272051E0,-1.596333981E0
4.543114532E0,-8.689755440E0,-3.714005470E0,-1.481412292E0
4.545602344E0,-8.871714592E0,-3.469796896E0,-1.342548609E0
4.548090157E0,-9.106346130E0,-3.230376720E0,-1.179742932E0
4.550577969E0,-9.350554466E0,-3.010110140E0,-1.064821243E0
4.553065730E0,-9.551667213E0,-2.852092743E0,-9.738415480E-1
4.555553490E0,-9.738415718E0,-2.684498549E0,-9.259575009E-1
4.558041250E0,-9.872490883E0,-2.540846586E0,-8.876502514E-1
4.560529011E0,-9.968258858E0,-2.392405987E0,-9.211691022E-1
4.563016771E0,-9.987412453E0,-2.234388828E0,-9.738415480E-1
4.565504532E0,-9.910798073E0,-2.085948229E0,-1.026513934E0
4.567992448E0,-9.757569313E0,-1.923142552E0,-1.127070427E0
4.570480313E0,-9.556455612E0,-1.769913554E0,-1.222838521E0
4.572968073E0,-9.321824074E0,-1.645415068E0,-1.318606615E0
4.575455834E0,-9.068038940E0,-1.554435492E0,-1.371279001E0
4.577943594E0,-8.838195801E0,-1.492186189E0,-1.423951507E0
4.580431355E0,-8.598775864E0,-1.458667397E0,-1.457470298E0
4.582919115E0,-8.388085365E0,-1.420360208E0,-1.476623893E0
4.585406875E0,-8.182184219E0,-1.377264500E0,-1.471835494E0
4.587894636E0,-8.009801865E0,-1.367687702E0,-1.457470298E0
4.590382396E0,-7.851784706E0,-1.343745708E0,-1.447893500E0
4.592870157E0,-7.693767071E0,-1.310226917E0,-1.390432596E0
4.595357917E0,-7.574057102E0,-1.267131209E0,-1.304241419E0
4.597845678E0,-7.497442722E0,-1.252766013E0,-1.203684926E0
4.600333438E0,-7.430405140E0,-1.233612418E0,-1.093551636E0
4.602821198E0,-7.368155956E0,-1.247977614E0,-9.738415480E-1
4.605308959E0,-7.320271492E0,-1.247977614E0,-8.637082577E-1
4.607796719E0,-7.253233910E0,-1.252766013E0,-7.775170207E-1
4.610284480E0,-7.229291916E0,-1.271919608E0,-6.865373254E-1
4.612772240E0,-7.181407928E0,-1.276708007E0,-6.099228859E-1
4.615260000E0,-7.138312340E0,-1.257554412E0,-5.380968451E-1
4.617747761E0,-7.119158745E0,-1.257554412E0,-4.758476019E-1
4.620235521E0,-7.119158745E0,-1.219247222E0,-4.375403523E-1
4.622723282E0,-7.109581947E0,-1.204882026E0,-4.135983288E-1
4.625211042E0,-7.090428352E0,-1.209670424E0,-3.944447339E-1
4.627698959E0,-7.061697960E0,-1.224035621E0,-4.183867574E-1
4.630186875E0,-7.037755966E0,-1.257554412E0,-5.045779943E-1
4.632674792E0,-7.032967567E0,-1.334168911E0,-5.811924338E-1
4.635162709E0,-7.047332764E0,-1.386841297E0,-6.625953317E-1
4.637650625E0,-7.047332764E0,-1.425148606E0,-7.775170207E-1
4.640138542E0,-7.100005150E0,-1.468244195E0,-9.020155072E-1
4.642626303E0,-7.143100739E0,-1.477820992E0,-9.977835417E-1
4.645114063E0,-7.143100739E0,-1.477820992E0,-1.117493629E0
4.647601823E0,-7.095216751E0,-1.473032594E0,-1.265934110E0
4.650089584E0,-7.042544365E0,-1.487397790E0,-1.419163108E0
4.652577344E0,-6.965929985E0,-1.492186189E0,-1.586757183E0
4.655065105E0,-6.874950409E0,-1.520916581E0,-1.749562860E0
4.657552865E0,-6.764816761E0,-1.530493379E0,-1.912368655E0
4.660040625E0,-6.635529995E0,-1.554435492E0,-2.108693123E0
4.662528386E0,-6.506243229E0,-1.592742682E0,-2.324171305E0
4.665016146E0,-6.386533260E0,-1.654991984E0,-2.506130695E0
4.667503907E0,-6.271611214E0,-1.731606364E0,-2.692878246E0
4.669991667E0,-6.175843239E0,-1.803432465E0,-2.850895643E0
4.672479428E0,-6.094440460E0,-1.884835243E0,-2.965817451E0
4.674967188E0,-6.056133270E0,-1.980603337E0,-3.042431831E0
4.677454948E0,-6.046556473E0,-2.095525026E0,-3.114257812E0
4.679942709E0,-6.041768074E0,-2.176927805E0,-3.114257812E0
4.682430469E0,-6.041768074E0,-2.282272816E0,-3.142988205E0
4.684918230E0,-6.051344872E0,-2.382829189E0,-3.085527420E0
4.687405990E0,-6.027402878E0,-2.473809004E0,-3.004124641E0
4.689893750E0,-6.022614479E0,-2.569576979E0,-2.917933226E0
4.692381511E0,-6.022614479E0,-2.646191359E0,-2.817376852E0
4.694869271E0,-6.027402878E0,-2.732382774E0,-2.735974073E0
4.697357032E0,-6.056133270E0,-2.808997154E0,-2.635417461E0
4.699844792E0,-6.089652061E0,-2.861669540E0,-2.539649487E0
4.702332553E0,-6.127959251E0,-2.899976730E0,-2.419939280E0
4.704820313E0,-6.175843239E0,-2.919130325E0,-2.290652514E0
4.707308073E0,-6.209362030E0,-2.914341927E0,-2.123058319E0
4.709795834E0,-6.295553207E0,-2.871246338E0,-1.993771434E0
4.712283594E0,-6.367379189E0,-2.785055161E0,-1.850119352E0
4.714771355E0,-6.448782444E0,-2.655768156E0,-1.711255670E0
4.717259115E0,-6.534973621E0,-2.488174200E0,-1.577180386E0
4.719746875E0,-6.654683590E0,-2.330156803E0,-1.438316703E0
4.722234636E0,-6.822277546E0,-2.138620615E0,-1.332971811E0
4.724722396E0,-7.004237175E0,-1.932719350E0,-1.246780515E0
4.727210157E0,-7.186196327E0,-1.731606364E0,-1.179742932E0
4.729697917E0,-7.310694695E0,-1.520916581E0,-1.146224022E0
4.732185678E0,-7.387309551E0,-1.286284804E0,-1.194108129E0
4.734673438E0,-7.444770336E0,-1.085171938E0,-1.251568913E0
4.737161198E0,-7.473500729E0,-8.840589523E-1,-1.332971811E0
4.739649011E0,-7.502231121E0,-7.068880796E-1,-1.409586191E0
4.742136823E0,-7.502231121E0,-5.345055461E-1,-1.514931083E0
4.744624636E0,-7.478289127E0,-3.908534348E-1,-1.682525277E0
4.747112448E0,-7.459135532E0,-2.280477136E-1,-1.840542555E0
4.749600261E0,-7.439981937E0,-9.876082093E-2,-2.003348351E0
4.752088073E0,-7.478289127E0,-1.256955881E-2,-2.194884300E0
4.754575886E0,-7.545326710E0,-1.735796221E-2,-2.386420488E0
4.757063698E0,-7.617152691E0,-9.876082093E-2,-2.582745075E0
4.759551511E0,-7.679401875E0,-2.184709013E-1,-2.745550871E0
4.762039323E0,-7.708132267E0,-3.333925903E-1,-2.870049238E0
4.764527136E0,-7.688978672E0,-4.722562730E-1,-2.994547844E0
4.767014948E0,-7.641094685E0,-5.728127360E-1,-3.071162224E0
4.769502761E0,-7.559691906E0,-6.159083843E-1,-3.147776604E0
4.771990573E0,-7.459135532E0,-6.685808301E-1,-3.190872431E0
4.774478386E0,-7.372944355E0,-6.781576276E-1,-3.229179621E0
4.776966198E0,-7.305906296E0,-7.068880796E-1,-3.257910013E0
4.779454011E0,-7.258022308E0,-7.212532759E-1,-3.238756418E0
4.781941823E0,-7.291541100E0,-7.835025191E-1,-3.176506996E0
4.784429636E0,-7.349001884E0,-8.601169586E-1,-3.052008629E0
4.786917448E0,-7.406463146E0,-9.415197968E-1,-2.879626036E0
4.789405261E0,-7.459135532E0,-1.008557439E0,-2.716820478E0
4.791893073E0,-7.449558735E0,-1.070806742E0,-2.520495892E0
4.794380886E0,-7.411251545E0,-1.075595140E0,-2.324171305E0
4.796868698E0,-7.377732754E0,-1.008557439E0,-2.118269920E0
4.799356511E0,-7.353790283E0,-8.792705536E-1,-1.941099048E0
4.801844323E0,-7.325059891E0,-7.547720671E-1,-1.783081770E0
4.804332136E0,-7.339425087E0,-5.919663906E-1,-1.639429569E0
4.806819948E0,-7.435193539E0,-4.531026781E-1,-1.558026791E0
4.809307761E0,-7.583633900E0,-4.052186310E-1,-1.490989089E0
4.811795573E0,-7.813477039E0,-4.291606545E-1,-1.361702204E0
4.814283386E0,-8.057685852E0,-5.201402903E-1,-1.241992116E0
4.816771198E0,-8.287528992E0,-6.733692288E-1,-1.079186440E0
4.819259011E0,-8.459911346E0,-8.170213103E-1,-9.307458997E-1
4.821746823E0,-8.579621315E0,-9.127894044E-1,-8.254010081E-1
4.824234636E0,-8.675390244E0,-9.415197968E-1,-7.439981699E-1
4.826722448E0,-8.752004623E0,-8.601169586E-1,-7.009025216E-1
4.829210261E0,-8.775946617E0,-7.212532759E-1,-6.865373254E-1
4.831698073E0,-8.809465408E0,-5.345055461E-1,-6.817489266E-1
4.834185886E0,-8.871714592E0,-3.190273643E-1,-7.104793787E-1
4.836673698E0,-8.929175377E0,-1.179144308E-1,-7.679402232E-1
4.839161511E0,-9.039308548E0,4.967968538E-2,-8.397662640E-1
4.841649323E0,-9.139864922E0,1.646013707E-1,-9.594763517E-1
4.844137136E0,-9.216479301E0,2.364274114E-1,-1.107916832E0
4.846624948E0,-9.259574890E0,2.507926226E-1,-1.289876223E0
4.849112761E0,-9.245209694E0,2.555810213E-1,-1.510142684E0
4.851600573E0,-9.182960510E0,2.555810213E-1,-1.735197663E0
4.854088386E0,-9.020154953E0,2.651578486E-1,-1.965041041E0
4.856576198E0,-8.828619003E0,2.795230448E-1,-2.175730705E0
4.859064011E0,-8.603564262E0,3.226186931E-1,-2.386420488E0
4.861551823E0,-8.421604156E0,3.752911091E-1,-2.577956676E0
4.864039636E0,-8.321047783E0,3.896563351E-1,-2.764704466E0
4.866527448E0,-8.325836182E0,3.226186931E-1,-2.932298422E0
4.869015261E0,-8.440757751E0,1.598129570E-1,-3.042431831E0
4.871503073E0,-8.579621315E0,-7.481880486E-2,-3.090315819E0
4.873990886E0,-8.708909035E0,-2.998737693E-1,-3.080739021E0
4.876478698E0,-8.795100212E0,-5.105634928E-1,-3.066373825E0
4.878966511E0,-8.809465408E0,-6.637924314E-1,-3.071162224E0
4.881454323E0,-8.775946617E0,-7.499836683E-1,-3.099892616E0
4.883942136E0,-8.689755440E0,-8.026561141E-1,-3.090315819E0
4.886429948E0,-8.603564262E0,-8.026561141E-1,-3.008913040E0
4.888917761E0,-8.574832916E0,-7.691373229E-1,-2.817376852E0
4.891405573E0,-8.613141060E0,-7.212532759E-1,-2.563591480E0
4.893893386E0,-8.661025047E0,-6.733692288E-1,-2.223614931E0
4.896381146E0,-8.761581421E0,-6.111199856E-1,-1.821388960E0
4.898868907E0,-8.862137794E0,-5.584475398E-1,-1.404797792E0
4.901356667E0,-8.948328972E0,-4.722562730E-1,-9.977835417E-1
4.903844428E0,-9.015366554E0,-3.669114113E-1,-6.338648796E-1
4.906332188E0,-9.077615738E0,-2.232593149E-1,-3.130418658E-1
4.908819948E0,-9.154230118E0,-7.003039867E-2,-1.795651275E-3
4.911307709E0,-9.259574890E0,1.262941360E-1,2.759317458E-1
4.913795469E0,-9.350554466E0,3.226186931E-1,5.488707423E-1
4.916283230E0,-9.417592049E0,5.620388389E-1,8.170213103E-1
4.918770990E0,-9.518148422E0,7.966706157E-1,1.056441545E0
4.921258750E0,-9.676166534E0,1.007360339E0,1.262342811E0
4.923746511E0,-9.819818497E0,1.122282028E0,1.420360208E0
4.926234271E0,-9.968258858E0,1.146224022E0,1.544858694E0
4.928722032E0,-1.010712242E1,1.026513934E0,1.597531080E0
4.931209792E0,-1.019810200E1,8.589198589E-1,1.578377485E0
4.933697553E0,-1.021725559E1,6.194996834E-1,1.506551385E0
4.936185313E0,-1.015979481E1,3.705027103E-1,1.329380512E0
4.938673073E0,-9.987412453E0,1.454477459E-1,1.113902330E0
4.941160834E0,-9.791088104E0,-4.129998013E-2,8.361749649E-1
4.943648594E0,-9.609128952E0,-1.705868691E-1,4.483142793E-1
4.946136355E0,-9.451110840E0,-2.950853705E-1,6.524199992E-2
4.948624115E0,-9.360131264E0,-4.387374520E-1,-3.130418658E-1
4.951111875E0,-9.374496460E0,-6.111199856E-1,-6.578069329E-1
4.953599636E0,-9.403226852E0,-8.026561141E-1,-9.594763517E-1
4.956087396E0,-9.489418030E0,-9.846154451E-1,-1.241992116E0
4.958575157E0,-9.599552155E0,-1.147421122E0,-1.490989089E0
4.961062917E0,-9.680954933E0,-1.252766013E0,-1.716044068E0
4.963550678E0,-9.738415718E0,-1.300650120E0,-1.931522250E0
4.966038438E0,-9.771934509E0,-1.286284804E0,-2.147000313E0
4.968526198E0,-9.752780914E0,-1.224035621E0,-2.352901697E0
4.971013959E0,-9.724050522E0,-1.128267527E0,-2.525284290E0
4.973501719E0,-9.657012939E0,-1.008557439E0,-2.659359455E0
4.975989480E0,-9.575610161E0,-8.553285599E-1,-2.764704466E0
4.978477240E0,-9.494206429E0,-7.260416746E-1,-2.846107244E0
4.980965000E0,-9.393650055E0,-6.159083843E-1,-2.913144827E0
4.983452761E0,-9.302670479E0,-5.536591411E-1,-2.937086821E0
4.985940521E0,-9.202114105E0,-4.818331003E-1,-2.913144827E0
4.988428282E0,-9.091980934E0,-3.956418335E-1,-2.836530447E0
4.990916042E0,-9.001001358E0,-2.902969420E-1,-2.688089848E0
4.993403803E0,-8.977059364E0,-1.610100716E-1,-2.496553898E0
4.995891615E0,-9.039308548E0,1.795651275E-3,-2.257133722E0
4.998379428E0,-9.211690903E0,2.172738016E-1,-1.950675845E0
5.000867240E0,-9.455899239E0,4.423287511E-1,-1.610699177E0
5.003355053E0,-9.700108528E0,6.242880821E-1,-1.213261724E0
5.005842865E0,-9.949105263E0,7.679402232E-1,-7.727286220E-1
5.008330678E0,-1.018852520E1,8.349778652E-1,-3.417722881E-1
5.010818490E0,-1.041357994E1,8.397662640E-1,6.045359373E-2
5.013306303E0,-1.060990524E1,7.535749674E-1,4.626794755E-1
5.015794115E0,-1.075355721E1,6.721721292E-1,8.122329116E-1
5.018281928E0,-1.087805557E1,5.811924338E-1,1.094748735E0
5.020769740E0,-1.091636276E1,4.710591733E-1,1.324592113E0
5.023257553E0,-1.089720917E1,3.800795078E-1,1.511339784E0
5.025745365E0,-1.086369038E1,2.651578486E-1,1.597531080E0
5.028233178E0,-1.079665279E1,1.454477459E-1,1.602319479E0
5.030720990E0,-1.073919201E1,1.616086066E-2,1.492186189E0
5.033208803E0,-1.067694283E1,-1.035492271E-1,1.295861721E0
5.035696615E0,-1.065300083E1,-1.897404790E-1,1.022922635E0
5.038184428E0,-1.067215443E1,-2.328361124E-1,7.260416746E-1
5.040672240E0,-1.070088482E1,-2.424129248E-1,4.004302323E-1
5.043160053E0,-1.071525002E1,-2.280477136E-1,7.003039867E-2
5.045647865E0,-1.072961521E1,-1.849520802E-1,-2.316390127E-1
5.048135678E0,-1.068651962E1,-1.657984704E-1,-5.764040351E-1
5.050623490E0,-1.061948204E1,-1.466448605E-1,-9.403226972E-1
5.053111303E0,-1.054765606E1,-1.227028370E-1,-1.313818216E0
5.055599115E0,-1.043273354E1,-9.397241473E-2,-1.663371682E0
5.058086928E0,-1.027950478E1,-3.651157767E-2,-1.998559833E0
5.060574740E0,-1.011191082E1,4.010287672E-2,-2.295440912E0
5.063062553E0,-9.944316864E0,1.119289324E-1,-2.577956676E0
5.065550365E0,-9.743204117E0,1.885433793E-1,-2.860472441E0
5.068038178E0,-9.585186958E0,2.507926226E-1,-3.119046211E0
