"Time (s)","Gyroscope x (rad/s)","Gyroscope y (rad/s)","Gyroscope z (rad/s)"
5.008479200E-2,-8.042740822E-2,-7.869634777E-2,-1.584579609E-2
5.257078200E-2,-7.403582335E-2,-8.082687855E-2,-1.691105962E-2
5.505895900E-2,-6.338318437E-2,-8.508793265E-2,-1.904158667E-2
5.754921900E-2,-4.846949503E-2,-8.828372508E-2,-2.010685205E-2
6.004140700E-2,-3.249054030E-2,-9.147951752E-2,-2.010685205E-2
6.253526100E-2,-1.331579592E-2,-9.467530251E-2,-2.010685205E-2
6.503046900E-2,6.924213842E-3,-9.787109494E-2,-2.010685205E-2
6.752666700E-2,2.609895915E-2,-1.010668874E-1,-1.904158667E-2
7.002349000E-2,4.633896798E-2,-1.053279415E-1,-1.691105962E-2
7.252057300E-2,6.444845349E-2,-1.106542572E-1,-1.371526904E-2
7.501463600E-2,8.042740822E-2,-1.159805804E-1,-7.323687430E-3
7.750244800E-2,9.534109384E-2,-1.202416345E-1,-9.321057005E-4
7.999026100E-2,1.070589945E-1,-1.234374270E-1,8.655266836E-3
8.247807300E-2,1.166463718E-1,-1.245026886E-1,1.930790395E-2
8.496588600E-2,1.230379492E-1,-1.223721579E-1,3.209106624E-2
8.745369800E-2,1.262337416E-1,-1.191763729E-1,4.487423226E-2
8.994151100E-2,1.251684725E-1,-1.127847880E-1,5.872265995E-2
9.242932300E-2,1.219726875E-1,-1.063932031E-1,7.257108390E-2
9.491713600E-2,1.145158410E-1,-9.893636405E-2,8.535424620E-2
9.740494800E-2,1.059937328E-1,-9.041424841E-2,9.707214683E-2
9.989276100E-2,9.321057051E-2,-8.295740932E-2,1.066595241E-1
1.023805730E-1,7.936213911E-2,-7.443529367E-2,1.151816323E-1
1.048683860E-1,6.338318437E-2,-6.591318548E-2,1.226384789E-1
1.073561980E-1,4.527370632E-2,-5.739107728E-2,1.268995255E-1
1.098440110E-1,2.716422267E-2,-4.780370742E-2,1.300953180E-1
1.123318230E-1,9.054740891E-3,-3.821633384E-2,1.311605871E-1
1.148196360E-1,-7.989477366E-3,-2.862896025E-2,1.311605871E-1
1.173074480E-1,-2.396843210E-2,-2.010685205E-2,1.290300637E-1
1.197952610E-1,-3.888212144E-2,-1.371526904E-2,1.247690022E-1
1.222830730E-1,-5.166528746E-2,-8.388951421E-3,1.194426864E-1
1.247708860E-1,-6.231792271E-2,-5.193160381E-3,1.141163707E-1
1.272586980E-1,-7.084003091E-2,-4.127896391E-3,1.077247858E-1
1.297465110E-1,-7.723161578E-2,-5.193160381E-3,1.013332009E-1
1.322343230E-1,-8.149266988E-2,-8.388951421E-3,9.494162351E-2
1.347221360E-1,-8.362319320E-2,-1.158474199E-2,8.855003864E-2
1.372099480E-1,-8.362319320E-2,-1.691105962E-2,8.322372288E-2
1.396977610E-1,-8.149266988E-2,-2.223737910E-2,7.789740711E-2
1.421855730E-1,-7.723161578E-2,-2.862896025E-2,7.363634557E-2
1.446733860E-1,-7.084003091E-2,-3.608580679E-2,6.831002980E-2
1.471611980E-1,-6.231792271E-2,-4.460791498E-2,6.511423737E-2
1.496490110E-1,-5.166528746E-2,-5.419528857E-2,6.085318699E-2
1.521368230E-1,-3.994738683E-2,-6.484792382E-2,5.765739456E-2
1.546246360E-1,-2.822948620E-2,-7.656582445E-2,5.552686751E-2
1.571124480E-1,-1.757685095E-2,-8.934898674E-2,5.446160212E-2
1.596002610E-1,-7.989477366E-3,-1.031974182E-1,5.446160212E-2
1.620880730E-1,5.326318205E-4,-1.170458421E-1,5.446160212E-2
1.645758860E-1,7.989477366E-3,-1.308942735E-1,5.446160212E-2
1.670636980E-1,1.331579592E-2,-1.415469050E-1,5.552686751E-2
1.695515110E-1,1.757685095E-2,-1.511342824E-1,5.659212917E-2
1.720393230E-1,1.970737800E-2,-1.585911214E-1,5.659212917E-2
1.745271360E-1,2.077264152E-2,-1.649827063E-1,5.659212917E-2
1.770149480E-1,2.183790505E-2,-1.703090221E-1,5.765739456E-2
1.795027610E-1,2.183790505E-2,-1.745700836E-1,5.659212917E-2
1.819905730E-1,2.077264152E-2,-1.777658761E-1,5.659212917E-2
1.844783860E-1,1.970737800E-2,-1.809616536E-1,5.659212917E-2
1.869661980E-1,1.651158556E-2,-1.820269227E-1,5.552686751E-2
1.894540110E-1,1.225053146E-2,-1.820269227E-1,5.552686751E-2
1.919418230E-1,6.924213842E-3,-1.820269227E-1,5.446160212E-2
1.944296360E-1,-5.326318205E-4,-1.798963994E-1,5.233107507E-2
1.969174480E-1,-7.989477366E-3,-1.777658761E-1,4.913528636E-2
1.994052610E-1,-1.651158556E-2,-1.745700836E-1,4.700475931E-2
2.018930730E-1,-2.503369562E-2,-1.703090221E-1,4.487423226E-2
2.043808860E-1,-3.462106735E-2,-1.671132296E-1,4.274370521E-2
2.068686980E-1,-4.420844093E-2,-1.639174372E-1,4.167843983E-2
2.093565110E-1,-5.486107618E-2,-1.607216448E-1,4.061317816E-2
2.118443230E-1,-6.551371515E-2,-1.585911214E-1,3.954791278E-2
2.143321360E-1,-7.616634667E-2,-1.564605981E-1,3.848264739E-2
2.168199480E-1,-8.788424730E-2,-1.543300748E-1,3.954791278E-2
2.193077610E-1,-9.960214794E-2,-1.532648057E-1,4.061317816E-2
2.217955730E-1,-1.113200486E-1,-1.532648057E-1,4.167843983E-2
2.242833860E-1,-1.251684725E-1,-1.532648057E-1,4.274370521E-2
2.267711980E-1,-1.400821656E-1,-1.543300748E-1,4.487423226E-2
2.292590110E-1,-1.549958587E-1,-1.553953290E-1,4.807002097E-2
2.317468230E-1,-1.731053442E-1,-1.585911214E-1,5.126581341E-2
2.342346360E-1,-1.912148297E-1,-1.617869139E-1,5.552686751E-2
2.367224480E-1,-2.103895694E-1,-1.660479754E-1,5.978792161E-2
2.392102610E-1,-2.284990549E-1,-1.713742912E-1,6.511423737E-2
2.416980730E-1,-2.487390637E-1,-1.767006069E-1,7.150582224E-2
2.441858860E-1,-2.668485343E-1,-1.809616536E-1,7.683213800E-2
2.466736980E-1,-2.838927507E-1,-1.862879843E-1,8.215846121E-2
2.491615110E-1,-2.977411747E-1,-1.926795542E-1,8.961530030E-2
2.516493230E-1,-3.062632978E-1,-2.001364082E-1,9.494162351E-2
2.541371360E-1,-3.105243444E-1,-2.086585164E-1,1.002679393E-1
2.566249480E-1,-3.105243444E-1,-2.193111479E-1,1.045289934E-1
2.591127610E-1,-3.041327596E-1,-2.299637944E-1,1.055942550E-1
2.616005730E-1,-2.945453823E-1,-2.416816950E-1,1.045289934E-1
2.640883860E-1,-2.796317041E-1,-2.512690723E-1,1.013332009E-1
2.665761980E-1,-2.593916953E-1,-2.597911656E-1,9.281109273E-2
2.690640110E-1,-2.370211631E-1,-2.672480047E-1,8.322372288E-2
2.715518230E-1,-2.103895694E-1,-2.736395895E-1,7.044056058E-2
2.740396360E-1,-1.805621833E-1,-2.779006660E-1,5.552686751E-2
2.765274480E-1,-1.475390196E-1,-2.810964286E-1,3.954791278E-2
2.790152610E-1,-1.123853177E-1,-2.800311744E-1,2.250369452E-2
2.815030730E-1,-7.616634667E-2,-2.779006660E-1,4.394212738E-3
2.839908860E-1,-3.994738683E-2,-2.736395895E-1,-1.371526904E-2
2.864786980E-1,-5.858949851E-3,-2.683132887E-1,-2.969422378E-2
2.889665110E-1,2.716422267E-2,-2.619217038E-1,-4.460791498E-2
2.914543230E-1,5.592634156E-2,-2.533995807E-1,-5.739107728E-2
2.939421360E-1,8.042740822E-2,-2.438122183E-1,-6.591318548E-2
2.964299480E-1,9.960214794E-2,-2.310290486E-1,-7.123950869E-2
2.989177610E-1,1.123853177E-1,-2.139848322E-1,-7.230477035E-2
3.014055730E-1,1.166463718E-1,-1.937448233E-1,-6.697845459E-2
3.038933860E-1,1.145158410E-1,-1.692437679E-1,-5.739107728E-2
3.063811980E-1,1.049284711E-1,-1.426121742E-1,-4.247738793E-2
3.088690110E-1,8.575372398E-2,-1.138500497E-1,-2.330264263E-2
3.113568230E-1,5.912213027E-2,-8.402267098E-2,1.198421582E-3
3.138446360E-1,2.609895915E-2,-5.313002318E-2,2.889527567E-2
3.163324480E-1,-1.544632297E-2,-2.223737910E-2,5.978792161E-2
3.188202610E-1,-6.338318437E-2,7.590003312E-3,9.281109273E-2
3.213080730E-1,-1.166463718E-1,3.528685868E-2,1.279647946E-1
3.237958860E-1,-1.752358675E-1,6.404897571E-2,1.631184965E-1
3.262836980E-1,-2.380864173E-1,9.281109273E-2,2.004027218E-1
3.287715110E-1,-3.009369671E-1,1.205079481E-1,2.376869470E-1
3.312593230E-1,-3.648527861E-1,1.471395344E-1,2.739059031E-1
3.337471360E-1,-4.255728126E-1,1.716406047E-1,3.111901283E-1
3.362349480E-1,-4.841623306E-1,1.950764060E-1,3.463438451E-1
3.387227610E-1,-5.363602638E-1,2.163816839E-1,3.793670237E-1
3.412105730E-1,-5.832318664E-1,2.376869470E-1,4.102596641E-1
3.436983860E-1,-6.237118840E-1,2.547311783E-1,4.379565120E-1
3.461861980E-1,-6.556697488E-1,2.707101107E-1,4.624575675E-1
3.486740110E-1,-6.812360883E-1,2.824280262E-1,4.826975763E-1
3.511618230E-1,-6.982803345E-1,2.898848653E-1,4.997417927E-1
3.536496360E-1,-7.057371736E-1,2.930806577E-1,5.135902166E-1
3.561374480E-1,-7.057371736E-1,2.920154035E-1,5.242428780E-1
3.586252610E-1,-6.982803345E-1,2.834932804E-1,5.338302255E-1
3.611130730E-1,-6.823013425E-1,2.717753947E-1,5.412870646E-1
3.636008860E-1,-6.599308252E-1,2.547311783E-1,5.466133952E-1
3.660886980E-1,-6.301034689E-1,2.334259003E-1,5.508744717E-1
3.685765110E-1,-5.938844681E-1,2.110553533E-1,5.540702343E-1
3.710643230E-1,-5.512739420E-1,1.865542978E-1,5.540702343E-1
3.735521360E-1,-5.054675937E-1,1.620532274E-1,5.530049801E-1
3.760399480E-1,-4.554001987E-1,1.375521719E-1,5.487439036E-1
3.785277610E-1,-4.032022953E-1,1.162468940E-1,5.444828868E-1
3.810155730E-1,-3.488738537E-1,9.494162351E-2,5.380913019E-1
3.835033860E-1,-2.913496196E-1,7.470161468E-2,5.316997170E-1
3.859911980E-1,-2.348906398E-1,5.552686751E-2,5.253081322E-1
3.884790110E-1,-1.773663908E-1,3.954791278E-2,5.189165473E-1
3.909668230E-1,-1.209074259E-1,2.356895804E-2,5.125249624E-1
3.934546360E-1,-6.338318437E-2,9.720530361E-3,5.050681233E-1
3.959424480E-1,-1.012000442E-2,-9.321057005E-4,4.976112843E-1
3.984302610E-1,4.207791388E-2,-8.388951421E-3,4.912196994E-1
4.009180730E-1,8.894951642E-2,-1.265000552E-2,4.869586527E-1
4.034058860E-1,1.326253265E-1,-1.051947847E-2,4.837628603E-1
4.058936980E-1,1.731053442E-1,-4.127896391E-3,4.837628603E-1
4.083815110E-1,2.103895694E-1,8.655266836E-3,4.848281145E-1
4.108693230E-1,2.434127480E-1,2.569948509E-2,4.901544452E-1
4.133571360E-1,2.711096108E-1,4.593949392E-2,4.965460002E-1
4.158449480E-1,2.966759205E-1,7.150582224E-2,5.050681233E-1
4.183327610E-1,3.169159293E-1,1.002679393E-1,5.135902166E-1
4.208205730E-1,3.328948915E-1,1.322258562E-1,5.199818015E-1
4.233083860E-1,3.435475230E-1,1.673795432E-1,5.242428780E-1
4.257961980E-1,3.478085697E-1,2.046637833E-1,5.231776237E-1
4.282840110E-1,3.478085697E-1,2.430132627E-1,5.178512931E-1
4.307718230E-1,3.424822688E-1,2.813627720E-1,5.093291998E-1
4.332596360E-1,3.307643533E-1,3.197122514E-1,4.965460002E-1
4.357474480E-1,3.147853911E-1,3.591270149E-1,4.826975763E-1
4.382352610E-1,2.913496196E-1,3.953459561E-1,4.656533599E-1
4.407230730E-1,2.647180259E-1,4.304996729E-1,4.464786351E-1
4.432108860E-1,2.327601016E-1,4.645881057E-1,4.251733422E-1
4.456986980E-1,1.965411454E-1,4.965460002E-1,4.028028250E-1
4.481865110E-1,1.571263820E-1,5.274386406E-1,3.793670237E-1
4.506743230E-1,1.134505793E-1,5.540702343E-1,3.559312224E-1
4.531621360E-1,6.764423847E-2,5.753754973E-1,3.335606754E-1
4.556499480E-1,2.077264152E-2,5.902892351E-1,3.122554123E-1
4.581377610E-1,-2.609895915E-2,5.977460742E-1,2.930806577E-1
4.606255730E-1,-7.403582335E-2,5.988113284E-1,2.771016955E-1
4.631133860E-1,-1.209074259E-1,5.913544893E-1,2.643185556E-1
4.656011980E-1,-1.677790284E-1,5.785713196E-1,2.526006401E-1
4.680890110E-1,-2.114548385E-1,5.583313107E-1,2.440785319E-1
4.705768750E-1,-2.540653646E-1,5.338302255E-1,2.376869470E-1
4.730647400E-1,-2.934801280E-1,5.071986318E-1,2.323606312E-1
4.755526050E-1,-3.296990991E-1,4.795017838E-1,2.291648388E-1
4.780404690E-1,-3.616569936E-1,4.550007284E-1,2.249037921E-1
4.805283340E-1,-3.904191256E-1,4.315649271E-1,2.206427306E-1
4.830161980E-1,-4.159854650E-1,4.113249183E-1,2.163816839E-1
4.855040630E-1,-4.383559823E-1,3.953459561E-1,2.099900991E-1
4.879923440E-1,-4.575307369E-1,3.804322779E-1,2.035985142E-1
4.904806250E-1,-4.735096991E-1,3.687143922E-1,1.961416751E-1
4.929684380E-1,-4.873581231E-1,3.591270149E-1,1.897500902E-1
4.954562500E-1,-4.980107546E-1,3.527354300E-1,1.822932363E-1
4.979440630E-1,-5.065328479E-1,3.474090993E-1,1.737711281E-1
5.004318750E-1,-5.129244328E-1,3.452785909E-1,1.641837656E-1
5.029196880E-1,-5.161202550E-1,3.452785909E-1,1.535311192E-1
5.054075000E-1,-5.161202550E-1,3.463438451E-1,1.396826953E-1
5.078953130E-1,-5.129244328E-1,3.495396376E-1,1.247690022E-1
5.103831250E-1,-5.054675937E-1,3.527354300E-1,1.077247858E-1
5.128709380E-1,-4.958802164E-1,3.559312224E-1,8.748477697E-2
5.153587500E-1,-4.830970466E-1,3.591270149E-1,6.617950648E-2
5.178465630E-1,-4.692486227E-1,3.623228073E-1,4.061317816E-2
5.203343750E-1,-4.532696903E-1,3.665838540E-1,1.398158539E-2
5.228221880E-1,-4.351601899E-1,3.719101548E-1,-1.478053257E-2
5.253100000E-1,-4.159854650E-1,3.772364855E-1,-4.460791498E-2
5.277978130E-1,-3.957454562E-1,3.846933246E-1,-7.443529367E-2
5.302856250E-1,-3.755054474E-1,3.932154477E-1,-1.031974182E-1
5.327734380E-1,-3.563306928E-1,4.049333334E-1,-1.319595277E-1
5.352612500E-1,-3.382211924E-1,4.177165031E-1,-1.585911214E-1
5.377490630E-1,-3.211769760E-1,4.304996729E-1,-1.830921918E-1
5.402368750E-1,-3.062632978E-1,4.454133511E-1,-2.043974549E-1
5.427246880E-1,-2.945453823E-1,4.603270590E-1,-2.235722095E-1
5.452125000E-1,-2.870885432E-1,4.763059914E-1,-2.406164259E-1
5.477005730E-1,-2.838927507E-1,4.922849536E-1,-2.565953732E-1
5.501882820E-1,-2.860232890E-1,5.093291998E-1,-2.715090811E-1
5.526759900E-1,-2.934801280E-1,5.274386406E-1,-2.853575051E-1
5.551636980E-1,-3.062632978E-1,5.444828868E-1,-2.981406748E-1
5.576514070E-1,-3.211769760E-1,5.604618192E-1,-3.109238148E-1
5.601391150E-1,-3.403517306E-1,5.732449889E-1,-3.226417303E-1
5.626268230E-1,-3.595264852E-1,5.817670822E-1,-3.332943618E-1
5.651145320E-1,-3.797664940E-1,5.838976502E-1,-3.439469934E-1
5.676022400E-1,-4.000065029E-1,5.807018280E-1,-3.535343707E-1
5.700899480E-1,-4.202465117E-1,5.721797347E-1,-3.631217480E-1
5.725776570E-1,-4.372907281E-1,5.593965650E-1,-3.705785871E-1
5.750653650E-1,-4.522044063E-1,5.434176326E-1,-3.791007102E-1
5.775530730E-1,-4.639223218E-1,5.253081322E-1,-3.844270110E-1
5.800408340E-1,-4.724444151E-1,5.050681233E-1,-3.876228034E-1
5.825286460E-1,-4.756402075E-1,4.869586527E-1,-3.876228034E-1
5.850164590E-1,-4.745749533E-1,4.699144363E-1,-3.854922652E-1
5.875042710E-1,-4.692486227E-1,4.550007284E-1,-3.812312186E-1
5.899920840E-1,-4.585959911E-1,4.443480968E-1,-3.748396337E-1
5.924798960E-1,-4.468781054E-1,4.358259737E-1,-3.652522564E-1
5.949677090E-1,-4.330296814E-1,4.304996729E-1,-3.567301631E-1
5.974555210E-1,-4.170507193E-1,4.294344187E-1,-3.471427858E-1
5.999433860E-1,-4.000065029E-1,4.315649271E-1,-3.386206925E-1
6.024312500E-1,-3.829622865E-1,4.400870502E-1,-3.322291076E-1
6.049191150E-1,-3.669833243E-1,4.518049359E-1,-3.269027770E-1
6.074069800E-1,-3.510043621E-1,4.688491523E-1,-3.258375227E-1
6.098948440E-1,-3.360906839E-1,4.880239069E-1,-3.258375227E-1
6.123827090E-1,-3.222422600E-1,5.093291998E-1,-3.300985694E-1
6.148705730E-1,-3.083938360E-1,5.327649713E-1,-3.364901543E-1
6.173584380E-1,-2.977411747E-1,5.572660565E-1,-3.460775316E-1
6.198463030E-1,-2.881538272E-1,5.807018280E-1,-3.577954173E-1
6.223341670E-1,-2.817622423E-1,6.030724049E-1,-3.705785871E-1
6.248220320E-1,-2.775011659E-1,6.243776679E-1,-3.844270110E-1
6.273098960E-1,-2.764359117E-1,6.456829309E-1,-3.982754350E-1
6.297977610E-1,-2.764359117E-1,6.648576856E-1,-4.131891429E-1
6.322856250E-1,-2.775011659E-1,6.829671264E-1,-4.281028211E-1
6.347734900E-1,-2.796317041E-1,7.000113726E-1,-4.430165291E-1
6.372613550E-1,-2.817622423E-1,7.138597965E-1,-4.589954615E-1
6.397492190E-1,-2.860232890E-1,7.266429663E-1,-4.749744236E-1
6.422370840E-1,-2.902843356E-1,7.362303138E-1,-4.898881316E-1
6.447249480E-1,-2.934801280E-1,7.436871529E-1,-5.037365556E-1
6.472128130E-1,-2.977411747E-1,7.468829751E-1,-5.175849795E-1
6.497006780E-1,-2.998717129E-1,7.500787377E-1,-5.303681493E-1
6.521885420E-1,-3.020022511E-1,7.500787377E-1,-5.431513190E-1
6.546764070E-1,-3.020022511E-1,7.479482293E-1,-5.559344888E-1
6.571642710E-1,-2.998717129E-1,7.447524667E-1,-5.687175989E-1
6.596521360E-1,-2.977411747E-1,7.383608818E-1,-5.804355145E-1
6.621400000E-1,-2.934801280E-1,7.309040427E-1,-5.932186842E-1
6.646278130E-1,-2.892190814E-1,7.223818898E-1,-6.049365997E-1
6.671156250E-1,-2.870885432E-1,7.138597965E-1,-6.145239472E-1
6.696034380E-1,-2.870885432E-1,7.053377032E-1,-6.198502779E-1
6.720912500E-1,-2.902843356E-1,6.989461184E-1,-6.230461001E-1
6.745790630E-1,-2.966759205E-1,6.946850419E-1,-6.230461001E-1
6.770668750E-1,-3.073285520E-1,6.936197877E-1,-6.198502779E-1
6.795546880E-1,-3.211769760E-1,6.946850419E-1,-6.134586930E-1
6.820425000E-1,-3.371559381E-1,6.978808641E-1,-6.049365997E-1
6.845303130E-1,-3.563306928E-1,7.053377032E-1,-5.953491926E-1
6.870181250E-1,-3.797664940E-1,7.127945423E-1,-5.836313367E-1
6.895059380E-1,-4.053328037E-1,7.234471440E-1,-5.740439296E-1
6.919937500E-1,-4.330296814E-1,7.340998054E-1,-5.644565821E-1
6.944815630E-1,-4.628570378E-1,7.458177209E-1,-5.559344888E-1
6.969693750E-1,-4.916191697E-1,7.564703226E-1,-5.495429039E-1
6.994571880E-1,-5.214465261E-1,7.660577297E-1,-5.442165732E-1
7.019450000E-1,-5.512739420E-1,7.756450772E-1,-5.420860648E-1
7.044328130E-1,-5.800360441E-1,7.841671705E-1,-5.420860648E-1
7.069206250E-1,-6.066676378E-1,7.926893234E-1,-5.463470817E-1
7.094084380E-1,-6.332992315E-1,7.990809083E-1,-5.548691750E-1
7.118962500E-1,-6.578003168E-1,8.054724932E-1,-5.676523447E-1
7.143840630E-1,-6.801708341E-1,8.107987642E-1,-5.836313367E-1
7.168718750E-1,-7.004108429E-1,8.139945865E-1,-6.038713455E-1
7.193596880E-1,-7.174550891E-1,8.161250949E-1,-6.273071170E-1
7.218475000E-1,-7.313035131E-1,8.171903491E-1,-6.528734565E-1
7.243353130E-1,-7.419561148E-1,8.161250949E-1,-6.795050502E-1
7.268231250E-1,-7.483476996E-1,8.150598407E-1,-7.072018981E-1
7.293109380E-1,-7.515435219E-1,8.129293323E-1,-7.348987460E-1
7.317987500E-1,-7.515435219E-1,8.097335100E-1,-7.636608481E-1
7.342865630E-1,-7.494129539E-1,8.076030016E-1,-7.924230099E-1
7.367743750E-1,-7.440866828E-1,8.044071794E-1,-8.201198578E-1
7.392621880E-1,-7.366297841E-1,8.012114167E-1,-8.478167057E-1
7.417500000E-1,-7.259771824E-1,7.958850861E-1,-8.744482994E-1
7.442378130E-1,-7.131940126E-1,7.894935012E-1,-9.000146389E-1
7.467256250E-1,-6.982803345E-1,7.820366621E-1,-9.234504104E-1
7.492134380E-1,-6.812360883E-1,7.724493146E-1,-9.436904192E-1
7.517012500E-1,-6.620613337E-1,7.649924755E-1,-9.607346654E-1
7.541890630E-1,-6.418213248E-1,7.586008906E-1,-9.756483436E-1
7.566768750E-1,-6.194508076E-1,7.532745600E-1,-9.873662591E-1
7.591646880E-1,-5.992107987E-1,7.490134835E-1,-9.958883524E-1
7.616525000E-1,-5.789707899E-1,7.458177209E-1,-1.003345251E0
7.641403130E-1,-5.597960353E-1,7.436871529E-1,-1.009736776E0
7.666281250E-1,-5.427518487E-1,7.426218987E-1,-1.013997793E0
7.691159380E-1,-5.289034247E-1,7.426218987E-1,-1.018258929E0
7.716037500E-1,-5.171855092E-1,7.447524667E-1,-1.022519946E0
7.740915630E-1,-5.065328479E-1,7.479482293E-1,-1.026780963E0
7.765793750E-1,-5.001412630E-1,7.522093058E-1,-1.031042099E0
7.790671880E-1,-4.958802164E-1,7.586008906E-1,-1.036368370E0
7.815550000E-1,-4.948149621E-1,7.660577297E-1,-1.041694641E0
7.840428130E-1,-4.980107546E-1,7.756450772E-1,-1.048086286E0
7.865306250E-1,-5.033370852E-1,7.862977386E-1,-1.055543065E0
7.890184380E-1,-5.139896870E-1,7.980156541E-1,-1.065130472E0
7.915062500E-1,-5.278381109E-1,8.118640780E-1,-1.074717879E0
7.939940630E-1,-5.459476113E-1,8.257125020E-1,-1.085370541E0
7.964818750E-1,-5.672528744E-1,8.416914344E-1,-1.096023083E0
7.989696880E-1,-5.917539597E-1,8.576703668E-1,-1.107740998E0
8.014575000E-1,-6.183855534E-1,8.736493587E-1,-1.118393660E0
8.039453130E-1,-6.460824013E-1,8.885630369E-1,-1.130111575E0
8.064331250E-1,-6.737792492E-1,9.013462067E-1,-1.141829491E0
8.089209380E-1,-6.993455887E-1,9.119988084E-1,-1.155677915E0
8.114087500E-1,-7.227813601E-1,9.205209613E-1,-1.170591593E0
8.138965630E-1,-7.419561148E-1,9.269125462E-1,-1.185505271E0
8.163843750E-1,-7.579351068E-1,9.311735630E-1,-1.200418949E0
8.188721880E-1,-7.696529627E-1,9.311735630E-1,-1.212136865E0
8.213600000E-1,-7.760445476E-1,9.269125462E-1,-1.222789526E0
8.238478130E-1,-7.771098018E-1,9.183903933E-1,-1.230246305E0
8.263356250E-1,-7.749792933E-1,9.077377915E-1,-1.233442187E0
8.288234380E-1,-7.675224543E-1,8.960198760E-1,-1.236637950E0
8.313112500E-1,-7.590003610E-1,8.864325285E-1,-1.236637950E0
8.337990630E-1,-7.462171912E-1,8.789756894E-1,-1.232376933E0
8.362868750E-1,-7.323687673E-1,8.715187907E-1,-1.229181051E0
8.387746880E-1,-7.153245211E-1,8.661925197E-1,-1.221724272E0
8.412625000E-1,-6.982803345E-1,8.619314432E-1,-1.212136865E0
8.437503130E-1,-6.780403256E-1,8.587356806E-1,-1.200418949E0
8.462381250E-1,-6.588655710E-1,8.566051126E-1,-1.188701034E0
8.487259380E-1,-6.396908164E-1,8.566051126E-1,-1.175917864E0
8.512137500E-1,-6.237118840E-1,8.619314432E-1,-1.164199948E0
8.537015630E-1,-6.109287143E-1,8.725841045E-1,-1.153547406E0
8.561893750E-1,-6.034718752E-1,8.874977827E-1,-1.141829491E0
8.586771880E-1,-5.992107987E-1,9.066725373E-1,-1.133307338E0
8.611650000E-1,-6.013413072E-1,9.279778004E-1,-1.126915812E0
8.636528130E-1,-6.087981462E-1,9.514135718E-1,-1.122654676E0
8.661406250E-1,-6.226465702E-1,9.769799113E-1,-1.120524168E0
8.686284380E-1,-6.428865790E-1,1.003611565E0,-1.119458914E0
8.711162500E-1,-6.705834866E-1,1.029177785E0,-1.120524168E0
8.736040630E-1,-7.057371736E-1,1.052613616E0,-1.123719931E0
8.760918750E-1,-7.483476996E-1,1.073918939E0,-1.126915812E0
8.785796880E-1,-7.973498106E-1,1.093093634E0,-1.131176829E0
8.810675000E-1,-8.538088202E-1,1.109072566E0,-1.138633728E0
8.835553130E-1,-9.166593552E-1,1.119725227E0,-1.145025253E0
8.860431250E-1,-9.837709665E-1,1.122920990E0,-1.153547406E0
8.885309380E-1,-1.054078341E0,1.118659973E0,-1.163134694E0
8.910187500E-1,-1.126516342E0,1.103746295E0,-1.171656847E0
8.935065630E-1,-1.200019479E0,1.079245210E0,-1.180179000E0
8.959943750E-1,-1.272457361E0,1.045156837E0,-1.188701034E0
8.984821880E-1,-1.342764854E0,1.003611565E0,-1.196157932E0
9.009700000E-1,-1.409876466E0,9.546093941E-1,-1.205745339E0
9.034578130E-1,-1.471661687E0,8.970851302E-1,-1.215332627E0
9.059456250E-1,-1.529186010E0,8.321040869E-1,-1.225985289E0
9.084334380E-1,-1.578188062E0,7.596661448E-1,-1.236637950E0
9.109212500E-1,-1.619733334E0,6.808366179E-1,-1.245159984E0
9.134090630E-1,-1.654887080E0,5.977460742E-1,-1.251551628E0
9.158968750E-1,-1.682583928E0,5.125249624E-1,-1.253682137E0
9.183846880E-1,-1.704954505E0,4.241080880E-1,-1.250486374E0
9.208725000E-1,-1.719868183E0,3.367564678E-1,-1.241964221E0
9.233603130E-1,-1.731586099E0,2.504701018E-1,-1.229181051E0
9.258481250E-1,-1.740108132E0,1.684448123E-1,-1.212136865E0
9.283359380E-1,-1.743303895E0,8.961530030E-2,-1.190831542E0
9.308237500E-1,-1.742238641E0,1.398158539E-2,-1.166330576E0
9.333115630E-1,-1.737977624E0,-5.845634267E-2,-1.139698982E0
9.357993750E-1,-1.730520844E0,-1.255679578E-1,-1.109871507E0
9.382871880E-1,-1.719868183E0,-1.873532385E-1,-1.078978896E0
9.407750000E-1,-1.704954505E0,-2.427469492E-1,-1.047021031E0
9.432628130E-1,-1.685779691E0,-2.917490900E-1,-1.012932539E0
9.457506250E-1,-1.663409233E0,-3.322291076E-1,-9.767135978E-1
9.482384380E-1,-1.637842894E0,-3.652522564E-1,-9.383640885E-1
9.507262500E-1,-1.608015418E0,-3.918838501E-1,-8.957535625E-1
9.532140630E-1,-1.574992299E0,-4.110586047E-1,-8.499472141E-1
9.557018750E-1,-1.539838552E0,-4.249070287E-1,-7.998798490E-1
9.581896880E-1,-1.500423789E0,-4.323638678E-1,-7.466166615E-1
9.606775000E-1,-1.456748009E0,-4.376901984E-1,-6.912229657E-1
9.631653130E-1,-1.410941720E0,-4.387554526E-1,-6.326334476E-1
9.656531250E-1,-1.360874295E0,-4.387554526E-1,-5.740439296E-1
9.681409380E-1,-1.306545854E0,-4.376901984E-1,-5.143891573E-1
9.706287500E-1,-1.249021649E0,-4.387554526E-1,-4.536691606E-1
9.731165630E-1,-1.188301563E0,-4.430165291E-1,-3.929491341E-1
9.756043750E-1,-1.123320460E0,-4.504733682E-1,-3.322291076E-1
9.780921880E-1,-1.057274222E0,-4.600607455E-1,-2.725743353E-1
9.805800000E-1,-9.912278056E-1,-4.728438854E-1,-2.150501013E-1
9.830678130E-1,-9.241161942E-1,-4.877575934E-1,-1.585911214E-1
9.855556250E-1,-8.591351509E-1,-5.037365556E-1,-1.031974182E-1
9.880434380E-1,-7.962845564E-1,-5.207807422E-1,-5.099949613E-2
9.905312500E-1,-7.344992757E-1,-5.367597342E-1,-1.997369342E-3
9.930190630E-1,-6.759097576E-1,-5.538039207E-1,4.593949392E-2
9.955068750E-1,-6.183855534E-1,-5.708481669E-1,9.174583107E-2
9.979946880E-1,-5.640571117E-1,-5.878923535E-1,1.343563795E-1
1.000482500E0,-5.107939243E-1,-6.060018539E-1,1.737711281E-1
1.002970313E0,-4.596612751E-1,-6.241113544E-1,2.099900991E-1
1.005458125E0,-4.095938802E-1,-6.422207952E-1,2.430132627E-1
1.007946511E0,-3.616569936E-1,-6.592650414E-1,2.749711871E-1
1.010434063E0,-3.169159293E-1,-6.731134653E-1,3.037332892E-1
1.012921615E0,-2.732401192E-1,-6.837661266E-1,3.292996287E-1
1.015409167E0,-2.327601016E-1,-6.901576519E-1,3.548659384E-1
1.017896719E0,-1.944106072E-1,-6.933534741E-1,3.793670237E-1
1.020384271E0,-1.560611278E-1,-6.922882199E-1,4.006722867E-1
1.022871875E0,-1.219726875E-1,-6.890923977E-1,4.219775498E-1
1.025359532E0,-8.894951642E-2,-6.837661266E-1,4.422175586E-1
1.027847240E0,-5.805686861E-2,-6.752439737E-1,4.603270590E-1
1.030335000E0,-3.036001325E-2,-6.656566262E-1,4.763059914E-1
1.032822813E0,-4.793686327E-3,-6.518082023E-1,4.901544452E-1
1.035310678E0,1.651158556E-2,-6.347639561E-1,4.986765385E-1
1.037798594E0,3.568633273E-2,-6.155892015E-1,5.040028691E-1
1.040286563E0,4.953476042E-2,-5.921534300E-1,5.040028691E-1
1.042774532E0,5.912213027E-2,-5.676523447E-1,4.986765385E-1
1.045262500E0,6.444845349E-2,-5.399554968E-1,4.922849536E-1
1.047751146E0,6.764423847E-2,-5.090628862E-1,4.826975763E-1
1.050239063E0,6.551371515E-2,-4.749744236E-1,4.731102288E-1
1.052726875E0,6.125266105E-2,-4.398207366E-1,4.635228515E-1
1.055214688E0,5.486107618E-2,-4.025365114E-1,4.550007284E-1
1.057702500E0,4.633896798E-2,-3.673827946E-1,4.464786351E-1
1.060190313E0,3.781685978E-2,-3.343596160E-1,4.400870502E-1
1.062678073E0,2.929474972E-2,-3.045322299E-1,4.347607195E-1
1.065165834E0,2.183790505E-2,-2.810964286E-1,4.294344187E-1
1.067653594E0,1.438105945E-2,-2.651174963E-1,4.273038805E-1
1.070141355E0,1.118526794E-2,-2.533995807E-1,4.230428338E-1
1.072629115E0,1.012000442E-2,-2.480732650E-1,4.209122956E-1
1.075116875E0,1.225053146E-2,-2.470080107E-1,4.187817574E-1
1.077604636E0,1.864211448E-2,-2.491385341E-1,4.155859649E-1
1.080092396E0,2.822948620E-2,-2.533995807E-1,4.113249183E-1
1.082580157E0,4.207791388E-2,-2.576606572E-1,4.049333334E-1
1.085067917E0,5.912213027E-2,-2.608564198E-1,3.974764943E-1
1.087555678E0,7.936213911E-2,-2.619217038E-1,3.878891170E-1
1.090043438E0,1.006674170E-1,-2.597911656E-1,3.761712313E-1
1.092531198E0,1.230379492E-1,-2.544648647E-1,3.623228073E-1
1.095018959E0,1.464737505E-1,-2.459427416E-1,3.474090993E-1
1.097506719E0,1.688442826E-1,-2.352901101E-1,3.292996287E-1
1.099994480E0,1.901495606E-1,-2.203764170E-1,3.090596199E-1
1.102482240E0,2.114548385E-1,-2.033322006E-1,2.866890728E-1
1.104970000E0,2.316948473E-1,-1.852227151E-1,2.621880174E-1
1.107457761E0,2.519348562E-1,-1.692437679E-1,2.376869470E-1
1.109945521E0,2.700443268E-1,-1.532648057E-1,2.110553533E-1
1.112433282E0,2.860232890E-1,-1.383511126E-1,1.844237745E-1
1.114921042E0,3.009369671E-1,-1.255679578E-1,1.567269117E-1
1.117408803E0,3.126548827E-1,-1.138500497E-1,1.279647946E-1
1.119896563E0,3.233075142E-1,-1.042626798E-1,9.813741595E-2
1.122384323E0,3.318296373E-1,-9.574057162E-2,6.831002980E-2
1.124872136E0,3.392864764E-1,-8.615319431E-2,3.954791278E-2
1.127359948E0,3.456780612E-1,-7.656582445E-2,1.185105834E-2
1.129847761E0,3.520696461E-1,-6.484792382E-2,-1.371526904E-2
1.132335573E0,3.573959470E-1,-5.206476152E-2,-3.821633384E-2
1.134823386E0,3.637875319E-1,-3.502054140E-2,-6.165213138E-2
1.137311198E0,3.701791167E-1,-1.691105962E-2,-8.189214021E-2
1.139799011E0,3.744401634E-1,2.263685223E-3,-1.010668874E-1
1.142286823E0,3.787012100E-1,2.143843099E-2,-1.191763729E-1
1.144774636E0,3.797664940E-1,4.167843983E-2,-1.362205893E-1
1.147262448E0,3.776359558E-1,6.191844866E-2,-1.543300748E-1
1.149750261E0,3.701791167E-1,8.322372288E-2,-1.713742912E-1
1.152238073E0,3.595264852E-1,1.066595241E-1,-1.884185076E-1
1.154725886E0,3.435475230E-1,1.290300637E-1,-2.065279931E-1
1.157213698E0,3.233075142E-1,1.545963883E-1,-2.235722095E-1
1.159701511E0,2.966759205E-1,1.812279820E-1,-2.416816950E-1
1.162189323E0,2.657832801E-1,2.099900991E-1,-2.576606572E-1
1.164677136E0,2.295643091E-1,2.398174703E-1,-2.736395895E-1
1.167164948E0,1.880190372E-1,2.685796022E-1,-2.896185517E-1
1.169652761E0,1.422126889E-1,2.941459119E-1,-3.045322299E-1
1.172140573E0,9.321057051E-2,3.154512048E-1,-3.173153996E-1
1.174628386E0,4.420844093E-2,3.314301372E-1,-3.290333152E-1
1.177116198E0,-4.793686327E-3,3.399522603E-1,-3.386206925E-1
1.179604011E0,-5.273054913E-2,3.420827985E-1,-3.460775316E-1
1.182091823E0,-9.853688627E-2,3.367564678E-1,-3.514038324E-1
1.184579636E0,-1.422126889E-1,3.261038363E-1,-3.524691164E-1
1.187067448E0,-1.826927215E-1,3.101248741E-1,-3.514038324E-1
1.189555261E0,-2.178464085E-1,2.920154035E-1,-3.460775316E-1
1.192043073E0,-2.487390637E-1,2.707101107E-1,-3.364901543E-1
1.194530886E0,-2.732401192E-1,2.462090552E-1,-3.237069845E-1
1.197018698E0,-2.892190814E-1,2.206427306E-1,-3.066627681E-1
1.199506511E0,-2.977411747E-1,1.950764060E-1,-2.885532975E-1
1.201994323E0,-2.988064587E-1,1.673795432E-1,-2.693785429E-1
1.204482136E0,-2.924148738E-1,1.418132186E-1,-2.512690723E-1
1.206969948E0,-2.785664499E-1,1.183774248E-1,-2.363553643E-1
1.209457761E0,-2.583264410E-1,9.813741595E-2,-2.267680019E-1
1.211945573E0,-2.327601016E-1,8.322372288E-2,-2.193111479E-1
1.214433386E0,-2.039979845E-1,7.363634557E-2,-2.171806246E-1
1.216921198E0,-1.720400751E-1,6.831002980E-2,-2.193111479E-1
1.219409011E0,-1.390169114E-1,6.724476814E-2,-2.246374637E-1
1.221896823E0,-1.049284711E-1,7.150582224E-2,-2.310290486E-1
1.224384636E0,-7.190529257E-2,8.002793044E-2,-2.395511568E-1
1.226872448E0,-3.994738683E-2,8.961530030E-2,-2.480732650E-1
1.229360261E0,-1.012000442E-2,1.013332009E-1,-2.555301189E-1
1.231848073E0,1.544632297E-2,1.130511016E-1,-2.619217038E-1
1.234335886E0,3.675159439E-2,1.237037405E-1,-2.672480047E-1
1.236823698E0,5.592634156E-2,1.311605871E-1,-2.715090811E-1
1.239311511E0,6.870950758E-2,1.354216337E-1,-2.715090811E-1
1.241799323E0,7.616634667E-2,1.375521719E-1,-2.704437971E-1
1.244287136E0,7.936213911E-2,1.354216337E-1,-2.661827505E-1
1.246774948E0,7.616634667E-2,1.311605871E-1,-2.597911656E-1
1.249262761E0,6.977476925E-2,1.247690022E-1,-2.502037883E-1
1.251750573E0,5.912213027E-2,1.162468940E-1,-2.352901101E-1
1.254238386E0,4.633896798E-2,1.066595241E-1,-2.182458937E-1
1.256726198E0,3.142527863E-2,9.494162351E-2,-1.969406158E-1
1.259214011E0,1.544632297E-2,8.215846121E-2,-1.724395454E-1
1.261701823E0,-5.326318205E-4,6.617950648E-2,-1.468732208E-1
1.264189636E0,-1.651158556E-2,4.807002097E-2,-1.223721579E-1
1.266677448E0,-3.142527863E-2,2.889527567E-2,-1.010668874E-1
1.269165261E0,-4.527370632E-2,7.590003312E-3,-8.189214021E-2
1.271653073E0,-5.912213027E-2,-1.371526904E-2,-6.591318548E-2
1.274140886E0,-6.977476925E-2,-3.502054140E-2,-5.419528857E-2
1.276628698E0,-7.936213911E-2,-5.526055023E-2,-4.460791498E-2
1.279116511E0,-8.575372398E-2,-7.443529367E-2,-3.608580679E-2
1.281604323E0,-8.894951642E-2,-9.147951752E-2,-3.075948730E-2
1.284092136E0,-8.788424730E-2,-1.053279415E-1,-2.649843320E-2
1.286579948E0,-8.468846232E-2,-1.170458421E-1,-2.330264263E-2
1.289067761E0,-7.616634667E-2,-1.266332120E-1,-2.436790615E-2
1.291555573E0,-6.657897681E-2,-1.330247968E-1,-2.862896025E-2
1.294043386E0,-5.592634156E-2,-1.362205893E-1,-3.502054140E-2
1.296531198E0,-4.740423337E-2,-1.372858584E-1,-4.460791498E-2
1.299019011E0,-3.888212144E-2,-1.351553202E-1,-5.845634267E-2
1.301506823E0,-3.355580568E-2,-1.287637353E-1,-7.337003201E-2
1.303994636E0,-2.929474972E-2,-1.181111038E-1,-8.828372508E-2
1.306482448E0,-2.822948620E-2,-1.063932031E-1,-1.010668874E-1
1.308970261E0,-2.822948620E-2,-9.147951752E-2,-1.127847880E-1
1.311458073E0,-3.036001325E-2,-7.337003201E-2,-1.213068962E-1
1.313945886E0,-3.462106735E-2,-5.526055023E-2,-1.266332120E-1
1.316433698E0,-3.994738683E-2,-3.502054140E-2,-1.276984811E-1
1.318921511E0,-4.846949503E-2,-1.691105962E-2,-1.266332120E-1
1.321409323E0,-6.018739566E-2,-9.321057005E-4,-1.202416345E-1
1.323897136E0,-7.403582335E-2,1.185105834E-2,-1.127847880E-1
1.326384948E0,-9.108003974E-2,2.037316747E-2,-1.021321490E-1
1.328872761E0,-1.070589945E-1,2.463422157E-2,-8.828372508E-2
1.331360573E0,-1.241032109E-1,2.250369452E-2,-7.443529367E-2
1.333848386E0,-1.368863732E-1,1.611211337E-2,-5.845634267E-2
1.336336198E0,-1.475390196E-1,5.459476262E-3,-4.247738793E-2
1.338824011E0,-1.539305896E-1,-8.388951421E-3,-2.862896025E-2
1.341311823E0,-1.560611278E-1,-2.436790615E-2,-1.584579609E-2
1.343799636E0,-1.528653353E-1,-3.928159550E-2,-7.323687430E-3
1.346287448E0,-1.464737505E-1,-5.313002318E-2,-9.321057005E-4
1.348775261E0,-1.358211190E-1,-6.378266215E-2,2.263685223E-3
1.351263073E0,-1.219726875E-1,-7.123950869E-2,3.328948980E-3
1.353750886E0,-1.038632020E-1,-7.337003201E-2,2.263685223E-3
1.356238698E0,-8.149266988E-2,-7.230477035E-2,-9.321057005E-4
1.358726511E0,-5.379581451E-2,-6.697845459E-2,-5.193160381E-3
1.361214323E0,-2.396843210E-2,-5.952160433E-2,-9.454214945E-3
1.363702136E0,9.054740891E-3,-4.780370742E-2,-1.691105962E-2
1.366189948E0,4.314317927E-2,-3.395527974E-2,-2.649843320E-2
1.368677761E0,7.616634667E-2,-1.691105962E-2,-3.715106845E-2
1.371165573E0,1.059937328E-1,3.328948980E-3,-4.886896908E-2
1.373653386E0,1.336905807E-1,2.676474862E-2,-6.058686972E-2
1.376141198E0,1.581916511E-1,5.233107507E-2,-7.337003201E-2
1.378629011E0,1.784316599E-1,7.789740711E-2,-8.295740932E-2
1.381116823E0,1.944106072E-1,1.034637317E-1,-9.041424841E-2
1.383604636E0,2.061285079E-1,1.268995255E-1,-9.574057162E-2
1.386092448E0,2.125200927E-1,1.460742801E-1,-9.787109494E-2
1.388580261E0,2.114548385E-1,1.620532274E-1,-9.787109494E-2
1.391068073E0,2.050632536E-1,1.737711281E-1,-9.574057162E-2
1.393555886E0,1.901495606E-1,1.822932363E-1,-9.254477918E-2
1.396043698E0,1.677790284E-1,1.876195520E-1,-8.828372508E-2
1.398531511E0,1.368863732E-1,1.886848211E-1,-8.082687855E-2
1.401019323E0,9.853688627E-2,1.886848211E-1,-7.337003201E-2
1.403507136E0,5.379581451E-2,1.865542978E-1,-6.165213138E-2
1.405994948E0,4.793686327E-3,1.822932363E-1,-4.993423447E-2
1.408482761E0,-4.633896798E-2,1.748363972E-1,-3.502054140E-2
1.410970573E0,-1.006674170E-1,1.641837656E-1,-1.904158667E-2
1.413458386E0,-1.518000662E-1,1.514005959E-1,-3.062632866E-3
1.415946198E0,-2.018674612E-1,1.354216337E-1,1.398158539E-2
1.418434011E0,-2.498043180E-1,1.194426864E-1,3.102580272E-2
1.420921823E0,-2.924148738E-1,1.023984700E-1,4.700475931E-2
1.423409636E0,-3.318296373E-1,8.748477697E-2,6.298371404E-2
1.425897448E0,-3.637875319E-1,7.363634557E-2,7.896266878E-2
1.428385261E0,-3.914843798E-1,6.404897571E-2,9.600688517E-2
1.430873073E0,-4.127896726E-1,5.765739456E-2,1.141163707E-1
1.433360886E0,-4.277033508E-1,5.552686751E-2,1.322258562E-1
1.435848698E0,-4.362254739E-1,5.446160212E-2,1.503353268E-1
1.438336511E0,-4.362254739E-1,5.765739456E-2,1.673795432E-1
1.440824323E0,-4.319643974E-1,6.191844866E-2,1.833585054E-1
1.443312136E0,-4.202465117E-1,6.724476814E-2,1.993374527E-1
1.445799948E0,-4.042675495E-1,7.363634557E-2,2.131858915E-1
1.448287761E0,-3.818970025E-1,8.109319210E-2,2.259690464E-1
1.450775573E0,-3.563306928E-1,8.961530030E-2,2.366216928E-1
1.453263386E0,-3.254380524E-1,9.920267761E-2,2.483395934E-1
1.455751198E0,-2.913496196E-1,1.087900475E-1,2.600574791E-1
1.458239011E0,-2.530001104E-1,1.194426864E-1,2.717753947E-1
1.460726823E0,-2.135853618E-1,1.300953180E-1,2.834932804E-1
1.463214636E0,-1.731053442E-1,1.407479644E-1,2.973417044E-1
1.465702448E0,-1.326253265E-1,1.514005959E-1,3.101248741E-1
1.468190261E0,-9.108003974E-2,1.609879732E-1,3.218427896E-1
1.470678073E0,-4.953476042E-2,1.684448123E-1,3.335606754E-1
1.473165886E0,-7.989477366E-3,1.748363972E-1,3.420827985E-1
1.475653698E0,3.142527863E-2,1.780321896E-1,3.506048918E-1
1.478141511E0,6.977476925E-2,1.790974438E-1,3.559312224E-1
1.480629323E0,1.059937328E-1,1.769669205E-1,3.580617309E-1
1.483117136E0,1.400821656E-1,1.716406047E-1,3.580617309E-1
1.485604948E0,1.709748209E-1,1.641837656E-1,3.569964767E-1
1.488092761E0,1.976063997E-1,1.545963883E-1,3.548659384E-1
1.490580573E0,2.221074700E-1,1.439437568E-1,3.538006842E-1
1.493068386E0,2.412822098E-1,1.332911104E-1,3.538006842E-1
1.495556198E0,2.561959028E-1,1.226384789E-1,3.548659384E-1
1.498044011E0,2.679138184E-1,1.130511016E-1,3.569964767E-1
1.500531823E0,2.753706574E-1,1.023984700E-1,3.623228073E-1
1.503019636E0,2.785664499E-1,9.281109273E-2,3.697796464E-1
1.505507448E0,2.785664499E-1,8.322372288E-2,3.783017397E-1
1.507995261E0,2.764359117E-1,7.470161468E-2,3.900196552E-1
1.510483073E0,2.711096108E-1,6.617950648E-2,4.028028250E-1
1.512970886E0,2.615222335E-1,5.978792161E-2,4.177165031E-1
1.515458698E0,2.487390637E-1,5.233107507E-2,4.336954653E-1
1.517946511E0,2.327601016E-1,4.593949392E-2,4.496744275E-1
1.520434323E0,2.135853618E-1,4.061317816E-2,4.667186439E-1
1.522922136E0,1.912148297E-1,3.528685868E-2,4.858933687E-1
1.525409948E0,1.667137593E-1,2.996053919E-2,5.029376149E-1
1.527897761E0,1.390169114E-1,2.676474862E-2,5.199818015E-1
1.530385573E0,1.102547869E-1,2.356895804E-2,5.348954797E-1
1.532873386E0,8.042740822E-2,2.143843099E-2,5.487439036E-1
1.535361198E0,5.166528746E-2,1.930790395E-2,5.604618192E-1
1.537849011E0,2.290316857E-2,1.717737690E-2,5.689839721E-1
1.540336823E0,-3.728422802E-3,1.291632187E-2,5.764408112E-1
1.542824636E0,-2.822948620E-2,5.459476262E-3,5.828323960E-1
1.545312448E0,-4.740423337E-2,-1.997369342E-3,5.892239809E-1
1.547800261E0,-6.338318437E-2,-1.158474199E-2,5.945502520E-1
1.550288073E0,-7.510108501E-2,-2.010685205E-2,5.988113284E-1
1.552775886E0,-8.149266988E-2,-2.756369673E-2,6.052029133E-1
1.555263698E0,-8.362319320E-2,-3.289001435E-2,6.105292439E-1
1.557751511E0,-8.149266988E-2,-3.715106845E-2,6.158555150E-1
1.560239323E0,-7.510108501E-2,-4.034686089E-2,6.201165915E-1
1.562727136E0,-6.338318437E-2,-4.354264960E-2,6.254429221E-1
1.565214948E0,-4.846949503E-2,-4.886896908E-2,6.297039986E-1
1.567702761E0,-2.822948620E-2,-5.419528857E-2,6.339650154E-1
1.570190573E0,-4.793686327E-3,-6.165213138E-2,6.392913461E-1
1.572678386E0,2.183790505E-2,-7.123950869E-2,6.446176767E-1
1.575166198E0,5.060002208E-2,-8.189214021E-2,6.499440074E-1
1.577654011E0,8.149266988E-2,-9.254477918E-2,6.563355327E-1
1.580141823E0,1.145158410E-1,-1.031974182E-1,6.648576856E-1
1.582629636E0,1.475390196E-1,-1.138500497E-1,6.733797789E-1
1.585117448E0,1.805621833E-1,-1.234374270E-1,6.819018722E-1
1.587605261E0,2.146506310E-1,-1.308942735E-1,6.914892793E-1
1.590093073E0,2.476737946E-1,-1.362205893E-1,6.989461184E-1
1.592580886E0,2.796317041E-1,-1.394163817E-1,7.053377032E-1
1.595068698E0,3.115896285E-1,-1.394163817E-1,7.106640339E-1
1.597556511E0,3.424822688E-1,-1.362205893E-1,7.138597965E-1
1.600044323E0,3.701791167E-1,-1.287637353E-1,7.159903049E-1
1.602532136E0,3.936149180E-1,-1.181111038E-1,7.159903049E-1
1.605019948E0,4.127896726E-1,-1.021321490E-1,7.149250507E-1
1.607507761E0,4.287686050E-1,-8.082687855E-2,7.127945423E-1
1.609995573E0,4.383559823E-1,-5.526055023E-2,7.106640339E-1
1.612483386E0,4.426170290E-1,-2.543316968E-2,7.106640339E-1
1.614971198E0,4.404865205E-1,5.459476262E-3,7.106640339E-1
1.617459011E0,4.330296814E-1,3.528685868E-2,7.138597965E-1
1.619946823E0,4.181159735E-1,6.511423737E-2,7.181208730E-1
1.622434636E0,3.978759646E-1,9.387636185E-2,7.266429663E-1
1.624922448E0,3.723096550E-1,1.205079481E-1,7.362303138E-1
1.627410261E0,3.403517306E-1,1.460742801E-1,7.479482293E-1
1.629898073E0,3.041327596E-1,1.727058738E-1,7.628619075E-1
1.632385886E0,2.625874877E-1,1.982721984E-1,7.788408995E-1
1.634873698E0,2.167811543E-1,2.206427306E-1,7.958850861E-1
1.637361511E0,1.677790284E-1,2.430132627E-1,8.129293323E-1
1.639849323E0,1.145158410E-1,2.589922249E-1,8.310387731E-1
1.642337136E0,6.125266105E-2,2.696448565E-1,8.502135277E-1
1.644824948E0,7.989477366E-3,2.728406489E-1,8.693882823E-1
1.647312761E0,-4.633896798E-2,2.675143182E-1,8.896282911E-1
1.649800573E0,-9.853688627E-2,2.526006401E-1,9.109335542E-1
1.652288386E0,-1.496695429E-1,2.291648388E-1,9.333041310E-1
1.654776198E0,-1.965411454E-1,1.993374527E-1,9.567399025E-1
1.657264011E0,-2.391516864E-1,1.641837656E-1,9.823062420E-1
1.659751823E0,-2.775011659E-1,1.268995255E-1,1.008937836E0
1.662239636E0,-3.094590902E-1,8.641951531E-2,1.038765192E0
1.664727448E0,-3.360906839E-1,4.593949392E-2,1.067527294E0
1.667215261E0,-3.542001545E-1,5.459476262E-3,1.098420024E0
1.669703073E0,-3.669833243E-1,-3.502054140E-2,1.126116872E0
1.672190886E0,-3.712443709E-1,-7.123950869E-2,1.152748466E0
1.674678698E0,-3.680485785E-1,-1.053279415E-1,1.176184177E0
1.677166511E0,-3.573959470E-1,-1.351553202E-1,1.196424246E0
1.679654323E0,-3.392864764E-1,-1.596563905E-1,1.213468432E0
1.682142136E0,-3.158506751E-1,-1.788311303E-1,1.227316856E0
1.684629948E0,-2.860232890E-1,-1.894837767E-1,1.234773755E0
1.687117761E0,-2.530001104E-1,-1.905490309E-1,1.235839009E0
1.689605573E0,-2.178464085E-1,-1.841574460E-1,1.230512619E0
1.692093386E0,-1.816274524E-1,-1.692437679E-1,1.216664195E0
1.694581198E0,-1.464737505E-1,-1.500690132E-1,1.194293737E0
1.697069011E0,-1.113200486E-1,-1.276984811E-1,1.165531635E0
1.699556823E0,-7.829687744E-2,-1.031974182E-1,1.130377889E0
1.702044636E0,-4.740423337E-2,-7.763108611E-2,1.090963125E0
1.704532448E0,-1.864211448E-2,-5.206476152E-2,1.049417853E0
1.707020261E0,6.924213842E-3,-2.649843320E-2,1.006807327E0
1.709508073E0,2.822948620E-2,-1.997369342E-3,9.631314874E-1
1.711995886E0,4.740423337E-2,1.930790395E-2,9.215862155E-1
1.714483698E0,6.231792271E-2,3.422159329E-2,8.821714520E-1
1.716971511E0,7.403582335E-2,4.167843983E-2,8.448871970E-1
1.719459323E0,8.362319320E-2,4.167843983E-2,8.097335100E-1
1.721947136E0,9.001477808E-2,3.315633163E-2,7.767103314E-1
1.724434948E0,9.321057051E-2,1.504684892E-2,7.447524667E-1
1.726922761E0,9.534109384E-2,-9.454214945E-3,7.149250507E-1
1.729410573E0,9.321057051E-2,-4.247738793E-2,6.872282028E-1
1.731898386E0,8.894951642E-2,-8.189214021E-2,6.616618633E-1
1.734386198E0,8.255793154E-2,-1.276984811E-1,6.382260919E-1
1.736874011E0,7.297056168E-2,-1.756353378E-1,6.190513372E-1
1.739361823E0,6.338318437E-2,-2.267680019E-1,6.052029133E-1
1.741849636E0,5.060002208E-2,-2.779006660E-1,5.945502520E-1
1.744337448E0,3.675159439E-2,-3.279680312E-1,5.892239809E-1
1.746825261E0,2.183790505E-2,-3.748396337E-1,5.892239809E-1
1.749313073E0,6.924213842E-3,-4.163849354E-1,5.945502520E-1
1.751800886E0,-6.924213842E-3,-4.515386224E-1,6.052029133E-1
1.754288698E0,-1.757685095E-2,-4.803007543E-1,6.211818457E-1
1.756776511E0,-2.609895915E-2,-5.016059875E-1,6.371608377E-1
1.759264323E0,-3.249054030E-2,-5.154544711E-1,6.520745158E-1
1.761752136E0,-3.568633273E-2,-5.239765644E-1,6.627271175E-1
1.764239948E0,-3.888212144E-2,-5.324986577E-1,6.669881940E-1
1.766727761E0,-4.101264849E-2,-5.431513190E-1,6.659229398E-1
1.769215573E0,-4.101264849E-2,-5.569997430E-1,6.605966091E-1
1.771703386E0,-3.781685978E-2,-5.729786754E-1,6.510092616E-1
1.774191198E0,-3.249054030E-2,-5.878923535E-1,6.403566003E-1
1.776679011E0,-2.716422267E-2,-5.985450149E-1,6.275734305E-1
1.779166823E0,-1.864211448E-2,-6.017407775E-1,6.179860830E-1
1.781654636E0,-1.118526794E-2,-5.974797606E-1,6.115944982E-1
1.784142448E0,-2.663159044E-3,-5.868270993E-1,6.105292439E-1
1.786630261E0,5.858949851E-3,-5.719134212E-1,6.137250066E-1
1.789118073E0,1.438105945E-2,-5.548691750E-1,6.222470999E-1
1.791605886E0,2.290316857E-2,-5.378249884E-1,6.318345070E-1
1.794093698E0,3.142527863E-2,-5.207807422E-1,6.435524225E-1
1.796581511E0,4.101264849E-2,-5.058670640E-1,6.563355327E-1
1.799069323E0,4.953476042E-2,-4.909533858E-1,6.712492704E-1
1.801557136E0,5.699160323E-2,-4.771049619E-1,6.861629486E-1
1.804044948E0,6.338318437E-2,-4.621912539E-1,7.021418810E-1
1.806532761E0,6.870950758E-2,-4.462123215E-1,7.170555592E-1
1.809020573E0,7.084003091E-2,-4.291680753E-1,7.330345511E-1
1.811508386E0,6.977476925E-2,-4.121238589E-1,7.500787377E-1
1.813996198E0,6.657897681E-2,-3.961449265E-1,7.681882381E-1
1.816484011E0,5.912213027E-2,-3.801659644E-1,7.852324843E-1
1.818971823E0,5.060002208E-2,-3.652522564E-1,8.044071794E-1
1.821459636E0,3.888212144E-2,-3.503385782E-1,8.246471882E-1
1.823947448E0,2.822948620E-2,-3.375554085E-1,8.448871970E-1
1.826435261E0,1.864211448E-2,-3.247722387E-1,8.619314432E-1
1.828923073E0,1.118526794E-2,-3.151848912E-1,8.736493587E-1
1.831410886E0,9.054740891E-3,-3.087933064E-1,8.768451214E-1
1.833898698E0,1.012000442E-2,-3.077280223E-1,8.693882823E-1
1.836386511E0,1.651158556E-2,-3.141196072E-1,8.502135277E-1
1.838874323E0,2.822948620E-2,-3.290333152E-1,8.225166798E-1
1.841362136E0,4.314317927E-2,-3.503385782E-1,7.852324843E-1
1.843849948E0,6.125266105E-2,-3.759049177E-1,7.404913902E-1
1.846337761E0,8.042740822E-2,-4.014712274E-1,6.914892793E-1
1.848825573E0,1.027979404E-1,-4.227765203E-1,6.392913461E-1
1.851313386E0,1.272990108E-1,-4.398207366E-1,5.902892351E-1
1.853801198E0,1.528653353E-1,-4.515386224E-1,5.434176326E-1
1.856289011E0,1.784316599E-1,-4.589954615E-1,5.008070469E-1
1.858776823E0,2.039979845E-1,-4.632565379E-1,4.635228515E-1
1.861264636E0,2.284990549E-1,-4.643217921E-1,4.326302111E-1
1.863752448E0,2.508696020E-1,-4.643217921E-1,4.070638716E-1
1.866240261E0,2.711096108E-1,-4.643217921E-1,3.868238628E-1
1.868728073E0,2.892190814E-1,-4.664523304E-1,3.719101548E-1
1.871215886E0,3.041327596E-1,-4.707133770E-1,3.633880615E-1
1.873703698E0,3.158506751E-1,-4.739091694E-1,3.612575233E-1
1.876191511E0,3.233075142E-1,-4.771049619E-1,3.644533157E-1
1.878679323E0,3.275685608E-1,-4.792354703E-1,3.729754388E-1
1.881167136E0,3.265033066E-1,-4.803007543E-1,3.857586086E-1
1.883654948E0,3.222422600E-1,-4.803007543E-1,4.017375410E-1
1.886142761E0,3.137201369E-1,-4.803007543E-1,4.198470414E-1
1.888630573E0,3.009369671E-1,-4.792354703E-1,4.400870502E-1
1.891118386E0,2.849580348E-1,-4.803007543E-1,4.613923132E-1
1.893606198E0,2.668485343E-1,-4.813660085E-1,4.837628603E-1
1.896094011E0,2.476737946E-1,-4.845618010E-1,5.061333776E-1
1.898581823E0,2.306295782E-1,-4.888228476E-1,5.274386406E-1
1.901069636E0,2.157158852E-1,-4.952144325E-1,5.476786494E-1
1.903557396E0,2.039979845E-1,-5.037365556E-1,5.636576414E-1
1.906045157E0,1.976063997E-1,-5.154544711E-1,5.753754973E-1
1.908532917E0,1.976063997E-1,-5.314334035E-1,5.807018280E-1
1.911020678E0,2.018674612E-1,-5.527386665E-1,5.796365738E-1
1.913508438E0,2.114548385E-1,-5.761744976E-1,5.689839721E-1
1.915996198E0,2.263685167E-1,-6.028060913E-1,5.508744717E-1
1.918483959E0,2.476737946E-1,-6.283723712E-1,5.253081322E-1
1.920971719E0,2.721748650E-1,-6.528734565E-1,4.922849536E-1
1.923459480E0,3.020022511E-1,-6.699176431E-1,4.539354742E-1
1.925947240E0,3.360906839E-1,-6.827008128E-1,4.113249183E-1
1.928435000E0,3.744401634E-1,-6.880271435E-1,3.623228073E-1
1.930922761E0,4.127896726E-1,-6.880271435E-1,3.111901283E-1
1.933410521E0,4.543349445E-1,-6.827008128E-1,2.568616867E-1
1.935898282E0,4.958802164E-1,-6.752439737E-1,1.993374527E-1
1.938386042E0,5.352949500E-1,-6.645913720E-1,1.418132186E-1
1.940873803E0,5.715139508E-1,-6.539387107E-1,8.428898454E-2
1.943361563E0,6.045371294E-1,-6.432861090E-1,2.676474862E-2
1.945849323E0,6.322339773E-1,-6.336987019E-1,-2.756369673E-2
1.948337084E0,6.535392404E-1,-6.262418628E-1,-7.976161689E-2
1.950824844E0,6.716487408E-1,-6.219807863E-1,-1.255679578E-1
1.953312605E0,6.844319105E-1,-6.209155321E-1,-1.660479754E-1
1.955800365E0,6.908234954E-1,-6.230461001E-1,-1.990711391E-1
1.958288125E0,6.929540038E-1,-6.294376254E-1,-2.225069404E-1
1.960775886E0,6.876276731E-1,-6.379597783E-1,-2.384859025E-1
1.963263646E0,6.780403256E-1,-6.475471258E-1,-2.448774725E-1
1.965751407E0,6.609960794E-1,-6.592650414E-1,-2.438122183E-1
1.968239167E0,6.396908164E-1,-6.688523889E-1,-2.352901101E-1
1.970726928E0,6.130592227E-1,-6.773745418E-1,-2.193111479E-1
1.973214740E0,5.821665525E-1,-6.837661266E-1,-1.969406158E-1
1.975702553E0,5.491434336E-1,-6.869618893E-1,-1.681784987E-1
1.978190365E0,5.139896870E-1,-6.869618893E-1,-1.351553202E-1
1.980678178E0,4.777707458E-1,-6.816355586E-1,-9.680583328E-2
1.983165990E0,4.436823130E-1,-6.731134653E-1,-5.845634267E-2
1.985653803E0,4.127896726E-1,-6.613955498E-1,-1.904158667E-2
1.988141615E0,3.840275407E-1,-6.496776342E-1,1.930790395E-2
1.990629428E0,3.616569936E-1,-6.422207952E-1,5.339634046E-2
1.993117240E0,3.446127772E-1,-6.368945241E-1,8.322372288E-2
1.995605053E0,3.339601457E-1,-6.368945241E-1,1.077247858E-1
1.998092865E0,3.296990991E-1,-6.390250325E-1,1.237037405E-1
2.000580678E0,3.286338449E-1,-6.422207952E-1,1.332911104E-1
2.003068490E0,3.307643533E-1,-6.432861090E-1,1.343563795E-1
2.005556303E0,3.350254297E-1,-6.411555409E-1,1.290300637E-1
2.008044115E0,3.403517306E-1,-6.347639561E-1,1.183774248E-1
2.010531928E0,3.467433155E-1,-6.262418628E-1,1.023984700E-1
2.013019740E0,3.531349003E-1,-6.155892015E-1,8.322372288E-2
2.015507553E0,3.584612012E-1,-6.028060913E-1,6.191844866E-2
2.017995365E0,3.637875319E-1,-5.910881758E-1,3.848264739E-2
2.020483178E0,3.680485785E-1,-5.793702602E-1,1.398158539E-2
2.022970990E0,3.723096550E-1,-5.697829127E-1,-1.051947847E-2
2.025458803E0,3.765707016E-1,-5.633913279E-1,-3.502054140E-2
2.027946615E0,3.808317482E-1,-5.601955056E-1,-5.845634267E-2
2.030434428E0,3.872233331E-1,-5.601955056E-1,-8.082687855E-2
2.032922240E0,3.936149180E-1,-5.633913279E-1,-1.021321490E-1
2.035410053E0,4.010717571E-1,-5.708481669E-1,-1.213068962E-1
2.037897865E0,4.095938802E-1,-5.804355145E-1,-1.383511126E-1
2.040385678E0,4.191812575E-1,-5.921534300E-1,-1.543300748E-1
2.042873490E0,4.298338890E-1,-6.049365997E-1,-1.681784987E-1
2.045361303E0,4.415517747E-1,-6.187850237E-1,-1.809616536E-1
2.047849115E0,4.532696903E-1,-6.326334476E-1,-1.905490309E-1
2.050336928E0,4.649875760E-1,-6.475471258E-1,-1.980058849E-1
2.052824740E0,4.788360000E-1,-6.603302956E-1,-2.012016773E-1
2.055312553E0,4.948149621E-1,-6.741787195E-1,-2.022669315E-1
2.057800365E0,5.118591785E-1,-6.858966351E-1,-1.990711391E-1
2.060288178E0,5.310339332E-1,-6.965492368E-1,-1.916143000E-1
2.062775990E0,5.523391962E-1,-7.040061355E-1,-1.809616536E-1
2.065263803E0,5.757750273E-1,-7.103977203E-1,-1.671132296E-1
2.067752292E0,6.002760530E-1,-7.157239914E-1,-1.500690132E-1
2.070240417E0,6.258423924E-1,-7.189198136E-1,-1.298290044E-1
2.072728230E0,6.535392404E-1,-7.221155763E-1,-1.095889956E-1
2.075216042E0,6.823013425E-1,-7.242461443E-1,-9.041424841E-2
2.077703855E0,7.110635042E-1,-7.285071611E-1,-7.337003201E-2
2.080191667E0,7.419561148E-1,-7.348987460E-1,-6.165213138E-2
2.082679480E0,7.739140391E-1,-7.466166615E-1,-5.739107728E-2
2.085167240E0,8.058719635E-1,-7.615303397E-1,-6.058686972E-2
2.087655000E0,8.367645741E-1,-7.764440179E-1,-7.230477035E-2
2.090142761E0,8.655267358E-1,-7.892271876E-1,-9.147951752E-2
2.092630521E0,8.910930157E-1,-7.945535183E-1,-1.181111038E-1
2.095118282E0,9.102677703E-1,-7.913577557E-1,-1.500690132E-1
2.097606042E0,9.251814485E-1,-7.785745859E-1,-1.852227151E-1
2.100093803E0,9.347688556E-1,-7.572692633E-1,-2.225069404E-1
2.102581563E0,9.379646182E-1,-7.295724154E-1,-2.587259114E-1
2.105069323E0,9.358341098E-1,-6.976145506E-1,-2.938795984E-1
2.107557084E0,9.273120165E-1,-6.635261178E-1,-3.258375227E-1
2.110044844E0,9.145288467E-1,-6.283723712E-1,-3.524691164E-1
2.112532605E0,8.953540921E-1,-5.932186842E-1,-3.727091253E-1
2.115020365E0,8.708530068E-1,-5.612607598E-1,-3.886880577E-1
2.117508125E0,8.399603963E-1,-5.293028951E-1,-3.982754350E-1
2.119995886E0,8.048067093E-1,-5.026713014E-1,-4.036017656E-1
2.122483646E0,7.621961236E-1,-4.792354703E-1,-4.036017656E-1
2.124971407E0,7.153245211E-1,-4.600607455E-1,-3.993407190E-1
2.127459167E0,6.641919017E-1,-4.451470375E-1,-3.929491341E-1
2.129946928E0,6.077328920E-1,-4.344944060E-1,-3.822965026E-1
2.132434688E0,5.480781198E-1,-4.259723127E-1,-3.705785871E-1
2.134922448E0,4.841623306E-1,-4.185154438E-1,-3.567301631E-1
2.137410209E0,4.202465117E-1,-4.121238589E-1,-3.428817391E-1
2.139897969E0,3.542001545E-1,-4.057323039E-1,-3.279680312E-1
2.142385730E0,2.881538272E-1,-3.972101808E-1,-3.141196072E-1
2.144873490E0,2.231727391E-1,-3.865575492E-1,-2.992059290E-1
2.147361250E0,1.592569202E-1,-3.748396337E-1,-2.832269669E-1
2.149849011E0,9.853688627E-2,-3.599259555E-1,-2.693785429E-1
2.152336771E0,3.994738683E-2,-3.450122476E-1,-2.565953732E-1
2.154824584E0,-1.225053146E-2,-3.279680312E-1,-2.438122183E-1
2.157312396E0,-6.018739566E-2,-3.109238148E-1,-2.331595868E-1
2.159800209E0,-1.017326787E-1,-2.938795984E-1,-2.246374637E-1
2.162288021E0,-1.368863732E-1,-2.757701278E-1,-2.193111479E-1
2.164775834E0,-1.645832360E-1,-2.608564198E-1,-2.182458937E-1
2.167263646E0,-1.848232448E-1,-2.491385341E-1,-2.214416862E-1
2.169751459E0,-1.965411454E-1,-2.427469492E-1,-2.320943177E-1
2.172239271E0,-2.018674612E-1,-2.427469492E-1,-2.470080107E-1
2.174727084E0,-1.986716688E-1,-2.512690723E-1,-2.683132887E-1
2.177214896E0,-1.858884990E-1,-2.672480047E-1,-2.938795984E-1
2.179702709E0,-1.656484902E-1,-2.906838059E-1,-3.237069845E-1
2.182190521E0,-1.379516423E-1,-3.173153996E-1,-3.567301631E-1
2.184678334E0,-1.017326787E-1,-3.460775316E-1,-3.918838501E-1
2.187166146E0,-5.912213027E-2,-3.748396337E-1,-4.281028211E-1
2.189653959E0,-9.054740891E-3,-4.014712274E-1,-4.653870463E-1
2.192141771E0,4.420844093E-2,-4.227765203E-1,-5.005407333E-1
2.194629584E0,1.027979404E-1,-4.398207366E-1,-5.335639119E-1
2.197117396E0,1.635179669E-1,-4.504733682E-1,-5.655218363E-1
2.199605209E0,2.253032625E-1,-4.536691606E-1,-5.921534300E-1
2.202093021E0,2.870885432E-1,-4.504733682E-1,-6.155892015E-1
2.204580834E0,3.456780612E-1,-4.408859909E-1,-6.336987019E-1
2.207068646E0,4.021370113E-1,-4.238417745E-1,-6.464818716E-1
2.209556459E0,4.532696903E-1,-4.014712274E-1,-6.550039649E-1
2.212044271E0,4.980107546E-1,-3.737743795E-1,-6.581997871E-1
2.214532084E0,5.363602638E-1,-3.418164849E-1,-6.550039649E-1
2.217019896E0,5.683181286E-1,-3.077280223E-1,-6.475471258E-1
2.219507709E0,5.928192139E-1,-2.736395895E-1,-6.347639561E-1
2.221995521E0,6.087981462E-1,-2.395511568E-1,-6.155892015E-1
2.224483334E0,6.183855534E-1,-2.065279931E-1,-5.932186842E-1
2.226971146E0,6.205160618E-1,-1.756353378E-1,-5.665870905E-1
2.229458959E0,6.141244769E-1,-1.490037590E-1,-5.367597342E-1
2.231946771E0,6.013413072E-1,-1.255679578E-1,-5.037365556E-1
2.234434584E0,5.811012983E-1,-1.042626798E-1,-4.685828388E-1
2.236922396E0,5.555350184E-1,-8.508793265E-2,-4.323638678E-1
2.239410209E0,5.257076025E-1,-7.017423958E-2,-3.961449265E-1
2.241898021E0,4.905539155E-1,-5.632581562E-2,-3.609912097E-1
2.244385834E0,4.522044063E-1,-4.460791498E-2,-3.290333152E-1
2.246873646E0,4.138549268E-1,-3.502054140E-2,-3.002711833E-1
2.249361459E0,3.733749092E-1,-2.649843320E-2,-2.736395895E-1
2.251849271E0,3.339601457E-1,-1.904158667E-2,-2.512690723E-1
2.254337084E0,2.966759205E-1,-1.371526904E-2,-2.342248410E-1
2.256824896E0,2.615222335E-1,-1.051947847E-2,-2.225069404E-1
2.259312709E0,2.316948473E-1,-1.051947847E-2,-2.161153555E-1
2.261800521E0,2.050632536E-1,-1.371526904E-2,-2.161153555E-1
2.264288334E0,1.837579757E-1,-2.117211558E-2,-2.235722095E-1
2.266776146E0,1.688442826E-1,-3.395527974E-2,-2.384859025E-1
2.269263959E0,1.592569202E-1,-5.313002318E-2,-2.597911656E-1
2.271751771E0,1.549958587E-1,-7.763108611E-2,-2.885532975E-1
2.274239584E0,1.571263820E-1,-1.074584723E-1,-3.237069845E-1
2.276727396E0,1.656484902E-1,-1.426121742E-1,-3.620564938E-1
2.279215209E0,1.805621833E-1,-1.798963994E-1,-4.036017656E-1
2.281703021E0,2.018674612E-1,-2.161153555E-1,-4.440817833E-1
2.284190834E0,2.295643091E-1,-2.512690723E-1,-4.845618010E-1
2.286678646E0,2.625874877E-1,-2.810964286E-1,-5.207807422E-1
2.289166459E0,3.009369671E-1,-3.055975139E-1,-5.538039207E-1
2.291654271E0,3.414169848E-1,-3.226417303E-1,-5.815007687E-1
2.294142084E0,3.840275407E-1,-3.343596160E-1,-6.049365997E-1
2.296629896E0,4.277033508E-1,-3.396859467E-1,-6.230461001E-1
2.299117709E0,4.713791609E-1,-3.396859467E-1,-6.347639561E-1
2.301605521E0,5.139896870E-1,-3.354249001E-1,-6.422207952E-1
2.304093334E0,5.544697046E-1,-3.269027770E-1,-6.443513632E-1
2.306581146E0,5.917539597E-1,-3.141196072E-1,-6.390250325E-1
2.309068959E0,6.258423924E-1,-3.002711833E-1,-6.273071170E-1
2.311556771E0,6.535392404E-1,-2.821617126E-1,-6.070671082E-1
2.314044584E0,6.769750714E-1,-2.629869580E-1,-5.804355145E-1
2.316532396E0,6.940192580E-1,-2.427469492E-1,-5.452818274E-1
2.319020209E0,7.057371736E-1,-2.203764170E-1,-5.048018098E-1
2.321508021E0,7.089329362E-1,-1.948100924E-1,-4.611259997E-1
2.323995834E0,7.036066055E-1,-1.681784987E-1,-4.142543972E-1
2.326483646E0,6.918887496E-1,-1.415469050E-1,-3.641870022E-1
2.328971459E0,6.727139950E-1,-1.159805804E-1,-3.151848912E-1
2.331459271E0,6.482129097E-1,-9.254477918E-2,-2.693785429E-1
2.333947084E0,6.173202991E-1,-7.230477035E-2,-2.246374637E-1
2.336434896E0,5.842971206E-1,-5.632581562E-2,-1.873532385E-1
2.338922709E0,5.480781198E-1,-4.673844203E-2,-1.564605981E-1
2.341410521E0,5.086634159E-1,-4.567318037E-2,-1.330247968E-1
2.343898334E0,4.692486227E-1,-5.313002318E-2,-1.170458421E-1
2.346386146E0,4.298338890E-1,-6.484792382E-2,-1.095889956E-1
2.348873959E0,3.914843798E-1,-8.402267098E-2,-1.085237339E-1
2.351361771E0,3.552654386E-1,-1.063932031E-1,-1.127847880E-1
2.353849584E0,3.211769760E-1,-1.276984811E-1,-1.234374270E-1
2.356337396E0,2.924148738E-1,-1.479384899E-1,-1.372858584E-1
2.358825209E0,2.679138184E-1,-1.628521830E-1,-1.532648057E-1
2.361313021E0,2.508696020E-1,-1.756353378E-1,-1.703090221E-1
2.363800834E0,2.402169555E-1,-1.830921918E-1,-1.873532385E-1
2.366288646E0,2.359558940E-1,-1.873532385E-1,-2.033322006E-1
2.368776459E0,2.370211631E-1,-1.884185076E-1,-2.193111479E-1
2.371264271E0,2.444780022E-1,-1.852227151E-1,-2.352901101E-1
2.373752084E0,2.572611570E-1,-1.798963994E-1,-2.491385341E-1
2.376239896E0,2.732401192E-1,-1.713742912E-1,-2.608564198E-1
2.378727709E0,2.913496196E-1,-1.585911214E-1,-2.704437971E-1
2.381215521E0,3.137201369E-1,-1.426121742E-1,-2.779006660E-1
2.383703334E0,3.382211924E-1,-1.245026886E-1,-2.832269669E-1
2.386191146E0,3.637875319E-1,-1.053279415E-1,-2.874880135E-1
2.388678959E0,3.925496638E-1,-8.721846342E-2,-2.896185517E-1
2.391166771E0,4.213117659E-1,-7.017423958E-2,-2.896185517E-1
2.393654584E0,4.500738978E-1,-5.632581562E-2,-2.874880135E-1
2.396142396E0,4.788360000E-1,-4.673844203E-2,-2.853575051E-1
2.398630209E0,5.054675937E-1,-4.034686089E-2,-2.810964286E-1
2.401118021E0,5.320991874E-1,-4.034686089E-2,-2.757701278E-1
2.403605834E0,5.544697046E-1,-4.460791498E-2,-2.693785429E-1
2.406093646E0,5.747097135E-1,-5.206476152E-2,-2.597911656E-1
2.408581459E0,5.885581374E-1,-6.271740049E-2,-2.480732650E-1
2.411069271E0,5.992107987E-1,-7.550056279E-2,-2.352901101E-1
2.413557084E0,6.034718752E-1,-8.934898674E-2,-2.214416862E-1
2.416044896E0,6.034718752E-1,-1.031974182E-1,-2.065279931E-1
2.418532709E0,5.960150361E-1,-1.181111038E-1,-1.937448233E-1
2.421020521E0,5.832318664E-1,-1.330247968E-1,-1.820269227E-1
2.423508334E0,5.661876202E-1,-1.500690132E-1,-1.713742912E-1
2.425996146E0,5.459476113E-1,-1.671132296E-1,-1.617869139E-1
2.428483959E0,5.203812718E-1,-1.852227151E-1,-1.543300748E-1
2.430971771E0,4.916191697E-1,-2.001364082E-1,-1.479384899E-1
2.433459584E0,4.585959911E-1,-2.107890397E-1,-1.426121742E-1
2.435947396E0,4.223770201E-1,-2.139848322E-1,-1.394163817E-1
2.438435209E0,3.818970025E-1,-2.107890397E-1,-1.372858584E-1
2.440923021E0,3.403517306E-1,-2.022669315E-1,-1.372858584E-1
2.443410834E0,2.977411747E-1,-1.884185076E-1,-1.394163817E-1
2.445898646E0,2.561959028E-1,-1.745700836E-1,-1.447426975E-1
2.448386459E0,2.178464085E-1,-1.607216448E-1,-1.532648057E-1
2.450874271E0,1.848232448E-1,-1.490037590E-1,-1.628521830E-1
2.453362084E0,1.571263820E-1,-1.404816359E-1,-1.735048145E-1
2.455849896E0,1.368863732E-1,-1.351553202E-1,-1.862879843E-1
2.458337709E0,1.219726875E-1,-1.330247968E-1,-1.990711391E-1
2.460825521E0,1.155811027E-1,-1.340900660E-1,-2.129195631E-1
2.463313334E0,1.145158410E-1,-1.362205893E-1,-2.257027328E-1
2.465801146E0,1.209074259E-1,-1.404816359E-1,-2.384859025E-1
2.468288959E0,1.358211190E-1,-1.521995366E-1,-2.470080107E-1
2.470776771E0,1.613874435E-1,-1.756353378E-1,-2.555301189E-1
2.473264584E0,1.997369379E-1,-2.033322006E-1,-2.640522122E-1
2.475752396E0,2.487390637E-1,-2.246374637E-1,-2.715090811E-1
2.478240209E0,3.030675054E-1,-2.395511568E-1,-2.779006660E-1
2.480728021E0,3.584612012E-1,-2.491385341E-1,-2.810964286E-1
2.483215834E0,4.127896726E-1,-2.533995807E-1,-2.810964286E-1
2.485703646E0,4.628570378E-1,-2.512690723E-1,-2.779006660E-1
2.488191459E0,5.097286701E-1,-2.448774725E-1,-2.704437971E-1
2.490679271E0,5.502086878E-1,-2.384859025E-1,-2.576606572E-1
2.493167084E0,5.842971206E-1,-2.320943177E-1,-2.395511568E-1
2.495654896E0,6.119939685E-1,-2.320943177E-1,-2.161153555E-1
2.498142709E0,6.343644857E-1,-2.374206334E-1,-1.873532385E-1
2.500630521E0,6.492781639E-1,-2.491385341E-1,-1.543300748E-1
2.503118334E0,6.578003168E-1,-2.651174963E-1,-1.202416345E-1
2.505606146E0,6.567350626E-1,-2.832269669E-1,-8.402267098E-2
2.508093959E0,6.460824013E-1,-3.024017215E-1,-4.673844203E-2
2.510581771E0,6.247771382E-1,-3.215764761E-1,-1.051947847E-2
2.513069584E0,5.938844681E-1,-3.386206925E-1,2.783001214E-2
2.515557396E0,5.502086878E-1,-3.524691164E-1,6.617950648E-2
2.518045209E0,4.969455004E-1,-3.641870022E-1,1.055942550E-1
2.520533021E0,4.340949357E-1,-3.727091253E-1,1.460742801E-1
2.523020834E0,3.616569936E-1,-3.769701719E-1,1.854890287E-1
2.525508646E0,2.828274965E-1,-3.759049177E-1,2.249037921E-1
2.527996563E0,2.008021921E-1,-3.673827946E-1,2.600574791E-1
2.530484428E0,1.166463718E-1,-3.524691164E-1,2.920154035E-1
2.532972240E0,3.355580568E-2,-3.300985694E-1,3.186469972E-1
2.535460053E0,-4.633896798E-2,-3.024017215E-1,3.410175145E-1
2.537947865E0,-1.177116334E-1,-2.725743353E-1,3.580617309E-1
2.540435678E0,-1.794969290E-1,-2.427469492E-1,3.687143922E-1
2.542923490E0,-2.284990549E-1,-2.139848322E-1,3.740406930E-1
2.545411303E0,-2.647180259E-1,-1.884185076E-1,3.740406930E-1
2.547899063E0,-2.860232890E-1,-1.681784987E-1,3.665838540E-1
2.550386823E0,-2.913496196E-1,-1.511342824E-1,3.548659384E-1
2.552874584E0,-2.806969583E-1,-1.362205893E-1,3.367564678E-1
2.555362344E0,-2.561959028E-1,-1.234374270E-1,3.154512048E-1
2.557850105E0,-2.146506310E-1,-1.117195264E-1,2.898848653E-1
2.560337865E0,-1.581916511E-1,-1.021321490E-1,2.632532716E-1
2.562825625E0,-8.788424730E-2,-9.467530251E-2,2.355564237E-1
2.565313386E0,-4.793686327E-3,-8.934898674E-2,2.099900991E-1
2.567801146E0,8.788424730E-2,-8.828372508E-2,1.854890287E-1
2.570288907E0,1.869537681E-1,-9.147951752E-2,1.652490199E-1
2.572776667E0,2.892190814E-1,-9.787109494E-2,1.471395344E-1
2.575264428E0,3.946801722E-1,-1.074584723E-1,1.354216337E-1
2.577752188E0,5.001412630E-1,-1.245026886E-1,1.279647946E-1
2.580239948E0,6.066676378E-1,-1.500690132E-1,1.268995255E-1
2.582727709E0,7.121287584E-1,-1.809616536E-1,1.258342713E-1
2.585215469E0,8.122635484E-1,-2.086585164E-1,1.247690022E-1
2.587703230E0,9.028109312E-1,-2.257027328E-1,1.258342713E-1
2.590190990E0,9.784446359E-1,-2.331595868E-1,1.279647946E-1
2.592678750E0,1.035968900E0,-2.299637944E-1,1.290300637E-1
2.595166511E0,1.076448917E0,-2.193111479E-1,1.322258562E-1
2.597654271E0,1.102015257E0,-2.033322006E-1,1.375521719E-1
2.600142032E0,1.112667918E0,-1.873532385E-1,1.428784877E-1
2.602629792E0,1.110537291E0,-1.745700836E-1,1.524658650E-1
2.605117553E0,1.097754240E0,-1.671132296E-1,1.620532274E-1
2.607605313E0,1.074318409E0,-1.639174372E-1,1.737711281E-1
2.610093073E0,1.041295171E0,-1.639174372E-1,1.844237745E-1
2.612580834E0,1.000815153E0,-1.649827063E-1,1.929458827E-1
2.615068594E0,9.550088644E-1,-1.671132296E-1,1.993374527E-1
2.617556355E0,9.038761854E-1,-1.660479754E-1,2.025332451E-1
2.620044167E0,8.506129980E-1,-1.639174372E-1,2.035985142E-1
2.622531980E0,7.952193022E-1,-1.585911214E-1,2.035985142E-1
2.625019792E0,7.387603521E-1,-1.521995366E-1,2.025332451E-1
2.627507605E0,6.812360883E-1,-1.415469050E-1,2.014679909E-1
2.629995417E0,6.226465702E-1,-1.276984811E-1,1.993374527E-1
2.632483230E0,5.640571117E-1,-1.074584723E-1,1.972069293E-1
2.634971042E0,5.054675937E-1,-8.189214021E-2,1.961416751E-1
2.637458855E0,4.458128214E-1,-5.099949613E-2,1.972069293E-1
2.639946667E0,3.861580789E-1,-1.584579609E-2,1.993374527E-1
2.642434480E0,3.286338449E-1,2.143843099E-2,2.057290375E-1
2.644922292E0,2.721748650E-1,5.872265995E-2,2.142511457E-1
2.647410105E0,2.178464085E-1,9.600688517E-2,2.249037921E-1
2.649897917E0,1.656484902E-1,1.290300637E-1,2.387522161E-1
2.652385730E0,1.145158410E-1,1.567269117E-1,2.557964325E-1
2.654873542E0,6.657897681E-2,1.801627129E-1,2.760364413E-1
2.657361355E0,1.864211448E-2,1.972069293E-1,2.994722426E-1
2.659849167E0,-2.929474972E-2,2.099900991E-1,3.239732981E-1
2.662336980E0,-7.510108501E-2,2.195774615E-1,3.484743834E-1
2.664824792E0,-1.209074259E-1,2.249037921E-1,3.729754388E-1
2.667312605E0,-1.645832360E-1,2.291648388E-1,3.953459561E-1
2.669800417E0,-2.082590461E-1,2.323606312E-1,4.166512489E-1
2.672288230E0,-2.498043180E-1,2.344911546E-1,4.358259737E-1
2.674776042E0,-2.881538272E-1,2.344911546E-1,4.528702199E-1
2.677263855E0,-3.222422600E-1,2.334259003E-1,4.667186439E-1
2.679751667E0,-3.510043621E-1,2.312953621E-1,4.784365296E-1
2.682239480E0,-3.755054474E-1,2.291648388E-1,4.880239069E-1
2.684727292E0,-3.925496638E-1,2.270343155E-1,4.954807460E-1
2.687215105E0,-4.042675495E-1,2.270343155E-1,4.986765385E-1
2.689702917E0,-4.095938802E-1,2.291648388E-1,4.986765385E-1
2.692190730E0,-4.063980877E-1,2.334259003E-1,4.965460002E-1
2.694678542E0,-3.968107104E-1,2.419480085E-1,4.901544452E-1
2.697166355E0,-3.797664940E-1,2.526006401E-1,4.784365296E-1
2.699654167E0,-3.552654386E-1,2.643185556E-1,4.624575675E-1
2.702141980E0,-3.243727684E-1,2.792322338E-1,4.411523044E-1
2.704629792E0,-2.881538272E-1,2.930806577E-1,4.166512489E-1
2.707117605E0,-2.466085255E-1,3.090596199E-1,3.878891170E-1
2.709605417E0,-2.008021921E-1,3.239732981E-1,3.559312224E-1
2.712093230E0,-1.518000662E-1,3.378217220E-1,3.207775056E-1
2.714581042E0,-1.006674170E-1,3.506048918E-1,2.856238186E-1
2.717068855E0,-4.953476042E-2,3.601922691E-1,2.494048476E-1
2.719556667E0,1.597895520E-3,3.655185997E-1,2.121206224E-1
2.722044480E0,4.953476042E-2,3.687143922E-1,1.759016514E-1
2.724532292E0,9.427583218E-2,3.687143922E-1,1.396826953E-1
2.727020105E0,1.347558498E-1,3.655185997E-1,1.055942550E-1
2.729507917E0,1.688442826E-1,3.591270149E-1,7.363634557E-2
2.731995730E0,1.976063997E-1,3.527354300E-1,4.380896688E-2
2.734483542E0,2.199769467E-1,3.442133069E-1,1.717737690E-2
2.736971355E0,2.359558940E-1,3.356912136E-1,-7.323687430E-3
2.739459167E0,2.444780022E-1,3.250385821E-1,-2.756369673E-2
2.741946980E0,2.476737946E-1,3.143859208E-1,-4.460791498E-2
2.744434792E0,2.476737946E-1,3.037332892E-1,-5.845634267E-2
2.746922605E0,2.434127480E-1,2.920154035E-1,-6.804371625E-2
2.749410417E0,2.338253707E-1,2.781669796E-1,-7.550056279E-2
2.751898230E0,2.221074700E-1,2.632532716E-1,-7.763108611E-2
2.754386042E0,2.050632536E-1,2.472743243E-1,-7.763108611E-2
2.756873855E0,1.869537681E-1,2.302301079E-1,-7.337003201E-2
2.759361667E0,1.656484902E-1,2.131858915E-1,-6.591318548E-2
2.761849480E0,1.422126889E-1,1.972069293E-1,-5.526055023E-2
2.764337292E0,1.177116334E-1,1.812279820E-1,-4.247738793E-2
2.766825105E0,9.534109384E-2,1.673795432E-1,-2.756369673E-2
2.769312917E0,7.403582335E-2,1.556616426E-1,-1.051947847E-2
2.771800730E0,5.486107618E-2,1.450090110E-1,6.524739787E-3
2.774288542E0,3.994738683E-2,1.386174262E-1,2.356895804E-2
2.776776355E0,2.822948620E-2,1.343563795E-1,3.954791278E-2
2.779264167E0,2.077264152E-2,1.332911104E-1,5.446160212E-2
2.781751980E0,1.757685095E-2,1.332911104E-1,6.724476814E-2
2.784239792E0,1.970737800E-2,1.354216337E-1,7.896266878E-2
2.786727605E0,2.716422267E-2,1.396826953E-1,8.961530030E-2
2.789215417E0,3.888212144E-2,1.439437568E-1,9.920267761E-2
2.791703230E0,5.486107618E-2,1.482048035E-1,1.045289934E-1
2.794191042E0,7.510108501E-2,1.545963883E-1,1.087900475E-1
2.796678855E0,9.960214794E-2,1.588574350E-1,1.098553166E-1
2.799166667E0,1.262337416E-1,1.631184965E-1,1.077247858E-1
2.801654480E0,1.528653353E-1,1.673795432E-1,1.034637317E-1
2.804142292E0,1.805621833E-1,1.716406047E-1,9.600688517E-2
2.806630105E0,2.082590461E-1,1.769669205E-1,8.535424620E-2
2.809117917E0,2.338253707E-1,1.812279820E-1,7.363634557E-2
2.811605730E0,2.583264410E-1,1.854890287E-1,6.085318699E-2
2.814093542E0,2.785664499E-1,1.876195520E-1,4.700475931E-2
2.816581355E0,2.956106663E-1,1.886848211E-1,3.209106624E-2
2.819069167E0,3.094590902E-1,1.897500902E-1,1.824264042E-2
2.821556980E0,3.169159293E-1,1.897500902E-1,2.263685223E-3
2.824044792E0,3.201117218E-1,1.897500902E-1,-1.158474199E-2
2.826532605E0,3.169159293E-1,1.897500902E-1,-2.543316968E-2
2.829020417E0,3.094590902E-1,1.897500902E-1,-3.821633384E-2
2.831508230E0,2.966759205E-1,1.908153445E-1,-5.099949613E-2
2.833996042E0,2.796317041E-1,1.918806136E-1,-6.271740049E-2
2.836483855E0,2.583264410E-1,1.940111369E-1,-7.443529367E-2
2.838971667E0,2.338253707E-1,1.961416751E-1,-8.402267098E-2
2.841459480E0,2.071937770E-1,1.982721984E-1,-9.361004084E-2
2.843947292E0,1.773663908E-1,2.004027218E-1,-1.021321490E-1
2.846435105E0,1.475390196E-1,2.014679909E-1,-1.074584723E-1
2.848922917E0,1.166463718E-1,2.014679909E-1,-1.117195264E-1
2.851410730E0,8.681898564E-2,1.993374527E-1,-1.117195264E-1
2.853898542E0,5.912213027E-2,1.961416751E-1,-1.095889956E-1
2.856386355E0,3.462106735E-2,1.918806136E-1,-1.053279415E-1
2.858874167E0,1.438105945E-2,1.865542978E-1,-9.893636405E-2
2.861361980E0,-3.728422802E-3,1.790974438E-1,-9.147951752E-2
2.863849792E0,-1.651158556E-2,1.716406047E-1,-8.189214021E-2
2.866337605E0,-2.609895915E-2,1.631184965E-1,-7.123950869E-2
2.868825417E0,-3.142527863E-2,1.545963883E-1,-6.058686972E-2
2.871313230E0,-3.355580568E-2,1.471395344E-1,-4.886896908E-2
2.873801042E0,-3.142527863E-2,1.407479644E-1,-3.395527974E-2
2.876288855E0,-2.609895915E-2,1.332911104E-1,-2.010685205E-2
2.878776667E0,-1.651158556E-2,1.268995255E-1,-5.193160381E-3
2.881264480E0,-2.663159044E-3,1.215732098E-1,8.655266836E-3
2.883752292E0,1.331579592E-2,1.162468940E-1,2.463422157E-2
2.886240105E0,3.142527863E-2,1.119858399E-1,3.954791278E-2
2.888727917E0,5.273054913E-2,1.077247858E-1,5.339634046E-2
2.891215730E0,7.190529257E-2,1.034637317E-1,6.724476814E-2
2.893703542E0,9.108003974E-2,9.920267761E-2,7.896266878E-2
2.896191355E0,1.102547869E-1,9.494162351E-2,8.855003864E-2
2.898679167E0,1.272990108E-1,8.961530030E-2,9.707214683E-2
2.901166980E0,1.411474347E-1,8.428898454E-2,1.045289934E-1
2.903654792E0,1.528653353E-1,7.896266878E-2,1.098553166E-1
2.906142605E0,1.603221744E-1,7.576687634E-2,1.141163707E-1
2.908630417E0,1.624527127E-1,7.363634557E-2,1.173121557E-1
2.911118230E0,1.613874435E-1,7.150582224E-2,1.183774248E-1
2.913606042E0,1.571263820E-1,7.150582224E-2,1.183774248E-1
2.916093855E0,1.486042738E-1,7.257108390E-2,1.162468940E-1
2.918581667E0,1.379516423E-1,7.363634557E-2,1.119858399E-1
2.921069480E0,1.251684725E-1,7.576687634E-2,1.055942550E-1
2.923557292E0,1.102547869E-1,7.789740711E-2,9.920267761E-2
2.926045105E0,9.427583218E-2,7.896266878E-2,8.961530030E-2
2.928532917E0,7.723161578E-2,8.002793044E-2,7.896266878E-2
2.931020730E0,6.125266105E-2,8.002793044E-2,6.724476814E-2
2.933508542E0,4.633896798E-2,8.002793044E-2,5.339634046E-2
2.935996355E0,3.249054030E-2,7.789740711E-2,3.954791278E-2
2.938484167E0,2.077264152E-2,7.683213800E-2,2.463422157E-2
2.940971980E0,1.118526794E-2,7.470161468E-2,8.655266836E-3
2.943459792E0,2.663159044E-3,7.363634557E-2,-5.193160381E-3
2.945947605E0,-2.663159044E-3,7.044056058E-2,-1.904158667E-2
2.948435417E0,-4.793686327E-3,6.831002980E-2,-3.395527974E-2
2.950923230E0,-5.858949851E-3,6.617950648E-2,-4.780370742E-2
2.953411042E0,-3.728422802E-3,6.191844866E-2,-5.952160433E-2
2.955898855E0,5.326318205E-4,5.765739456E-2,-7.017423958E-2
2.958386667E0,5.858949851E-3,5.339634046E-2,-8.082687855E-2
2.960874480E0,1.438105945E-2,4.700475931E-2,-8.828372508E-2
2.963362292E0,2.396843210E-2,4.061317816E-2,-9.467530251E-2
2.965850105E0,3.462106735E-2,3.315633163E-2,-1.000016257E-1
2.968337917E0,4.633896798E-2,2.463422157E-2,-1.021321490E-1
2.970825730E0,5.699160323E-2,1.504684892E-2,-1.031974182E-1
2.973313542E0,6.977476925E-2,5.459476262E-3,-1.031974182E-1
2.975801355E0,8.042740822E-2,-4.127896391E-3,-1.000016257E-1
2.978289167E0,9.108003974E-2,-1.265000552E-2,-9.467530251E-2
2.980776980E0,9.960214794E-2,-2.117211558E-2,-8.615319431E-2
2.983264740E0,1.070589945E-1,-2.862896025E-2,-7.550056279E-2
2.985752500E0,1.123853177E-1,-3.502054140E-2,-6.271740049E-2
2.988240261E0,1.166463718E-1,-4.034686089E-2,-4.780370742E-2
2.990728021E0,1.198421568E-1,-4.567318037E-2,-3.289001435E-2
2.993215782E0,1.209074259E-1,-5.099949613E-2,-1.691105962E-2
2.995703542E0,1.209074259E-1,-5.526055023E-2,-9.321057005E-4
2.998191303E0,1.209074259E-1,-5.952160433E-2,1.398158539E-2
3.000679063E0,1.187768951E-1,-6.271740049E-2,2.889527567E-2
3.003166823E0,1.166463718E-1,-6.484792382E-2,4.061317816E-2
3.005654584E0,1.123853177E-1,-6.804371625E-2,5.233107507E-2
3.008142344E0,1.070589945E-1,-7.123950869E-2,5.978792161E-2
3.010630105E0,1.006674170E-1,-7.337003201E-2,6.511423737E-2
3.013117865E0,9.214530140E-2,-7.656582445E-2,6.617950648E-2
3.015605625E0,8.362319320E-2,-7.869634777E-2,6.511423737E-2
3.018093386E0,7.510108501E-2,-8.189214021E-2,6.298371404E-2
3.020581146E0,6.551371515E-2,-8.402267098E-2,5.659212917E-2
3.023068907E0,5.486107618E-2,-8.508793265E-2,4.807002097E-2
3.025556667E0,4.527370632E-2,-8.615319431E-2,3.954791278E-2
3.028044428E0,3.568633273E-2,-8.402267098E-2,2.783001214E-2
3.030532188E0,2.503369562E-2,-8.189214021E-2,1.611211337E-2
3.033019948E0,1.438105945E-2,-7.763108611E-2,3.328948980E-3
3.035507709E0,3.728422802E-3,-7.230477035E-2,-1.158474199E-2
3.037995469E0,-6.924213842E-3,-6.697845459E-2,-2.543316968E-2
3.040483230E0,-1.757685095E-2,-6.058686972E-2,-3.928159550E-2
3.042970990E0,-2.716422267E-2,-5.419528857E-2,-5.313002318E-2
3.045458750E0,-3.675159439E-2,-4.780370742E-2,-6.697845459E-2
3.047946511E0,-4.740423337E-2,-4.141212255E-2,-7.976161689E-2
3.050434271E0,-5.592634156E-2,-3.502054140E-2,-9.041424841E-2
3.052922032E0,-6.551371515E-2,-2.756369673E-2,-9.787109494E-2
3.055409792E0,-7.510108501E-2,-1.904158667E-2,-1.042626798E-1
3.057897605E0,-8.362319320E-2,-9.454214945E-3,-1.085237339E-1
3.060385417E0,-9.321057051E-2,-9.321057005E-4,-1.085237339E-1
3.062873230E0,-1.027979404E-1,8.655266836E-3,-1.053279415E-1
3.065361042E0,-1.123853177E-1,1.717737690E-2,-1.010668874E-1
3.067848855E0,-1.219726875E-1,2.569948509E-2,-9.467530251E-2
3.070336667E0,-1.326253265E-1,3.315633163E-2,-8.615319431E-2
3.072824480E0,-1.432779580E-1,3.954791278E-2,-7.656582445E-2
3.075312292E0,-1.549958587E-1,4.487423226E-2,-6.591318548E-2
3.077800105E0,-1.656484902E-1,4.913528636E-2,-5.632581562E-2
3.080287917E0,-1.763011366E-1,5.126581341E-2,-4.673844203E-2
3.082775730E0,-1.880190372E-1,5.233107507E-2,-3.608580679E-2
3.085263542E0,-1.986716688E-1,5.126581341E-2,-2.649843320E-2
3.087751355E0,-2.093243003E-1,4.913528636E-2,-1.797632314E-2
3.090239167E0,-2.189116776E-1,4.593949392E-2,-1.051947847E-2
3.092726980E0,-2.263685167E-1,4.274370521E-2,-4.127896391E-3
3.095214792E0,-2.327601016E-1,3.954791278E-2,2.263685223E-3
3.097702605E0,-2.359558940E-1,3.528685868E-2,7.590003312E-3
3.100190417E0,-2.359558940E-1,2.996053919E-2,1.185105834E-2
3.102678230E0,-2.327601016E-1,2.463422157E-2,1.504684892E-2
3.105166042E0,-2.263685167E-1,1.930790395E-2,1.717737690E-2
3.107653855E0,-2.167811543E-1,1.398158539E-2,1.824264042E-2
3.110141667E0,-2.039979845E-1,7.590003312E-3,1.930790395E-2
3.112629480E0,-1.869537681E-1,2.263685223E-3,2.037316747E-2
3.115117292E0,-1.677790284E-1,-1.997369342E-3,1.930790395E-2
3.117605105E0,-1.464737505E-1,-5.193160381E-3,1.824264042E-2
3.120092917E0,-1.219726875E-1,-7.323687430E-3,1.824264042E-2
3.122580730E0,-9.427583218E-2,-9.454214945E-3,1.930790395E-2
3.125068542E0,-6.657897681E-2,-1.158474199E-2,1.930790395E-2
3.127556355E0,-3.781685978E-2,-1.371526904E-2,2.143843099E-2
3.130044167E0,-7.989477366E-3,-1.691105962E-2,2.250369452E-2
3.132531980E0,2.077264152E-2,-2.010685205E-2,2.676474862E-2
3.135019792E0,4.846949503E-2,-2.330264263E-2,3.102580272E-2
3.137507605E0,7.190529257E-2,-2.756369673E-2,3.741738573E-2
3.139995417E0,9.214530140E-2,-3.182475269E-2,4.274370521E-2
3.142483230E0,1.081242561E-1,-3.608580679E-2,5.020054802E-2
3.144971042E0,1.198421568E-1,-3.928159550E-2,5.659212917E-2
3.147458855E0,1.272990108E-1,-4.354264960E-2,6.298371404E-2
3.149946667E0,1.294295341E-1,-4.673844203E-2,6.831002980E-2
3.152434480E0,1.262337416E-1,-4.993423447E-2,7.257108390E-2
3.154922292E0,1.187768951E-1,-5.313002318E-2,7.470161468E-2
3.157410105E0,1.081242561E-1,-5.526055023E-2,7.576687634E-2
3.159897917E0,9.214530140E-2,-5.632581562E-2,7.470161468E-2
3.162385730E0,7.297056168E-2,-5.739107728E-2,7.257108390E-2
3.164873542E0,5.166528746E-2,-5.739107728E-2,6.937529147E-2
3.167361355E0,2.716422267E-2,-5.526055023E-2,6.511423737E-2
3.169849167E0,1.597895520E-3,-5.099949613E-2,5.872265995E-2
3.172336980E0,-2.609895915E-2,-4.460791498E-2,5.233107507E-2
3.174824792E0,-5.486107618E-2,-3.608580679E-2,4.593949392E-2
3.177312605E0,-8.362319320E-2,-2.543316968E-2,3.741738573E-2
3.179800417E0,-1.134505793E-1,-1.371526904E-2,2.889527567E-2
3.182288230E0,-1.422126889E-1,-9.321057005E-4,2.037316747E-2
3.184776042E0,-1.699095517E-1,1.185105834E-2,1.185105834E-2
3.187263855E0,-1.965411454E-1,2.356895804E-2,4.394212738E-3
3.189751667E0,-2.221074700E-1,3.422159329E-2,-4.127896391E-3
3.192239480E0,-2.466085255E-1,4.274370521E-2,-1.158474199E-2
3.194727292E0,-2.689790726E-1,4.913528636E-2,-1.797632314E-2
3.197215105E0,-2.902843356E-1,5.446160212E-2,-2.223737910E-2
3.199702917E0,-3.105243444E-1,5.765739456E-2,-2.649843320E-2
3.202190730E0,-3.296990991E-1,5.978792161E-2,-2.862896025E-2
3.204678542E0,-3.467433155E-1,6.191844866E-2,-2.969422378E-2
3.207166355E0,-3.616569936E-1,6.298371404E-2,-2.969422378E-2
3.209654167E0,-3.755054474E-1,6.191844866E-2,-2.649843320E-2
3.212141980E0,-3.872233331E-1,6.085318699E-2,-2.436790615E-2
3.214629792E0,-3.978759646E-1,5.765739456E-2,-1.904158667E-2
3.217117605E0,-4.053328037E-1,5.233107507E-2,-1.371526904E-2
3.219605417E0,-4.106591344E-1,4.700475931E-2,-7.323687430E-3
3.222093230E0,-4.138549268E-1,4.061317816E-2,1.331579551E-4
3.224581042E0,-4.138549268E-1,3.422159329E-2,7.590003312E-3
3.227068855E0,-4.095938802E-1,2.783001214E-2,1.504684892E-2
3.229556667E0,-4.032022953E-1,2.143843099E-2,2.356895804E-2
3.232044480E0,-3.946801722E-1,1.504684892E-2,3.102580272E-2
3.234532292E0,-3.829622865E-1,8.655266836E-3,3.741738573E-2
3.237020105E0,-3.680485785E-1,3.328948980E-3,4.380896688E-2
3.239507917E0,-3.510043621E-1,-1.997369342E-3,4.913528636E-2
3.241995730E0,-3.307643533E-1,-5.193160381E-3,5.446160212E-2
3.244483542E0,-3.094590902E-1,-8.388951421E-3,5.872265995E-2
3.246971355E0,-2.849580348E-1,-1.051947847E-2,6.298371404E-2
3.249459167E0,-2.593916953E-1,-1.265000552E-2,6.724476814E-2
3.251946980E0,-2.306295782E-1,-1.371526904E-2,6.937529147E-2
3.254434792E0,-2.018674612E-1,-1.584579609E-2,7.044056058E-2
3.256922605E0,-1.731053442E-1,-1.584579609E-2,7.150582224E-2
3.259410417E0,-1.422126889E-1,-1.584579609E-2,7.044056058E-2
3.261898230E0,-1.123853177E-1,-1.584579609E-2,7.044056058E-2
3.264386042E0,-8.255793154E-2,-1.584579609E-2,7.044056058E-2
3.266873855E0,-5.379581451E-2,-1.584579609E-2,7.044056058E-2
3.269361667E0,-2.716422267E-2,-1.584579609E-2,6.937529147E-2
3.271849480E0,-1.597895520E-3,-1.584579609E-2,6.724476814E-2
3.274337292E0,2.183790505E-2,-1.584579609E-2,6.511423737E-2
3.276825105E0,4.314317927E-2,-1.691105962E-2,6.191844866E-2
3.279312917E0,6.125266105E-2,-1.691105962E-2,5.872265995E-2
3.281800730E0,7.723161578E-2,-1.691105962E-2,5.446160212E-2
3.284288542E0,9.108003974E-2,-1.584579609E-2,5.020054802E-2
3.286776355E0,1.027979404E-1,-1.584579609E-2,4.487423226E-2
3.289264167E0,1.113200486E-1,-1.478053257E-2,4.061317816E-2
3.291751980E0,1.155811027E-1,-1.371526904E-2,3.528685868E-2
3.294239792E0,1.177116334E-1,-1.371526904E-2,3.102580272E-2
3.296727605E0,1.177116334E-1,-1.265000552E-2,2.783001214E-2
3.299215417E0,1.145158410E-1,-1.265000552E-2,2.356895804E-2
3.301703230E0,1.081242561E-1,-1.371526904E-2,2.037316747E-2
3.304191042E0,1.006674170E-1,-1.478053257E-2,1.717737690E-2
3.306678855E0,8.894951642E-2,-1.584579609E-2,1.504684892E-2
3.309166667E0,7.510108501E-2,-1.797632314E-2,1.291632187E-2
3.311654480E0,6.018739566E-2,-2.010685205E-2,1.291632187E-2
3.314142292E0,4.314317927E-2,-2.223737910E-2,1.291632187E-2
3.316630105E0,2.503369562E-2,-2.330264263E-2,1.291632187E-2
3.319117917E0,6.924213842E-3,-2.436790615E-2,1.291632187E-2
3.321605730E0,-1.118526794E-2,-2.330264263E-2,1.504684892E-2
3.324093542E0,-2.929474972E-2,-2.117211558E-2,1.717737690E-2
3.326581355E0,-4.846949503E-2,-1.797632314E-2,1.930790395E-2
3.329069167E0,-6.657897681E-2,-1.371526904E-2,2.037316747E-2
3.331556980E0,-8.255793154E-2,-7.323687430E-3,2.143843099E-2
3.334044792E0,-9.747162461E-2,-9.321057005E-4,2.143843099E-2
3.336532605E0,-1.102547869E-1,5.459476262E-3,2.250369452E-2
3.339020417E0,-1.219726875E-1,1.185105834E-2,2.250369452E-2
3.341508230E0,-1.315600574E-1,1.824264042E-2,2.250369452E-2
3.343996042E0,-1.390169114E-1,2.356895804E-2,2.250369452E-2
3.346483855E0,-1.454084814E-1,2.889527567E-2,2.143843099E-2
3.348971667E0,-1.486042738E-1,3.528685868E-2,2.143843099E-2
3.351459480E0,-1.496695429E-1,4.167843983E-2,2.250369452E-2
3.353947292E0,-1.496695429E-1,4.807002097E-2,2.356895804E-2
3.356435105E0,-1.486042738E-1,5.339634046E-2,2.569948509E-2
3.358922865E0,-1.432779580E-1,5.978792161E-2,2.889527567E-2
3.361410625E0,-1.390169114E-1,6.298371404E-2,3.209106624E-2
3.363898386E0,-1.315600574E-1,6.617950648E-2,3.528685868E-2
3.366386146E0,-1.230379492E-1,6.724476814E-2,3.954791278E-2
3.368873907E0,-1.145158410E-1,6.724476814E-2,4.593949392E-2
3.371361667E0,-1.027979404E-1,6.511423737E-2,5.126581341E-2
3.373849428E0,-9.108003974E-2,6.085318699E-2,5.659212917E-2
3.376337188E0,-7.936213911E-2,5.446160212E-2,6.298371404E-2
3.378824948E0,-6.657897681E-2,4.807002097E-2,6.937529147E-2
3.381312709E0,-5.486107618E-2,4.167843983E-2,7.576687634E-2
3.383800469E0,-4.314317927E-2,3.528685868E-2,8.215846121E-2
3.386288230E0,-3.142527863E-2,2.996053919E-2,8.641951531E-2
3.388775990E0,-2.183790505E-2,2.463422157E-2,9.174583107E-2
3.391263750E0,-1.225053146E-2,2.143843099E-2,9.494162351E-2
3.393751511E0,-3.728422802E-3,1.824264042E-2,9.920267761E-2
3.396239271E0,2.663159044E-3,1.504684892E-2,1.013332009E-1
3.398727032E0,1.012000442E-2,1.398158539E-2,1.034637317E-1
3.401214792E0,1.651158556E-2,1.185105834E-2,1.045289934E-1
3.403702553E0,2.183790505E-2,1.078579482E-2,1.045289934E-1
3.406190313E0,2.716422267E-2,8.655266836E-3,1.045289934E-1
3.408678073E0,3.142527863E-2,8.655266836E-3,1.034637317E-1
3.411165834E0,3.568633273E-2,6.524739787E-3,1.013332009E-1
3.413653594E0,3.994738683E-2,4.394212738E-3,9.813741595E-2
3.416141355E0,4.314317927E-2,3.328948980E-3,9.387636185E-2
3.418629115E0,4.740423337E-2,1.198421582E-3,8.855003864E-2
3.421116875E0,5.060002208E-2,1.198421582E-3,8.322372288E-2
3.423604636E0,5.486107618E-2,1.331579551E-4,7.896266878E-2
3.426092396E0,6.125266105E-2,1.331579551E-4,7.257108390E-2
3.428580157E0,6.764423847E-2,1.331579551E-4,6.617950648E-2
3.431067917E0,7.510108501E-2,1.331579551E-4,6.085318699E-2
3.433555678E0,8.255793154E-2,1.198421582E-3,5.659212917E-2
3.436043438E0,9.108003974E-2,2.263685223E-3,5.020054802E-2
3.438531250E0,1.017326787E-1,3.328948980E-3,4.487423226E-2
3.441019063E0,1.123853177E-1,5.459476262E-3,4.061317816E-2
3.443506875E0,1.241032109E-1,7.590003312E-3,3.528685868E-2
3.445994688E0,1.358211190E-1,9.720530361E-3,3.102580272E-2
3.448482500E0,1.486042738E-1,1.185105834E-2,2.783001214E-2
3.450970313E0,1.603221744E-1,1.504684892E-2,2.356895804E-2
3.453458125E0,1.731053442E-1,1.824264042E-2,2.143843099E-2
3.455945938E0,1.848232448E-1,2.037316747E-2,1.824264042E-2
3.458433750E0,1.944106072E-1,2.356895804E-2,1.717737690E-2
3.460921563E0,2.039979845E-1,2.463422157E-2,1.717737690E-2
3.463409375E0,2.114548385E-1,2.569948509E-2,1.930790395E-2
3.465897188E0,2.178464085E-1,2.676474862E-2,2.250369452E-2
3.468385000E0,2.221074700E-1,2.783001214E-2,2.783001214E-2
3.470872813E0,2.231727391E-1,2.889527567E-2,3.422159329E-2
3.473360625E0,2.221074700E-1,2.996053919E-2,4.061317816E-2
3.475848438E0,2.199769467E-1,3.209106624E-2,5.020054802E-2
3.478336250E0,2.146506310E-1,3.422159329E-2,5.978792161E-2
3.480824063E0,2.071937770E-1,3.635212034E-2,7.044056058E-2
3.483311875E0,1.976063997E-1,3.954791278E-2,8.002793044E-2
3.485799688E0,1.869537681E-1,4.167843983E-2,8.855003864E-2
3.488287500E0,1.752358675E-1,4.274370521E-2,9.600688517E-2
3.490775313E0,1.624527127E-1,4.274370521E-2,1.013332009E-1
3.493263125E0,1.496695429E-1,4.274370521E-2,1.055942550E-1
3.495750938E0,1.358211190E-1,4.167843983E-2,1.077247858E-1
3.498238750E0,1.219726875E-1,3.954791278E-2,1.077247858E-1
3.500726563E0,1.091895252E-1,3.848264739E-2,1.077247858E-1
3.503214375E0,9.640636295E-2,3.848264739E-2,1.034637317E-1
3.505702188E0,8.575372398E-2,3.741738573E-2,9.920267761E-2
3.508190000E0,7.616634667E-2,3.741738573E-2,9.387636185E-2
3.510677813E0,6.977476925E-2,3.848264739E-2,8.748477697E-2
3.513165625E0,6.444845349E-2,3.954791278E-2,8.109319210E-2
3.515653438E0,6.125266105E-2,3.954791278E-2,7.470161468E-2
3.518141250E0,6.231792271E-2,3.848264739E-2,6.617950648E-2
3.520629063E0,6.444845349E-2,3.635212034E-2,5.765739456E-2
3.523116875E0,6.764423847E-2,3.528685868E-2,5.020054802E-2
3.525604688E0,7.297056168E-2,3.209106624E-2,4.274370521E-2
3.528092500E0,7.936213911E-2,2.783001214E-2,3.528685868E-2
3.530580313E0,8.575372398E-2,2.356895804E-2,2.889527567E-2
3.533068125E0,9.214530140E-2,1.611211337E-2,2.143843099E-2
3.535555938E0,9.853688627E-2,8.655266836E-3,1.504684892E-2
3.538043750E0,1.038632020E-1,1.331579551E-4,8.655266836E-3
3.540531563E0,1.081242561E-1,-1.051947847E-2,3.328948980E-3
3.543019375E0,1.123853177E-1,-2.223737910E-2,-1.997369342E-3
3.545507188E0,1.166463718E-1,-3.502054140E-2,-6.258423906E-3
3.547995000E0,1.187768951E-1,-4.993423447E-2,-8.388951421E-3
3.550482813E0,1.198421568E-1,-6.591318548E-2,-9.454214945E-3
3.552970625E0,1.187768951E-1,-8.295740932E-2,-9.454214945E-3
3.555458438E0,1.166463718E-1,-1.010668874E-1,-7.323687430E-3
3.557946250E0,1.134505793E-1,-1.181111038E-1,-3.062632866E-3
3.560434063E0,1.081242561E-1,-1.362205893E-1,3.328948980E-3
3.562921875E0,9.960214794E-2,-1.521995366E-1,9.720530361E-3
3.565409688E0,9.001477808E-2,-1.671132296E-1,1.717737690E-2
3.567897500E0,8.042740822E-2,-1.809616536E-1,2.569948509E-2
3.570385313E0,6.870950758E-2,-1.926795542E-1,3.315633163E-2
3.572873125E0,5.699160323E-2,-2.022669315E-1,4.167843983E-2
3.575360938E0,4.527370632E-2,-2.097237855E-1,5.020054802E-2
3.577848750E0,3.249054030E-2,-2.139848322E-1,5.978792161E-2
3.580336563E0,2.183790505E-2,-2.150501013E-1,6.831002980E-2
3.582824375E0,1.225053146E-2,-2.139848322E-1,7.683213800E-2
3.585312188E0,3.728422802E-3,-2.107890397E-1,8.428898454E-2
3.587800000E0,-3.728422802E-3,-2.065279931E-1,8.961530030E-2
3.590287813E0,-9.054740891E-3,-1.990711391E-1,9.068056941E-2
3.592775625E0,-1.225053146E-2,-1.894837767E-1,8.961530030E-2
3.595263438E0,-1.438105945E-2,-1.777658761E-1,8.641951531E-2
3.597751250E0,-1.438105945E-2,-1.649827063E-1,8.002793044E-2
3.600239063E0,-1.225053146E-2,-1.500690132E-1,6.937529147E-2
3.602726875E0,-7.989477366E-3,-1.351553202E-1,5.659212917E-2
3.605214688E0,-2.663159044E-3,-1.202416345E-1,4.167843983E-2
3.607702500E0,2.663159044E-3,-1.042626798E-1,2.463422157E-2
3.610190313E0,1.118526794E-2,-8.934898674E-2,4.394212738E-3
3.612678125E0,1.864211448E-2,-7.337003201E-2,-1.797632314E-2
3.615165938E0,2.716422267E-2,-5.845634267E-2,-4.354264960E-2
3.617653750E0,3.568633273E-2,-4.354264960E-2,-7.017423958E-2
3.620141563E0,4.207791388E-2,-2.969422378E-2,-9.680583328E-2
3.622629375E0,4.633896798E-2,-1.904158667E-2,-1.255679578E-1
3.625117188E0,4.953476042E-2,-1.051947847E-2,-1.543300748E-1
3.627605000E0,4.953476042E-2,-4.127896391E-3,-1.820269227E-1
3.630092813E0,4.633896798E-2,-1.997369342E-3,-2.097237855E-1
3.632580625E0,3.888212144E-2,-3.062632866E-3,-2.363553643E-1
3.635068438E0,2.822948620E-2,-7.323687430E-3,-2.619217038E-1
3.637556250E0,1.225053146E-2,-1.584579609E-2,-2.853575051E-1
3.640044063E0,-9.054740891E-3,-2.756369673E-2,-3.055975139E-1
3.642531875E0,-3.568633273E-2,-4.247738793E-2,-3.237069845E-1
3.645019688E0,-6.764423847E-2,-6.165213138E-2,-3.407512009E-1
3.647507500E0,-1.027979404E-1,-8.402267098E-2,-3.524691164E-1
3.649995313E0,-1.422126889E-1,-1.095889956E-1,-3.609912097E-1
3.652483125E0,-1.837579757E-1,-1.362205893E-1,-3.652522564E-1
3.654970938E0,-2.253032625E-1,-1.639174372E-1,-3.652522564E-1
3.657458750E0,-2.679138184E-1,-1.916143000E-1,-3.631217480E-1
3.659946563E0,-3.073285520E-1,-2.193111479E-1,-3.556649089E-1
3.662434375E0,-3.446127772E-1,-2.448774725E-1,-3.471427858E-1
3.664922188E0,-3.787012100E-1,-2.683132887E-1,-3.364901543E-1
3.667410000E0,-4.085285962E-1,-2.885532975E-1,-3.247722387E-1
3.669897813E0,-4.340949357E-1,-3.077280223E-1,-3.119890988E-1
3.672385625E0,-4.532696903E-1,-3.237069845E-1,-2.992059290E-1
3.674873438E0,-4.671181142E-1,-3.364901543E-1,-2.874880135E-1
3.677361250E0,-4.735096991E-1,-3.450122476E-1,-2.757701278E-1
3.679849063E0,-4.735096991E-1,-3.503385782E-1,-2.651174963E-1
3.682336875E0,-4.660528302E-1,-3.524691164E-1,-2.555301189E-1
3.684824688E0,-4.522044063E-1,-3.524691164E-1,-2.459427416E-1
3.687312500E0,-4.340949357E-1,-3.514038324E-1,-2.384859025E-1
3.689800313E0,-4.095938802E-1,-3.482080400E-1,-2.310290486E-1
3.692288125E0,-3.818970025E-1,-3.450122476E-1,-2.235722095E-1
3.694775938E0,-3.499391079E-1,-3.418164849E-1,-2.161153555E-1
3.697263698E0,-3.179811835E-1,-3.396859467E-1,-2.075932473E-1
3.699751459E0,-2.838927507E-1,-3.375554085E-1,-1.969406158E-1
3.702239219E0,-2.487390637E-1,-3.364901543E-1,-1.820269227E-1
3.704726980E0,-2.135853618E-1,-3.354249001E-1,-1.649827063E-1
3.707214740E0,-1.794969290E-1,-3.354249001E-1,-1.436774284E-1
3.709702500E0,-1.454084814E-1,-3.354249001E-1,-1.191763729E-1
3.712190261E0,-1.123853177E-1,-3.343596160E-1,-9.041424841E-2
3.714678021E0,-8.042740822E-2,-3.322291076E-1,-5.739107728E-2
3.717165782E0,-4.953476042E-2,-3.290333152E-1,-1.904158667E-2
3.719653542E0,-1.970737800E-2,-3.226417303E-1,2.463422157E-2
3.722141303E0,7.989477366E-3,-3.141196072E-1,7.363634557E-2
3.724629063E0,3.462106735E-2,-3.013364673E-1,1.279647946E-1
3.727116823E0,5.805686861E-2,-2.832269669E-1,1.854890287E-1
3.729604584E0,7.829687744E-2,-2.608564198E-1,2.440785319E-1
3.732092344E0,9.534109384E-2,-2.342248410E-1,3.058638275E-1
3.734580105E0,1.081242561E-1,-2.022669315E-1,3.665838540E-1
3.737067865E0,1.166463718E-1,-1.660479754E-1,4.262386262E-1
3.739555625E0,1.177116334E-1,-1.276984811E-1,4.826975763E-1
3.742043386E0,1.123853177E-1,-8.615319431E-2,5.348954797E-1
3.744531146E0,9.960214794E-2,-4.354264960E-2,5.817670822E-1
3.747018907E0,7.936213911E-2,-1.997369342E-3,6.222470999E-1
3.749506667E0,5.379581451E-2,3.635212034E-2,6.552702785E-1
3.751994428E0,2.183790505E-2,6.937529147E-2,6.797713637E-1
3.754482188E0,-1.544632297E-2,9.920267761E-2,6.936197877E-1
3.756969948E0,-5.699160323E-2,1.226384789E-1,7.000113726E-1
3.759457709E0,-1.038632020E-1,1.407479644E-1,6.968155503E-1
3.761945469E0,-1.518000662E-1,1.535311192E-1,6.850976944E-1
3.764433230E0,-2.029327303E-1,1.609879732E-1,6.659229398E-1
3.766920990E0,-2.540653646E-1,1.631184965E-1,6.392913461E-1
3.769408750E0,-3.041327596E-1,1.609879732E-1,6.073334217E-1
3.771896511E0,-3.520696461E-1,1.556616426E-1,5.700492263E-1
3.774384271E0,-3.968107104E-1,1.482048035E-1,5.295692086E-1
3.776872032E0,-4.383559823E-1,1.386174262E-1,4.869586527E-1
3.779359844E0,-4.756402075E-1,1.300953180E-1,4.432828426E-1
3.781847657E0,-5.086634159E-1,1.205079481E-1,4.017375410E-1
3.784335469E0,-5.363602638E-1,1.130511016E-1,3.623228073E-1
3.786823282E0,-5.576655269E-1,1.066595241E-1,3.250385821E-1
3.789311094E0,-5.757750273E-1,1.013332009E-1,2.909501195E-1
3.791798907E0,-5.885581374E-1,9.813741595E-2,2.600574791E-1
3.794286719E0,-5.960150361E-1,9.600688517E-2,2.312953621E-1
3.796774532E0,-6.024065614E-1,9.600688517E-2,2.057290375E-1
3.799262344E0,-6.056023836E-1,9.707214683E-2,1.822932363E-1
3.801750157E0,-6.056023836E-1,9.920267761E-2,1.641837656E-1
3.804237969E0,-6.013413072E-1,1.034637317E-1,1.514005959E-1
3.806725782E0,-5.938844681E-1,1.087900475E-1,1.450090110E-1
3.809213594E0,-5.842971206E-1,1.151816323E-1,1.439437568E-1
3.811701407E0,-5.725792050E-1,1.226384789E-1,1.482048035E-1
3.814189219E0,-5.587307811E-1,1.311605871E-1,1.577921808E-1
3.816677032E0,-5.448823571E-1,1.418132186E-1,1.716406047E-1
3.819164844E0,-5.299686790E-1,1.556616426E-1,1.897500902E-1
3.821652657E0,-5.171855092E-1,1.727058738E-1,2.099900991E-1
3.824140469E0,-5.075981021E-1,1.918806136E-1,2.323606312E-1
3.826628282E0,-4.990760088E-1,2.153164148E-1,2.557964325E-1
3.829116094E0,-4.948149621E-1,2.419480085E-1,2.792322338E-1
3.831603907E0,-4.926844239E-1,2.707101107E-1,3.005374968E-1
3.834091719E0,-4.937497079E-1,3.016027808E-1,3.175817132E-1
3.836579532E0,-4.969455004E-1,3.314301372E-1,3.314301372E-1
3.839067344E0,-5.012065172E-1,3.623228073E-1,3.399522603E-1
3.841555157E0,-5.097286701E-1,3.910849094E-1,3.431480527E-1
3.844042969E0,-5.214465261E-1,4.187817574E-1,3.410175145E-1
3.846530782E0,-5.352949500E-1,4.432828426E-1,3.346259296E-1
3.849018594E0,-5.523391962E-1,4.645881057E-1,3.239732981E-1
3.851506407E0,-5.704486966E-1,4.805670679E-1,3.101248741E-1
3.853994219E0,-5.896234512E-1,4.922849536E-1,2.920154035E-1
3.856482032E0,-6.098634601E-1,4.997417927E-1,2.717753947E-1
3.858969844E0,-6.290381551E-1,5.040028691E-1,2.483395934E-1
3.861457657E0,-6.482129097E-1,5.061333776E-1,2.227732539E-1
3.863945469E0,-6.663224101E-1,5.040028691E-1,1.950764060E-1
3.866433282E0,-6.833665967E-1,4.997417927E-1,1.673795432E-1
3.868921094E0,-6.982803345E-1,4.933502376E-1,1.386174262E-1
3.871408907E0,-7.110635042E-1,4.848281145E-1,1.109205782E-1
3.873896719E0,-7.217161059E-1,4.731102288E-1,8.322372288E-2
3.876384532E0,-7.302381992E-1,4.592617750E-1,5.765739456E-2
3.878872344E0,-7.344992757E-1,4.432828426E-1,3.422159329E-2
3.881360157E0,-7.344992757E-1,4.283691347E-1,1.291632187E-2
3.883847969E0,-7.302381992E-1,4.123901725E-1,-6.258423906E-3
3.886335782E0,-7.206508517E-1,3.985417485E-1,-2.330264263E-2
3.888823594E0,-7.068024278E-1,3.857586086E-1,-3.928159550E-2
3.891311407E0,-6.886929274E-1,3.751059473E-1,-5.206476152E-2
3.893799219E0,-6.652571559E-1,3.665838540E-1,-6.484792382E-2
3.896287032E0,-6.375603080E-1,3.591270149E-1,-7.550056279E-2
3.898774844E0,-6.034718752E-1,3.538006842E-1,-8.295740932E-2
3.901262657E0,-5.651223660E-1,3.506048918E-1,-8.934898674E-2
3.903750469E0,-5.225118399E-1,3.516701460E-1,-9.361004084E-2
3.906238282E0,-4.756402075E-1,3.538006842E-1,-9.467530251E-2
3.908726094E0,-4.266380966E-1,3.591270149E-1,-9.467530251E-2
3.911213907E0,-3.765707016E-1,3.665838540E-1,-9.254477918E-2
3.913701719E0,-3.265033066E-1,3.761712313E-1,-9.041424841E-2
3.916189532E0,-2.796317041E-1,3.878891170E-1,-8.721846342E-2
3.918677344E0,-2.327601016E-1,4.028028250E-1,-8.295740932E-2
3.921165157E0,-1.912148297E-1,4.198470414E-1,-7.763108611E-2
3.923652969E0,-1.539305896E-1,4.379565120E-1,-7.123950869E-2
3.926140782E0,-1.198421568E-1,4.603270590E-1,-6.271740049E-2
3.928628594E0,-9.321057051E-2,4.826975763E-1,-5.313002318E-2
3.931116407E0,-7.190529257E-2,5.082638860E-1,-4.354264960E-2
3.933604219E0,-5.699160323E-2,5.348954797E-1,-3.502054140E-2
3.936092032E0,-4.846949503E-2,5.625923872E-1,-2.756369673E-2
3.938579844E0,-4.740423337E-2,5.902892351E-1,-2.223737910E-2
3.941067657E0,-5.166528746E-2,6.169208288E-1,-2.117211558E-2
3.943555469E0,-6.231792271E-2,6.435524225E-1,-2.330264263E-2
3.946043282E0,-7.723161578E-2,6.669881940E-1,-2.862896025E-2
3.948531094E0,-9.640636295E-2,6.893587112E-1,-3.715106845E-2
3.951018907E0,-1.198421568E-1,7.074682117E-1,-5.099949613E-2
3.953506719E0,-1.443432271E-1,7.223818898E-1,-6.910897791E-2
3.955994532E0,-1.709748209E-1,7.340998054E-1,-9.147951752E-2
3.958482344E0,-1.986716688E-1,7.415566444E-1,-1.149153188E-1
3.960970157E0,-2.274337858E-1,7.447524667E-1,-1.426121742E-1
3.963457969E0,-2.551306486E-1,7.436871529E-1,-1.713742912E-1
3.965945782E0,-2.828274965E-1,7.383608818E-1,-2.001364082E-1
3.968433594E0,-3.073285520E-1,7.287734747E-1,-2.288985252E-1
3.970921407E0,-3.318296373E-1,7.170555592E-1,-2.565953732E-1
3.973409219E0,-3.531349003E-1,7.032071352E-1,-2.842922211E-1
3.975897032E0,-3.744401634E-1,6.850976944E-1,-3.098585606E-1
3.978384844E0,-3.936149180E-1,6.648576856E-1,-3.322291076E-1
3.980872657E0,-4.095938802E-1,6.424871087E-1,-3.524691164E-1
3.983360469E0,-4.234423041E-1,6.190513372E-1,-3.684480488E-1
3.985848282E0,-4.351601899E-1,5.966808200E-1,-3.801659644E-1
3.988336094E0,-4.426170290E-1,5.775060654E-1,-3.876228034E-1
3.990823907E0,-4.458128214E-1,5.604618192E-1,-3.908185959E-1
3.993311719E0,-4.447475672E-1,5.487439036E-1,-3.886880577E-1
3.995799480E0,-4.404865205E-1,5.402218103E-1,-3.822965026E-1
3.998287240E0,-4.298338890E-1,5.370260477E-1,-3.716438413E-1
4.000775000E0,-4.159854650E-1,5.370260477E-1,-3.567301631E-1
4.003262761E0,-3.978759646E-1,5.423523784E-1,-3.407512009E-1
4.005750521E0,-3.787012100E-1,5.498092175E-1,-3.226417303E-1
4.008238282E0,-3.573959470E-1,5.593965650E-1,-3.045322299E-1
4.010726042E0,-3.360906839E-1,5.732449889E-1,-2.853575051E-1
4.013213803E0,-3.147853911E-1,5.881586671E-1,-2.672480047E-1
4.015701563E0,-2.945453823E-1,6.052029133E-1,-2.502037883E-1
4.018189323E0,-2.764359117E-1,6.233124137E-1,-2.342248410E-1
4.020677084E0,-2.572611570E-1,6.414218545E-1,-2.203764170E-1
4.023164844E0,-2.402169555E-1,6.595313549E-1,-2.086585164E-1
4.025652605E0,-2.253032625E-1,6.755102873E-1,-2.001364082E-1
4.028140365E0,-2.125200927E-1,6.882934570E-1,-1.958753467E-1
4.030628125E0,-2.018674612E-1,6.989461184E-1,-1.958753467E-1
4.033115886E0,-1.944106072E-1,7.074682117E-1,-2.012016773E-1
4.035603646E0,-1.912148297E-1,7.127945423E-1,-2.118543088E-1
4.038091407E0,-1.912148297E-1,7.138597965E-1,-2.288985252E-1
4.040579167E0,-1.922800839E-1,7.138597965E-1,-2.512690723E-1
4.043066928E0,-1.965411454E-1,7.106640339E-1,-2.789659202E-1
4.045554688E0,-2.018674612E-1,7.074682117E-1,-3.087933064E-1
4.048042448E0,-2.071937770E-1,7.010766268E-1,-3.428817391E-1
4.050530209E0,-2.135853618E-1,6.957502961E-1,-3.769701719E-1
4.053017969E0,-2.199769467E-1,6.893587112E-1,-4.121238589E-1
4.055505730E0,-2.253032625E-1,6.819018722E-1,-4.483428299E-1
4.057993490E0,-2.316948473E-1,6.733797789E-1,-4.824312627E-1
4.060481250E0,-2.370211631E-1,6.637924314E-1,-5.143891573E-1
4.062969011E0,-2.423474789E-1,6.552702785E-1,-5.452818274E-1
4.065456771E0,-2.476737946E-1,6.467481852E-1,-5.708481669E-1
4.067944532E0,-2.530001104E-1,6.403566003E-1,-5.932186842E-1
4.070432292E0,-2.583264410E-1,6.350302696E-1,-6.102629304E-1
4.072920053E0,-2.636527419E-1,6.307692528E-1,-6.230461001E-1
4.075407813E0,-2.689790726E-1,6.254429221E-1,-6.315681934E-1
4.077895573E0,-2.764359117E-1,6.222470999E-1,-6.368945241E-1
4.080383334E0,-2.838927507E-1,6.190513372E-1,-6.379597783E-1
4.082871146E0,-2.934801280E-1,6.169208288E-1,-6.347639561E-1
4.085358959E0,-3.062632978E-1,6.147902608E-1,-6.294376254E-1
4.087846771E0,-3.190464675E-1,6.115944982E-1,-6.209155321E-1
4.090334584E0,-3.339601457E-1,6.094639897E-1,-6.091976166E-1
4.092822396E0,-3.499391079E-1,6.073334217E-1,-5.942839384E-1
4.095310209E0,-3.648527861E-1,6.062681675E-1,-5.783050060E-1
4.097798021E0,-3.787012100E-1,6.052029133E-1,-5.612607598E-1
4.100285834E0,-3.925496638E-1,6.073334217E-1,-5.452818274E-1
4.102773646E0,-4.063980877E-1,6.094639897E-1,-5.293028951E-1
4.105261459E0,-4.181159735E-1,6.126597524E-1,-5.154544711E-1
4.107749271E0,-4.298338890E-1,6.169208288E-1,-5.037365556E-1
4.110237084E0,-4.415517747E-1,6.233124137E-1,-4.973449707E-1
4.112724896E0,-4.511391521E-1,6.297039986E-1,-4.930838943E-1
4.115212709E0,-4.585959911E-1,6.360955238E-1,-4.920186400E-1
4.117700521E0,-4.649875760E-1,6.435524225E-1,-4.930838943E-1
4.120188334E0,-4.692486227E-1,6.510092616E-1,-4.962796867E-1
4.122676146E0,-4.724444151E-1,6.584661007E-1,-5.016059875E-1
4.125163959E0,-4.735096991E-1,6.648576856E-1,-5.101281404E-1
4.127651771E0,-4.713791609E-1,6.712492704E-1,-5.218459964E-1
4.130139584E0,-4.671181142E-1,6.744450331E-1,-5.356944799E-1
4.132627396E0,-4.617917836E-1,6.765755415E-1,-5.538039207E-1
4.135115209E0,-4.532696903E-1,6.755102873E-1,-5.751091838E-1
4.137603021E0,-4.426170290E-1,6.712492704E-1,-5.985450149E-1
4.140090834E0,-4.308991432E-1,6.637924314E-1,-6.251766086E-1
4.142578646E0,-4.170507193E-1,6.531397700E-1,-6.539387107E-1
4.145066459E0,-4.010717571E-1,6.360955238E-1,-6.848313808E-1
4.147554271E0,-3.818970025E-1,6.137250066E-1,-7.189198136E-1
4.150042084E0,-3.595264852E-1,5.838976502E-1,-7.540735006E-1
4.152529896E0,-3.350254297E-1,5.466133952E-1,-7.892271876E-1
4.155017709E0,-3.073285520E-1,5.061333776E-1,-8.265114427E-1
4.157505521E0,-2.775011659E-1,4.613923132E-1,-8.637956381E-1
4.159993334E0,-2.444780022E-1,4.145207107E-1,-9.000146389E-1
4.162481146E0,-2.103895694E-1,3.697796464E-1,-9.372988343E-1
4.164968959E0,-1.741705984E-1,3.282343447E-1,-9.735178351E-1
4.167456771E0,-1.379516423E-1,2.941459119E-1,-1.007606268E0
4.169944584E0,-1.006674170E-1,2.664490640E-1,-1.038498878E0
4.172432396E0,-6.338318437E-2,2.494048476E-1,-1.068326235E0
4.174920209E0,-2.822948620E-2,2.430132627E-1,-1.094957829E0
4.177408021E0,5.858949851E-3,2.462090552E-1,-1.117328405E0
4.179895834E0,3.462106735E-2,2.621880174E-1,-1.135437846E0
4.182383646E0,6.018739566E-2,2.898848653E-1,-1.149286270E0
4.184871459E0,8.149266988E-2,3.271690905E-1,-1.159938931E0
4.187359271E0,9.640636295E-2,3.751059473E-1,-1.166330576E0
4.189847084E0,1.049284711E-1,4.304996729E-1,-1.169526339E0
4.192334896E0,1.070589945E-1,4.912196994E-1,-1.166330576E0
4.194822709E0,1.017326787E-1,5.530049801E-1,-1.158873677E0
4.197310521E0,8.894951642E-2,6.147902608E-1,-1.148221016E0
4.199798334E0,7.084003091E-2,6.755102873E-1,-1.134372592E0
4.202286146E0,4.633896798E-2,7.319692969E-1,-1.121589422E0
4.204773959E0,1.651158556E-2,7.841671705E-1,-1.107740998E0
4.207261771E0,-1.864211448E-2,8.299735188E-1,-1.094957829E0
4.209749584E0,-5.912213027E-2,8.693882823E-1,-1.085370541E0
4.212237396E0,-1.027979404E-1,9.024114609E-1,-1.076848388E0
4.214725209E0,-1.518000662E-1,9.311735630E-1,-1.071522117E0
4.217213021E0,-2.039979845E-1,9.524788260E-1,-1.066195726E0
4.219700834E0,-2.583264410E-1,9.716535807E-1,-1.061934710E0
4.222188646E0,-3.137201369E-1,9.886978269E-1,-1.058738947E0
4.224676459E0,-3.691138625E-1,1.000415683E0,-1.055543065E0
4.227164271E0,-4.202465117E-1,1.006807327E0,-1.053412557E0
4.229652084E0,-4.671181142E-1,1.005742073E0,-1.051282048E0
4.232139896E0,-5.086634159E-1,9.982851744E-1,-1.050216794E0
4.234627709E0,-5.427518487E-1,9.823062420E-1,-1.050216794E0
4.237115521E0,-5.704486966E-1,9.610009789E-1,-1.050216794E0
4.239603334E0,-5.917539597E-1,9.343693852E-1,-1.050216794E0
4.242091146E0,-6.056023836E-1,9.066725373E-1,-1.050216794E0
4.244578959E0,-6.130592227E-1,8.757798672E-1,-1.048086286E0
4.247066771E0,-6.141244769E-1,8.448871970E-1,-1.047021031E0
4.249554584E0,-6.087981462E-1,8.107987642E-1,-1.043825269E0
4.252042396E0,-5.960150361E-1,7.756450772E-1,-1.040629387E0
4.254530209E0,-5.768402815E-1,7.394261360E-1,-1.038498878E0
4.257018021E0,-5.512739420E-1,7.032071352E-1,-1.034237862E0
4.259505834E0,-5.214465261E-1,6.669881940E-1,-1.029976726E0
4.261993646E0,-4.873581231E-1,6.350302696E-1,-1.026780963E0
4.264481459E0,-4.500738978E-1,6.073334217E-1,-1.023585200E0
4.266969271E0,-4.117243886E-1,5.860281587E-1,-1.023585200E0
4.269457084E0,-3.733749092E-1,5.700492263E-1,-1.023585200E0
4.271944896E0,-3.339601457E-1,5.572660565E-1,-1.023585200E0
4.274432709E0,-2.945453823E-1,5.487439036E-1,-1.023585200E0
4.276920521E0,-2.551306486E-1,5.412870646E-1,-1.021454692E0
4.279408334E0,-2.157158852E-1,5.348954797E-1,-1.019324183E0
4.281896094E0,-1.773663908E-1,5.295692086E-1,-1.015063047E0
4.284383855E0,-1.400821656E-1,5.263733864E-1,-1.009736776E0
4.286871615E0,-1.059937328E-1,5.253081322E-1,-1.005475760E0
4.289359375E0,-7.403582335E-2,5.253081322E-1,-9.990841150E-1
4.291847136E0,-4.314317927E-2,5.263733864E-1,-9.905620217E-1
4.294334896E0,-1.438105945E-2,5.295692086E-1,-9.788441062E-1
4.296822657E0,1.438105945E-2,5.306344628E-1,-9.639304280E-1
4.299310417E0,4.101264849E-2,5.316997170E-1,-9.468862414E-1
4.301798178E0,6.657897681E-2,5.295692086E-1,-9.234504104E-1
4.304285938E0,9.108003974E-2,5.253081322E-1,-8.978840709E-1
4.306773698E0,1.123853177E-1,5.157207847E-1,-8.691219687E-1
4.309261459E0,1.304948032E-1,5.008070469E-1,-8.392946124E-1
4.311749219E0,1.443432271E-1,4.805670679E-1,-8.073366880E-1
4.314236980E0,1.539305896E-1,4.550007284E-1,-7.764440179E-1
4.316724740E0,1.581916511E-1,4.273038805E-1,-7.455514073E-1
4.319212500E0,1.549958587E-1,3.964112401E-1,-7.189198136E-1
4.321700261E0,1.454084814E-1,3.676491082E-1,-6.922882199E-1
4.324188021E0,1.283642650E-1,3.388870060E-1,-6.688523889E-1
4.326675782E0,1.049284711E-1,3.143859208E-1,-6.475471258E-1
4.329163542E0,7.616634667E-2,2.941459119E-1,-6.273071170E-1
4.331651303E0,4.101264849E-2,2.792322338E-1,-6.060018539E-1
4.334139063E0,5.326318205E-4,2.685796022E-1,-5.868270993E-1
4.336626823E0,-4.527370632E-2,2.643185556E-1,-5.676523447E-1
4.339114584E0,-9.534109384E-2,2.643185556E-1,-5.474123359E-1
4.341602344E0,-1.475390196E-1,2.685796022E-1,-5.261070728E-1
4.344090105E0,-2.039979845E-1,2.771016955E-1,-5.069323182E-1
4.346577865E0,-2.615222335E-1,2.866890728E-1,-4.845618010E-1
4.349065625E0,-3.190464675E-1,2.984069884E-1,-4.611259997E-1
4.351553386E0,-3.765707016E-1,3.079943359E-1,-4.323638678E-1
4.354041146E0,-4.330296814E-1,3.175817132E-1,-4.004059732E-1
4.356528907E0,-4.862928391E-1,3.261038363E-1,-3.652522564E-1
4.359016667E0,-5.352949500E-1,3.303648829E-1,-3.247722387E-1
4.361504428E0,-5.811012983E-1,3.324954212E-1,-2.810964286E-1
4.363992188E0,-6.215813160E-1,3.314301372E-1,-2.331595868E-1
4.366479948E0,-6.546044946E-1,3.271690905E-1,-1.820269227E-1
4.368967709E0,-6.812360883E-1,3.218427896E-1,-1.287637353E-1
4.371455469E0,-7.004108429E-1,3.154512048E-1,-7.337003201E-2
4.373943282E0,-7.110635042E-1,3.101248741E-1,-1.691105962E-2
4.376431094E0,-7.142592669E-1,3.037332892E-1,4.061317816E-2
4.378918907E0,-7.068024278E-1,2.984069884E-1,9.707214683E-2
4.381406719E0,-6.929540038E-1,2.930806577E-1,1.545963883E-1
4.383894532E0,-6.727139950E-1,2.898848653E-1,2.131858915E-1
4.386382344E0,-6.460824013E-1,2.877543271E-1,2.717753947E-1
4.388870157E0,-6.130592227E-1,2.888196111E-1,3.292996287E-1
4.391357969E0,-5.779055357E-1,2.962764502E-1,3.846933246E-1
4.393845782E0,-5.406212807E-1,3.079943359E-1,4.368912578E-1
4.396333594E0,-5.044023395E-1,3.261038363E-1,4.826975763E-1
4.398821407E0,-4.692486227E-1,3.484743834E-1,5.242428780E-1
4.401309219E0,-4.362254739E-1,3.751059473E-1,5.583313107E-1
4.403797032E0,-4.053328037E-1,4.017375410E-1,5.881586671E-1
4.406284844E0,-3.787012100E-1,4.294344187E-1,6.094639897E-1
4.408772657E0,-3.531349003E-1,4.550007284E-1,6.275734305E-1
4.411260469E0,-3.328948915E-1,4.752407372E-1,6.424871087E-1
4.413748282E0,-3.158506751E-1,4.901544452E-1,6.531397700E-1
4.416236094E0,-3.020022511E-1,4.976112843E-1,6.616618633E-1
4.418723907E0,-2.924148738E-1,4.965460002E-1,6.680534482E-1
4.421211719E0,-2.838927507E-1,4.848281145E-1,6.723145247E-1
4.423699532E0,-2.775011659E-1,4.635228515E-1,6.776408553E-1
4.426187344E0,-2.711096108E-1,4.326302111E-1,6.819018722E-1
4.428675157E0,-2.636527419E-1,3.900196552E-1,6.872282028E-1
4.431162969E0,-2.540653646E-1,3.388870060E-1,6.936197877E-1
4.433650782E0,-2.423474789E-1,2.781669796E-1,7.000113726E-1
4.436138594E0,-2.263685167E-1,2.110553533E-1,7.074682117E-1
4.438626407E0,-2.082590461E-1,1.407479644E-1,7.149250507E-1
4.441114219E0,-1.869537681E-1,7.044056058E-2,7.223818898E-1
4.443602032E0,-1.624527127E-1,1.198421582E-3,7.287734747E-1
4.446089844E0,-1.358211190E-1,-6.484792382E-2,7.340998054E-1
4.448577657E0,-1.049284711E-1,-1.276984811E-1,7.383608818E-1
4.451065469E0,-7.190529257E-2,-1.873532385E-1,7.404913902E-1
4.453553282E0,-3.462106735E-2,-2.416816950E-1,7.415566444E-1
4.456041094E0,3.728422802E-3,-2.896185517E-1,7.394261360E-1
4.458528907E0,4.314317927E-2,-3.332943618E-1,7.351650596E-1
4.461016719E0,8.468846232E-2,-3.673827946E-1,7.298387289E-1
4.463504532E0,1.272990108E-1,-3.940143883E-1,7.234471440E-1
4.465992344E0,1.699095517E-1,-4.110586047E-1,7.159903049E-1
4.468480157E0,2.135853618E-1,-4.185154438E-1,7.085334659E-1
4.470967969E0,2.540653646E-1,-4.163849354E-1,7.010766268E-1
4.473455782E0,2.934801280E-1,-4.025365114E-1,6.957502961E-1
4.475943594E0,3.307643533E-1,-3.780354261E-1,6.914892793E-1
4.478431407E0,3.616569936E-1,-3.439469934E-1,6.861629486E-1
4.480919219E0,3.872233331E-1,-3.002711833E-1,6.808366179E-1
4.483407032E0,4.063980877E-1,-2.502037883E-1,6.733797789E-1
4.485894844E0,4.170507193E-1,-1.948100924E-1,6.616618633E-1
4.488382657E0,4.202465117E-1,-1.362205893E-1,6.467481852E-1
4.490870469E0,4.138549268E-1,-7.763108611E-2,6.286386847E-1
4.493358282E0,3.978759646E-1,-2.117211558E-2,6.073334217E-1
4.495846094E0,3.712443709E-1,3.422159329E-2,5.838976502E-1
4.498333907E0,3.371559381E-1,8.322372288E-2,5.604618192E-1
4.500821719E0,2.945453823E-1,1.268995255E-1,5.370260477E-1
4.503309532E0,2.455432713E-1,1.641837656E-1,5.114597082E-1
4.505797344E0,1.890842915E-1,1.950764060E-1,4.848281145E-1
4.508285157E0,1.262337416E-1,2.195774615E-1,4.571312666E-1
4.510772969E0,6.018739566E-2,2.366216928E-1,4.294344187E-1
4.513260782E0,-7.989477366E-3,2.462090552E-1,4.017375410E-1
4.515748594E0,-7.723161578E-2,2.483395934E-1,3.740406930E-1
4.518236407E0,-1.475390196E-1,2.451438010E-1,3.474090993E-1
4.520724219E0,-2.167811543E-1,2.355564237E-1,3.197122514E-1
4.523212032E0,-2.828274965E-1,2.217079997E-1,2.920154035E-1
4.525699844E0,-3.435475230E-1,2.057290375E-1,2.643185556E-1
4.528187657E0,-4.000065029E-1,1.876195520E-1,2.334259003E-1
4.530675469E0,-4.468781054E-1,1.684448123E-1,2.025332451E-1
4.533163282E0,-4.852275848E-1,1.492700726E-1,1.673795432E-1
4.535651094E0,-5.150549412E-1,1.311605871E-1,1.311605871E-1
4.538138907E0,-5.342296958E-1,1.162468940E-1,9.387636185E-2
4.540626719E0,-5.448823571E-1,1.034637317E-1,5.765739456E-2
4.543114532E0,-5.448823571E-1,9.387636185E-2,2.250369452E-2
4.545602344E0,-5.352949500E-1,8.855003864E-2,-9.454214945E-3
4.548090157E0,-5.161202550E-1,8.748477697E-2,-3.821633384E-2
4.550577969E0,-4.884233773E-1,8.961530030E-2,-6.058686972E-2
4.553065730E0,-4.522044063E-1,9.600688517E-2,-7.976161689E-2
4.555553490E0,-4.095938802E-1,1.066595241E-1,-9.361004084E-2
4.558041250E0,-3.648527861E-1,1.194426864E-1,-1.021321490E-1
4.560529011E0,-3.158506751E-1,1.343563795E-1,-1.063932031E-1
4.563016771E0,-2.668485343E-1,1.514005959E-1,-1.053279415E-1
4.565504532E0,-2.189116776E-1,1.684448123E-1,-9.893636405E-2
4.567992448E0,-1.731053442E-1,1.865542978E-1,-8.721846342E-2
4.570480313E0,-1.315600574E-1,2.046637833E-1,-7.230477035E-2
4.572968073E0,-9.640636295E-2,2.238385230E-1,-5.419528857E-2
4.575455834E0,-6.657897681E-2,2.430132627E-1,-3.502054140E-2
4.577943594E0,-4.314317927E-2,2.611227632E-1,-1.371526904E-2
4.580431355E0,-2.822948620E-2,2.792322338E-1,6.524739787E-3
4.582919115E0,-1.970737800E-2,2.952111959E-1,2.569948509E-2
4.585406875E0,-1.864211448E-2,3.090596199E-1,4.593949392E-2
4.587894636E0,-2.503369562E-2,3.186469972E-1,6.404897571E-2
4.590382396E0,-3.781685978E-2,3.239732981E-1,8.109319210E-2
4.592870157E0,-5.592634156E-2,3.250385821E-1,9.813741595E-2
4.595357917E0,-7.829687744E-2,3.218427896E-1,1.151816323E-1
4.597845678E0,-1.038632020E-1,3.122554123E-1,1.311605871E-1
4.600333438E0,-1.326253265E-1,2.984069884E-1,1.460742801E-1
4.602821198E0,-1.635179669E-1,2.792322338E-1,1.609879732E-1
4.605308959E0,-1.933453530E-1,2.547311783E-1,1.737711281E-1
4.607796719E0,-2.253032625E-1,2.259690464E-1,1.865542978E-1
4.610284480E0,-2.551306486E-1,1.929458827E-1,1.982721984E-1
4.612772240E0,-2.828274965E-1,1.556616426E-1,2.078595608E-1
4.615260000E0,-3.083938360E-1,1.151816323E-1,2.163816839E-1
4.617747761E0,-3.307643533E-1,7.257108390E-2,2.249037921E-1
4.620235521E0,-3.488738537E-1,2.783001214E-2,2.334259003E-1
4.622723282E0,-3.616569936E-1,-1.904158667E-2,2.408827394E-1
4.625211042E0,-3.691138625E-1,-6.591318548E-2,2.494048476E-1
4.627698959E0,-3.712443709E-1,-1.117195264E-1,2.600574791E-1
4.630186875E0,-3.680485785E-1,-1.543300748E-1,2.707101107E-1
4.632674792E0,-3.595264852E-1,-1.948100924E-1,2.802974880E-1
4.635162709E0,-3.446127772E-1,-2.299637944E-1,2.898848653E-1
4.637650625E0,-3.265033066E-1,-2.608564198E-1,3.005374968E-1
4.640138542E0,-3.062632978E-1,-2.864227593E-1,3.101248741E-1
4.642626303E0,-2.817622423E-1,-3.066627681E-1,3.197122514E-1
4.645114063E0,-2.561959028E-1,-3.215764761E-1,3.314301372E-1
4.647601823E0,-2.274337858E-1,-3.322291076E-1,3.442133069E-1
4.650089584E0,-1.986716688E-1,-3.386206925E-1,3.580617309E-1
4.652577344E0,-1.699095517E-1,-3.428817391E-1,3.729754388E-1
4.655065105E0,-1.422126889E-1,-3.428817391E-1,3.889544010E-1
4.657552865E0,-1.166463718E-1,-3.396859467E-1,4.081291258E-1
4.660040625E0,-9.321057051E-2,-3.343596160E-1,4.273038805E-1
4.662528386E0,-7.297056168E-2,-3.258375227E-1,4.475438893E-1
4.665016146E0,-5.699160323E-2,-3.151848912E-1,4.667186439E-1
4.667503907E0,-4.633896798E-2,-3.013364673E-1,4.869586527E-1
4.669991667E0,-4.207791388E-2,-2.842922211E-1,5.050681233E-1
4.672479428E0,-4.314317927E-2,-2.651174963E-1,5.221123695E-1
4.674967188E0,-4.953476042E-2,-2.459427416E-1,5.380913019E-1
4.677454948E0,-6.125266105E-2,-2.267680019E-1,5.530049801E-1
4.679942709E0,-7.829687744E-2,-2.065279931E-1,5.647228956E-1
4.682430469E0,-9.853688627E-2,-1.884185076E-1,5.764408112E-1
4.684918230E0,-1.230379492E-1,-1.713742912E-1,5.860281587E-1
4.687405990E0,-1.486042738E-1,-1.564605981E-1,5.934849977E-1
4.689893750E0,-1.752358675E-1,-1.436774284E-1,5.988113284E-1
4.692381511E0,-2.029327303E-1,-1.340900660E-1,6.009418368E-1
4.694869271E0,-2.306295782E-1,-1.255679578E-1,5.998765826E-1
4.697357032E0,-2.572611570E-1,-1.202416345E-1,5.966808200E-1
4.699844792E0,-2.817622423E-1,-1.181111038E-1,5.902892351E-1
4.702332553E0,-3.041327596E-1,-1.181111038E-1,5.807018280E-1
4.704820313E0,-3.243727684E-1,-1.191763729E-1,5.668534040E-1
4.707308073E0,-3.424822688E-1,-1.223721579E-1,5.519397259E-1
4.709795834E0,-3.563306928E-1,-1.287637353E-1,5.338302255E-1
4.712283594E0,-3.669833243E-1,-1.362205893E-1,5.135902166E-1
4.714771355E0,-3.733749092E-1,-1.468732208E-1,4.933502376E-1
4.717259115E0,-3.755054474E-1,-1.596563905E-1,4.731102288E-1
4.719746875E0,-3.733749092E-1,-1.756353378E-1,4.528702199E-1
4.722234636E0,-3.669833243E-1,-1.948100924E-1,4.358259737E-1
4.724722396E0,-3.563306928E-1,-2.161153555E-1,4.198470414E-1
4.727210157E0,-3.414169848E-1,-2.384859025E-1,4.081291258E-1
4.729697917E0,-3.211769760E-1,-2.608564198E-1,3.985417485E-1
4.732185678E0,-2.988064587E-1,-2.821617126E-1,3.932154477E-1
4.734673438E0,-2.743053734E-1,-3.034669757E-1,3.921501637E-1
4.737161198E0,-2.466085255E-1,-3.226417303E-1,3.953459561E-1
4.739649011E0,-2.178464085E-1,-3.407512009E-1,4.038680792E-1
4.742136823E0,-1.880190372E-1,-3.556649089E-1,4.155859649E-1
4.744624636E0,-1.581916511E-1,-3.684480488E-1,4.326302111E-1
4.747112448E0,-1.283642650E-1,-3.791007102E-1,4.539354742E-1
4.749600261E0,-9.853688627E-2,-3.854922652E-1,4.795017838E-1
4.752088073E0,-6.870950758E-2,-3.876228034E-1,5.082638860E-1
4.754575886E0,-4.101264849E-2,-3.844270110E-1,5.380913019E-1
4.757063698E0,-1.651158556E-2,-3.759049177E-1,5.700492263E-1
4.759551511E0,4.793686327E-3,-3.599259555E-1,6.020070910E-1
4.762039323E0,2.183790505E-2,-3.396859467E-1,6.307692528E-1
4.764527136E0,3.355580568E-2,-3.162501454E-1,6.584661007E-1
4.767014948E0,4.101264849E-2,-2.885532975E-1,6.819018722E-1
4.769502761E0,4.207791388E-2,-2.597911656E-1,7.021418810E-1
4.771990573E0,3.675159439E-2,-2.278332561E-1,7.181208730E-1
4.774478386E0,2.822948620E-2,-1.958753467E-1,7.319692969E-1
4.776966198E0,1.438105945E-2,-1.639174372E-1,7.415566444E-1
4.779454011E0,-3.728422802E-3,-1.298290044E-1,7.479482293E-1
4.781941823E0,-2.716422267E-2,-9.574057162E-2,7.511440516E-1
4.784429636E0,-5.379581451E-2,-6.378266215E-2,7.522093058E-1
4.786917448E0,-8.575372398E-2,-3.715106845E-2,7.500787377E-1
4.789405261E0,-1.198421568E-1,-1.584579609E-2,7.458177209E-1
4.791893073E0,-1.560611278E-1,-1.997369342E-3,7.394261360E-1
4.794380886E0,-1.965411454E-1,3.328948980E-3,7.309040427E-1
4.796868698E0,-2.370211631E-1,1.331579551E-4,7.191861272E-1
4.799356511E0,-2.775011659E-1,-1.051947847E-2,7.074682117E-1
4.801844323E0,-3.179811835E-1,-2.862896025E-2,6.957502961E-1
4.804332136E0,-3.563306928E-1,-5.099949613E-2,6.840324402E-1
4.806819948E0,-3.914843798E-1,-7.763108611E-2,6.765755415E-1
4.809307761E0,-4.234423041E-1,-1.053279415E-1,6.701840162E-1
4.811795573E0,-4.500738978E-1,-1.340900660E-1,6.680534482E-1
4.814283386E0,-4.713791609E-1,-1.607216448E-1,6.669881940E-1
4.816771198E0,-4.862928391E-1,-1.894837767E-1,6.659229398E-1
4.819259011E0,-4.969455004E-1,-2.203764170E-1,6.659229398E-1
4.821746823E0,-5.001412630E-1,-2.523343265E-1,6.648576856E-1
4.824234636E0,-4.980107546E-1,-2.874880135E-1,6.616618633E-1
4.826722448E0,-4.884233773E-1,-3.237069845E-1,6.574008465E-1
4.829210261E0,-4.735096991E-1,-3.599259555E-1,6.520745158E-1
4.831698073E0,-4.500738978E-1,-3.950796425E-1,6.467481852E-1
4.834185886E0,-4.191812575E-1,-4.281028211E-1,6.446176767E-1
4.836673698E0,-3.797664940E-1,-4.547344148E-1,6.467481852E-1
4.839161511E0,-3.328948915E-1,-4.771049619E-1,6.510092616E-1
4.841649323E0,-2.796317041E-1,-4.930838943E-1,6.595313549E-1
4.844137136E0,-2.199769467E-1,-5.016059875E-1,6.712492704E-1
4.846624948E0,-1.571263820E-1,-5.026713014E-1,6.850976944E-1
4.849112761E0,-9.214530140E-2,-4.984102249E-1,7.021418810E-1
4.851600573E0,-2.929474972E-2,-4.877575934E-1,7.213166356E-1
4.854088386E0,3.036001325E-2,-4.728438854E-1,7.394261360E-1
4.856576198E0,8.468846232E-2,-4.536691606E-1,7.575356364E-1
4.859064011E0,1.336905807E-1,-4.312986135E-1,7.745798230E-1
4.861551823E0,1.741705984E-1,-4.046670198E-1,7.916240692E-1
4.864039636E0,2.071937770E-1,-3.748396337E-1,8.065377474E-1
4.866527448E0,2.306295782E-1,-3.396859467E-1,8.214514256E-1
4.869015261E0,2.444780022E-1,-3.013364673E-1,8.331693411E-1
4.871503073E0,2.498043180E-1,-2.597911656E-1,8.427566886E-1
4.873990886E0,2.434127480E-1,-2.193111479E-1,8.480830193E-1
4.876478698E0,2.274337858E-1,-1.820269227E-1,8.491482735E-1
4.878966511E0,2.008021921E-1,-1.479384899E-1,8.459525108E-1
4.881454323E0,1.624527127E-1,-1.170458421E-1,8.384956717E-1
4.883942136E0,1.145158410E-1,-9.147951752E-2,8.267777562E-1
4.886429948E0,5.486107618E-2,-6.697845459E-2,8.097335100E-1
4.888917761E0,-1.331579592E-2,-4.780370742E-2,7.894935012E-1
4.891405573E0,-9.001477808E-2,-3.395527974E-2,7.660577297E-1
4.893893386E0,-1.699095517E-1,-2.649843320E-2,7.404913902E-1
4.896381146E0,-2.530001104E-1,-2.543316968E-2,7.127945423E-1
4.898868907E0,-3.360906839E-1,-3.395527974E-2,6.850976944E-1
4.901356667E0,-4.159854650E-1,-5.099949613E-2,6.574008465E-1
4.903844428E0,-4.926844239E-1,-7.763108611E-2,6.318345070E-1
4.906332188E0,-5.619265437E-1,-1.127847880E-1,6.083986759E-1
4.908819948E0,-6.247771382E-1,-1.553953290E-1,5.892239809E-1
4.911307709E0,-6.780403256E-1,-2.033322006E-1,5.743102431E-1
4.913795469E0,-7.217161059E-1,-2.544648647E-1,5.636576414E-1
4.916283230E0,-7.536740303E-1,-3.098585606E-1,5.604618192E-1
4.918770990E0,-7.717835307E-1,-3.641870022E-1,5.647228956E-1
4.921258750E0,-7.749792933E-1,-4.185154438E-1,5.764408112E-1
4.923746511E0,-7.600656152E-1,-4.696480930E-1,5.945502520E-1
4.926234271E0,-7.302381992E-1,-5.165197253E-1,6.190513372E-1
4.928722032E0,-6.833665967E-1,-5.580649972E-1,6.488786936E-1
4.931209792E0,-6.226465702E-1,-5.942839384E-1,6.808366179E-1
4.933697553E0,-5.470128655E-1,-6.262418628E-1,7.117292881E-1
4.936185313E0,-4.607265294E-1,-6.518082023E-1,7.426218987E-1
4.938673073E0,-3.648527861E-1,-6.720482111E-1,7.692534924E-1
4.941160834E0,-2.615222335E-1,-6.848313808E-1,7.905587554E-1
4.943648594E0,-1.539305896E-1,-6.901576519E-1,8.054724932E-1
4.946136355E0,-4.740423337E-2,-6.869618893E-1,8.129293323E-1
4.948624115E0,5.805686861E-2,-6.752439737E-1,8.139945865E-1
4.951111875E0,1.571263820E-1,-6.539387107E-1,8.076030016E-1
4.953599636E0,2.498043180E-1,-6.230461001E-1,7.969503403E-1
4.956087396E0,3.339601457E-1,-5.878923535E-1,7.788408995E-1
4.958575157E0,4.085285962E-1,-5.484775901E-1,7.564703226E-1
4.961062917E0,4.703139067E-1,-5.069323182E-1,7.298387289E-1
4.963550678E0,5.203812718E-1,-4.653870463E-1,7.000113726E-1
4.966038438E0,5.566002727E-1,-4.249070287E-1,6.680534482E-1
4.968526198E0,5.768402815E-1,-3.865575492E-1,6.328997612E-1
4.971013959E0,5.821665525E-1,-3.524691164E-1,5.977460742E-1
