"Time (s)","Gyroscope x (rad/s)","Gyroscope y (rad/s)","Gyroscope z (rad/s)"
7.235589700E-2,2.466085255E-1,-2.757701278E-1,-2.470080107E-1
7.484787600E-2,2.295643091E-1,-2.704437971E-1,-2.406164259E-1
7.734131300E-2,2.071937770E-1,-2.693785429E-1,-2.342248410E-1
7.983589700E-2,1.816274524E-1,-2.715090811E-1,-2.278332561E-1
8.233131300E-2,1.528653353E-1,-2.757701278E-1,-2.225069404E-1
8.482725100E-2,1.209074259E-1,-2.810964286E-1,-2.161153555E-1
8.732334500E-2,8.575372398E-2,-2.874880135E-1,-2.086585164E-1
8.981553200E-2,5.166528746E-2,-2.960101366E-1,-2.022669315E-1
9.230334500E-2,1.544632297E-2,-3.055975139E-1,-1.958753467E-1
9.479115700E-2,-2.183790505E-2,-3.173153996E-1,-1.894837767E-1
9.727897000E-2,-6.125266105E-2,-3.311638236E-1,-1.830921918E-1
9.976678200E-2,-1.006674170E-1,-3.482080400E-1,-1.767006069E-1
1.022545950E-1,-1.411474347E-1,-3.673827946E-1,-1.713742912E-1
1.047424070E-1,-1.816274524E-1,-3.886880577E-1,-1.671132296E-1
1.072302200E-1,-2.231727391E-1,-4.121238589E-1,-1.639174372E-1
1.097180320E-1,-2.615222335E-1,-4.355596602E-1,-1.607216448E-1
1.122058450E-1,-2.977411747E-1,-4.611259997E-1,-1.607216448E-1
1.146936570E-1,-3.296990991E-1,-4.877575934E-1,-1.596563905E-1
1.171814700E-1,-3.563306928E-1,-5.122586489E-1,-1.585911214E-1
1.196692820E-1,-3.787012100E-1,-5.346291661E-1,-1.585911214E-1
1.221570950E-1,-3.936149180E-1,-5.548691750E-1,-1.564605981E-1
1.246449070E-1,-4.053328037E-1,-5.719134212E-1,-1.553953290E-1
1.271327200E-1,-4.117243886E-1,-5.868270993E-1,-1.521995366E-1
1.296205320E-1,-4.149201810E-1,-5.985450149E-1,-1.479384899E-1
1.321083450E-1,-4.138549268E-1,-6.070671082E-1,-1.426121742E-1
1.345961570E-1,-4.095938802E-1,-6.123934388E-1,-1.351553202E-1
1.370839700E-1,-4.010717571E-1,-6.145239472E-1,-1.287637353E-1
1.395717820E-1,-3.893538713E-1,-6.113281846E-1,-1.213068962E-1
1.420595950E-1,-3.733749092E-1,-6.038713455E-1,-1.138500497E-1
1.445474070E-1,-3.531349003E-1,-5.910881758E-1,-1.063932031E-1
1.470352200E-1,-3.296990991E-1,-5.729786754E-1,-1.000016257E-1
1.495230320E-1,-3.041327596E-1,-5.495429039E-1,-9.361004084E-2
1.520108450E-1,-2.764359117E-1,-5.229113102E-1,-8.828372508E-2
1.544986570E-1,-2.466085255E-1,-4.920186400E-1,-8.189214021E-2
1.569864700E-1,-2.167811543E-1,-4.589954615E-1,-7.656582445E-2
1.594742820E-1,-1.880190372E-1,-4.249070287E-1,-7.123950869E-2
1.619620950E-1,-1.581916511E-1,-3.908185959E-1,-6.591318548E-2
1.644499070E-1,-1.304948032E-1,-3.556649089E-1,-6.271740049E-2
1.669377200E-1,-1.027979404E-1,-3.215764761E-1,-5.952160433E-2
1.694255320E-1,-7.616634667E-2,-2.906838059E-1,-5.845634267E-2
1.719133450E-1,-5.166528746E-2,-2.629869580E-1,-5.739107728E-2
1.744011570E-1,-2.929474972E-2,-2.395511568E-1,-5.845634267E-2
1.768889700E-1,-1.225053146E-2,-2.203764170E-1,-6.271740049E-2
1.793767820E-1,1.597895520E-3,-2.065279931E-1,-6.804371625E-2
1.818645950E-1,1.118526794E-2,-1.980058849E-1,-7.550056279E-2
1.843524070E-1,1.544632297E-2,-1.948100924E-1,-8.615319431E-2
1.868402200E-1,1.544632297E-2,-1.980058849E-1,-9.680583328E-2
1.893280320E-1,1.225053146E-2,-2.065279931E-1,-1.085237339E-1
1.918158450E-1,5.858949851E-3,-2.193111479E-1,-1.202416345E-1
1.943036570E-1,-2.663159044E-3,-2.352901101E-1,-1.340900660E-1
1.967914700E-1,-1.118526794E-2,-2.544648647E-1,-1.468732208E-1
1.992792820E-1,-2.183790505E-2,-2.779006660E-1,-1.607216448E-1
2.017670950E-1,-3.036001325E-2,-3.034669757E-1,-1.745700836E-1
2.042549070E-1,-3.888212144E-2,-3.311638236E-1,-1.852227151E-1
2.067427200E-1,-4.633896798E-2,-3.609912097E-1,-1.948100924E-1
2.092305320E-1,-5.060002208E-2,-3.908185959E-1,-1.980058849E-1
2.117183450E-1,-5.273054913E-2,-4.195807278E-1,-1.937448233E-1
2.142061570E-1,-5.060002208E-2,-4.472775757E-1,-1.830921918E-1
2.166939700E-1,-4.420844093E-2,-4.696480930E-1,-1.660479754E-1
2.191817820E-1,-3.355580568E-2,-4.866923392E-1,-1.415469050E-1
2.216695950E-1,-2.077264152E-2,-4.984102249E-1,-1.138500497E-1
2.241574070E-1,-5.858949851E-3,-5.037365556E-1,-8.189214021E-2
2.266452200E-1,1.225053146E-2,-5.037365556E-1,-4.886896908E-2
2.291330320E-1,3.142527863E-2,-5.005407333E-1,-1.691105962E-2
2.316208450E-1,5.166528746E-2,-4.920186400E-1,1.611211337E-2
2.341086570E-1,7.190529257E-2,-4.781702161E-1,4.593949392E-2
2.365964700E-1,9.214530140E-2,-4.611259997E-1,7.683213800E-2
2.390842820E-1,1.102547869E-1,-4.398207366E-1,1.045289934E-1
2.415720950E-1,1.272990108E-1,-4.174501896E-1,1.300953180E-1
2.440599070E-1,1.432779580E-1,-3.908185959E-1,1.535311192E-1
2.465477200E-1,1.560611278E-1,-3.631217480E-1,1.748363972E-1
2.490355320E-1,1.667137593E-1,-3.354249001E-1,1.918806136E-1
2.515233450E-1,1.741705984E-1,-3.077280223E-1,2.067943066E-1
2.540111570E-1,1.784316599E-1,-2.810964286E-1,2.174469382E-1
2.564989700E-1,1.794969290E-1,-2.565953732E-1,2.259690464E-1
2.589867820E-1,1.773663908E-1,-2.320943177E-1,2.323606312E-1
2.614745950E-1,1.720400751E-1,-2.107890397E-1,2.355564237E-1
2.639624070E-1,1.645832360E-1,-1.916143000E-1,2.366216928E-1
2.664502200E-1,1.528653353E-1,-1.735048145E-1,2.355564237E-1
2.689380320E-1,1.379516423E-1,-1.607216448E-1,2.323606312E-1
2.714258450E-1,1.198421568E-1,-1.511342824E-1,2.270343155E-1
2.739136570E-1,9.853688627E-2,-1.479384899E-1,2.195774615E-1
2.764014700E-1,7.297056168E-2,-1.490037590E-1,2.121206224E-1
2.788892820E-1,4.527370632E-2,-1.575258672E-1,2.014679909E-1
2.813770950E-1,1.438105945E-2,-1.703090221E-1,1.908153445E-1
2.838649070E-1,-1.970737800E-2,-1.905490309E-1,1.790974438E-1
2.863527200E-1,-5.486107618E-2,-2.139848322E-1,1.663142890E-1
2.888405320E-1,-9.214530140E-2,-2.406164259E-1,1.524658650E-1
2.913283450E-1,-1.283642650E-1,-2.693785429E-1,1.407479644E-1
2.938161570E-1,-1.635179669E-1,-2.992059290E-1,1.322258562E-1
2.963039700E-1,-1.954758763E-1,-3.279680312E-1,1.268995255E-1
2.987917820E-1,-2.231727391E-1,-3.556649089E-1,1.268995255E-1
3.012795950E-1,-2.466085255E-1,-3.801659644E-1,1.322258562E-1
3.037674070E-1,-2.647180259E-1,-4.014712274E-1,1.428784877E-1
3.062552200E-1,-2.775011659E-1,-4.174501896E-1,1.567269117E-1
3.087430320E-1,-2.849580348E-1,-4.291680753E-1,1.737711281E-1
3.112308450E-1,-2.870885432E-1,-4.376901984E-1,1.918806136E-1
3.137186570E-1,-2.849580348E-1,-4.387554526E-1,2.131858915E-1
3.162064700E-1,-2.785664499E-1,-4.355596602E-1,2.355564237E-1
3.186942820E-1,-2.668485343E-1,-4.281028211E-1,2.611227632E-1
3.211820950E-1,-2.498043180E-1,-4.131891429E-1,2.877543271E-1
3.236699070E-1,-2.274337858E-1,-3.929491341E-1,3.165164590E-1
3.261577200E-1,-2.008021921E-1,-3.673827946E-1,3.452785909E-1
3.286455320E-1,-1.709748209E-1,-3.386206925E-1,3.729754388E-1
3.311333450E-1,-1.400821656E-1,-3.087933064E-1,3.974764943E-1
3.336211570E-1,-1.070589945E-1,-2.768353820E-1,4.187817574E-1
3.361089700E-1,-7.297056168E-2,-2.459427416E-1,4.358259737E-1
3.385967820E-1,-3.994738683E-2,-2.150501013E-1,4.464786351E-1
3.410845950E-1,-1.012000442E-2,-1.873532385E-1,4.528702199E-1
3.435724070E-1,1.544632297E-2,-1.607216448E-1,4.528702199E-1
3.460602200E-1,3.675159439E-2,-1.383511126E-1,4.486091435E-1
3.485480320E-1,5.486107618E-2,-1.202416345E-1,4.390217662E-1
3.510358450E-1,6.764423847E-2,-1.053279415E-1,4.241080880E-1
3.535236570E-1,7.723161578E-2,-9.574057162E-2,4.049333334E-1
3.560114700E-1,8.255793154E-2,-9.147951752E-2,3.825628161E-1
3.584992820E-1,8.575372398E-2,-9.254477918E-2,3.559312224E-1
3.609870950E-1,8.468846232E-2,-9.574057162E-2,3.282343447E-1
3.634749070E-1,7.936213911E-2,-1.031974182E-1,2.984069884E-1
3.659627200E-1,7.084003091E-2,-1.127847880E-1,2.664490640E-1
3.684505320E-1,5.805686861E-2,-1.245026886E-1,2.355564237E-1
3.709383450E-1,4.207791388E-2,-1.394163817E-1,2.057290375E-1
3.734261570E-1,2.290316857E-2,-1.543300748E-1,1.780321896E-1
3.759139700E-1,5.326318205E-4,-1.713742912E-1,1.545963883E-1
3.784017820E-1,-2.396843210E-2,-1.894837767E-1,1.332911104E-1
3.808895950E-1,-5.060002208E-2,-2.054627240E-1,1.183774248E-1
3.833774070E-1,-7.723161578E-2,-2.214416862E-1,1.077247858E-1
3.858652200E-1,-1.038632020E-1,-2.363553643E-1,1.023984700E-1
3.883530320E-1,-1.294295341E-1,-2.502037883E-1,1.034637317E-1
3.908408450E-1,-1.528653353E-1,-2.619217038E-1,1.098553166E-1
3.933286570E-1,-1.741705984E-1,-2.704437971E-1,1.215732098E-1
3.958164700E-1,-1.922800839E-1,-2.747048736E-1,1.386174262E-1
3.983042820E-1,-2.082590461E-1,-2.757701278E-1,1.599227041E-1
4.007920950E-1,-2.199769467E-1,-2.725743353E-1,1.833585054E-1
4.032799070E-1,-2.284990549E-1,-2.661827505E-1,2.099900991E-1
4.057677200E-1,-2.348906398E-1,-2.565953732E-1,2.387522161E-1
4.082555320E-1,-2.380864173E-1,-2.448774725E-1,2.675143182E-1
4.107433450E-1,-2.380864173E-1,-2.331595868E-1,2.952111959E-1
4.132311570E-1,-2.348906398E-1,-2.214416862E-1,3.218427896E-1
4.157189700E-1,-2.263685167E-1,-2.075932473E-1,3.442133069E-1
4.182067820E-1,-2.125200927E-1,-1.916143000E-1,3.601922691E-1
4.206945950E-1,-1.944106072E-1,-1.735048145E-1,3.708449006E-1
4.231824070E-1,-1.741705984E-1,-1.532648057E-1,3.761712313E-1
4.256702200E-1,-1.518000662E-1,-1.298290044E-1,3.761712313E-1
4.281580320E-1,-1.272990108E-1,-1.074584723E-1,3.729754388E-1
4.306458450E-1,-1.027979404E-1,-8.402267098E-2,3.655185997E-1
4.331336570E-1,-7.829687744E-2,-6.058686972E-2,3.559312224E-1
4.356214700E-1,-5.273054913E-2,-3.928159550E-2,3.452785909E-1
4.381092820E-1,-2.929474972E-2,-2.117211558E-2,3.324954212E-1
4.405970950E-1,-5.858949851E-3,-7.323687430E-3,3.186469972E-1
4.430849070E-1,1.544632297E-2,1.198421582E-3,3.016027808E-1
4.455727200E-1,3.462106735E-2,6.524739787E-3,2.845585644E-1
4.480605320E-1,5.166528746E-2,7.590003312E-3,2.653838098E-1
4.505483450E-1,6.551371515E-2,4.394212738E-3,2.419480085E-1
4.530361570E-1,7.723161578E-2,-9.321057005E-4,2.185122073E-1
4.555239700E-1,8.575372398E-2,-9.454214945E-3,1.929458827E-1
4.580117820E-1,9.214530140E-2,-1.904158667E-2,1.663142890E-1
4.604995950E-1,9.534109384E-2,-3.075948730E-2,1.386174262E-1
4.629874070E-1,9.640636295E-2,-4.460791498E-2,1.109205782E-1
4.654752200E-1,9.427583218E-2,-5.952160433E-2,8.535424620E-2
4.679630320E-1,9.001477808E-2,-7.550056279E-2,5.978792161E-2
4.704508450E-1,8.681898564E-2,-9.041424841E-2,4.061317816E-2
4.729386570E-1,8.255793154E-2,-1.031974182E-1,2.569948509E-2
4.754264700E-1,8.042740822E-2,-1.149153188E-1,1.930790395E-2
4.779142820E-1,7.936213911E-2,-1.234374270E-1,2.143843099E-2
4.804020950E-1,8.042740822E-2,-1.276984811E-1,3.209106624E-2
4.828899070E-1,8.575372398E-2,-1.298290044E-1,5.020054802E-2
4.853777200E-1,9.321057051E-2,-1.266332120E-1,7.363634557E-2
4.878655320E-1,1.027979404E-1,-1.213068962E-1,9.920267761E-2
4.903533450E-1,1.155811027E-1,-1.127847880E-1,1.268995255E-1
4.928411570E-1,1.294295341E-1,-1.021321490E-1,1.545963883E-1
4.953289700E-1,1.454084814E-1,-9.041424841E-2,1.801627129E-1
4.978167820E-1,1.613874435E-1,-7.656582445E-2,2.035985142E-1
5.003045950E-1,1.763011366E-1,-6.165213138E-2,2.217079997E-1
5.027925110E-1,1.901495606E-1,-4.780370742E-2,2.355564237E-1
5.052804280E-1,2.008021921E-1,-3.502054140E-2,2.462090552E-1
5.077683450E-1,2.082590461E-1,-2.543316968E-2,2.526006401E-1
5.102562610E-1,2.135853618E-1,-1.797632314E-2,2.536658943E-1
5.127441780E-1,2.157158852E-1,-1.371526904E-2,2.526006401E-1
5.152320950E-1,2.146506310E-1,-1.371526904E-2,2.472743243E-1
5.177200110E-1,2.114548385E-1,-1.691105962E-2,2.398174703E-1
5.202079280E-1,2.082590461E-1,-2.330264263E-2,2.302301079E-1
5.226958450E-1,2.029327303E-1,-3.182475269E-2,2.185122073E-1
5.251837610E-1,1.965411454E-1,-4.034686089E-2,2.067943066E-1
5.276716780E-1,1.880190372E-1,-5.099949613E-2,1.929458827E-1
5.301595950E-1,1.784316599E-1,-6.058686972E-2,1.790974438E-1
5.326474590E-1,1.667137593E-1,-7.017423958E-2,1.641837656E-1
5.351353240E-1,1.528653353E-1,-7.976161689E-2,1.492700726E-1
5.376231360E-1,1.379516423E-1,-8.828372508E-2,1.343563795E-1
5.401109490E-1,1.209074259E-1,-9.680583328E-2,1.183774248E-1
5.425987610E-1,1.027979404E-1,-1.063932031E-1,1.023984700E-1
5.450865740E-1,8.255793154E-2,-1.159805804E-1,8.855003864E-2
5.475743860E-1,6.125266105E-2,-1.245026886E-1,7.683213800E-2
5.500621990E-1,3.994738683E-2,-1.330247968E-1,6.724476814E-2
5.525500110E-1,1.970737800E-2,-1.394163817E-1,6.191844866E-2
5.550378240E-1,5.326318205E-4,-1.436774284E-1,6.191844866E-2
5.575256360E-1,-1.651158556E-2,-1.458079666E-1,6.937529147E-2
5.600134490E-1,-2.716422267E-2,-1.426121742E-1,8.322372288E-2
5.625012610E-1,-3.249054030E-2,-1.351553202E-1,1.034637317E-1
5.649890740E-1,-3.142527863E-2,-1.223721579E-1,1.279647946E-1
5.674768860E-1,-2.503369562E-2,-1.053279415E-1,1.556616426E-1
5.699646990E-1,-1.331579592E-2,-8.402267098E-2,1.833585054E-1
5.724525110E-1,3.728422802E-3,-6.058686972E-2,2.099900991E-1
5.749403240E-1,2.396843210E-2,-3.608580679E-2,2.355564237E-1
5.774281360E-1,4.740423337E-2,-1.265000552E-2,2.568616867E-1
5.799159490E-1,7.297056168E-2,8.655266836E-3,2.749711871E-1
5.824037610E-1,9.853688627E-2,2.889527567E-2,2.898848653E-1
5.848915740E-1,1.241032109E-1,4.807002097E-2,3.005374968E-1
5.873793860E-1,1.496695429E-1,6.404897571E-2,3.079943359E-1
5.898671990E-1,1.731053442E-1,7.683213800E-2,3.122554123E-1
5.923550110E-1,1.965411454E-1,8.535424620E-2,3.111901283E-1
5.948428240E-1,2.178464085E-1,8.961530030E-2,3.079943359E-1
5.973306360E-1,2.380864173E-1,9.068056941E-2,3.026680350E-1
5.998184490E-1,2.540653646E-1,8.855003864E-2,2.952111959E-1
6.023062610E-1,2.689790726E-1,8.322372288E-2,2.866890728E-1
6.047940740E-1,2.796317041E-1,7.576687634E-2,2.760364413E-1
6.072818860E-1,2.881538272E-1,6.511423737E-2,2.675143182E-1
6.097696990E-1,2.924148738E-1,5.233107507E-2,2.579269707E-1
6.122575110E-1,2.934801280E-1,3.741738573E-2,2.472743243E-1
6.147453240E-1,2.902843356E-1,2.143843099E-2,2.366216928E-1
6.172331360E-1,2.849580348E-1,4.394212738E-3,2.259690464E-1
6.197209490E-1,2.764359117E-1,-1.478053257E-2,2.121206224E-1
6.222087610E-1,2.647180259E-1,-3.289001435E-2,1.972069293E-1
6.246965740E-1,2.519348562E-1,-4.993423447E-2,1.812279820E-1
6.271843860E-1,2.370211631E-1,-6.697845459E-2,1.641837656E-1
6.296721990E-1,2.221074700E-1,-8.189214021E-2,1.460742801E-1
6.321600110E-1,2.061285079E-1,-9.574057162E-2,1.279647946E-1
6.346478240E-1,1.901495606E-1,-1.074584723E-1,1.109205782E-1
6.371356360E-1,1.752358675E-1,-1.170458421E-1,9.387636185E-2
6.396234490E-1,1.613874435E-1,-1.245026886E-1,7.896266878E-2
6.421112610E-1,1.496695429E-1,-1.298290044E-1,6.511423737E-2
6.445990740E-1,1.390169114E-1,-1.330247968E-1,5.446160212E-2
6.470868860E-1,1.315600574E-1,-1.340900660E-1,4.700475931E-2
6.495746990E-1,1.294295341E-1,-1.340900660E-1,4.167843983E-2
6.520625110E-1,1.294295341E-1,-1.308942735E-1,4.061317816E-2
6.545503240E-1,1.336905807E-1,-1.245026886E-1,4.380896688E-2
6.570381360E-1,1.432779580E-1,-1.170458421E-1,5.126581341E-2
6.595259490E-1,1.571263820E-1,-1.063932031E-1,6.191844866E-2
6.620137610E-1,1.741705984E-1,-9.361004084E-2,7.683213800E-2
6.645015740E-1,1.933453530E-1,-7.869634777E-2,9.281109273E-2
6.669893860E-1,2.146506310E-1,-6.271740049E-2,1.098553166E-1
6.694771990E-1,2.359558940E-1,-4.780370742E-2,1.268995255E-1
6.719650110E-1,2.572611570E-1,-3.289001435E-2,1.418132186E-1
6.744528240E-1,2.764359117E-1,-1.904158667E-2,1.556616426E-1
6.769406360E-1,2.945453823E-1,-6.258423906E-3,1.652490199E-1
6.794284490E-1,3.094590902E-1,3.328948980E-3,1.727058738E-1
6.819162610E-1,3.233075142E-1,9.720530361E-3,1.769669205E-1
6.844040740E-1,3.339601457E-1,1.185105834E-2,1.790974438E-1
6.868918860E-1,3.414169848E-1,1.078579482E-2,1.780321896E-1
6.893796990E-1,3.467433155E-1,6.524739787E-3,1.737711281E-1
6.918675110E-1,3.488738537E-1,-9.321057005E-4,1.684448123E-1
6.943553240E-1,3.478085697E-1,-1.051947847E-2,1.609879732E-1
6.968431360E-1,3.446127772E-1,-2.223737910E-2,1.514005959E-1
6.993309490E-1,3.392864764E-1,-3.502054140E-2,1.407479644E-1
7.018187610E-1,3.307643533E-1,-4.673844203E-2,1.290300637E-1
7.043065740E-1,3.201117218E-1,-5.952160433E-2,1.173121557E-1
7.067943860E-1,3.094590902E-1,-6.910897791E-2,1.045289934E-1
7.092821990E-1,2.988064587E-1,-7.869634777E-2,9.174583107E-2
7.117700110E-1,2.870885432E-1,-8.615319431E-2,7.683213800E-2
7.142578240E-1,2.753706574E-1,-9.254477918E-2,6.191844866E-2
7.167456360E-1,2.615222335E-1,-9.787109494E-2,4.913528636E-2
7.192334490E-1,2.466085255E-1,-1.000016257E-1,3.741738573E-2
7.217212610E-1,2.306295782E-1,-1.010668874E-1,2.676474862E-2
7.242090740E-1,2.135853618E-1,-1.010668874E-1,2.037316747E-2
7.266968860E-1,1.944106072E-1,-9.787109494E-2,1.504684892E-2
7.291846990E-1,1.763011366E-1,-9.574057162E-2,1.291632187E-2
7.316725110E-1,1.571263820E-1,-9.147951752E-2,1.291632187E-2
7.341603240E-1,1.379516423E-1,-8.721846342E-2,1.504684892E-2
7.366481360E-1,1.209074259E-1,-8.189214021E-2,1.930790395E-2
7.391359490E-1,1.049284711E-1,-7.550056279E-2,2.783001214E-2
7.416237610E-1,9.214530140E-2,-6.697845459E-2,4.167843983E-2
7.441115740E-1,8.149266988E-2,-5.739107728E-2,5.978792161E-2
7.465993860E-1,7.403582335E-2,-4.460791498E-2,8.215846121E-2
7.490871990E-1,6.977476925E-2,-3.075948730E-2,1.066595241E-1
7.515750110E-1,6.657897681E-2,-1.691105962E-2,1.332911104E-1
7.540628240E-1,6.657897681E-2,-3.062632866E-3,1.588574350E-1
7.565506360E-1,6.764423847E-2,9.720530361E-3,1.844237745E-1
7.590384490E-1,7.084003091E-2,2.143843099E-2,2.078595608E-1
7.615262610E-1,7.616634667E-2,3.102580272E-2,2.280995846E-1
7.640140740E-1,8.149266988E-2,3.848264739E-2,2.440785319E-1
7.665018860E-1,8.788424730E-2,4.380896688E-2,2.579269707E-1
7.689896990E-1,9.427583218E-2,4.807002097E-2,2.675143182E-1
7.714775110E-1,1.006674170E-1,5.020054802E-2,2.739059031E-1
7.739653240E-1,1.038632020E-1,5.126581341E-2,2.771016955E-1
7.764531360E-1,1.070589945E-1,5.126581341E-2,2.760364413E-1
7.789409490E-1,1.059937328E-1,5.020054802E-2,2.749711871E-1
7.814287610E-1,1.027979404E-1,4.700475931E-2,2.728406489E-1
7.839165740E-1,9.427583218E-2,4.274370521E-2,2.685796022E-1
7.864043860E-1,8.362319320E-2,3.422159329E-2,2.643185556E-1
7.888921990E-1,6.977476925E-2,2.250369452E-2,2.611227632E-1
7.913800110E-1,5.379581451E-2,9.720530361E-3,2.579269707E-1
7.938678240E-1,3.568633273E-2,-6.258423906E-3,2.536658943E-1
7.963556360E-1,1.757685095E-2,-2.436790615E-2,2.494048476E-1
7.988434490E-1,-2.663159044E-3,-4.354264960E-2,2.419480085E-1
8.013312610E-1,-2.183790505E-2,-6.591318548E-2,2.334259003E-1
8.038190740E-1,-3.994738683E-2,-8.934898674E-2,2.227732539E-1
8.063068860E-1,-5.805686861E-2,-1.170458421E-1,2.110553533E-1
8.087946990E-1,-7.297056168E-2,-1.458079666E-1,1.972069293E-1
8.112825110E-1,-8.468846232E-2,-1.745700836E-1,1.822932363E-1
8.137703240E-1,-9.321057051E-2,-2.033322006E-1,1.663142890E-1
8.162581360E-1,-9.534109384E-2,-2.299637944E-1,1.514005959E-1
8.187459490E-1,-9.427583218E-2,-2.523343265E-1,1.375521719E-1
8.212337610E-1,-8.575372398E-2,-2.693785429E-1,1.237037405E-1
8.237215740E-1,-7.190529257E-2,-2.810964286E-1,1.109205782E-1
8.262093860E-1,-5.273054913E-2,-2.853575051E-1,1.002679393E-1
8.286971990E-1,-2.822948620E-2,-2.853575051E-1,9.174583107E-2
8.311850110E-1,-5.326318205E-4,-2.789659202E-1,8.641951531E-2
8.336728240E-1,2.929474972E-2,-2.672480047E-1,8.322372288E-2
8.361606360E-1,6.231792271E-2,-2.512690723E-1,8.322372288E-2
8.386484490E-1,9.747162461E-2,-2.320943177E-1,8.641951531E-2
8.411362610E-1,1.315600574E-1,-2.075932473E-1,8.961530030E-2
8.436240740E-1,1.656484902E-1,-1.798963994E-1,9.494162351E-2
8.461118860E-1,1.976063997E-1,-1.490037590E-1,9.813741595E-2
8.485996990E-1,2.242379934E-1,-1.170458421E-1,1.013332009E-1
8.510875110E-1,2.455432713E-1,-8.508793265E-2,1.013332009E-1
8.535753240E-1,2.593916953E-1,-5.526055023E-2,9.920267761E-2
8.560631360E-1,2.657832801E-1,-2.969422378E-2,9.494162351E-2
8.585509490E-1,2.615222335E-1,-1.051947847E-2,8.855003864E-2
8.610387610E-1,2.487390637E-1,2.263685223E-3,8.002793044E-2
8.635265740E-1,2.284990549E-1,7.590003312E-3,7.044056058E-2
8.660143860E-1,1.976063997E-1,7.590003312E-3,5.765739456E-2
8.685021990E-1,1.581916511E-1,1.331579551E-4,4.274370521E-2
8.709900110E-1,1.091895252E-1,-1.371526904E-2,2.676474862E-2
8.734778240E-1,5.273054913E-2,-3.182475269E-2,9.720530361E-3
8.759656360E-1,-1.118526794E-2,-5.739107728E-2,-9.454214945E-3
8.784534490E-1,-8.255793154E-2,-8.615319431E-2,-3.075948730E-2
8.809412610E-1,-1.571263820E-1,-1.191763729E-1,-5.099949613E-2
8.834290740E-1,-2.338253707E-1,-1.543300748E-1,-7.337003201E-2
8.859168860E-1,-3.115896285E-1,-1.937448233E-1,-9.361004084E-2
8.884046990E-1,-3.872233331E-1,-2.331595868E-1,-1.149153188E-1
8.908925110E-1,-4.585959911E-1,-2.736395895E-1,-1.362205893E-1
8.933803240E-1,-5.203812718E-1,-3.130543530E-1,-1.575258672E-1
8.958681360E-1,-5.757750273E-1,-3.492733240E-1,-1.788311303E-1
8.983559490E-1,-6.173202991E-1,-3.822965026E-1,-2.012016773E-1
9.008437610E-1,-6.439518929E-1,-4.078628123E-1,-2.257027328E-1
9.033315740E-1,-6.556697488E-1,-4.270375669E-1,-2.491385341E-1
9.058193860E-1,-6.514087319E-1,-4.366249442E-1,-2.747048736E-1
9.083071990E-1,-6.279729009E-1,-4.398207366E-1,-3.013364673E-1
9.107950110E-1,-5.864276290E-1,-4.344944060E-1,-3.279680312E-1
9.132828240E-1,-5.257076025E-1,-4.238417745E-1,-3.577954173E-1
9.157706360E-1,-4.490086138E-1,-4.067975581E-1,-3.865575492E-1
9.182584490E-1,-3.552654386E-1,-3.833617568E-1,-4.174501896E-1
9.207462610E-1,-2.476737946E-1,-3.535343707E-1,-4.462123215E-1
9.232340740E-1,-1.294295341E-1,-3.194459379E-1,-4.749744236E-1
9.257218860E-1,-3.728422802E-3,-2.789659202E-1,-5.005407333E-1
9.282096990E-1,1.251684725E-1,-2.352901101E-1,-5.250418186E-1
9.306975110E-1,2.530001104E-1,-1.873532385E-1,-5.442165732E-1
9.331853240E-1,3.787012100E-1,-1.383511126E-1,-5.612607598E-1
9.356731360E-1,4.969455004E-1,-9.041424841E-2,-5.729786754E-1
9.381609490E-1,6.066676378E-1,-4.354264960E-2,-5.804355145E-1
9.406487610E-1,7.046719193E-1,1.198421582E-3,-5.815007687E-1
9.431365740E-1,7.898929715E-1,3.954791278E-2,-5.804355145E-1
9.456243860E-1,8.602004051E-1,7.363634557E-2,-5.761744976E-1
9.481121990E-1,9.145288467E-1,1.002679393E-1,-5.687175989E-1
9.506000110E-1,9.518130422E-1,1.194426864E-1,-5.591302514E-1
9.530878240E-1,9.731183648E-1,1.290300637E-1,-5.484775901E-1
9.555756360E-1,9.763141274E-1,1.290300637E-1,-5.356944799E-1
9.580634490E-1,9.614004493E-1,1.205079481E-1,-5.207807422E-1
9.605512610E-1,9.305077791E-1,1.045289934E-1,-5.037365556E-1
9.630390740E-1,8.825709224E-1,7.896266878E-2,-4.845618010E-1
9.655268860E-1,8.197203875E-1,4.700475931E-2,-4.653870463E-1
9.680146990E-1,7.462171912E-1,1.078579482E-2,-4.440817833E-1
9.705025110E-1,6.620613337E-1,-2.969422378E-2,-4.206459820E-1
9.729903240E-1,5.715139508E-1,-7.123950869E-2,-3.972101808E-1
9.754781360E-1,4.767054915E-1,-1.149153188E-1,-3.727091253E-1
9.779659490E-1,3.797664940E-1,-1.585911214E-1,-3.471427858E-1
9.804537610E-1,2.817622423E-1,-2.043974549E-1,-3.215764761E-1
9.829415740E-1,1.858884990E-1,-2.480732650E-1,-2.970753908E-1
9.854293860E-1,9.427583218E-2,-2.906838059E-1,-2.757701278E-1
9.879171990E-1,6.924213842E-3,-3.322291076E-1,-2.533995807E-1
9.904050110E-1,-7.403582335E-2,-3.716438413E-1,-2.331595868E-1
9.928928240E-1,-1.454084814E-1,-4.067975581E-1,-2.129195631E-1
9.953806360E-1,-2.050632536E-1,-4.366249442E-1,-1.937448233E-1
9.978684490E-1,-2.540653646E-1,-4.621912539E-1,-1.745700836E-1
1.000356261E0,-2.913496196E-1,-4.792354703E-1,-1.564605981E-1
1.002844074E0,-3.158506751E-1,-4.909533858E-1,-1.383511126E-1
1.005331886E0,-3.275685608E-1,-4.962796867E-1,-1.223721579E-1
1.007819699E0,-3.286338449E-1,-4.930838943E-1,-1.063932031E-1
1.010307511E0,-3.169159293E-1,-4.824312627E-1,-9.147951752E-2
1.012795324E0,-2.956106663E-1,-4.643217921E-1,-7.656582445E-2
1.015283136E0,-2.625874877E-1,-4.408859909E-1,-6.165213138E-2
1.017770949E0,-2.210422009E-1,-4.131891429E-1,-4.780370742E-2
1.020258761E0,-1.699095517E-1,-3.812312186E-1,-3.715106845E-2
1.022746574E0,-1.113200486E-1,-3.482080400E-1,-2.756369673E-2
1.025234386E0,-4.314317927E-2,-3.119890988E-1,-2.117211558E-2
1.027722199E0,3.142527863E-2,-2.747048736E-1,-1.904158667E-2
1.030210011E0,1.123853177E-1,-2.374206334E-1,-1.904158667E-2
1.032697824E0,1.976063997E-1,-1.969406158E-1,-2.223737910E-2
1.035185636E0,2.870885432E-1,-1.575258672E-1,-2.756369673E-2
1.037673449E0,3.776359558E-1,-1.170458421E-1,-3.182475269E-2
1.040161261E0,4.703139067E-1,-7.656582445E-2,-3.715106845E-2
1.042649074E0,5.608612895E-1,-3.608580679E-2,-3.928159550E-2
1.045136886E0,6.482129097E-1,3.328948980E-3,-4.141212255E-2
1.047624699E0,7.291729450E-1,3.954791278E-2,-3.928159550E-2
1.050112511E0,8.016108871E-1,7.363634557E-2,-3.395527974E-2
1.052600324E0,8.633961678E-1,1.045289934E-1,-2.543316968E-2
1.055088136E0,9.123983383E-1,1.332911104E-1,-1.371526904E-2
1.057575949E0,9.464867711E-1,1.577921808E-1,-9.321057005E-4
1.060063761E0,9.667267799E-1,1.801627129E-1,1.504684892E-2
1.062551574E0,9.741836190E-1,1.972069293E-1,3.102580272E-2
1.065039386E0,9.677920341E-1,2.089248300E-1,4.807002097E-2
1.067527199E0,9.496825337E-1,2.153164148E-1,6.511423737E-2
1.070015011E0,9.198551774E-1,2.174469382E-1,8.215846121E-2
1.072502824E0,8.804404140E-1,2.163816839E-1,9.707214683E-2
1.074990636E0,8.314382434E-1,2.110553533E-1,1.098553166E-1
1.077478449E0,7.749792933E-1,2.025332451E-1,1.226384789E-1
1.079966261E0,7.121287584E-1,1.897500902E-1,1.322258562E-1
1.082454803E0,6.418213248E-1,1.748363972E-1,1.418132186E-1
1.084942720E0,5.704486966E-1,1.567269117E-1,1.492700726E-1
1.087430532E0,4.969455004E-1,1.364869028E-1,1.545963883E-1
1.089918345E0,4.255728126E-1,1.130511016E-1,1.599227041E-1
1.092406157E0,3.605917394E-1,8.748477697E-2,1.620532274E-1
1.094893970E0,3.030675054E-1,5.978792161E-2,1.631184965E-1
1.097381782E0,2.572611570E-1,3.102580272E-2,1.609879732E-1
1.099869595E0,2.253032625E-1,3.328948980E-3,1.588574350E-1
1.102357407E0,2.071937770E-1,-2.010685205E-2,1.535311192E-1
1.104845220E0,2.061285079E-1,-3.715106845E-2,1.471395344E-1
1.107333032E0,2.189116776E-1,-4.567318037E-2,1.396826953E-1
1.109820845E0,2.487390637E-1,-4.460791498E-2,1.332911104E-1
1.112308657E0,2.913496196E-1,-3.395527974E-2,1.279647946E-1
1.114796470E0,3.499391079E-1,-1.478053257E-2,1.237037405E-1
1.117284282E0,4.191812575E-1,1.185105834E-2,1.205079481E-1
1.119772095E0,5.001412630E-1,4.274370521E-2,1.183774248E-1
1.122259907E0,5.885581374E-1,7.683213800E-2,1.194426864E-1
1.124747720E0,6.823013425E-1,1.141163707E-1,1.194426864E-1
1.127235532E0,7.792403698E-1,1.535311192E-1,1.215732098E-1
1.129723345E0,8.751140833E-1,1.950764060E-1,1.247690022E-1
1.132211157E0,9.667267799E-1,2.366216928E-1,1.290300637E-1
1.134698970E0,1.051947832E0,2.792322338E-1,1.332911104E-1
1.137186782E0,1.128646851E0,3.218427896E-1,1.375521719E-1
1.139674595E0,1.195758462E0,3.644533157E-1,1.418132186E-1
1.142162407E0,1.251152158E0,4.028028250E-1,1.471395344E-1
1.144650220E0,1.292697430E0,4.379565120E-1,1.535311192E-1
1.147138032E0,1.321459532E0,4.688491523E-1,1.620532274E-1
1.149625845E0,1.335307956E0,4.954807460E-1,1.727058738E-1
1.152113657E0,1.335307956E0,5.167860389E-1,1.854890287E-1
1.154601470E0,1.320394278E0,5.327649713E-1,2.014679909E-1
1.157089282E0,1.291632175E0,5.444828868E-1,2.195774615E-1
1.159577095E0,1.247956395E0,5.498092175E-1,2.408827394E-1
1.162064907E0,1.190432072E0,5.498092175E-1,2.632532716E-1
1.164552720E0,1.121189952E0,5.476786494E-1,2.866890728E-1
1.167040532E0,1.041295171E0,5.412870646E-1,3.122554123E-1
1.169528345E0,9.496825337E-1,5.316997170E-1,3.367564678E-1
1.172016157E0,8.516782522E-1,5.178512931E-1,3.601922691E-1
1.174503970E0,7.462171912E-1,4.986765385E-1,3.857586086E-1
1.176991782E0,6.396908164E-1,4.741754830E-1,4.102596641E-1
1.179479595E0,5.320991874E-1,4.422175586E-1,4.326302111E-1
1.181967407E0,4.287686050E-1,4.049333334E-1,4.528702199E-1
1.184455220E0,3.307643533E-1,3.601922691E-1,4.688491523E-1
1.186943032E0,2.434127480E-1,3.079943359E-1,4.795017838E-1
1.189430845E0,1.688442826E-1,2.494048476E-1,4.816323221E-1
1.191918657E0,1.091895252E-1,1.897500902E-1,4.752407372E-1
1.194406470E0,6.764423847E-2,1.290300637E-1,4.635228515E-1
1.196894282E0,4.420844093E-2,7.363634557E-2,4.443480968E-1
1.199382095E0,3.994738683E-2,2.569948509E-2,4.198470414E-1
1.201869907E0,5.486107618E-2,-1.158474199E-2,3.910849094E-1
1.204357720E0,8.894951642E-2,-3.928159550E-2,3.569964767E-1
1.206845532E0,1.422126889E-1,-5.632581562E-2,3.186469972E-1
1.209333345E0,2.125200927E-1,-5.845634267E-2,2.792322338E-1
1.211821157E0,2.956106663E-1,-4.354264960E-2,2.376869470E-1
1.214308970E0,3.925496638E-1,-1.478053257E-2,1.982721984E-1
1.216796782E0,5.022718310E-1,1.398158539E-2,1.631184965E-1
1.219284595E0,6.226465702E-1,4.700475931E-2,1.375521719E-1
1.221772407E0,7.494129539E-1,9.387636185E-2,1.205079481E-1
1.224260220E0,8.761793375E-1,1.524658650E-1,1.119858399E-1
1.226748032E0,9.976193905E-1,2.195774615E-1,1.087900475E-1
1.229235845E0,1.112667918E0,2.845585644E-1,1.098553166E-1
1.231723657E0,1.215998411E0,3.463438451E-1,1.141163707E-1
1.234211470E0,1.305480599E0,4.006722867E-1,1.205079481E-1
1.236699282E0,1.377918482E0,4.475438893E-1,1.290300637E-1
1.239187095E0,1.432246923E0,4.869586527E-1,1.375521719E-1
1.241674907E0,1.468465924E0,5.178512931E-1,1.460742801E-1
1.244162720E0,1.486575365E0,5.380913019E-1,1.514005959E-1
1.246650532E0,1.488705993E0,5.466133952E-1,1.524658650E-1
1.249138345E0,1.473792195E0,5.444828868E-1,1.482048035E-1
1.251626157E0,1.443964839E0,5.295692086E-1,1.386174262E-1
1.254113970E0,1.399223804E0,5.040028691E-1,1.226384789E-1
1.256601782E0,1.340634346E0,4.699144363E-1,1.013332009E-1
1.259089595E0,1.269261599E0,4.262386262E-1,7.683213800E-2
1.261577407E0,1.189366817E0,3.761712313E-1,5.020054802E-2
1.264065220E0,1.105211020E0,3.197122514E-1,2.143843099E-2
1.266553032E0,1.018924713E0,2.600574791E-1,-1.158474199E-2
1.269040845E0,9.358341098E-1,1.993374527E-1,-4.673844203E-2
1.271528657E0,8.570045829E-1,1.396826953E-1,-8.508793265E-2
1.274016470E0,7.856319547E-1,8.641951531E-2,-1.245026886E-1
1.276504282E0,7.249119282E-1,3.954791278E-2,-1.660479754E-1
1.278992095E0,6.748445034E-1,1.331579551E-4,-2.086585164E-1
1.281479907E0,6.354297400E-1,-2.969422378E-2,-2.491385341E-1
1.283967720E0,6.077328920E-1,-4.993423447E-2,-2.874880135E-1
1.286455532E0,5.906887054E-1,-6.271740049E-2,-3.205111921E-1
1.288943345E0,5.853623748E-1,-6.697845459E-2,-3.482080400E-1
1.291431157E0,5.928192139E-1,-6.591318548E-2,-3.695133328E-1
1.293918970E0,6.098634601E-1,-5.739107728E-2,-3.844270110E-1
1.296406782E0,6.386255622E-1,-4.141212255E-2,-3.918838501E-1
1.298894595E0,6.748445034E-1,-2.010685205E-2,-3.929491341E-1
1.301382407E0,7.185203433E-1,4.394212738E-3,-3.865575492E-1
1.303870220E0,7.643266916E-1,2.783001214E-2,-3.759049177E-1
1.306358032E0,8.122635484E-1,5.126581341E-2,-3.599259555E-1
1.308845845E0,8.580698371E-1,7.470161468E-2,-3.396859467E-1
1.311333657E0,8.996151686E-1,9.600688517E-2,-3.162501454E-1
1.313821470E0,9.379646182E-1,1.151816323E-1,-2.917490900E-1
1.316309282E0,9.677920341E-1,1.332911104E-1,-2.672480047E-1
1.318797095E0,9.901625514E-1,1.471395344E-1,-2.448774725E-1
1.321284907E0,1.001880407E0,1.577921808E-1,-2.246374637E-1
1.323772720E0,1.001880407E0,1.652490199E-1,-2.065279931E-1
1.326260532E0,9.890972972E-1,1.695100814E-1,-1.894837767E-1
1.328748345E0,9.624657035E-1,1.705753356E-1,-1.735048145E-1
1.331236157E0,9.209204316E-1,1.652490199E-1,-1.585911214E-1
1.333723970E0,8.665919900E-1,1.545963883E-1,-1.426121742E-1
1.336211782E0,7.994803786E-1,1.375521719E-1,-1.245026886E-1
1.338699595E0,7.238466144E-1,1.151816323E-1,-1.095889956E-1
1.341187407E0,6.396908164E-1,9.174583107E-2,-9.361004084E-2
1.343675220E0,5.512739420E-1,6.511423737E-2,-7.869634777E-2
1.346163032E0,4.596612751E-1,4.061317816E-2,-6.484792382E-2
1.348650845E0,3.669833243E-1,1.930790395E-2,-5.099949613E-2
1.351138657E0,2.775011659E-1,1.198421582E-3,-3.608580679E-2
1.353626470E0,1.901495606E-1,-1.051947847E-2,-2.010685205E-2
1.356114282E0,1.070589945E-1,-1.797632314E-2,-1.997369342E-3
1.358602095E0,2.822948620E-2,-2.223737910E-2,1.717737690E-2
1.361089907E0,-4.420844093E-2,-2.223737910E-2,3.635212034E-2
1.363577720E0,-1.113200486E-1,-1.904158667E-2,5.659212917E-2
1.366065532E0,-1.709748209E-1,-1.478053257E-2,7.470161468E-2
1.368553345E0,-2.231727391E-1,-7.323687430E-3,9.174583107E-2
1.371041157E0,-2.668485343E-1,1.198421582E-3,1.077247858E-1
1.373528970E0,-2.998717129E-1,1.185105834E-2,1.226384789E-1
1.376016782E0,-3.233075142E-1,2.463422157E-2,1.364869028E-1
1.378504595E0,-3.392864764E-1,3.741738573E-2,1.492700726E-1
1.380992407E0,-3.467433155E-1,5.020054802E-2,1.599227041E-1
1.383480220E0,-3.456780612E-1,6.085318699E-2,1.695100814E-1
1.385968032E0,-3.382211924E-1,7.044056058E-2,1.759016514E-1
1.388455845E0,-3.243727684E-1,7.789740711E-2,1.812279820E-1
1.390943657E0,-3.062632978E-1,8.641951531E-2,1.854890287E-1
1.393431470E0,-2.838927507E-1,9.281109273E-2,1.876195520E-1
1.395919282E0,-2.604569495E-1,9.707214683E-2,1.854890287E-1
1.398407095E0,-2.338253707E-1,1.002679393E-1,1.812279820E-1
1.400894907E0,-2.071937770E-1,9.920267761E-2,1.716406047E-1
1.403382720E0,-1.805621833E-1,9.281109273E-2,1.577921808E-1
1.405870532E0,-1.549958587E-1,8.215846121E-2,1.396826953E-1
1.408358345E0,-1.304948032E-1,6.511423737E-2,1.183774248E-1
1.410846157E0,-1.059937328E-1,4.380896688E-2,9.281109273E-2
1.413333970E0,-8.255793154E-2,1.824264042E-2,6.511423737E-2
1.415821782E0,-5.805686861E-2,-5.193160381E-3,3.635212034E-2
1.418309595E0,-3.355580568E-2,-2.862896025E-2,8.655266836E-3
1.420797407E0,-6.924213842E-3,-4.886896908E-2,-1.584579609E-2
1.423285220E0,1.970737800E-2,-6.484792382E-2,-3.821633384E-2
1.425773032E0,4.740423337E-2,-7.869634777E-2,-5.739107728E-2
1.428260845E0,7.616634667E-2,-9.041424841E-2,-7.443529367E-2
1.430748657E0,1.059937328E-1,-1.000016257E-1,-9.041424841E-2
1.433236470E0,1.379516423E-1,-1.074584723E-1,-1.031974182E-1
1.435724282E0,1.667137593E-1,-1.127847880E-1,-1.149153188E-1
1.438212095E0,1.965411454E-1,-1.138500497E-1,-1.234374270E-1
1.440699907E0,2.221074700E-1,-1.117195264E-1,-1.298290044E-1
1.443187720E0,2.434127480E-1,-1.031974182E-1,-1.319595277E-1
1.445675532E0,2.604569495E-1,-9.147951752E-2,-1.308942735E-1
1.448163345E0,2.721748650E-1,-7.550056279E-2,-1.266332120E-1
1.450651157E0,2.775011659E-1,-5.632581562E-2,-1.202416345E-1
1.453138970E0,2.764359117E-1,-3.821633384E-2,-1.117195264E-1
1.455626782E0,2.689790726E-1,-2.010685205E-2,-1.010668874E-1
1.458114595E0,2.551306486E-1,-5.193160381E-3,-9.147951752E-2
1.460602407E0,2.327601016E-1,4.394212738E-3,-8.082687855E-2
1.463090220E0,2.018674612E-1,7.590003312E-3,-7.123950869E-2
1.465578032E0,1.613874435E-1,6.524739787E-3,-6.271740049E-2
1.468065845E0,1.134505793E-1,1.331579551E-4,-5.526055023E-2
1.470553657E0,5.912213027E-2,-1.158474199E-2,-5.099949613E-2
1.473041470E0,5.326318205E-4,-3.075948730E-2,-4.780370742E-2
1.475529282E0,-5.912213027E-2,-5.632581562E-2,-4.567318037E-2
1.478017095E0,-1.166463718E-1,-8.508793265E-2,-4.567318037E-2
1.480504907E0,-1.709748209E-1,-1.159805804E-1,-4.567318037E-2
1.482992720E0,-2.189116776E-1,-1.468732208E-1,-4.567318037E-2
1.485480532E0,-2.625874877E-1,-1.756353378E-1,-4.354264960E-2
1.487968345E0,-2.998717129E-1,-2.033322006E-1,-4.141212255E-2
1.490456157E0,-3.318296373E-1,-2.267680019E-1,-3.821633384E-2
1.492943970E0,-3.584612012E-1,-2.459427416E-1,-3.502054140E-2
1.495431782E0,-3.787012100E-1,-2.629869580E-1,-3.182475269E-2
1.497919595E0,-3.946801722E-1,-2.789659202E-1,-2.862896025E-2
1.500407407E0,-4.063980877E-1,-2.928143442E-1,-2.649843320E-2
1.502895220E0,-4.149201810E-1,-3.077280223E-1,-2.543316968E-2
1.505383032E0,-4.213117659E-1,-3.226417303E-1,-2.649843320E-2
1.507870845E0,-4.255728126E-1,-3.375554085E-1,-2.862896025E-2
1.510358657E0,-4.298338890E-1,-3.545996249E-1,-3.182475269E-2
1.512846470E0,-4.319643974E-1,-3.727091253E-1,-3.608580679E-2
1.515334230E0,-4.362254739E-1,-3.929491341E-1,-4.247738793E-2
1.517821990E0,-4.394212663E-1,-4.142543972E-1,-5.099949613E-2
1.520309751E0,-4.436823130E-1,-4.366249442E-1,-6.165213138E-2
1.522797511E0,-4.490086138E-1,-4.589954615E-1,-7.550056279E-2
1.525285272E0,-4.543349445E-1,-4.834965467E-1,-9.147951752E-2
1.527773032E0,-4.607265294E-1,-5.090628862E-1,-1.106542572E-1
1.530260793E0,-4.660528302E-1,-5.367597342E-1,-1.319595277E-1
1.532748553E0,-4.681833684E-1,-5.676523447E-1,-1.575258672E-1
1.535236313E0,-4.671181142E-1,-5.996102691E-1,-1.862879843E-1
1.537724074E0,-4.617917836E-1,-6.347639561E-1,-2.203764170E-1
1.540211834E0,-4.511391521E-1,-6.709829569E-1,-2.565953732E-1
1.542700220E0,-4.351601899E-1,-7.050713897E-1,-2.949448824E-1
1.545187980E0,-4.117243886E-1,-7.380945683E-1,-3.311638236E-1
1.547675740E0,-3.829622865E-1,-7.679219246E-1,-3.663175404E-1
1.550163501E0,-3.499391079E-1,-7.945535183E-1,-3.982754350E-1
1.552651261E0,-3.126548827E-1,-8.190546036E-1,-4.259723127E-1
1.555139022E0,-2.732401192E-1,-8.392946124E-1,-4.494080842E-1
1.557626782E0,-2.316948473E-1,-8.563387990E-1,-4.696480930E-1
1.560114543E0,-1.880190372E-1,-8.691219687E-1,-4.856270552E-1
1.562602303E0,-1.432779580E-1,-8.797746301E-1,-4.984102249E-1
1.565090063E0,-9.853688627E-2,-8.861662149E-1,-5.079975724E-1
1.567577824E0,-5.699160323E-2,-8.904272318E-1,-5.133239031E-1
1.570065584E0,-1.970737800E-2,-8.925577998E-1,-5.143891573E-1
1.572553345E0,9.054740891E-3,-8.914924860E-1,-5.090628862E-1
1.575041105E0,2.822948620E-2,-8.882967234E-1,-4.994754791E-1
1.577528865E0,3.675159439E-2,-8.829703927E-1,-4.856270552E-1
1.580016626E0,3.462106735E-2,-8.744482994E-1,-4.685828388E-1
1.582504386E0,2.077264152E-2,-8.627303839E-1,-4.483428299E-1
1.584992147E0,-5.858949851E-3,-8.488819599E-1,-4.259723127E-1
1.587479907E0,-4.633896798E-2,-8.350335360E-1,-4.014712274E-1
1.589967668E0,-9.853688627E-2,-8.211851120E-1,-3.748396337E-1
1.592455428E0,-1.635179669E-1,-8.115977645E-1,-3.460775316E-1
1.594943188E0,-2.412822098E-1,-8.052061796E-1,-3.151848912E-1
1.597430949E0,-3.286338449E-1,-8.020103574E-1,-2.832269669E-1
1.599918709E0,-4.234423041E-1,-7.998798490E-1,-2.480732650E-1
1.602406470E0,-5.257076025E-1,-8.009451032E-1,-2.097237855E-1
1.604894230E0,-6.322339773E-1,-8.020103574E-1,-1.703090221E-1
1.607381990E0,-7.366297841E-1,-8.062714338E-1,-1.298290044E-1
1.609869803E0,-8.388951421E-1,-8.115977645E-1,-9.041424841E-2
1.612357615E0,-9.347688556E-1,-8.169240355E-1,-5.313002318E-2
1.614845428E0,-1.021055222E0,-8.233156204E-1,-2.010685205E-2
1.617333240E0,-1.096688867E0,-8.297072053E-1,9.720530361E-3
1.619821053E0,-1.161669970E0,-8.382292986E-1,3.422159329E-2
1.622308865E0,-1.209606886E0,-8.467514515E-1,5.233107507E-2
1.624796678E0,-1.243695259E0,-8.552735448E-1,6.404897571E-2
1.627284490E0,-1.261804819E0,-8.627303839E-1,7.044056058E-2
1.629772303E0,-1.265000582E0,-8.701872230E-1,6.937529147E-2
1.632260115E0,-1.252217412E0,-8.787093163E-1,6.191844866E-2
1.634747928E0,-1.226651073E0,-8.861662149E-1,4.807002097E-2
1.637235740E0,-1.185105801E0,-8.957535625E-1,2.783001214E-2
1.639723553E0,-1.129712105E0,-9.021451473E-1,2.263685223E-3
1.642211365E0,-1.062600493E0,-9.085367322E-1,-2.649843320E-2
1.644699178E0,-9.848362207E-1,-9.127978086E-1,-5.739107728E-2
1.647186990E0,-8.974846005E-1,-9.159935713E-1,-9.041424841E-2
1.649674803E0,-8.048067093E-1,-9.159935713E-1,-1.223721579E-1
1.652162615E0,-7.078676820E-1,-9.127978086E-1,-1.521995366E-1
1.654650428E0,-6.077328920E-1,-9.042756557E-1,-1.767006069E-1
1.657138240E0,-5.086634159E-1,-8.882967234E-1,-1.969406158E-1
1.659626053E0,-4.127896726E-1,-8.648608923E-1,-2.097237855E-1
1.662113865E0,-3.211769760E-1,-8.360987902E-1,-2.171806246E-1
1.664601678E0,-2.380864173E-1,-8.020103574E-1,-2.203764170E-1
1.667089490E0,-1.635179669E-1,-7.647261620E-1,-2.203764170E-1
1.669577303E0,-1.017326787E-1,-7.263766527E-1,-2.203764170E-1
1.672065115E0,-5.486107618E-2,-6.880271435E-1,-2.193111479E-1
1.674552928E0,-2.290316857E-2,-6.507429481E-1,-2.193111479E-1
1.677040740E0,-1.012000442E-2,-6.177197695E-1,-2.203764170E-1
1.679528553E0,-1.651158556E-2,-5.878923535E-1,-2.225069404E-1
1.682016365E0,-3.888212144E-2,-5.644565821E-1,-2.246374637E-1
1.684504178E0,-8.255793154E-2,-5.452818274E-1,-2.225069404E-1
1.686991990E0,-1.400821656E-1,-5.324986577E-1,-2.193111479E-1
1.689479803E0,-2.135853618E-1,-5.261070728E-1,-2.139848322E-1
1.691967615E0,-2.988064587E-1,-5.271723270E-1,-2.054627240E-1
1.694455428E0,-3.925496638E-1,-5.335639119E-1,-1.948100924E-1
1.696943240E0,-4.926844239E-1,-5.463470817E-1,-1.820269227E-1
1.699431053E0,-5.949497223E-1,-5.633913279E-1,-1.681784987E-1
1.701918865E0,-6.972150803E-1,-5.857618451E-1,-1.553953290E-1
1.704406678E0,-7.952193022E-1,-6.091976166E-1,-1.415469050E-1
1.706894490E0,-8.868319988E-1,-6.336987019E-1,-1.308942735E-1
1.709382303E0,-9.699225426E-1,-6.571345329E-1,-1.223721579E-1
1.711870115E0,-1.041295171E0,-6.763092279E-1,-1.170458421E-1
1.714357928E0,-1.099884748E0,-6.933534741E-1,-1.138500497E-1
1.716845740E0,-1.143560529E0,-7.072018981E-1,-1.149153188E-1
1.719333553E0,-1.170192122E0,-7.157239914E-1,-1.191763729E-1
1.721821365E0,-1.179779530E0,-7.210503221E-1,-1.266332120E-1
1.724309178E0,-1.170192122E0,-7.221155763E-1,-1.372858584E-1
1.726796990E0,-1.142495275E0,-7.189198136E-1,-1.500690132E-1
1.729284803E0,-1.095623612E0,-7.135934830E-1,-1.628521830E-1
1.731772615E0,-1.029577255E0,-7.072018981E-1,-1.767006069E-1
1.734260428E0,-9.475520253E-1,-7.040061355E-1,-1.905490309E-1
1.736748240E0,-8.495477438E-1,-7.018755674E-1,-2.065279931E-1
1.739236053E0,-7.387603521E-1,-7.029408216E-1,-2.246374637E-1
1.741723865E0,-6.194508076E-1,-7.061366439E-1,-2.427469492E-1
1.744211678E0,-4.937497079E-1,-7.082671523E-1,-2.640522122E-1
1.746699490E0,-3.648527861E-1,-7.103977203E-1,-2.842922211E-1
1.749187303E0,-2.370211631E-1,-7.103977203E-1,-3.066627681E-1
1.751675115E0,-1.123853177E-1,-7.072018981E-1,-3.279680312E-1
1.754162928E0,5.858949851E-3,-6.997450590E-1,-3.482080400E-1
1.756650740E0,1.134505793E-1,-6.901576519E-1,-3.631217480E-1
1.759138553E0,2.093243003E-1,-6.752439737E-1,-3.748396337E-1
1.761626365E0,2.902843356E-1,-6.603302956E-1,-3.801659644E-1
1.764114178E0,3.552654386E-1,-6.443513632E-1,-3.801659644E-1
1.766601990E0,4.032022953E-1,-6.294376254E-1,-3.759049177E-1
1.769089803E0,4.330296814E-1,-6.187850237E-1,-3.684480488E-1
1.771577615E0,4.447475672E-1,-6.091976166E-1,-3.577954173E-1
1.774065428E0,4.394212663E-1,-6.049365997E-1,-3.460775316E-1
1.776553240E0,4.191812575E-1,-6.028060913E-1,-3.332943618E-1
1.779041053E0,3.850927949E-1,-6.038713455E-1,-3.215764761E-1
1.781528865E0,3.414169848E-1,-6.060018539E-1,-3.087933064E-1
1.784016678E0,2.881538272E-1,-6.113281846E-1,-2.938795984E-1
1.786504490E0,2.263685167E-1,-6.166545153E-1,-2.757701278E-1
1.788992303E0,1.560611278E-1,-6.251766086E-1,-2.555301189E-1
1.791480115E0,8.042740822E-2,-6.347639561E-1,-2.331595868E-1
1.793967928E0,-2.663159044E-3,-6.475471258E-1,-2.097237855E-1
1.796455740E0,-9.001477808E-2,-6.613955498E-1,-1.852227151E-1
1.798943553E0,-1.794969290E-1,-6.773745418E-1,-1.596563905E-1
1.801431365E0,-2.711096108E-1,-6.944187284E-1,-1.340900660E-1
1.803919178E0,-3.605917394E-1,-7.103977203E-1,-1.074584723E-1
1.806406990E0,-4.447475672E-1,-7.231808305E-1,-8.295740932E-2
1.808894803E0,-5.246423483E-1,-7.348987460E-1,-5.845634267E-2
1.811382615E0,-5.949497223E-1,-7.434208393E-1,-3.502054140E-2
1.813870428E0,-6.556697488E-1,-7.508777380E-1,-1.478053257E-2
1.816358240E0,-7.046719193E-1,-7.572692633E-1,2.263685223E-3
1.818846053E0,-7.398256063E-1,-7.647261620E-1,1.504684892E-2
1.821333865E0,-7.600656152E-1,-7.721830010E-1,2.356895804E-2
1.823821678E0,-7.643266916E-1,-7.828356028E-1,2.569948509E-2
1.826309490E0,-7.526087761E-1,-7.956187725E-1,2.143843099E-2
1.828797303E0,-7.238466144E-1,-8.105324507E-1,8.655266836E-3
1.831285115E0,-6.780403256E-1,-8.286419511E-1,-1.051947847E-2
1.833772928E0,-6.162550449E-1,-8.456861973E-1,-3.715106845E-2
1.836260740E0,-5.374255180E-1,-8.605998755E-1,-6.804371625E-2
1.838748553E0,-4.436823130E-1,-8.701872230E-1,-1.031974182E-1
1.841236365E0,-3.339601457E-1,-8.723177910E-1,-1.383511126E-1
1.843724178E0,-2.082590461E-1,-8.627303839E-1,-1.735048145E-1
1.846211990E0,-6.764423847E-2,-8.414251208E-1,-2.054627240E-1
1.848699803E0,8.468846232E-2,-8.062714338E-1,-2.320943177E-1
1.851187615E0,2.487390637E-1,-7.593998313E-1,-2.533995807E-1
1.853675428E0,4.191812575E-1,-6.986798048E-1,-2.651174963E-1
1.856163240E0,5.917539597E-1,-6.305029392E-1,-2.704437971E-1
1.858651053E0,7.632613778E-1,-5.569997430E-1,-2.672480047E-1
1.861138865E0,9.283772707E-1,-4.824312627E-1,-2.565953732E-1
1.863626678E0,1.081775188E0,-4.089280665E-1,-2.395511568E-1
1.866114490E0,1.221324801E0,-3.386206925E-1,-2.161153555E-1
1.868602303E0,1.341699600E0,-2.725743353E-1,-1.894837767E-1
1.871090115E0,1.438638568E0,-2.139848322E-1,-1.575258672E-1
1.873577928E0,1.506815434E0,-1.639174372E-1,-1.234374270E-1
1.876065740E0,1.544099689E0,-1.234374270E-1,-8.828372508E-2
1.878553553E0,1.549425960E0,-9.361004084E-2,-5.313002318E-2
1.881041365E0,1.520663857E0,-7.550056279E-2,-1.797632314E-2
1.883529178E0,1.458878517E0,-7.017423958E-2,1.504684892E-2
1.886016990E0,1.366200566E0,-7.656582445E-2,4.700475931E-2
1.888504803E0,1.244760513E0,-9.467530251E-2,7.576687634E-2
1.890992615E0,1.097754240E0,-1.255679578E-1,1.023984700E-1
1.893480428E0,9.305077791E-1,-1.660479754E-1,1.247690022E-1
1.895968240E0,7.451519370E-1,-2.171806246E-1,1.428784877E-1
1.898456053E0,5.502086878E-1,-2.747048736E-1,1.545963883E-1
1.900943865E0,3.499391079E-1,-3.375554085E-1,1.599227041E-1
1.903431678E0,1.528653353E-1,-4.025365114E-1,1.599227041E-1
1.905919490E0,-3.568633273E-2,-4.675175846E-1,1.556616426E-1
1.908407303E0,-2.103895694E-1,-5.303681493E-1,1.450090110E-1
1.910895115E0,-3.659180701E-1,-5.921534300E-1,1.311605871E-1
1.913382928E0,-5.012065172E-1,-6.496776342E-1,1.141163707E-1
1.915870740E0,-6.087981462E-1,-7.029408216E-1,9.387636185E-2
1.918358553E0,-6.886929274E-1,-7.487471700E-1,7.257108390E-2
1.920846365E0,-7.398256063E-1,-7.870966792E-1,5.126581341E-2
1.923334178E0,-7.568697929E-1,-8.158587813E-1,3.102580272E-2
1.925821990E0,-7.398256063E-1,-8.350335360E-1,1.078579482E-2
1.928309803E0,-6.897581816E-1,-8.435556293E-1,-1.051947847E-2
1.930797615E0,-6.066676378E-1,-8.382292986E-1,-3.289001435E-2
1.933285428E0,-4.926844239E-1,-8.179892898E-1,-5.739107728E-2
1.935773240E0,-3.510043621E-1,-7.849661708E-1,-8.189214021E-2
1.938261053E0,-1.848232448E-1,-7.380945683E-1,-1.074584723E-1
1.940748865E0,3.728422802E-3,-6.784397960E-1,-1.308942735E-1
1.943236678E0,2.114548385E-1,-6.081323624E-1,-1.532648057E-1
1.945724490E0,4.330296814E-1,-5.303681493E-1,-1.713742912E-1
1.948212303E0,6.641919017E-1,-4.451470375E-1,-1.862879843E-1
1.950700115E0,8.996151686E-1,-3.567301631E-1,-1.969406158E-1
1.953187928E0,1.129712105E0,-2.683132887E-1,-2.022669315E-1
1.955675740E0,1.347025871E0,-1.841574460E-1,-2.043974549E-1
1.958163553E0,1.540903807E0,-1.095889956E-1,-2.012016773E-1
1.960651365E0,1.700693369E0,-4.673844203E-2,-1.937448233E-1
1.963139178E0,1.821068168E0,3.328948980E-3,-1.830921918E-1
1.965626990E0,1.894571424E0,3.741738573E-2,-1.681784987E-1
1.968114803E0,1.920137763E0,5.552686751E-2,-1.500690132E-1
1.970602615E0,1.896701932E0,5.659212917E-2,-1.308942735E-1
1.973090428E0,1.825329304E0,4.167843983E-2,-1.095889956E-1
1.975578240E0,1.708150268E0,1.185105834E-2,-8.934898674E-2
1.978066053E0,1.550491214E0,-3.289001435E-2,-6.910897791E-2
1.980553865E0,1.356613278E0,-9.041424841E-2,-4.780370742E-2
1.983041678E0,1.131842613E0,-1.607216448E-1,-2.756369673E-2
1.985529490E0,8.825709224E-1,-2.395511568E-1,-7.323687430E-3
1.988017303E0,6.162550449E-1,-3.258375227E-1,1.291632187E-2
1.990505115E0,3.414169848E-1,-4.174501896E-1,3.209106624E-2
1.992992928E0,6.657897681E-2,-5.090628862E-1,5.020054802E-2
1.995480740E0,-1.976063997E-1,-5.996102691E-1,6.404897571E-2
1.997968553E0,-4.436823130E-1,-6.848313808E-1,7.363634557E-2
2.000456365E0,-6.652571559E-1,-7.604650855E-1,7.896266878E-2
2.002944178E0,-8.538088202E-1,-8.201198578E-1,8.002793044E-2
2.005431990E0,-1.007206798E0,-8.627303839E-1,7.789740711E-2
2.007919803E0,-1.119059443E0,-8.861662149E-1,7.257108390E-2
2.010407615E0,-1.191497326E0,-8.904272318E-1,6.617950648E-2
2.012895428E0,-1.222390056E0,-8.787093163E-1,5.872265995E-2
2.015383240E0,-1.211737394E0,-8.531430364E-1,5.020054802E-2
2.017871053E0,-1.162735224E0,-8.211851120E-1,3.635212034E-2
2.020358865E0,-1.089232087E0,-7.359640002E-1,1.185105834E-2
2.022846678E0,-1.008272052E0,-6.123934388E-1,-1.371526904E-2
2.025334490E0,-9.155941010E-1,-5.026713014E-1,-3.395527974E-2
2.027822303E0,-7.994803786E-1,-4.238417745E-1,-5.206476152E-2
2.030310115E0,-6.524739861E-1,-3.663175404E-1,-6.804371625E-2
2.032797928E0,-4.745749533E-1,-3.183806837E-1,-8.082687855E-2
2.035285740E0,-2.721748650E-1,-2.736395895E-1,-8.721846342E-2
2.037773553E0,-5.592634156E-2,-2.278332561E-1,-8.828372508E-2
2.040261365E0,1.677790284E-1,-1.798963994E-1,-8.828372508E-2
2.042749178E0,3.936149180E-1,-1.287637353E-1,-8.828372508E-2
2.045236990E0,6.130592227E-1,-7.763108611E-2,-9.041424841E-2
2.047724803E0,8.218508959E-1,-2.756369673E-2,-9.467530251E-2
2.050212615E0,1.014663577E0,2.143843099E-2,-1.031974182E-1
2.052700428E0,1.190432072E0,6.617950648E-2,-1.149153188E-1
2.055188240E0,1.347025871E0,1.066595241E-1,-1.287637353E-1
2.057676053E0,1.482314348E0,1.407479644E-1,-1.447426975E-1
2.060163865E0,1.594166994E0,1.673795432E-1,-1.607216448E-1
2.062651678E0,1.680453420E0,1.854890287E-1,-1.735048145E-1
2.065139490E0,1.739042878E0,1.950764060E-1,-1.841574460E-1
2.067627303E0,1.768870234E0,1.982721984E-1,-1.926795542E-1
2.070115115E0,1.766739726E0,1.940111369E-1,-1.969406158E-1
2.072602928E0,1.734781861E0,1.833585054E-1,-1.980058849E-1
2.075090740E0,1.671931267E0,1.663142890E-1,-1.990711391E-1
2.077578553E0,1.580318570E0,1.450090110E-1,-2.012016773E-1
2.080066365E0,1.461009026E0,1.215732098E-1,-2.022669315E-1
2.082554178E0,1.319329023E0,9.387636185E-2,-2.065279931E-1
2.085041990E0,1.159539461E0,6.724476814E-2,-2.118543088E-1
2.087529803E0,9.869667888E-1,3.848264739E-2,-2.171806246E-1
2.090017615E0,8.058719635E-1,8.655266836E-3,-2.235722095E-1
2.092505428E0,6.237118840E-1,-2.223737910E-2,-2.288985252E-1
2.094993240E0,4.447475672E-1,-5.313002318E-2,-2.363553643E-1
2.097481053E0,2.764359117E-1,-8.295740932E-2,-2.448774725E-1
2.099968865E0,1.219726875E-1,-1.106542572E-1,-2.512690723E-1
2.102457147E0,-1.331579592E-2,-1.340900660E-1,-2.555301189E-1
2.104944907E0,-1.294295341E-1,-1.511342824E-1,-2.576606572E-1
2.107432668E0,-2.242379934E-1,-1.617869139E-1,-2.555301189E-1
2.109920428E0,-2.966759205E-1,-1.660479754E-1,-2.502037883E-1
2.112408188E0,-3.488738537E-1,-1.628521830E-1,-2.416816950E-1
2.114895949E0,-3.787012100E-1,-1.543300748E-1,-2.310290486E-1
2.117383709E0,-3.882885873E-1,-1.415469050E-1,-2.193111479E-1
2.119871470E0,-3.787012100E-1,-1.255679578E-1,-2.054627240E-1
2.122359230E0,-3.531349003E-1,-1.053279415E-1,-1.916143000E-1
2.124846990E0,-3.147853911E-1,-8.295740932E-2,-1.767006069E-1
2.127334751E0,-2.668485343E-1,-5.739107728E-2,-1.607216448E-1
2.129822511E0,-2.146506310E-1,-2.756369673E-2,-1.426121742E-1
2.132310272E0,-1.624527127E-1,3.328948980E-3,-1.234374270E-1
2.134798032E0,-1.134505793E-1,3.848264739E-2,-1.021321490E-1
2.137285793E0,-7.084003091E-2,7.363634557E-2,-7.869634777E-2
2.139773553E0,-3.355580568E-2,1.066595241E-1,-5.419528857E-2
2.142261313E0,-5.858949851E-3,1.354216337E-1,-3.182475269E-2
2.144749074E0,1.012000442E-2,1.609879732E-1,-1.051947847E-2
2.147236834E0,1.544632297E-2,1.801627129E-1,8.655266836E-3
2.149724595E0,1.012000442E-2,1.940111369E-1,2.783001214E-2
2.152212355E0,-5.858949851E-3,2.014679909E-1,4.700475931E-2
2.154700115E0,-2.929474972E-2,2.014679909E-1,6.617950648E-2
2.157187876E0,-5.699160323E-2,1.982721984E-1,8.641951531E-2
2.159675636E0,-8.681898564E-2,1.908153445E-1,1.077247858E-1
2.162163397E0,-1.155811027E-1,1.844237745E-1,1.300953180E-1
2.164651157E0,-1.443432271E-1,1.790974438E-1,1.535311192E-1
2.167138918E0,-1.720400751E-1,1.759016514E-1,1.790974438E-1
2.169626678E0,-2.008021921E-1,1.769669205E-1,2.046637833E-1
2.172114438E0,-2.306295782E-1,1.801627129E-1,2.291648388E-1
2.174602251E0,-2.625874877E-1,1.865542978E-1,2.547311783E-1
2.177090063E0,-2.966759205E-1,1.950764060E-1,2.781669796E-1
2.179577876E0,-3.296990991E-1,2.046637833E-1,3.016027808E-1
2.182065688E0,-3.627222776E-1,2.153164148E-1,3.250385821E-1
2.184553501E0,-3.925496638E-1,2.259690464E-1,3.452785909E-1
2.187041313E0,-4.181159735E-1,2.344911546E-1,3.633880615E-1
2.189529126E0,-4.394212663E-1,2.430132627E-1,3.793670237E-1
2.192016938E0,-4.554001987E-1,2.515353858E-1,3.932154477E-1
2.194504751E0,-4.660528302E-1,2.589922249E-1,4.049333334E-1
2.196992563E0,-4.724444151E-1,2.675143182E-1,4.155859649E-1
2.199480376E0,-4.735096991E-1,2.771016955E-1,4.262386262E-1
2.201968188E0,-4.681833684E-1,2.888196111E-1,4.379565120E-1
2.204456001E0,-4.596612751E-1,3.005374968E-1,4.507396817E-1
2.206943813E0,-4.458128214E-1,3.143859208E-1,4.635228515E-1
2.209431626E0,-4.277033508E-1,3.282343447E-1,4.773712754E-1
2.211919438E0,-4.063980877E-1,3.420827985E-1,4.922849536E-1
2.214407251E0,-3.840275407E-1,3.548659384E-1,5.071986318E-1
2.216895063E0,-3.595264852E-1,3.644533157E-1,5.210470557E-1
2.219382876E0,-3.339601457E-1,3.740406930E-1,5.348954797E-1
2.221870688E0,-3.094590902E-1,3.804322779E-1,5.498092175E-1
2.224358501E0,-2.838927507E-1,3.857586086E-1,5.615270734E-1
2.226846313E0,-2.561959028E-1,3.900196552E-1,5.711144805E-1
2.229334126E0,-2.295643091E-1,3.932154477E-1,5.785713196E-1
2.231821938E0,-2.029327303E-1,3.964112401E-1,5.807018280E-1
2.234309751E0,-1.794969290E-1,3.996070325E-1,5.796365738E-1
2.236797563E0,-1.581916511E-1,4.028028250E-1,5.753754973E-1
2.239285376E0,-1.432779580E-1,4.070638716E-1,5.679186583E-1
2.241773188E0,-1.294295341E-1,4.134554565E-1,5.604618192E-1
2.244261001E0,-1.198421568E-1,4.198470414E-1,5.540702343E-1
2.246748813E0,-1.113200486E-1,4.283691347E-1,5.487439036E-1
2.249236626E0,-1.027979404E-1,4.368912578E-1,5.455481410E-1
2.251724438E0,-9.427583218E-2,4.486091435E-1,5.423523784E-1
2.254212251E0,-8.575372398E-2,4.635228515E-1,5.391565561E-1
2.256700063E0,-7.723161578E-2,4.795017838E-1,5.327649713E-1
2.259187876E0,-7.084003091E-2,4.986765385E-1,5.263733864E-1
2.261675688E0,-6.657897681E-2,5.178512931E-1,5.199818015E-1
2.264163501E0,-6.444845349E-2,5.391565561E-1,5.125249624E-1
2.266651313E0,-6.551371515E-2,5.615270734E-1,5.050681233E-1
2.269139126E0,-7.190529257E-2,5.828323960E-1,4.976112843E-1
2.271626938E0,-8.042740822E-2,6.020070910E-1,4.912196994E-1
2.274114751E0,-9.427583218E-2,6.190513372E-1,4.848281145E-1
2.276602563E0,-1.123853177E-1,6.350302696E-1,4.805670679E-1
2.279090376E0,-1.336905807E-1,6.478134394E-1,4.773712754E-1
2.281578188E0,-1.603221744E-1,6.563355327E-1,4.763059914E-1
2.284066001E0,-1.922800839E-1,6.627271175E-1,4.773712754E-1
2.286553813E0,-2.274337858E-1,6.669881940E-1,4.784365296E-1
2.289041626E0,-2.657832801E-1,6.691187024E-1,4.816323221E-1
2.291529438E0,-3.062632978E-1,6.691187024E-1,4.848281145E-1
2.294017251E0,-3.488738537E-1,6.680534482E-1,4.890891612E-1
2.296505063E0,-3.914843798E-1,6.659229398E-1,4.922849536E-1
2.298992876E0,-4.330296814E-1,6.637924314E-1,4.965460002E-1
2.301480688E0,-4.735096991E-1,6.637924314E-1,4.986765385E-1
2.303968501E0,-5.097286701E-1,6.637924314E-1,5.040028691E-1
2.306456313E0,-5.406212807E-1,6.659229398E-1,5.093291998E-1
2.308944126E0,-5.651223660E-1,6.691187024E-1,5.135902166E-1
2.311431938E0,-5.821665525E-1,6.712492704E-1,5.167860389E-1
2.313919751E0,-5.917539597E-1,6.733797789E-1,5.167860389E-1
2.316407563E0,-5.928192139E-1,6.765755415E-1,5.146554708E-1
2.318895376E0,-5.842971206E-1,6.808366179E-1,5.071986318E-1
2.321383188E0,-5.661876202E-1,6.882934570E-1,4.986765385E-1
2.323871001E0,-5.384907722E-1,6.989461184E-1,4.858933687E-1
2.326358813E0,-5.022718310E-1,7.127945423E-1,4.731102288E-1
2.328846626E0,-4.564654827E-1,7.340998054E-1,4.560659826E-1
2.331334438E0,-4.021370113E-1,7.596661448E-1,4.411523044E-1
2.333822251E0,-3.414169848E-1,7.905587554E-1,4.262386262E-1
2.336310063E0,-2.775011659E-1,8.278430104E-1,4.134554565E-1
2.338797876E0,-2.093243003E-1,8.693882823E-1,4.038680792E-1
2.341285688E0,-1.422126889E-1,9.151946306E-1,3.985417485E-1
2.343773501E0,-7.723161578E-2,9.610009789E-1,3.932154477E-1
2.346261313E0,-1.651158556E-2,1.004676819E0,3.921501637E-1
2.348749126E0,3.568633273E-2,1.044091582E0,3.910849094E-1
2.351236938E0,7.723161578E-2,1.079245210E0,3.921501637E-1
2.353724751E0,1.081242561E-1,1.106942058E0,3.942807019E-1
2.356212563E0,1.262337416E-1,1.129312634E0,3.964112401E-1
2.358700376E0,1.283642650E-1,1.145291567E0,3.974764943E-1
2.361188188E0,1.155811027E-1,1.153813720E0,4.006722867E-1
2.363676001E0,9.001477808E-2,1.155944228E0,4.017375410E-1
2.366163813E0,5.273054913E-2,1.151683211E0,4.038680792E-1
2.368651626E0,6.924213842E-3,1.143161058E0,4.038680792E-1
2.371139438E0,-4.527370632E-2,1.131443143E0,4.059986174E-1
2.373627251E0,-9.960214794E-2,1.117594719E0,4.081291258E-1
2.376115063E0,-1.549958587E-1,1.104811549E0,4.113249183E-1
2.378602876E0,-2.071937770E-1,1.094158888E0,4.166512489E-1
2.381090688E0,-2.572611570E-1,1.086702108E0,4.241080880E-1
2.383578501E0,-3.041327596E-1,1.081375718E0,4.315649271E-1
2.386066313E0,-3.467433155E-1,1.080310464E0,4.390217662E-1
2.388554126E0,-3.850927949E-1,1.079245210E0,4.464786351E-1
2.391041938E0,-4.181159735E-1,1.080310464E0,4.507396817E-1
2.393529751E0,-4.436823130E-1,1.081375718E0,4.528702199E-1
2.396017563E0,-4.628570378E-1,1.082440972E0,4.518049359E-1
2.398505376E0,-4.756402075E-1,1.083506227E0,4.464786351E-1
2.400993188E0,-4.799012840E-1,1.083506227E0,4.390217662E-1
2.403481001E0,-4.777707458E-1,1.084571600E0,4.294344187E-1
2.405968813E0,-4.692486227E-1,1.084571600E0,4.187817574E-1
2.408456626E0,-4.543349445E-1,1.084571600E0,4.081291258E-1
2.410944438E0,-4.340949357E-1,1.084571600E0,3.974764943E-1
2.413432251E0,-4.095938802E-1,1.084571600E0,3.878891170E-1
2.415920063E0,-3.818970025E-1,1.086702108E0,3.793670237E-1
2.418407876E0,-3.520696461E-1,1.087767363E0,3.740406930E-1
2.420895688E0,-3.211769760E-1,1.088832617E0,3.708449006E-1
2.423383501E0,-2.892190814E-1,1.092028379E0,3.719101548E-1
2.425871313E0,-2.593916953E-1,1.095224142E0,3.751059473E-1
2.428359126E0,-2.306295782E-1,1.097354650E0,3.793670237E-1
2.430846938E0,-2.039979845E-1,1.099485278E0,3.846933246E-1
2.433334751E0,-1.816274524E-1,1.099485278E0,3.910849094E-1
2.435822563E0,-1.635179669E-1,1.096289396E0,3.985417485E-1
2.438310376E0,-1.496695429E-1,1.089897871E0,4.049333334E-1
2.440798188E0,-1.390169114E-1,1.081375718E0,4.102596641E-1
2.443286001E0,-1.336905807E-1,1.070723176E0,4.166512489E-1
2.445773813E0,-1.315600574E-1,1.057940006E0,4.230428338E-1
2.448261626E0,-1.326253265E-1,1.047287345E0,4.294344187E-1
2.450749438E0,-1.358211190E-1,1.037699938E0,4.347607195E-1
2.453237251E0,-1.422126889E-1,1.028112531E0,4.400870502E-1
2.455725063E0,-1.507348120E-1,1.020655751E0,4.422175586E-1
2.458212876E0,-1.613874435E-1,1.014264107E0,4.422175586E-1
2.460700688E0,-1.731053442E-1,1.005742073E0,4.390217662E-1
2.463188501E0,-1.848232448E-1,9.982851744E-1,4.336954653E-1
2.465676313E0,-1.965411454E-1,9.886978269E-1,4.251733422E-1
2.468164126E0,-2.082590461E-1,9.780451655E-1,4.134554565E-1
2.470651938E0,-2.189116776E-1,9.663273096E-1,4.017375410E-1
2.473139751E0,-2.284990549E-1,9.524788260E-1,3.868238628E-1
2.475627563E0,-2.359558940E-1,9.386304021E-1,3.697796464E-1
2.478115376E0,-2.423474789E-1,9.226514697E-1,3.548659384E-1
2.480603188E0,-2.444780022E-1,9.066725373E-1,3.367564678E-1
2.483091001E0,-2.444780022E-1,8.885630369E-1,3.186469972E-1
2.485578813E0,-2.402169555E-1,8.704535365E-1,2.994722426E-1
2.488066626E0,-2.338253707E-1,8.512787819E-1,2.792322338E-1
2.490554438E0,-2.221074700E-1,8.342345953E-1,2.579269707E-1
2.493042251E0,-2.082590461E-1,8.161250949E-1,2.366216928E-1
2.495530063E0,-1.922800839E-1,8.001461625E-1,2.153164148E-1
2.498017876E0,-1.763011366E-1,7.852324843E-1,1.929458827E-1
2.500505688E0,-1.592569202E-1,7.703187466E-1,1.695100814E-1
2.502993501E0,-1.432779580E-1,7.575356364E-1,1.460742801E-1
2.505481313E0,-1.294295341E-1,7.436871529E-1,1.237037405E-1
2.507969126E0,-1.166463718E-1,7.330345511E-1,1.013332009E-1
2.510456938E0,-1.081242561E-1,7.223818898E-1,8.109319210E-2
2.512944751E0,-1.017326787E-1,7.117292881E-1,6.191844866E-2
2.515432563E0,-9.960214794E-2,7.032071352E-1,4.487423226E-2
2.517920376E0,-9.960214794E-2,6.957502961E-1,2.889527567E-2
2.520408188E0,-1.038632020E-1,6.893587112E-1,1.291632187E-2
2.522896001E0,-1.123853177E-1,6.840324402E-1,-9.321057005E-4
2.525383813E0,-1.241032109E-1,6.797713637E-1,-1.265000552E-2
2.527871626E0,-1.400821656E-1,6.787061095E-1,-2.330264263E-2
2.530359438E0,-1.592569202E-1,6.797713637E-1,-3.182475269E-2
2.532847251E0,-1.816274524E-1,6.808366179E-1,-3.928159550E-2
2.535335063E0,-2.071937770E-1,6.829671264E-1,-4.567318037E-2
2.537822876E0,-2.359558940E-1,6.861629486E-1,-5.313002318E-2
2.540310688E0,-2.668485343E-1,6.882934570E-1,-5.952160433E-2
2.542798501E0,-2.977411747E-1,6.893587112E-1,-6.697845459E-2
2.545286313E0,-3.328948915E-1,6.893587112E-1,-7.550056279E-2
2.547774126E0,-3.691138625E-1,6.882934570E-1,-8.721846342E-2
2.550261938E0,-4.074633420E-1,6.861629486E-1,-1.000016257E-1
2.552749751E0,-4.458128214E-1,6.840324402E-1,-1.138500497E-1
2.555237563E0,-4.852275848E-1,6.808366179E-1,-1.266332120E-1
2.557725376E0,-5.235770941E-1,6.797713637E-1,-1.394163817E-1
2.560213188E0,-5.629918575E-1,6.776408553E-1,-1.521995366E-1
2.562701470E0,-6.002760530E-1,6.765755415E-1,-1.628521830E-1
2.565189126E0,-6.364950538E-1,6.744450331E-1,-1.724395454E-1
2.567676782E0,-6.716487408E-1,6.723145247E-1,-1.788311303E-1
2.570164438E0,-7.036066055E-1,6.712492704E-1,-1.820269227E-1
2.572652095E0,-7.334340215E-1,6.712492704E-1,-1.820269227E-1
2.575139751E0,-7.611308694E-1,6.733797789E-1,-1.777658761E-1
2.577627407E0,-7.866972089E-1,6.765755415E-1,-1.713742912E-1
2.580115063E0,-8.101329803E-1,6.829671264E-1,-1.628521830E-1
2.582602720E0,-8.293077350E-1,6.882934570E-1,-1.543300748E-1
2.585090376E0,-8.474172354E-1,6.946850419E-1,-1.447426975E-1
2.587578084E0,-8.623309135E-1,7.000113726E-1,-1.372858584E-1
2.590065845E0,-8.761793375E-1,7.042724490E-1,-1.340900660E-1
2.592553657E0,-8.857667446E-1,7.064029574E-1,-1.340900660E-1
2.595041522E0,-8.942888379E-1,7.053377032E-1,-1.372858584E-1
2.597529386E0,-9.006804228E-1,7.032071352E-1,-1.436774284E-1
2.600017251E0,-9.038761854E-1,6.989461184E-1,-1.532648057E-1
2.602505115E0,-9.060067534E-1,6.946850419E-1,-1.649827063E-1
2.604992980E0,-9.049414396E-1,6.893587112E-1,-1.777658761E-1
2.607480845E0,-9.017456770E-1,6.850976944E-1,-1.905490309E-1
2.609968709E0,-8.964193463E-1,6.819018722E-1,-2.022669315E-1
2.612456574E0,-8.878972530E-1,6.797713637E-1,-2.129195631E-1
2.614944438E0,-8.783098459E-1,6.765755415E-1,-2.225069404E-1
2.617432303E0,-8.665919900E-1,6.733797789E-1,-2.320943177E-1
2.619920168E0,-8.538088202E-1,6.691187024E-1,-2.406164259E-1
2.622408032E0,-8.399603963E-1,6.648576856E-1,-2.480732650E-1
2.624895897E0,-8.261119723E-1,6.605966091E-1,-2.544648647E-1
2.627383761E0,-8.101329803E-1,6.574008465E-1,-2.619217038E-1
2.629871626E0,-7.952193022E-1,6.563355327E-1,-2.672480047E-1
2.632359490E0,-7.771098018E-1,6.574008465E-1,-2.725743353E-1
2.634847355E0,-7.579351068E-1,6.605966091E-1,-2.789659202E-1
2.637335220E0,-7.366297841E-1,6.648576856E-1,-2.832269669E-1
2.639823084E0,-7.110635042E-1,6.723145247E-1,-2.874880135E-1
2.642310949E0,-6.823013425E-1,6.797713637E-1,-2.928143442E-1
2.644798813E0,-6.514087319E-1,6.872282028E-1,-2.960101366E-1
2.647286678E0,-6.173202991E-1,6.936197877E-1,-2.992059290E-1
2.649774543E0,-5.821665525E-1,6.989461184E-1,-3.013364673E-1
2.652262355E0,-5.470128655E-1,7.010766268E-1,-3.034669757E-1
2.654750115E0,-5.107939243E-1,7.021418810E-1,-3.045322299E-1
2.657237876E0,-4.756402075E-1,7.021418810E-1,-3.024017215E-1
2.659725636E0,-4.404865205E-1,7.032071352E-1,-2.981406748E-1
2.662213397E0,-4.085285962E-1,7.064029574E-1,-2.906838059E-1
2.664701157E0,-3.797664940E-1,7.127945423E-1,-2.779006660E-1
2.667188918E0,-3.542001545E-1,7.223818898E-1,-2.608564198E-1
2.669676678E0,-3.328948915E-1,7.351650596E-1,-2.406164259E-1
2.672164438E0,-3.169159293E-1,7.500787377E-1,-2.171806246E-1
2.674652199E0,-3.062632978E-1,7.649924755E-1,-1.926795542E-1
2.677139959E0,-2.998717129E-1,7.799061537E-1,-1.671132296E-1
2.679627720E0,-3.009369671E-1,7.926893234E-1,-1.415469050E-1
2.682115480E0,-3.073285520E-1,8.044071794E-1,-1.181111038E-1
2.684603240E0,-3.201117218E-1,8.139945865E-1,-9.574057162E-2
2.687091001E0,-3.382211924E-1,8.225166798E-1,-7.337003201E-2
2.689578761E0,-3.648527861E-1,8.278430104E-1,-5.206476152E-2
2.692066522E0,-3.968107104E-1,8.321040869E-1,-2.969422378E-2
2.694554282E0,-4.330296814E-1,8.352998495E-1,-5.193160381E-3
2.697042043E0,-4.745749533E-1,8.395609260E-1,2.037316747E-2
2.699529803E0,-5.182507634E-1,8.406261802E-1,4.593949392E-2
2.702017563E0,-5.640571117E-1,8.406261802E-1,7.363634557E-2
2.704505324E0,-6.119939685E-1,8.406261802E-1,1.002679393E-1
2.706993084E0,-6.599308252E-1,8.374303579E-1,1.247690022E-1
2.709480845E0,-7.046719193E-1,8.331693411E-1,1.492700726E-1
2.711968605E0,-7.494129539E-1,8.278430104E-1,1.705753356E-1
2.714456365E0,-7.909582257E-1,8.214514256E-1,1.886848211E-1
2.716944126E0,-8.271772265E-1,8.150598407E-1,2.025332451E-1
2.719431886E0,-8.602004051E-1,8.086682558E-1,2.153164148E-1
2.721919647E0,-8.857667446E-1,8.022766709E-1,2.259690464E-1
2.724407459E0,-9.060067534E-1,7.990809083E-1,2.366216928E-1
2.726895272E0,-9.187898636E-1,7.969503403E-1,2.472743243E-1
2.729383084E0,-9.251814485E-1,7.980156541E-1,2.568616867E-1
2.731870897E0,-9.241161942E-1,8.022766709E-1,2.664490640E-1
2.734358709E0,-9.155941010E-1,8.065377474E-1,2.728406489E-1
2.736846522E0,-9.017456770E-1,8.118640780E-1,2.792322338E-1
2.739334334E0,-8.836361766E-1,8.150598407E-1,2.824280262E-1
2.741822147E0,-8.591351509E-1,8.171903491E-1,2.802974880E-1
2.744309959E0,-8.335688114E-1,8.150598407E-1,2.771016955E-1
2.746797772E0,-8.058719635E-1,8.097335100E-1,2.696448565E-1
2.749285584E0,-7.760445476E-1,8.022766709E-1,2.611227632E-1
2.751773397E0,-7.472824454E-1,7.926893234E-1,2.504701018E-1
2.754261209E0,-7.153245211E-1,7.820366621E-1,2.408827394E-1
2.756749022E0,-6.854971647E-1,7.713840604E-1,2.323606312E-1
2.759236834E0,-6.535392404E-1,7.607313991E-1,2.259690464E-1
2.761724647E0,-6.215813160E-1,7.500787377E-1,2.206427306E-1
2.764212459E0,-5.896234512E-1,7.394261360E-1,2.185122073E-1
2.766700272E0,-5.587307811E-1,7.298387289E-1,2.163816839E-1
2.769188084E0,-5.299686790E-1,7.202513814E-1,2.153164148E-1
2.771675897E0,-5.022718310E-1,7.106640339E-1,2.131858915E-1
2.774163709E0,-4.788360000E-1,7.010766268E-1,2.131858915E-1
2.776651522E0,-4.564654827E-1,6.904240251E-1,2.131858915E-1
2.779139334E0,-4.372907281E-1,6.808366179E-1,2.142511457E-1
2.781627147E0,-4.213117659E-1,6.701840162E-1,2.153164148E-1
2.784114959E0,-4.074633420E-1,6.616618633E-1,2.174469382E-1
2.786602772E0,-3.978759646E-1,6.531397700E-1,2.217079997E-1
2.789090584E0,-3.914843798E-1,6.435524225E-1,2.270343155E-1
2.791578397E0,-3.882885873E-1,6.328997612E-1,2.312953621E-1
2.794066209E0,-3.882885873E-1,6.190513372E-1,2.366216928E-1
2.796554022E0,-3.904191256E-1,6.030724049E-1,2.398174703E-1
2.799041834E0,-3.936149180E-1,5.828323960E-1,2.408827394E-1
2.801529647E0,-4.000065029E-1,5.604618192E-1,2.398174703E-1
2.804017459E0,-4.063980877E-1,5.338302255E-1,2.366216928E-1
2.806505272E0,-4.138549268E-1,5.061333776E-1,2.302301079E-1
2.808993084E0,-4.202465117E-1,4.752407372E-1,2.217079997E-1
2.811480897E0,-4.266380966E-1,4.422175586E-1,2.078595608E-1
2.813968709E0,-4.308991432E-1,4.070638716E-1,1.929458827E-1
2.816456522E0,-4.330296814E-1,3.719101548E-1,1.759016514E-1
2.818944334E0,-4.308991432E-1,3.346259296E-1,1.567269117E-1
2.821432147E0,-4.266380966E-1,2.984069884E-1,1.364869028E-1
2.823919959E0,-4.191812575E-1,2.621880174E-1,1.173121557E-1
2.826407772E0,-4.074633420E-1,2.270343155E-1,9.707214683E-2
2.828895584E0,-3.936149180E-1,1.940111369E-1,7.896266878E-2
2.831383397E0,-3.755054474E-1,1.620532274E-1,5.978792161E-2
2.833871209E0,-3.552654386E-1,1.311605871E-1,4.061317816E-2
2.836359022E0,-3.318296373E-1,1.034637317E-1,2.356895804E-2
2.838846834E0,-3.062632978E-1,7.896266878E-2,7.590003312E-3
2.841334647E0,-2.775011659E-1,5.446160212E-2,-8.388951421E-3
2.843822459E0,-2.466085255E-1,3.315633163E-2,-2.330264263E-2
2.846310272E0,-2.146506310E-1,1.291632187E-2,-3.821633384E-2
2.848798084E0,-1.805621833E-1,-5.193160381E-3,-5.206476152E-2
2.851285897E0,-1.475390196E-1,-2.223737910E-2,-6.591318548E-2
2.853773709E0,-1.145158410E-1,-3.715106845E-2,-7.869634777E-2
2.856261522E0,-8.255793154E-2,-4.886896908E-2,-9.147951752E-2
2.858749334E0,-5.060002208E-2,-5.952160433E-2,-1.010668874E-1
2.861237147E0,-2.077264152E-2,-6.697845459E-2,-1.085237339E-1
2.863724959E0,9.054740891E-3,-7.230477035E-2,-1.138500497E-1
2.866212772E0,3.781685978E-2,-7.550056279E-2,-1.170458421E-1
2.868700584E0,6.551371515E-2,-7.550056279E-2,-1.181111038E-1
2.871188397E0,9.321057051E-2,-7.443529367E-2,-1.159805804E-1
2.873676209E0,1.198421568E-1,-7.230477035E-2,-1.127847880E-1
2.876164022E0,1.464737505E-1,-6.804371625E-2,-1.106542572E-1
2.878651834E0,1.720400751E-1,-6.484792382E-2,-1.074584723E-1
2.881139647E0,1.944106072E-1,-6.165213138E-2,-1.053279415E-1
2.883627459E0,2.167811543E-1,-5.952160433E-2,-1.031974182E-1
2.886115272E0,2.348906398E-1,-5.739107728E-2,-1.010668874E-1
2.888603084E0,2.508696020E-1,-5.739107728E-2,-1.010668874E-1
2.891090897E0,2.625874877E-1,-5.952160433E-2,-1.031974182E-1
2.893578709E0,2.711096108E-1,-6.165213138E-2,-1.053279415E-1
2.896066522E0,2.753706574E-1,-6.697845459E-2,-1.085237339E-1
2.898554334E0,2.753706574E-1,-7.230477035E-2,-1.138500497E-1
2.901042147E0,2.711096108E-1,-7.869634777E-2,-1.191763729E-1
2.903529959E0,2.636527419E-1,-8.615319431E-2,-1.266332120E-1
2.906017772E0,2.530001104E-1,-9.574057162E-2,-1.330247968E-1
2.908505584E0,2.370211631E-1,-1.074584723E-1,-1.404816359E-1
2.910993397E0,2.199769467E-1,-1.181111038E-1,-1.479384899E-1
2.913481209E0,1.997369379E-1,-1.308942735E-1,-1.543300748E-1
2.915969022E0,1.784316599E-1,-1.415469050E-1,-1.596563905E-1
2.918456834E0,1.571263820E-1,-1.532648057E-1,-1.649827063E-1
2.920944647E0,1.368863732E-1,-1.649827063E-1,-1.681784987E-1
2.923432459E0,1.166463718E-1,-1.756353378E-1,-1.713742912E-1
2.925920272E0,9.747162461E-2,-1.873532385E-1,-1.724395454E-1
2.928408084E0,7.829687744E-2,-1.990711391E-1,-1.724395454E-1
2.930895897E0,6.231792271E-2,-2.118543088E-1,-1.713742912E-1
2.933383709E0,4.633896798E-2,-2.235722095E-1,-1.681784987E-1
2.935871522E0,3.249054030E-2,-2.352901101E-1,-1.639174372E-1
2.938359334E0,1.970737800E-2,-2.448774725E-1,-1.607216448E-1
2.940847147E0,9.054740891E-3,-2.533995807E-1,-1.553953290E-1
2.943334959E0,1.597895520E-3,-2.597911656E-1,-1.490037590E-1
2.945822772E0,-3.728422802E-3,-2.640522122E-1,-1.426121742E-1
2.948310584E0,-5.858949851E-3,-2.640522122E-1,-1.340900660E-1
2.950798397E0,-4.793686327E-3,-2.619217038E-1,-1.276984811E-1
2.953286209E0,-2.663159044E-3,-2.565953732E-1,-1.191763729E-1
2.955774022E0,3.728422802E-3,-2.491385341E-1,-1.117195264E-1
2.958261834E0,1.118526794E-2,-2.395511568E-1,-1.042626798E-1
2.960749647E0,2.077264152E-2,-2.278332561E-1,-9.574057162E-2
2.963237459E0,3.249054030E-2,-2.161153555E-1,-8.721846342E-2
2.965725272E0,4.633896798E-2,-2.022669315E-1,-7.976161689E-2
2.968213084E0,6.231792271E-2,-1.894837767E-1,-7.443529367E-2
2.970700897E0,7.829687744E-2,-1.767006069E-1,-7.230477035E-2
2.973188709E0,9.640636295E-2,-1.639174372E-1,-6.910897791E-2
2.975676522E0,1.155811027E-1,-1.511342824E-1,-6.804371625E-2
2.978164334E0,1.347558498E-1,-1.394163817E-1,-6.804371625E-2
2.980652147E0,1.549958587E-1,-1.266332120E-1,-6.804371625E-2
2.983139959E0,1.752358675E-1,-1.138500497E-1,-6.910897791E-2
2.985627772E0,1.954758763E-1,-1.021321490E-1,-6.910897791E-2
2.988115584E0,2.167811543E-1,-8.828372508E-2,-6.910897791E-2
2.990603397E0,2.370211631E-1,-7.550056279E-2,-7.017423958E-2
2.993091209E0,2.561959028E-1,-6.165213138E-2,-7.123950869E-2
2.995579022E0,2.753706574E-1,-4.673844203E-2,-7.337003201E-2
2.998066834E0,2.934801280E-1,-3.289001435E-2,-7.656582445E-2
3.000554647E0,3.062632978E-1,-1.797632314E-2,-7.869634777E-2
3.003042459E0,3.158506751E-1,-4.127896391E-3,-8.082687855E-2
3.005530272E0,3.201117218E-1,8.655266836E-3,-8.295740932E-2
3.008018084E0,3.201117218E-1,2.037316747E-2,-8.508793265E-2
3.010505897E0,3.137201369E-1,3.102580272E-2,-8.615319431E-2
3.012993709E0,3.030675054E-1,3.954791278E-2,-8.615319431E-2
3.015481522E0,2.860232890E-1,4.700475931E-2,-8.508793265E-2
3.017969334E0,2.657832801E-1,5.339634046E-2,-8.189214021E-2
3.020457147E0,2.412822098E-1,5.872265995E-2,-7.763108611E-2
3.022944959E0,2.135853618E-1,6.298371404E-2,-7.230477035E-2
3.025432772E0,1.816274524E-1,6.617950648E-2,-6.697845459E-2
3.027920584E0,1.496695429E-1,6.617950648E-2,-6.058686972E-2
3.030408397E0,1.155811027E-1,6.617950648E-2,-5.419528857E-2
3.032896209E0,8.149266988E-2,6.404897571E-2,-4.886896908E-2
3.035384022E0,4.846949503E-2,6.085318699E-2,-4.247738793E-2
3.037871834E0,1.544632297E-2,5.659212917E-2,-3.715106845E-2
3.040359647E0,-1.544632297E-2,5.233107507E-2,-3.075948730E-2
3.042847459E0,-4.314317927E-2,4.700475931E-2,-2.543316968E-2
3.045335272E0,-6.870950758E-2,4.061317816E-2,-2.117211558E-2
3.047823084E0,-9.108003974E-2,3.635212034E-2,-1.691105962E-2
3.050310897E0,-1.091895252E-1,3.209106624E-2,-1.265000552E-2
3.052798709E0,-1.241032109E-1,2.889527567E-2,-7.323687430E-3
3.055286522E0,-1.358211190E-1,2.569948509E-2,-3.062632866E-3
3.057774334E0,-1.454084814E-1,2.356895804E-2,2.263685223E-3
3.060262147E0,-1.528653353E-1,2.143843099E-2,6.524739787E-3
3.062749959E0,-1.571263820E-1,2.143843099E-2,1.185105834E-2
3.065237772E0,-1.613874435E-1,2.037316747E-2,1.824264042E-2
3.067725584E0,-1.624527127E-1,2.037316747E-2,2.463422157E-2
3.070213397E0,-1.635179669E-1,2.143843099E-2,3.102580272E-2
3.072701209E0,-1.624527127E-1,2.143843099E-2,3.848264739E-2
3.075189022E0,-1.592569202E-1,2.250369452E-2,4.593949392E-2
3.077676834E0,-1.539305896E-1,2.356895804E-2,5.339634046E-2
3.080164647E0,-1.475390196E-1,2.356895804E-2,6.085318699E-2
3.082652459E0,-1.390169114E-1,2.569948509E-2,6.724476814E-2
3.085140272E0,-1.294295341E-1,2.569948509E-2,7.470161468E-2
3.087628084E0,-1.187768951E-1,2.676474862E-2,8.215846121E-2
3.090115897E0,-1.059937328E-1,2.783001214E-2,8.748477697E-2
3.092603709E0,-9.321057051E-2,2.996053919E-2,9.387636185E-2
3.095091522E0,-8.042740822E-2,3.209106624E-2,9.920267761E-2
3.097579334E0,-6.551371515E-2,3.422159329E-2,1.045289934E-1
3.100067147E0,-5.060002208E-2,3.741738573E-2,1.109205782E-1
3.102554959E0,-3.462106735E-2,4.061317816E-2,1.173121557E-1
3.105042772E0,-1.864211448E-2,4.274370521E-2,1.237037405E-1
3.107530584E0,-3.728422802E-3,4.380896688E-2,1.290300637E-1
3.110018397E0,1.012000442E-2,4.380896688E-2,1.343563795E-1
3.112506209E0,2.396843210E-2,4.380896688E-2,1.375521719E-1
3.114994022E0,3.781685978E-2,4.274370521E-2,1.407479644E-1
3.117481834E0,4.846949503E-2,3.954791278E-2,1.418132186E-1
3.119969647E0,5.699160323E-2,3.528685868E-2,1.428784877E-1
3.122458136E0,6.444845349E-2,2.996053919E-2,1.418132186E-1
3.124945636E0,7.084003091E-2,2.463422157E-2,1.407479644E-1
3.127433136E0,7.616634667E-2,2.037316747E-2,1.375521719E-1
3.129920636E0,7.936213911E-2,1.717737690E-2,1.343563795E-1
3.132408136E0,8.149266988E-2,1.398158539E-2,1.311605871E-1
3.134895636E0,8.149266988E-2,1.185105834E-2,1.279647946E-1
3.137383188E0,8.042740822E-2,1.078579482E-2,1.258342713E-1
3.139870793E0,7.829687744E-2,1.078579482E-2,1.226384789E-1
3.142358449E0,7.616634667E-2,1.078579482E-2,1.215732098E-1
3.144846157E0,7.403582335E-2,9.720530361E-3,1.205079481E-1
3.147333918E0,7.190529257E-2,9.720530361E-3,1.205079481E-1
3.149821730E0,6.870950758E-2,8.655266836E-3,1.215732098E-1
3.152309595E0,6.657897681E-2,7.590003312E-3,1.215732098E-1
3.154797511E0,6.338318437E-2,5.459476262E-3,1.226384789E-1
3.157285480E0,6.018739566E-2,3.328948980E-3,1.247690022E-1
3.159773501E0,5.699160323E-2,1.198421582E-3,1.258342713E-1
3.162261522E0,5.379581451E-2,-9.321057005E-4,1.268995255E-1
3.164749543E0,5.060002208E-2,-5.193160381E-3,1.290300637E-1
3.167237563E0,4.846949503E-2,-8.388951421E-3,1.311605871E-1
3.169725584E0,4.527370632E-2,-1.158474199E-2,1.311605871E-1
3.172213605E0,4.314317927E-2,-1.478053257E-2,1.322258562E-1
3.174701626E0,4.314317927E-2,-1.584579609E-2,1.322258562E-1
3.177189595E0,4.314317927E-2,-1.691105962E-2,1.322258562E-1
3.179677355E0,4.207791388E-2,-1.797632314E-2,1.322258562E-1
3.182165115E0,4.314317927E-2,-1.904158667E-2,1.300953180E-1
3.184652876E0,4.314317927E-2,-2.010685205E-2,1.290300637E-1
3.187140636E0,4.420844093E-2,-2.010685205E-2,1.279647946E-1
3.189628397E0,4.527370632E-2,-2.010685205E-2,1.247690022E-1
3.192116157E0,4.527370632E-2,-1.904158667E-2,1.226384789E-1
3.194603918E0,4.633896798E-2,-1.797632314E-2,1.194426864E-1
3.197091678E0,4.846949503E-2,-1.584579609E-2,1.173121557E-1
3.199579438E0,5.060002208E-2,-1.371526904E-2,1.141163707E-1
3.202067199E0,5.273054913E-2,-1.158474199E-2,1.130511016E-1
3.204554959E0,5.379581451E-2,-8.388951421E-3,1.109205782E-1
3.207042720E0,5.592634156E-2,-5.193160381E-3,1.098553166E-1
3.209530480E0,5.805686861E-2,-9.321057005E-4,1.077247858E-1
3.212018240E0,5.912213027E-2,4.394212738E-3,1.066595241E-1
3.214506001E0,6.018739566E-2,1.078579482E-2,1.055942550E-1
3.216993761E0,5.912213027E-2,1.717737690E-2,1.034637317E-1
3.219481522E0,5.805686861E-2,2.463422157E-2,1.002679393E-1
3.221969282E0,5.805686861E-2,3.209106624E-2,9.707214683E-2
3.224457043E0,5.486107618E-2,4.061317816E-2,9.600688517E-2
3.226944803E0,5.273054913E-2,5.020054802E-2,9.387636185E-2
3.229432563E0,4.846949503E-2,5.765739456E-2,9.281109273E-2
3.231920324E0,4.420844093E-2,6.404897571E-2,9.068056941E-2
3.234408084E0,3.888212144E-2,6.937529147E-2,9.068056941E-2
3.236895845E0,3.462106735E-2,7.257108390E-2,9.068056941E-2
3.239383605E0,2.822948620E-2,7.470161468E-2,9.068056941E-2
3.241871365E0,2.290316857E-2,7.470161468E-2,9.068056941E-2
3.244359126E0,1.651158556E-2,7.257108390E-2,8.961530030E-2
3.246846938E0,1.012000442E-2,6.831002980E-2,8.748477697E-2
3.249334751E0,1.597895520E-3,6.298371404E-2,8.535424620E-2
3.251822563E0,-6.924213842E-3,5.765739456E-2,8.109319210E-2
3.254310376E0,-1.651158556E-2,5.126581341E-2,7.576687634E-2
3.256798188E0,-2.503369562E-2,4.593949392E-2,7.044056058E-2
3.259286001E0,-3.355580568E-2,4.167843983E-2,6.404897571E-2
3.261773813E0,-4.207791388E-2,3.848264739E-2,5.765739456E-2
3.264261626E0,-4.953476042E-2,3.528685868E-2,5.020054802E-2
3.266749438E0,-5.486107618E-2,3.422159329E-2,4.380896688E-2
3.269237251E0,-6.018739566E-2,3.422159329E-2,3.741738573E-2
3.271725063E0,-6.231792271E-2,3.422159329E-2,2.996053919E-2
3.274212876E0,-6.444845349E-2,3.528685868E-2,2.250369452E-2
3.276700688E0,-6.338318437E-2,3.528685868E-2,1.504684892E-2
3.279188501E0,-6.231792271E-2,3.741738573E-2,8.655266836E-3
3.281676313E0,-6.018739566E-2,3.848264739E-2,3.328948980E-3
3.284164126E0,-5.699160323E-2,4.061317816E-2,-3.062632866E-3
3.286651938E0,-5.273054913E-2,4.380896688E-2,-7.323687430E-3
3.289139751E0,-4.740423337E-2,4.807002097E-2,-1.051947847E-2
3.291627563E0,-4.101264849E-2,5.233107507E-2,-1.051947847E-2
3.294115376E0,-3.462106735E-2,5.872265995E-2,-9.454214945E-3
3.296603188E0,-2.822948620E-2,6.617950648E-2,-7.323687430E-3
3.299091001E0,-1.970737800E-2,7.257108390E-2,-4.127896391E-3
3.301578813E0,-1.225053146E-2,8.002793044E-2,1.198421582E-3
3.304066626E0,-5.858949851E-3,8.748477697E-2,6.524739787E-3
3.306554438E0,5.326318205E-4,9.387636185E-2,1.185105834E-2
3.309042251E0,3.728422802E-3,9.813741595E-2,1.611211337E-2
3.311530063E0,6.924213842E-3,1.013332009E-1,2.037316747E-2
3.314017876E0,6.924213842E-3,1.023984700E-1,2.356895804E-2
3.316505688E0,5.858949851E-3,1.023984700E-1,2.783001214E-2
3.318993501E0,4.793686327E-3,1.023984700E-1,3.102580272E-2
3.321481313E0,5.326318205E-4,1.013332009E-1,3.528685868E-2
3.323969126E0,-4.793686327E-3,9.920267761E-2,3.848264739E-2
3.326456938E0,-1.225053146E-2,9.813741595E-2,4.274370521E-2
3.328944751E0,-1.970737800E-2,9.600688517E-2,4.700475931E-2
3.331432563E0,-2.929474972E-2,9.387636185E-2,5.020054802E-2
3.333920376E0,-3.781685978E-2,9.068056941E-2,5.446160212E-2
3.336408188E0,-4.740423337E-2,8.961530030E-2,5.659212917E-2
3.338896001E0,-5.699160323E-2,8.641951531E-2,5.978792161E-2
3.341383813E0,-6.444845349E-2,8.322372288E-2,6.085318699E-2
3.343871626E0,-7.190529257E-2,8.109319210E-2,6.191844866E-2
3.346359438E0,-7.936213911E-2,7.789740711E-2,6.191844866E-2
3.348847251E0,-8.681898564E-2,7.576687634E-2,6.085318699E-2
3.351335063E0,-9.214530140E-2,7.257108390E-2,6.191844866E-2
3.353822876E0,-9.640636295E-2,7.044056058E-2,6.298371404E-2
3.356310688E0,-1.006674170E-1,6.724476814E-2,6.404897571E-2
3.358798501E0,-1.027979404E-1,6.511423737E-2,6.404897571E-2
3.361286313E0,-1.038632020E-1,6.191844866E-2,6.511423737E-2
3.363774126E0,-1.038632020E-1,5.872265995E-2,6.404897571E-2
3.366261938E0,-1.027979404E-1,5.552686751E-2,6.298371404E-2
3.368749751E0,-1.017326787E-1,5.233107507E-2,6.085318699E-2
3.371237563E0,-9.960214794E-2,4.913528636E-2,5.872265995E-2
3.373725376E0,-9.747162461E-2,4.593949392E-2,5.552686751E-2
3.376213188E0,-9.427583218E-2,4.274370521E-2,5.233107507E-2
3.378701001E0,-9.214530140E-2,3.954791278E-2,4.913528636E-2
3.381188813E0,-8.894951642E-2,3.635212034E-2,4.593949392E-2
3.383676626E0,-8.681898564E-2,3.422159329E-2,4.274370521E-2
3.386164438E0,-8.362319320E-2,3.209106624E-2,4.061317816E-2
3.388652251E0,-7.936213911E-2,2.889527567E-2,3.741738573E-2
3.391140063E0,-7.616634667E-2,2.783001214E-2,3.422159329E-2
3.393627876E0,-7.190529257E-2,2.569948509E-2,3.102580272E-2
3.396115688E0,-6.764423847E-2,2.356895804E-2,2.783001214E-2
3.398603501E0,-6.338318437E-2,2.250369452E-2,2.250369452E-2
3.401091313E0,-5.912213027E-2,2.250369452E-2,1.824264042E-2
3.403579126E0,-5.486107618E-2,2.356895804E-2,1.291632187E-2
3.406066938E0,-5.060002208E-2,2.676474862E-2,8.655266836E-3
3.408554751E0,-4.740423337E-2,3.102580272E-2,5.459476262E-3
3.411042563E0,-4.314317927E-2,3.528685868E-2,2.263685223E-3
3.413530376E0,-3.994738683E-2,4.061317816E-2,1.331579551E-4
3.416018188E0,-3.568633273E-2,4.700475931E-2,1.331579551E-4
3.418506001E0,-3.355580568E-2,5.233107507E-2,-9.321057005E-4
3.420993813E0,-3.036001325E-2,5.659212917E-2,-1.997369342E-3
3.423481626E0,-2.609895915E-2,5.978792161E-2,-1.997369342E-3
3.425969438E0,-2.503369562E-2,5.978792161E-2,-1.997369342E-3
3.428457251E0,-2.503369562E-2,5.872265995E-2,-3.062632866E-3
3.430945063E0,-2.716422267E-2,5.659212917E-2,-5.193160381E-3
3.433432876E0,-3.036001325E-2,5.126581341E-2,-6.258423906E-3
3.435920688E0,-3.462106735E-2,4.700475931E-2,-7.323687430E-3
3.438408501E0,-3.994738683E-2,4.167843983E-2,-8.388951421E-3
3.440896313E0,-4.633896798E-2,3.635212034E-2,-1.051947847E-2
3.443384126E0,-5.273054913E-2,3.315633163E-2,-1.158474199E-2
3.445871938E0,-6.018739566E-2,2.996053919E-2,-1.158474199E-2
3.448359751E0,-6.657897681E-2,2.889527567E-2,-1.265000552E-2
3.450847563E0,-7.297056168E-2,2.783001214E-2,-1.371526904E-2
3.453335376E0,-8.149266988E-2,2.783001214E-2,-1.478053257E-2
3.455823188E0,-8.681898564E-2,2.676474862E-2,-1.478053257E-2
3.458311001E0,-9.214530140E-2,2.676474862E-2,-1.371526904E-2
3.460798813E0,-9.747162461E-2,2.783001214E-2,-1.265000552E-2
3.463286626E0,-1.027979404E-1,2.783001214E-2,-1.158474199E-2
3.465774438E0,-1.059937328E-1,2.889527567E-2,-9.454214945E-3
3.468262251E0,-1.102547869E-1,2.996053919E-2,-7.323687430E-3
3.470750063E0,-1.134505793E-1,3.315633163E-2,-4.127896391E-3
3.473237876E0,-1.155811027E-1,3.635212034E-2,1.331579551E-4
3.475725688E0,-1.177116334E-1,4.061317816E-2,6.524739787E-3
3.478213501E0,-1.177116334E-1,4.700475931E-2,1.291632187E-2
3.480701313E0,-1.198421568E-1,5.233107507E-2,1.824264042E-2
3.483189126E0,-1.198421568E-1,5.765739456E-2,2.569948509E-2
3.485676938E0,-1.209074259E-1,6.191844866E-2,3.102580272E-2
3.488164751E0,-1.209074259E-1,6.617950648E-2,3.528685868E-2
3.490652563E0,-1.219726875E-1,6.831002980E-2,3.848264739E-2
3.493140376E0,-1.241032109E-1,6.937529147E-2,4.061317816E-2
3.495628188E0,-1.241032109E-1,7.044056058E-2,4.061317816E-2
3.498116001E0,-1.251684725E-1,6.937529147E-2,3.954791278E-2
3.500603813E0,-1.251684725E-1,6.724476814E-2,3.848264739E-2
3.503091626E0,-1.241032109E-1,6.617950648E-2,3.635212034E-2
3.505579438E0,-1.230379492E-1,6.511423737E-2,3.315633163E-2
3.508067251E0,-1.209074259E-1,6.404897571E-2,3.102580272E-2
3.510555063E0,-1.166463718E-1,6.298371404E-2,2.889527567E-2
3.513042876E0,-1.123853177E-1,6.298371404E-2,2.676474862E-2
3.515530688E0,-1.070589945E-1,6.191844866E-2,2.463422157E-2
3.518018501E0,-9.960214794E-2,6.298371404E-2,2.356895804E-2
3.520506313E0,-9.214530140E-2,6.298371404E-2,2.143843099E-2
3.522994126E0,-8.362319320E-2,6.298371404E-2,2.037316747E-2
3.525481938E0,-7.510108501E-2,6.298371404E-2,2.037316747E-2
3.527969751E0,-6.657897681E-2,6.298371404E-2,2.037316747E-2
3.530457563E0,-5.805686861E-2,6.085318699E-2,2.037316747E-2
3.532945376E0,-4.846949503E-2,6.085318699E-2,2.143843099E-2
3.535433188E0,-3.994738683E-2,6.085318699E-2,2.250369452E-2
3.537921001E0,-3.249054030E-2,5.978792161E-2,2.463422157E-2
3.540408813E0,-2.716422267E-2,5.978792161E-2,2.676474862E-2
3.542896626E0,-2.183790505E-2,5.978792161E-2,2.783001214E-2
3.545384438E0,-1.651158556E-2,5.872265995E-2,2.889527567E-2
3.547872251E0,-1.331579592E-2,5.765739456E-2,2.996053919E-2
3.550360063E0,-1.118526794E-2,5.659212917E-2,3.209106624E-2
3.552847876E0,-1.118526794E-2,5.446160212E-2,3.422159329E-2
3.555335688E0,-1.118526794E-2,5.339634046E-2,3.528685868E-2
3.557823501E0,-1.225053146E-2,5.126581341E-2,3.741738573E-2
3.560311313E0,-1.544632297E-2,4.913528636E-2,3.954791278E-2
3.562799855E0,-2.077264152E-2,4.487423226E-2,4.167843983E-2
3.565287511E0,-2.609895915E-2,4.061317816E-2,4.380896688E-2
3.567775168E0,-3.142527863E-2,3.528685868E-2,4.487423226E-2
3.570262824E0,-3.781685978E-2,2.996053919E-2,4.700475931E-2
3.572750480E0,-4.420844093E-2,2.250369452E-2,4.807002097E-2
3.575238136E0,-4.953476042E-2,1.398158539E-2,4.913528636E-2
3.577725793E0,-5.486107618E-2,3.328948980E-3,4.913528636E-2
3.580213449E0,-6.125266105E-2,-6.258423906E-3,5.020054802E-2
3.582701470E0,-6.657897681E-2,-1.691105962E-2,5.126581341E-2
3.585189490E0,-7.190529257E-2,-2.756369673E-2,5.126581341E-2
3.587677511E0,-7.723161578E-2,-3.821633384E-2,5.233107507E-2
3.590165532E0,-8.042740822E-2,-4.886896908E-2,5.233107507E-2
3.592653397E0,-8.468846232E-2,-5.952160433E-2,5.339634046E-2
3.595141209E0,-8.575372398E-2,-6.910897791E-2,5.446160212E-2
3.597629022E0,-8.575372398E-2,-7.869634777E-2,5.446160212E-2
3.600116834E0,-8.468846232E-2,-8.721846342E-2,5.552686751E-2
3.602604647E0,-8.362319320E-2,-9.574057162E-2,5.659212917E-2
3.605092459E0,-8.255793154E-2,-1.031974182E-1,5.765739456E-2
3.607580220E0,-7.936213911E-2,-1.095889956E-1,5.978792161E-2
3.610067980E0,-7.616634667E-2,-1.149153188E-1,6.085318699E-2
3.612555740E0,-7.190529257E-2,-1.202416345E-1,6.191844866E-2
3.615043501E0,-6.764423847E-2,-1.234374270E-1,6.404897571E-2
3.617531261E0,-6.444845349E-2,-1.266332120E-1,6.617950648E-2
3.620019022E0,-5.912213027E-2,-1.276984811E-1,7.044056058E-2
3.622506782E0,-5.486107618E-2,-1.276984811E-1,7.363634557E-2
3.624994543E0,-5.060002208E-2,-1.266332120E-1,7.683213800E-2
3.627482303E0,-4.740423337E-2,-1.255679578E-1,8.109319210E-2
3.629970063E0,-4.420844093E-2,-1.245026886E-1,8.535424620E-2
3.632457824E0,-4.207791388E-2,-1.223721579E-1,9.174583107E-2
3.634945584E0,-4.101264849E-2,-1.202416345E-1,9.813741595E-2
3.637433345E0,-3.994738683E-2,-1.191763729E-1,1.045289934E-1
3.639921105E0,-4.101264849E-2,-1.191763729E-1,1.119858399E-1
3.642408865E0,-4.314317927E-2,-1.191763729E-1,1.205079481E-1
3.644896626E0,-4.527370632E-2,-1.191763729E-1,1.279647946E-1
3.647384386E0,-4.740423337E-2,-1.213068962E-1,1.354216337E-1
3.649872147E0,-5.060002208E-2,-1.255679578E-1,1.428784877E-1
3.652359907E0,-5.273054913E-2,-1.298290044E-1,1.482048035E-1
3.654847668E0,-5.592634156E-2,-1.351553202E-1,1.524658650E-1
3.657335428E0,-5.805686861E-2,-1.415469050E-1,1.567269117E-1
3.659823188E0,-6.125266105E-2,-1.490037590E-1,1.599227041E-1
3.662310949E0,-6.444845349E-2,-1.575258672E-1,1.609879732E-1
3.664798709E0,-6.764423847E-2,-1.671132296E-1,1.620532274E-1
3.667286470E0,-7.084003091E-2,-1.767006069E-1,1.609879732E-1
3.669774230E0,-7.403582335E-2,-1.862879843E-1,1.599227041E-1
3.672261990E0,-7.829687744E-2,-1.969406158E-1,1.577921808E-1
3.674749803E0,-8.042740822E-2,-2.065279931E-1,1.545963883E-1
3.677237615E0,-8.149266988E-2,-2.161153555E-1,1.514005959E-1
3.679725428E0,-8.255793154E-2,-2.235722095E-1,1.471395344E-1
3.682213240E0,-8.255793154E-2,-2.310290486E-1,1.428784877E-1
3.684701053E0,-8.255793154E-2,-2.363553643E-1,1.375521719E-1
3.687188865E0,-8.255793154E-2,-2.395511568E-1,1.332911104E-1
3.689676678E0,-8.255793154E-2,-2.438122183E-1,1.279647946E-1
3.692164490E0,-8.255793154E-2,-2.470080107E-1,1.226384789E-1
3.694652303E0,-8.362319320E-2,-2.480732650E-1,1.162468940E-1
3.697140115E0,-8.575372398E-2,-2.480732650E-1,1.098553166E-1
3.699627928E0,-8.788424730E-2,-2.470080107E-1,1.034637317E-1
3.702115740E0,-9.001477808E-2,-2.438122183E-1,9.707214683E-2
3.704603553E0,-9.214530140E-2,-2.395511568E-1,9.068056941E-2
3.707091365E0,-9.427583218E-2,-2.342248410E-1,8.215846121E-2
3.709579178E0,-9.640636295E-2,-2.267680019E-1,7.363634557E-2
3.712066990E0,-9.853688627E-2,-2.193111479E-1,6.511423737E-2
3.714554803E0,-1.017326787E-1,-2.118543088E-1,5.552686751E-2
3.717042615E0,-1.038632020E-1,-2.043974549E-1,4.593949392E-2
3.719530428E0,-1.091895252E-1,-1.969406158E-1,3.635212034E-2
3.722018240E0,-1.134505793E-1,-1.905490309E-1,2.676474862E-2
3.724506053E0,-1.187768951E-1,-1.841574460E-1,1.611211337E-2
3.726993865E0,-1.262337416E-1,-1.788311303E-1,6.524739787E-3
3.729481678E0,-1.336905807E-1,-1.756353378E-1,-4.127896391E-3
3.731969490E0,-1.411474347E-1,-1.724395454E-1,-1.265000552E-2
3.734457303E0,-1.475390196E-1,-1.692437679E-1,-2.010685205E-2
3.736945115E0,-1.539305896E-1,-1.681784987E-1,-2.543316968E-2
3.739432928E0,-1.592569202E-1,-1.671132296E-1,-3.075948730E-2
3.741920740E0,-1.656484902E-1,-1.671132296E-1,-3.395527974E-2
3.744408553E0,-1.709748209E-1,-1.681784987E-1,-3.821633384E-2
3.746896365E0,-1.773663908E-1,-1.703090221E-1,-4.141212255E-2
3.749384178E0,-1.848232448E-1,-1.745700836E-1,-4.460791498E-2
3.751871990E0,-1.922800839E-1,-1.777658761E-1,-4.673844203E-2
3.754359803E0,-1.997369379E-1,-1.820269227E-1,-4.780370742E-2
3.756847615E0,-2.071937770E-1,-1.841574460E-1,-4.673844203E-2
3.759335428E0,-2.125200927E-1,-1.862879843E-1,-4.460791498E-2
3.761823240E0,-2.189116776E-1,-1.873532385E-1,-4.141212255E-2
3.764311053E0,-2.242379934E-1,-1.873532385E-1,-3.608580679E-2
3.766798865E0,-2.295643091E-1,-1.852227151E-1,-2.862896025E-2
3.769286678E0,-2.338253707E-1,-1.841574460E-1,-2.117211558E-2
3.771774490E0,-2.391516864E-1,-1.820269227E-1,-1.265000552E-2
3.774262303E0,-2.455432713E-1,-1.809616536E-1,-5.193160381E-3
3.776750115E0,-2.530001104E-1,-1.809616536E-1,3.328948980E-3
3.779237928E0,-2.604569495E-1,-1.820269227E-1,1.078579482E-2
3.781725740E0,-2.689790726E-1,-1.830921918E-1,1.824264042E-2
3.784213553E0,-2.764359117E-1,-1.852227151E-1,2.356895804E-2
3.786701365E0,-2.838927507E-1,-1.884185076E-1,2.783001214E-2
3.789189178E0,-2.902843356E-1,-1.916143000E-1,3.102580272E-2
3.791676990E0,-2.966759205E-1,-1.958753467E-1,3.209106624E-2
3.794164803E0,-3.030675054E-1,-1.990711391E-1,3.315633163E-2
3.796652615E0,-3.083938360E-1,-2.012016773E-1,3.528685868E-2
3.799140428E0,-3.126548827E-1,-2.012016773E-1,3.741738573E-2
3.801628240E0,-3.158506751E-1,-2.001364082E-1,4.061317816E-2
3.804116053E0,-3.201117218E-1,-1.969406158E-1,4.700475931E-2
3.806603865E0,-3.222422600E-1,-1.916143000E-1,5.339634046E-2
3.809091678E0,-3.233075142E-1,-1.852227151E-1,6.191844866E-2
3.811579490E0,-3.211769760E-1,-1.777658761E-1,6.937529147E-2
3.814067303E0,-3.190464675E-1,-1.703090221E-1,7.576687634E-2
3.816555115E0,-3.137201369E-1,-1.628521830E-1,8.109319210E-2
3.819042928E0,-3.062632978E-1,-1.564605981E-1,8.535424620E-2
3.821530740E0,-2.988064587E-1,-1.511342824E-1,8.855003864E-2
3.824018553E0,-2.902843356E-1,-1.468732208E-1,8.961530030E-2
3.826506365E0,-2.806969583E-1,-1.436774284E-1,8.855003864E-2
3.828994178E0,-2.711096108E-1,-1.426121742E-1,8.748477697E-2
3.831481990E0,-2.604569495E-1,-1.426121742E-1,8.428898454E-2
3.833969803E0,-2.487390637E-1,-1.447426975E-1,8.109319210E-2
3.836457615E0,-2.359558940E-1,-1.479384899E-1,7.576687634E-2
3.838945428E0,-2.210422009E-1,-1.521995366E-1,6.937529147E-2
3.841433240E0,-2.061285079E-1,-1.575258672E-1,6.298371404E-2
3.843921053E0,-1.901495606E-1,-1.639174372E-1,5.659212917E-2
3.846408865E0,-1.752358675E-1,-1.703090221E-1,4.807002097E-2
3.848896678E0,-1.603221744E-1,-1.767006069E-1,3.848264739E-2
3.851384490E0,-1.454084814E-1,-1.841574460E-1,2.783001214E-2
3.853872303E0,-1.326253265E-1,-1.916143000E-1,1.611211337E-2
3.856360115E0,-1.209074259E-1,-1.990711391E-1,5.459476262E-3
3.858847928E0,-1.113200486E-1,-2.054627240E-1,-6.258423906E-3
3.861335740E0,-1.017326787E-1,-2.118543088E-1,-1.584579609E-2
3.863823553E0,-9.321057051E-2,-2.171806246E-1,-2.436790615E-2
3.866311365E0,-8.362319320E-2,-2.214416862E-1,-3.289001435E-2
3.868799178E0,-7.510108501E-2,-2.246374637E-1,-4.141212255E-2
3.871286990E0,-6.551371515E-2,-2.267680019E-1,-5.099949613E-2
3.873774803E0,-5.592634156E-2,-2.299637944E-1,-6.058686972E-2
3.876262615E0,-4.740423337E-2,-2.352901101E-1,-7.017423958E-2
3.878750428E0,-3.675159439E-2,-2.395511568E-1,-7.976161689E-2
3.881238240E0,-2.716422267E-2,-2.470080107E-1,-8.934898674E-2
3.883726053E0,-1.651158556E-2,-2.565953732E-1,-9.680583328E-2
3.886213865E0,-6.924213842E-3,-2.672480047E-1,-1.042626798E-1
3.888701678E0,2.663159044E-3,-2.779006660E-1,-1.095889956E-1
3.891189490E0,1.331579592E-2,-2.896185517E-1,-1.159805804E-1
3.893677303E0,2.290316857E-2,-3.002711833E-1,-1.223721579E-1
3.896165115E0,3.142527863E-2,-3.098585606E-1,-1.287637353E-1
3.898652928E0,3.994738683E-2,-3.205111921E-1,-1.362205893E-1
3.901140740E0,4.527370632E-2,-3.300985694E-1,-1.458079666E-1
3.903628553E0,5.166528746E-2,-3.386206925E-1,-1.564605981E-1
3.906116365E0,5.592634156E-2,-3.471427858E-1,-1.649827063E-1
3.908604178E0,6.125266105E-2,-3.535343707E-1,-1.745700836E-1
3.911091990E0,6.444845349E-2,-3.577954173E-1,-1.820269227E-1
3.913579803E0,6.764423847E-2,-3.588607013E-1,-1.884185076E-1
3.916067615E0,6.977476925E-2,-3.577954173E-1,-1.916143000E-1
3.918555428E0,7.084003091E-2,-3.556649089E-1,-1.937448233E-1
3.921043240E0,7.297056168E-2,-3.514038324E-1,-1.937448233E-1
3.923531053E0,7.297056168E-2,-3.471427858E-1,-1.905490309E-1
3.926018865E0,7.084003091E-2,-3.428817391E-1,-1.862879843E-1
3.928506678E0,6.657897681E-2,-3.386206925E-1,-1.798963994E-1
3.930994490E0,6.018739566E-2,-3.343596160E-1,-1.724395454E-1
3.933482303E0,5.273054913E-2,-3.300985694E-1,-1.628521830E-1
3.935970115E0,4.527370632E-2,-3.247722387E-1,-1.543300748E-1
3.938457928E0,3.568633273E-2,-3.205111921E-1,-1.447426975E-1
3.940945740E0,2.716422267E-2,-3.151848912E-1,-1.362205893E-1
3.943433553E0,1.864211448E-2,-3.098585606E-1,-1.298290044E-1
3.945921365E0,1.118526794E-2,-3.055975139E-1,-1.266332120E-1
3.948409178E0,4.793686327E-3,-3.024017215E-1,-1.266332120E-1
3.950896990E0,-1.597895520E-3,-2.992059290E-1,-1.287637353E-1
3.953384803E0,-5.858949851E-3,-2.960101366E-1,-1.351553202E-1
3.955872615E0,-9.054740891E-3,-2.938795984E-1,-1.436774284E-1
3.958360428E0,-9.054740891E-3,-2.906838059E-1,-1.543300748E-1
3.960848240E0,-6.924213842E-3,-2.874880135E-1,-1.660479754E-1
3.963336053E0,-1.597895520E-3,-2.842922211E-1,-1.767006069E-1
3.965823865E0,6.924213842E-3,-2.810964286E-1,-1.873532385E-1
3.968311678E0,1.970737800E-2,-2.789659202E-1,-1.969406158E-1
3.970799490E0,3.462106735E-2,-2.747048736E-1,-2.054627240E-1
3.973287303E0,5.379581451E-2,-2.715090811E-1,-2.129195631E-1
3.975775115E0,7.403582335E-2,-2.672480047E-1,-2.182458937E-1
3.978262928E0,9.747162461E-2,-2.619217038E-1,-2.235722095E-1
3.980750740E0,1.241032109E-1,-2.555301189E-1,-2.267680019E-1
3.983238553E0,1.507348120E-1,-2.480732650E-1,-2.288985252E-1
3.985726365E0,1.773663908E-1,-2.406164259E-1,-2.310290486E-1
3.988214178E0,2.039979845E-1,-2.320943177E-1,-2.299637944E-1
3.990701990E0,2.295643091E-1,-2.225069404E-1,-2.288985252E-1
3.993189803E0,2.519348562E-1,-2.129195631E-1,-2.246374637E-1
3.995677615E0,2.711096108E-1,-2.033322006E-1,-2.193111479E-1
3.998165428E0,2.870885432E-1,-1.948100924E-1,-2.118543088E-1
4.000653240E0,2.988064587E-1,-1.873532385E-1,-2.033322006E-1
4.003141053E0,3.062632978E-1,-1.798963994E-1,-1.916143000E-1
4.005628865E0,3.105243444E-1,-1.745700836E-1,-1.798963994E-1
4.008116678E0,3.083938360E-1,-1.703090221E-1,-1.649827063E-1
4.010604490E0,3.020022511E-1,-1.660479754E-1,-1.490037590E-1
4.013092303E0,2.902843356E-1,-1.628521830E-1,-1.319595277E-1
4.015580115E0,2.764359117E-1,-1.585911214E-1,-1.149153188E-1
4.018067928E0,2.583264410E-1,-1.553953290E-1,-9.787109494E-2
4.020555740E0,2.391516864E-1,-1.532648057E-1,-8.189214021E-2
4.023043553E0,2.178464085E-1,-1.511342824E-1,-6.697845459E-2
4.025531365E0,1.944106072E-1,-1.500690132E-1,-5.526055023E-2
4.028019178E0,1.720400751E-1,-1.511342824E-1,-4.780370742E-2
4.030506990E0,1.496695429E-1,-1.532648057E-1,-4.247738793E-2
4.032994803E0,1.283642650E-1,-1.575258672E-1,-4.141212255E-2
4.035482615E0,1.081242561E-1,-1.617869139E-1,-4.354264960E-2
4.037970428E0,8.894951642E-2,-1.671132296E-1,-4.567318037E-2
4.040458240E0,7.297056168E-2,-1.735048145E-1,-5.099949613E-2
4.042946053E0,5.912213027E-2,-1.798963994E-1,-5.739107728E-2
4.045433865E0,4.633896798E-2,-1.852227151E-1,-6.484792382E-2
4.047921678E0,3.568633273E-2,-1.905490309E-1,-7.337003201E-2
4.050409490E0,2.822948620E-2,-1.969406158E-1,-8.295740932E-2
4.052897303E0,2.290316857E-2,-2.043974549E-1,-9.361004084E-2
4.055385115E0,1.970737800E-2,-2.129195631E-1,-1.042626798E-1
4.057872928E0,1.970737800E-2,-2.225069404E-1,-1.159805804E-1
4.060360740E0,2.183790505E-2,-2.331595868E-1,-1.287637353E-1
4.062848553E0,2.503369562E-2,-2.427469492E-1,-1.426121742E-1
4.065336365E0,3.249054030E-2,-2.512690723E-1,-1.564605981E-1
4.067824178E0,4.101264849E-2,-2.597911656E-1,-1.724395454E-1
4.070311990E0,5.166528746E-2,-2.672480047E-1,-1.884185076E-1
4.072799803E0,6.338318437E-2,-2.736395895E-1,-2.065279931E-1
4.075287615E0,7.616634667E-2,-2.800311744E-1,-2.257027328E-1
4.077775428E0,8.894951642E-2,-2.864227593E-1,-2.459427416E-1
4.080263240E0,1.027979404E-1,-2.928143442E-1,-2.651174963E-1
4.082751053E0,1.177116334E-1,-2.981406748E-1,-2.832269669E-1
4.085238865E0,1.315600574E-1,-3.034669757E-1,-3.002711833E-1
4.087726678E0,1.475390196E-1,-3.077280223E-1,-3.141196072E-1
4.090214490E0,1.635179669E-1,-3.109238148E-1,-3.237069845E-1
4.092702303E0,1.794969290E-1,-3.119890988E-1,-3.311638236E-1
4.095190115E0,1.965411454E-1,-3.109238148E-1,-3.332943618E-1
4.097677928E0,2.146506310E-1,-3.087933064E-1,-3.311638236E-1
4.100165740E0,2.338253707E-1,-3.045322299E-1,-3.269027770E-1
4.102653553E0,2.530001104E-1,-3.002711833E-1,-3.183806837E-1
4.105141365E0,2.711096108E-1,-2.938795984E-1,-3.098585606E-1
4.107629178E0,2.892190814E-1,-2.853575051E-1,-3.002711833E-1
4.110116990E0,3.062632978E-1,-2.768353820E-1,-2.917490900E-1
4.112604803E0,3.201117218E-1,-2.672480047E-1,-2.842922211E-1
4.115092615E0,3.339601457E-1,-2.576606572E-1,-2.779006660E-1
4.117580428E0,3.456780612E-1,-2.480732650E-1,-2.715090811E-1
4.120068240E0,3.573959470E-1,-2.395511568E-1,-2.661827505E-1
4.122556053E0,3.659180701E-1,-2.299637944E-1,-2.619217038E-1
4.125043865E0,3.723096550E-1,-2.214416862E-1,-2.576606572E-1
4.127531678E0,3.765707016E-1,-2.129195631E-1,-2.544648647E-1
4.130019490E0,3.765707016E-1,-2.065279931E-1,-2.523343265E-1
4.132507303E0,3.744401634E-1,-2.012016773E-1,-2.523343265E-1
4.134995115E0,3.680485785E-1,-1.980058849E-1,-2.555301189E-1
4.137482928E0,3.595264852E-1,-1.969406158E-1,-2.608564198E-1
4.139970740E0,3.478085697E-1,-1.958753467E-1,-2.672480047E-1
4.142458970E0,3.350254297E-1,-1.969406158E-1,-2.747048736E-1
4.144946834E0,3.211769760E-1,-1.990711391E-1,-2.853575051E-1
4.147434595E0,3.051980436E-1,-2.022669315E-1,-2.949448824E-1
4.149922355E0,2.902843356E-1,-2.054627240E-1,-3.055975139E-1
4.152410115E0,2.753706574E-1,-2.097237855E-1,-3.173153996E-1
4.154897876E0,2.625874877E-1,-2.139848322E-1,-3.290333152E-1
4.157385636E0,2.498043180E-1,-2.182458937E-1,-3.407512009E-1
4.159873397E0,2.402169555E-1,-2.214416862E-1,-3.514038324E-1
4.162361157E0,2.327601016E-1,-2.246374637E-1,-3.588607013E-1
4.164848918E0,2.274337858E-1,-2.267680019E-1,-3.641870022E-1
4.167336678E0,2.253032625E-1,-2.267680019E-1,-3.641870022E-1
4.169824438E0,2.263685167E-1,-2.246374637E-1,-3.620564938E-1
4.172312199E0,2.295643091E-1,-2.214416862E-1,-3.556649089E-1
4.174799959E0,2.338253707E-1,-2.182458937E-1,-3.460775316E-1
4.177287720E0,2.412822098E-1,-2.150501013E-1,-3.354249001E-1
4.179775480E0,2.487390637E-1,-2.129195631E-1,-3.247722387E-1
4.182263240E0,2.583264410E-1,-2.097237855E-1,-3.109238148E-1
4.184751001E0,2.711096108E-1,-2.065279931E-1,-2.970753908E-1
4.187238761E0,2.860232890E-1,-2.012016773E-1,-2.842922211E-1
4.189726522E0,3.009369671E-1,-1.926795542E-1,-2.704437971E-1
4.192214282E0,3.190464675E-1,-1.809616536E-1,-2.565953732E-1
4.194702043E0,3.371559381E-1,-1.671132296E-1,-2.448774725E-1
4.197189803E0,3.573959470E-1,-1.511342824E-1,-2.342248410E-1
4.199677563E0,3.776359558E-1,-1.340900660E-1,-2.257027328E-1
4.202165324E0,3.968107104E-1,-1.159805804E-1,-2.161153555E-1
4.204653084E0,4.138549268E-1,-1.000016257E-1,-2.075932473E-1
4.207140845E0,4.277033508E-1,-8.508793265E-2,-1.980058849E-1
4.209628605E0,4.404865205E-1,-7.123950869E-2,-1.884185076E-1
4.212116418E0,4.490086138E-1,-5.845634267E-2,-1.798963994E-1
4.214604230E0,4.543349445E-1,-4.886896908E-2,-1.703090221E-1
4.217092043E0,4.543349445E-1,-4.247738793E-2,-1.628521830E-1
4.219579855E0,4.500738978E-1,-3.821633384E-2,-1.564605981E-1
4.222067668E0,4.394212663E-1,-3.715106845E-2,-1.511342824E-1
4.224555480E0,4.234423041E-1,-4.034686089E-2,-1.490037590E-1
4.227043293E0,4.032022953E-1,-4.673844203E-2,-1.500690132E-1
4.229531105E0,3.765707016E-1,-5.526055023E-2,-1.532648057E-1
4.232018918E0,3.456780612E-1,-6.484792382E-2,-1.607216448E-1
4.234506730E0,3.126548827E-1,-7.656582445E-2,-1.713742912E-1
4.236994543E0,2.764359117E-1,-8.828372508E-2,-1.830921918E-1
4.239482355E0,2.391516864E-1,-1.000016257E-1,-1.980058849E-1
4.241970168E0,2.018674612E-1,-1.095889956E-1,-2.129195631E-1
4.244457980E0,1.667137593E-1,-1.181111038E-1,-2.278332561E-1
4.246945793E0,1.326253265E-1,-1.234374270E-1,-2.416816950E-1
4.249433605E0,1.017326787E-1,-1.287637353E-1,-2.544648647E-1
4.251921418E0,7.510108501E-2,-1.308942735E-1,-2.640522122E-1
4.254409230E0,5.166528746E-2,-1.319595277E-1,-2.704437971E-1
4.256897043E0,3.249054030E-2,-1.298290044E-1,-2.715090811E-1
4.259384855E0,1.757685095E-2,-1.266332120E-1,-2.683132887E-1
4.261872668E0,6.924213842E-3,-1.191763729E-1,-2.587259114E-1
4.264360480E0,2.663159044E-3,-1.063932031E-1,-2.438122183E-1
4.266848293E0,4.793686327E-3,-9.041424841E-2,-2.225069404E-1
4.269336105E0,1.225053146E-2,-6.804371625E-2,-1.969406158E-1
4.271823918E0,2.396843210E-2,-4.247738793E-2,-1.660479754E-1
4.274311730E0,4.207791388E-2,-1.371526904E-2,-1.340900660E-1
4.276799543E0,6.231792271E-2,1.611211337E-2,-1.000016257E-1
4.279287355E0,8.468846232E-2,4.593949392E-2,-6.591318548E-2
4.281775168E0,1.081242561E-1,7.470161468E-2,-3.502054140E-2
4.284262980E0,1.315600574E-1,9.920267761E-2,-7.323687430E-3
4.286750793E0,1.549958587E-1,1.183774248E-1,1.504684892E-2
4.289238605E0,1.763011366E-1,1.343563795E-1,3.102580272E-2
4.291726418E0,1.976063997E-1,1.450090110E-1,4.274370521E-2
4.294214230E0,2.178464085E-1,1.535311192E-1,5.020054802E-2
4.296702043E0,2.370211631E-1,1.577921808E-1,5.233107507E-2
4.299189855E0,2.551306486E-1,1.599227041E-1,5.339634046E-2
4.301677668E0,2.700443268E-1,1.588574350E-1,5.126581341E-2
4.304165480E0,2.849580348E-1,1.545963883E-1,4.700475931E-2
4.306653293E0,2.966759205E-1,1.482048035E-1,4.167843983E-2
4.309141105E0,3.062632978E-1,1.418132186E-1,3.422159329E-2
4.311628918E0,3.147853911E-1,1.354216337E-1,2.463422157E-2
4.314116730E0,3.211769760E-1,1.300953180E-1,1.504684892E-2
4.316604543E0,3.254380524E-1,1.247690022E-1,3.328948980E-3
4.319092355E0,3.286338449E-1,1.215732098E-1,-1.051947847E-2
4.321580168E0,3.296990991E-1,1.205079481E-1,-2.436790615E-2
4.324067980E0,3.286338449E-1,1.194426864E-1,-3.928159550E-2
4.326555793E0,3.254380524E-1,1.194426864E-1,-5.419528857E-2
4.329043605E0,3.201117218E-1,1.183774248E-1,-6.910897791E-2
4.331531418E0,3.105243444E-1,1.173121557E-1,-8.295740932E-2
4.334019230E0,2.988064587E-1,1.173121557E-1,-9.574057162E-2
4.336507043E0,2.838927507E-1,1.173121557E-1,-1.074584723E-1
4.338994855E0,2.668485343E-1,1.183774248E-1,-1.149153188E-1
4.341482668E0,2.444780022E-1,1.215732098E-1,-1.181111038E-1
4.343970480E0,2.199769467E-1,1.268995255E-1,-1.159805804E-1
4.346458293E0,1.933453530E-1,1.322258562E-1,-1.085237339E-1
4.348946105E0,1.656484902E-1,1.396826953E-1,-9.574057162E-2
4.351433918E0,1.358211190E-1,1.471395344E-1,-7.656582445E-2
4.353921730E0,1.070589945E-1,1.567269117E-1,-5.206476152E-2
4.356409543E0,7.829687744E-2,1.684448123E-1,-2.223737910E-2
4.358897355E0,5.273054913E-2,1.822932363E-1,1.291632187E-2
4.361385168E0,2.822948620E-2,2.004027218E-1,5.126581341E-2
4.363872980E0,5.858949851E-3,2.206427306E-1,9.281109273E-2
4.366360793E0,-1.438105945E-2,2.419480085E-1,1.343563795E-1
4.368848605E0,-3.249054030E-2,2.621880174E-1,1.759016514E-1
4.371336418E0,-4.740423337E-2,2.813627720E-1,2.153164148E-1
4.373824230E0,-6.125266105E-2,2.973417044E-1,2.526006401E-1
4.376312043E0,-7.297056168E-2,3.069290817E-1,2.845585644E-1
4.378799855E0,-8.362319320E-2,3.122554123E-1,3.101248741E-1
4.381287668E0,-9.214530140E-2,3.133206666E-1,3.303648829E-1
4.383775480E0,-9.747162461E-2,3.101248741E-1,3.442133069E-1
4.386263293E0,-1.017326787E-1,3.047985733E-1,3.506048918E-1
4.388751105E0,-1.049284711E-1,2.984069884E-1,3.516701460E-1
4.391238918E0,-1.049284711E-1,2.909501195E-1,3.463438451E-1
4.393726730E0,-1.038632020E-1,2.834932804E-1,3.388870060E-1
4.396214543E0,-1.006674170E-1,2.749711871E-1,3.271690905E-1
4.398702355E0,-9.640636295E-2,2.664490640E-1,3.133206666E-1
4.401190168E0,-8.788424730E-2,2.568616867E-1,2.962764502E-1
4.403677980E0,-7.616634667E-2,2.472743243E-1,2.771016955E-1
4.406165793E0,-6.231792271E-2,2.387522161E-1,2.568616867E-1
4.408653605E0,-4.633896798E-2,2.334259003E-1,2.344911546E-1
4.411141418E0,-2.929474972E-2,2.302301079E-1,2.099900991E-1
4.413629230E0,-1.118526794E-2,2.291648388E-1,1.865542978E-1
4.416117043E0,7.989477366E-3,2.312953621E-1,1.620532274E-1
4.418604855E0,2.609895915E-2,2.334259003E-1,1.396826953E-1
4.421092668E0,4.420844093E-2,2.376869470E-1,1.194426864E-1
4.423580480E0,6.125266105E-2,2.419480085E-1,1.034637317E-1
4.426068293E0,7.723161578E-2,2.472743243E-1,9.174583107E-2
4.428556105E0,9.001477808E-2,2.526006401E-1,8.748477697E-2
4.431043918E0,1.006674170E-1,2.600574791E-1,8.855003864E-2
4.433531730E0,1.081242561E-1,2.664490640E-1,9.707214683E-2
4.436019543E0,1.123853177E-1,2.749711871E-1,1.130511016E-1
4.438507355E0,1.145158410E-1,2.824280262E-1,1.354216337E-1
4.440995168E0,1.145158410E-1,2.909501195E-1,1.631184965E-1
4.443482980E0,1.123853177E-1,2.973417044E-1,1.940111369E-1
4.445970793E0,1.102547869E-1,3.016027808E-1,2.249037921E-1
4.448458605E0,1.102547869E-1,3.058638275E-1,2.557964325E-1
4.450946418E0,1.102547869E-1,3.090596199E-1,2.856238186E-1
4.453434230E0,1.091895252E-1,3.111901283E-1,3.111901283E-1
4.455922043E0,1.059937328E-1,3.111901283E-1,3.324954212E-1
4.458409855E0,9.960214794E-2,3.079943359E-1,3.484743834E-1
4.460897668E0,8.894951642E-2,3.005374968E-1,3.580617309E-1
4.463385480E0,7.510108501E-2,2.898848653E-1,3.655185997E-1
4.465873293E0,5.805686861E-2,2.707101107E-1,3.697796464E-1
4.468361105E0,4.101264849E-2,2.440785319E-1,3.719101548E-1
4.470848918E0,2.396843210E-2,2.131858915E-1,3.708449006E-1
4.473336730E0,6.924213842E-3,1.769669205E-1,3.687143922E-1
4.475824543E0,-9.054740891E-3,1.396826953E-1,3.623228073E-1
4.478312355E0,-2.183790505E-2,1.034637317E-1,3.538006842E-1
4.480800168E0,-3.355580568E-2,6.724476814E-2,3.420827985E-1
4.483287980E0,-4.314317927E-2,3.422159329E-2,3.292996287E-1
4.485775793E0,-4.953476042E-2,1.331579551E-4,3.111901283E-1
4.488263605E0,-5.273054913E-2,-3.289001435E-2,2.909501195E-1
4.490751418E0,-5.273054913E-2,-6.591318548E-2,2.664490640E-1
4.493239230E0,-4.740423337E-2,-9.787109494E-2,2.398174703E-1
4.495727043E0,-3.781685978E-2,-1.276984811E-1,2.110553533E-1
4.498214855E0,-2.290316857E-2,-1.532648057E-1,1.812279820E-1
4.500702668E0,-2.663159044E-3,-1.756353378E-1,1.524658650E-1
4.503190480E0,2.077264152E-2,-1.926795542E-1,1.237037405E-1
4.505678293E0,4.846949503E-2,-2.033322006E-1,9.813741595E-2
4.508166105E0,7.829687744E-2,-2.086585164E-1,7.789740711E-2
4.510653918E0,1.113200486E-1,-2.086585164E-1,6.298371404E-2
4.513141730E0,1.464737505E-1,-2.022669315E-1,5.765739456E-2
4.515629543E0,1.837579757E-1,-1.916143000E-1,5.765739456E-2
4.518117355E0,2.231727391E-1,-1.777658761E-1,6.298371404E-2
4.520605168E0,2.647180259E-1,-1.617869139E-1,7.363634557E-2
4.523092980E0,3.073285520E-1,-1.458079666E-1,8.855003864E-2
4.525580793E0,3.510043621E-1,-1.287637353E-1,1.066595241E-1
4.528068605E0,3.946801722E-1,-1.117195264E-1,1.268995255E-1
4.530556418E0,4.394212663E-1,-9.467530251E-2,1.471395344E-1
4.533044230E0,4.841623306E-1,-7.763108611E-2,1.684448123E-1
4.535532043E0,5.267728567E-1,-6.165213138E-2,1.897500902E-1
4.538019855E0,5.661876202E-1,-4.567318037E-2,2.110553533E-1
4.540507668E0,6.034718752E-1,-3.075948730E-2,2.312953621E-1
4.542995480E0,6.364950538E-1,-1.584579609E-2,2.504701018E-1
4.545483293E0,6.641919017E-1,-3.062632866E-3,2.685796022E-1
4.547971105E0,6.865624189E-1,6.524739787E-3,2.834932804E-1
4.550458918E0,7.014760971E-1,1.185105834E-2,2.973417044E-1
4.552946730E0,7.099981904E-1,1.398158539E-2,3.079943359E-1
4.555434543E0,7.099981904E-1,1.078579482E-2,3.165164590E-1
4.557922355E0,7.014760971E-1,3.328948980E-3,3.229080439E-1
4.560410168E0,6.854971647E-1,-9.454214945E-3,3.261038363E-1
4.562897980E0,6.609960794E-1,-2.436790615E-2,3.282343447E-1
4.565385793E0,6.301034689E-1,-4.567318037E-2,3.261038363E-1
4.567873605E0,5.928192139E-1,-6.804371625E-2,3.207775056E-1
4.570361418E0,5.512739420E-1,-9.254477918E-2,3.111901283E-1
4.572849230E0,5.065328479E-1,-1.191763729E-1,2.994722426E-1
4.575337043E0,4.575307369E-1,-1.436774284E-1,2.845585644E-1
4.577824855E0,4.063980877E-1,-1.681784987E-1,2.675143182E-1
4.580312668E0,3.531349003E-1,-1.916143000E-1,2.483395934E-1
4.582800480E0,2.934801280E-1,-2.129195631E-1,2.280995846E-1
4.585288293E0,2.316948473E-1,-2.352901101E-1,2.046637833E-1
4.587776105E0,1.645832360E-1,-2.576606572E-1,1.801627129E-1
4.590263918E0,9.534109384E-2,-2.800311744E-1,1.556616426E-1
4.592751730E0,2.396843210E-2,-3.002711833E-1,1.311605871E-1
4.595239543E0,-4.633896798E-2,-3.205111921E-1,1.109205782E-1
4.597727355E0,-1.145158410E-1,-3.343596160E-1,9.600688517E-2
4.600215168E0,-1.763011366E-1,-3.439469934E-1,8.641951531E-2
4.602703501E0,-2.316948473E-1,-3.471427858E-1,8.535424620E-2
4.605191470E0,-2.785664499E-1,-3.418164849E-1,9.174583107E-2
4.607679282E0,-3.169159293E-1,-3.290333152E-1,1.045289934E-1
4.610167095E0,-3.467433155E-1,-3.077280223E-1,1.226384789E-1
4.612654855E0,-3.669833243E-1,-2.832269669E-1,1.439437568E-1
4.615142615E0,-3.808317482E-1,-2.533995807E-1,1.673795432E-1
4.617630376E0,-3.861580789E-1,-2.214416862E-1,1.908153445E-1
4.620118136E0,-3.840275407E-1,-1.894837767E-1,2.121206224E-1
4.622605897E0,-3.755054474E-1,-1.596563905E-1,2.323606312E-1
4.625093657E0,-3.605917394E-1,-1.330247968E-1,2.494048476E-1
4.627581418E0,-3.414169848E-1,-1.106542572E-1,2.600574791E-1
4.630069178E0,-3.190464675E-1,-9.361004084E-2,2.643185556E-1
4.632556938E0,-2.966759205E-1,-8.295740932E-2,2.632532716E-1
4.635044699E0,-2.721748650E-1,-7.976161689E-2,2.536658943E-1
4.637532459E0,-2.487390637E-1,-8.402267098E-2,2.376869470E-1
4.640020220E0,-2.263685167E-1,-9.680583328E-2,2.142511457E-1
4.642508188E0,-2.039979845E-1,-1.181111038E-1,1.876195520E-1
4.644996157E0,-1.805621833E-1,-1.447426975E-1,1.588574350E-1
4.647484126E0,-1.560611278E-1,-1.756353378E-1,1.258342713E-1
4.649971990E0,-1.294295341E-1,-2.097237855E-1,9.281109273E-2
4.652459803E0,-9.853688627E-2,-2.416816950E-1,5.872265995E-2
4.654947615E0,-6.551371515E-2,-2.704437971E-1,2.569948509E-2
4.657435428E0,-2.716422267E-2,-2.970753908E-1,-6.258423906E-3
4.659923240E0,1.225053146E-2,-3.215764761E-1,-3.821633384E-2
4.662411053E0,5.486107618E-2,-3.460775316E-1,-6.697845459E-2
4.664898865E0,9.960214794E-2,-3.716438413E-1,-9.574057162E-2
4.667386678E0,1.475390196E-1,-3.950796425E-1,-1.223721579E-1
4.669874490E0,1.944106072E-1,-4.163849354E-1,-1.458079666E-1
4.672362303E0,2.423474789E-1,-4.312986135E-1,-1.660479754E-1
4.674850115E0,2.913496196E-1,-4.387554526E-1,-1.820269227E-1
4.677337876E0,3.414169848E-1,-4.376901984E-1,-1.926795542E-1
4.679825636E0,3.893538713E-1,-4.270375669E-1,-1.969406158E-1
4.682313397E0,4.372907281E-1,-4.067975581E-1,-1.937448233E-1
4.684801157E0,4.830970466E-1,-3.769701719E-1,-1.862879843E-1
4.687288918E0,5.257076025E-1,-3.375554085E-1,-1.735048145E-1
4.689776678E0,5.651223660E-1,-2.928143442E-1,-1.564605981E-1
4.692264438E0,6.002760530E-1,-2.416816950E-1,-1.362205893E-1
4.694752199E0,6.322339773E-1,-1.884185076E-1,-1.149153188E-1
4.697239959E0,6.609960794E-1,-1.351553202E-1,-9.467530251E-2
4.699727720E0,6.844319105E-1,-8.295740932E-2,-7.550056279E-2
4.702215480E0,7.046719193E-1,-3.182475269E-2,-5.952160433E-2
4.704703240E0,7.185203433E-1,1.504684892E-2,-4.567318037E-2
4.707191001E0,7.281076908E-1,5.872265995E-2,-3.502054140E-2
4.709678761E0,7.302381992E-1,9.494162351E-2,-2.756369673E-2
4.712166522E0,7.249119282E-1,1.237037405E-1,-2.117211558E-2
4.714654282E0,7.131940126E-1,1.439437568E-1,-1.691105962E-2
4.717142043E0,6.929540038E-1,1.556616426E-1,-1.265000552E-2
4.719629803E0,6.652571559E-1,1.577921808E-1,-8.388951421E-3
4.722117563E0,6.322339773E-1,1.545963883E-1,-5.193160381E-3
4.724605324E0,5.949497223E-1,1.460742801E-1,-1.997369342E-3
4.727093084E0,5.534044504E-1,1.364869028E-1,1.331579551E-4
4.729580845E0,5.086634159E-1,1.268995255E-1,1.198421582E-3
4.732068605E0,4.628570378E-1,1.173121557E-1,3.328948980E-3
4.734556365E0,4.149201810E-1,1.098553166E-1,4.394212738E-3
4.737044126E0,3.648527861E-1,1.002679393E-1,6.524739787E-3
4.739531886E0,3.158506751E-1,8.641951531E-2,8.655266836E-3
4.742019647E0,2.668485343E-1,6.831002980E-2,9.720530361E-3
4.744507459E0,2.221074700E-1,4.593949392E-2,8.655266836E-3
4.746995272E0,1.805621833E-1,2.143843099E-2,6.524739787E-3
4.749483084E0,1.443432271E-1,-5.193160381E-3,3.328948980E-3
4.751970897E0,1.155811027E-1,-3.289001435E-2,-9.321057005E-4
4.754458709E0,9.321057051E-2,-5.739107728E-2,-6.258423906E-3
4.756946522E0,7.829687744E-2,-7.976161689E-2,-1.158474199E-2
4.759434334E0,6.977476925E-2,-9.574057162E-2,-1.691105962E-2
4.761922147E0,6.657897681E-2,-1.053279415E-1,-2.010685205E-2
4.764409959E0,7.084003091E-2,-1.085237339E-1,-2.010685205E-2
4.766897772E0,7.829687744E-2,-1.063932031E-1,-1.584579609E-2
4.769385584E0,9.001477808E-2,-9.893636405E-2,-9.454214945E-3
4.771873397E0,1.059937328E-1,-8.615319431E-2,1.198421582E-3
4.774361209E0,1.241032109E-1,-7.017423958E-2,1.398158539E-2
4.776849022E0,1.432779580E-1,-5.099949613E-2,3.209106624E-2
4.779336834E0,1.635179669E-1,-2.862896025E-2,5.233107507E-2
4.781824647E0,1.826927215E-1,-6.258423906E-3,7.576687634E-2
4.784312459E0,1.997369379E-1,1.717737690E-2,1.034637317E-1
4.786800272E0,2.135853618E-1,3.848264739E-2,1.332911104E-1
4.789288084E0,2.210422009E-1,5.765739456E-2,1.652490199E-1
4.791775897E0,2.221074700E-1,7.257108390E-2,1.993374527E-1
4.794263709E0,2.146506310E-1,8.215846121E-2,2.334259003E-1
4.796751522E0,1.965411454E-1,8.748477697E-2,2.675143182E-1
4.799239334E0,1.688442826E-1,8.535424620E-2,2.984069884E-1
4.801727147E0,1.315600574E-1,7.576687634E-2,3.271690905E-1
4.804214959E0,8.575372398E-2,6.191844866E-2,3.527354300E-1
4.806702772E0,3.462106735E-2,4.274370521E-2,3.751059473E-1
4.809190584E0,-2.183790505E-2,2.037316747E-2,3.921501637E-1
4.811678397E0,-7.936213911E-2,-4.127896391E-3,4.049333334E-1
4.814166209E0,-1.379516423E-1,-3.502054140E-2,4.113249183E-1
4.816654022E0,-1.954758763E-1,-7.017423958E-2,4.123901725E-1
4.819141834E0,-2.498043180E-1,-1.095889956E-1,4.059986174E-1
4.821629647E0,-2.977411747E-1,-1.543300748E-1,3.942807019E-1
4.824117459E0,-3.382211924E-1,-1.980058849E-1,3.772364855E-1
4.826605272E0,-3.701791167E-1,-2.395511568E-1,3.538006842E-1
4.829093084E0,-3.914843798E-1,-2.747048736E-1,3.271690905E-1
4.831580897E0,-4.032022953E-1,-3.002711833E-1,2.973417044E-1
4.834068709E0,-4.042675495E-1,-3.151848912E-1,2.685796022E-1
4.836556522E0,-3.946801722E-1,-3.194459379E-1,2.398174703E-1
4.839044334E0,-3.765707016E-1,-3.141196072E-1,2.142511457E-1
4.841532147E0,-3.499391079E-1,-2.992059290E-1,1.929458827E-1
4.844019959E0,-3.179811835E-1,-2.768353820E-1,1.759016514E-1
4.846507772E0,-2.817622423E-1,-2.512690723E-1,1.631184965E-1
4.848995584E0,-2.444780022E-1,-2.235722095E-1,1.545963883E-1
4.851483397E0,-2.082590461E-1,-1.937448233E-1,1.482048035E-1
4.853971209E0,-1.731053442E-1,-1.660479754E-1,1.450090110E-1
4.856459022E0,-1.411474347E-1,-1.426121742E-1,1.428784877E-1
4.858946834E0,-1.145158410E-1,-1.213068962E-1,1.418132186E-1
4.861434647E0,-9.108003974E-2,-1.031974182E-1,1.418132186E-1
4.863922459E0,-7.403582335E-2,-8.934898674E-2,1.407479644E-1
4.866410272E0,-5.912213027E-2,-8.082687855E-2,1.396826953E-1
4.868898084E0,-4.953476042E-2,-7.656582445E-2,1.364869028E-1
4.871385897E0,-3.994738683E-2,-7.869634777E-2,1.311605871E-1
4.873873709E0,-3.142527863E-2,-8.721846342E-2,1.226384789E-1
4.876361522E0,-2.077264152E-2,-9.893636405E-2,1.109205782E-1
4.878849334E0,-4.793686327E-3,-1.138500497E-1,9.707214683E-2
4.881337147E0,1.544632297E-2,-1.308942735E-1,8.109319210E-2
4.883824959E0,4.420844093E-2,-1.447426975E-1,6.511423737E-2
4.886312772E0,7.936213911E-2,-1.553953290E-1,4.807002097E-2
4.888800584E0,1.262337416E-1,-1.628521830E-1,2.996053919E-2
4.891288397E0,1.805621833E-1,-1.660479754E-1,1.291632187E-2
4.893776209E0,2.444780022E-1,-1.660479754E-1,-5.193160381E-3
4.896264022E0,3.137201369E-1,-1.607216448E-1,-2.223737910E-2
4.898751834E0,3.893538713E-1,-1.511342824E-1,-3.821633384E-2
4.901239647E0,4.681833684E-1,-1.372858584E-1,-5.099949613E-2
4.903727459E0,5.480781198E-1,-1.191763729E-1,-6.165213138E-2
4.906215272E0,6.269076467E-1,-1.000016257E-1,-6.697845459E-2
4.908703084E0,7.025413513E-1,-7.656582445E-2,-6.910897791E-2
4.911190897E0,7.717835307E-1,-5.099949613E-2,-6.697845459E-2
4.913678709E0,8.346340656E-1,-2.436790615E-2,-6.058686972E-2
4.916166522E0,8.889625072E-1,4.394212738E-3,-5.099949613E-2
4.918654334E0,9.337036014E-1,3.315633163E-2,-3.928159550E-2
4.921142147E0,9.667267799E-1,6.404897571E-2,-2.543316968E-2
4.923629959E0,9.869667888E-1,9.281109273E-2,-8.388951421E-3
4.926117772E0,9.912278056E-1,1.205079481E-1,1.078579482E-2
4.928605584E0,9.816404581E-1,1.439437568E-1,3.209106624E-2
4.931093397E0,9.560741186E-1,1.631184965E-1,5.339634046E-2
4.933581209E0,9.155941010E-1,1.748363972E-1,7.363634557E-2
4.936069022E0,8.591351509E-1,1.780321896E-1,9.281109273E-2
4.938556834E0,7.866972089E-1,1.727058738E-1,1.098553166E-1
4.941044647E0,7.014760971E-1,1.588574350E-1,1.215732098E-1
4.943532459E0,6.066676378E-1,1.386174262E-1,1.290300637E-1
4.946020272E0,5.044023395E-1,1.130511016E-1,1.332911104E-1
4.948508084E0,3.989412189E-1,8.322372288E-2,1.332911104E-1
4.950995897E0,2.956106663E-1,5.339634046E-2,1.300953180E-1
4.953483709E0,1.976063997E-1,2.463422157E-2,1.258342713E-1
4.955971522E0,1.070589945E-1,-5.193160381E-3,1.205079481E-1
4.958459334E0,2.822948620E-2,-3.395527974E-2,1.130511016E-1
4.960947147E0,-3.994738683E-2,-6.378266215E-2,1.045289934E-1
4.963434959E0,-9.427583218E-2,-9.147951752E-2,9.707214683E-2
4.965922772E0,-1.358211190E-1,-1.181111038E-1,8.961530030E-2
4.968410584E0,-1.656484902E-1,-1.426121742E-1,8.428898454E-2
4.970898397E0,-1.826927215E-1,-1.639174372E-1,7.896266878E-2
4.973386209E0,-1.869537681E-1,-1.820269227E-1,7.257108390E-2
4.975874022E0,-1.773663908E-1,-1.969406158E-1,6.937529147E-2
4.978361834E0,-1.560611278E-1,-2.086585164E-1,6.724476814E-2
4.980849647E0,-1.230379492E-1,-2.193111479E-1,6.511423737E-2
4.983337459E0,-7.936213911E-2,-2.310290486E-1,6.298371404E-2
4.985825272E0,-2.822948620E-2,-2.438122183E-1,6.085318699E-2
4.988313084E0,2.609895915E-2,-2.565953732E-1,5.765739456E-2
