"Time (s)","Acceleration x (m/s^2)","Acceleration y (m/s^2)","Acceleration z (m/s^2)"
4.999865700E-2,1.129225254E1,6.274604321E0,-2.147000313E0
5.247568800E-2,1.129704094E1,6.303334713E0,-2.142211914E0
5.495402200E-2,1.132098293E1,6.332065105E0,-2.099116325E0
5.743397000E-2,1.136886692E1,6.356007099E0,-2.056020737E0
5.991579300E-2,1.138323212E1,6.399102688E0,-1.998559833E0
6.239964700E-2,1.140717411E1,6.403891087E0,-1.945887446E0
6.488563600E-2,1.145505810E1,6.442198277E0,-1.902791858E0
6.737376100E-2,1.150294209E1,6.423044682E0,-1.883638144E0
6.986391800E-2,1.155082607E1,6.375160694E0,-1.883638144E0
7.235589700E-2,1.160349846E1,6.351218700E0,-1.912368655E0
7.484787600E-2,1.164180565E1,6.327276707E0,-1.921945453E0
7.734131300E-2,1.168968964E1,6.308123112E0,-1.926733851E0
7.983589700E-2,1.172799683E1,6.308123112E0,-1.941099048E0
8.233131300E-2,1.177109241E1,6.317699909E0,-1.912368655E0
8.482725100E-2,1.182376480E1,6.327276707E0,-1.874061346E0
8.732334500E-2,1.186207199E1,6.341641903E0,-1.811812162E0
8.981553200E-2,1.191474438E1,6.351218700E0,-1.735197663E0
9.230334500E-2,1.195305157E1,6.303334713E0,-1.677736878E0
9.479115700E-2,1.196741676E1,6.226719856E0,-1.620275974E0
9.727897000E-2,1.197220516E1,6.116586685E0,-1.562815189E0
9.976678200E-2,1.196262836E1,5.977723122E0,-1.500565886E0
1.022545950E-1,1.194347477E1,5.867589951E0,-1.443105102E0
1.047424070E-1,1.191953278E1,5.771821976E0,-1.347337008E0
1.072302200E-1,1.191953278E1,5.714360714E0,-1.241992116E0
1.097180320E-1,1.192910957E1,5.685630322E0,-1.112705231E0
1.122058450E-1,1.190995598E1,5.676053524E0,-9.834183455E-1
1.146936570E-1,1.184770679E1,5.671265125E0,-8.972271085E-1
1.171814700E-1,1.175193882E1,5.666476727E0,-8.110358119E-1
1.196692820E-1,1.162744045E1,5.690418720E0,-7.439981699E-1
1.221570950E-1,1.148378849E1,5.699995518E0,-7.152677774E-1
1.246449070E-1,1.134492493E1,5.671265125E0,-7.392097712E-1
1.271327200E-1,1.122042656E1,5.632957935E0,-7.870938182E-1
1.296205320E-1,1.113423538E1,5.623381138E0,-8.254010081E-1
1.321083450E-1,1.106240940E1,5.632957935E0,-8.493430614E-1
1.345961570E-1,1.099058247E1,5.609015942E0,-8.972271085E-1
1.370839700E-1,1.095227528E1,5.599439144E0,-9.403226972E-1
1.395717820E-1,1.090439129E1,5.594650745E0,-9.690531492E-1
1.420595950E-1,1.086608410E1,5.623381138E0,-9.738415480E-1
1.445474070E-1,1.081341171E1,5.676053524E0,-1.012148738E0
1.470352200E-1,1.077989292E1,5.699995518E0,-1.031302333E0
1.495230320E-1,1.076073933E1,5.699995518E0,-1.050456047E0
1.520108450E-1,1.072243214E1,5.699995518E0,-1.083974838E0
1.544986570E-1,1.069370174E1,5.719149113E0,-1.093551636E0
1.569864700E-1,1.066018295E1,5.728725910E0,-1.107916832E0
1.594742820E-1,1.060751057E1,5.767033577E0,-1.093551636E0
1.619620950E-1,1.055483818E1,5.776610374E0,-1.045667648E0
1.644499070E-1,1.050216579E1,5.843647957E0,-1.002571940E0
1.669377200E-1,1.047822380E1,5.877166748E0,-9.307458997E-1
1.694255320E-1,1.044949341E1,5.925050735E0,-8.349778652E-1
1.719133450E-1,1.043512821E1,5.934627533E0,-7.775170207E-1
1.744011570E-1,1.042076302E1,5.934627533E0,-7.487865686E-1
1.768889700E-1,1.039682102E1,5.934627533E0,-7.392097712E-1
1.793767820E-1,1.037766743E1,5.934627533E0,-7.392097712E-1
1.818645950E-1,1.032499504E1,5.944204330E0,-7.200561762E-1
1.843524070E-1,1.025316906E1,5.953781128E0,-6.913257241E-1
1.868402200E-1,1.021007347E1,6.001665115E0,-6.530185342E-1
1.893280320E-1,1.017176628E1,6.039972305E0,-5.764040351E-1
1.918158450E-1,1.015261269E1,6.078279495E0,-5.093663931E-1
1.943036570E-1,1.009515190E1,6.111798286E0,-4.423287511E-1
1.967914700E-1,9.980229378E0,6.116586685E0,-3.848679364E-1
1.992792820E-1,9.798270226E0,6.135740280E0,-3.130418658E-1
2.017670950E-1,9.554061890E0,6.130951881E0,-2.555810213E-1
2.042549070E-1,9.266757965E0,6.183624268E0,-2.076970041E-1
2.067427200E-1,8.979453087E0,6.288969517E0,-2.029085904E-1
2.092305320E-1,8.749609947E0,6.432621479E0,-2.076970041E-1
2.117183450E-1,8.514978409E0,6.561908245E0,-2.316390127E-1
2.142061570E-1,8.299500465E0,6.648099422E0,-2.843114436E-1
2.166939700E-1,8.146271706E0,6.700771809E0,-3.369838893E-1
2.191817820E-1,8.060079575E0,6.676829815E0,-3.896563351E-1
2.216695950E-1,7.983465672E0,6.595427036E0,-4.950011969E-1
2.241574070E-1,7.940370083E0,6.475717068E0,-6.099228859E-1
2.266452200E-1,7.959523678E0,6.356007099E0,-7.344213724E-1
2.291330320E-1,7.997830868E0,6.245873451E0,-8.397662640E-1
2.316208450E-1,8.002618790E0,6.150105476E0,-9.498994946E-1
2.341086570E-1,8.016983986E0,6.063914299E0,-1.045667648E0
2.365964700E-1,8.031349182E0,5.963357925E0,-1.174954534E0
2.390842820E-1,8.026560783E0,5.848436356E0,-1.280299306E0
2.415720950E-1,8.050502777E0,5.757456303E0,-1.356913805E0
2.440599070E-1,8.074444771E0,5.632957935E0,-1.414374709E0
2.465477200E-1,8.117541313E0,5.474940777E0,-1.467047095E0
2.490355320E-1,8.175002098E0,5.364807606E0,-1.538873196E0
2.515233450E-1,8.232462883E0,5.264250755E0,-1.586757183E0
2.540111570E-1,8.280346870E0,5.197213173E0,-1.629852772E0
2.564989700E-1,8.333019257E0,5.130175591E0,-1.658583283E0
2.589867820E-1,8.356961250E0,5.067926407E0,-1.692102075E0
2.614745950E-1,8.371326447E0,5.029619217E0,-1.682525277E0
2.639624070E-1,8.385691643E0,4.986523628E0,-1.658583283E0
2.664502200E-1,8.400056839E0,4.957793236E0,-1.634641171E0
2.689380320E-1,8.385691643E0,4.909909248E0,-1.591545582E0
2.714258450E-1,8.342596054E0,4.842871666E0,-1.567603588E0
2.739136570E-1,8.299500465E0,4.766256809E0,-1.558026791E0
2.764014700E-1,8.251616478E0,4.689642429E0,-1.514931083E0
2.788892820E-1,8.194155693E0,4.603451252E0,-1.471835494E0
2.813770950E-1,8.136694908E0,4.517260075E0,-1.457470298E0
2.838649070E-1,8.079233170E0,4.445434093E0,-1.438316703E0
2.863527200E-1,7.988254070E0,4.402338505E0,-1.414374709E0
2.888405320E-1,7.839813232E0,4.383184910E0,-1.404797792E0
2.913283450E-1,7.624335289E0,4.411915302E0,-1.380855799E0
2.938161570E-1,7.423222542E0,4.440645695E0,-1.342548609E0
2.963039700E-1,7.217320919E0,4.478952885E0,-1.304241419E0
2.987917820E-1,7.040150166E0,4.498106480E0,-1.265934110E0
3.012795950E-1,6.901286602E0,4.464587688E0,-1.237203717E0
3.037674070E-1,6.791152954E0,4.397550106E0,-1.232415318E0
3.062552200E-1,6.704961777E0,4.292205334E0,-1.261145711E0
3.087430320E-1,6.661866188E0,4.167706490E0,-1.299453020E0
3.112308450E-1,6.657077789E0,4.086303711E0,-1.328183413E0
3.137186570E-1,6.628347397E0,4.047996521E0,-1.356913805E0
3.162064700E-1,6.613982201E0,4.019266129E0,-1.376067400E0
3.186942820E-1,6.628347397E0,4.004900932E0,-1.361702204E0
3.211820950E-1,6.671442986E0,3.971382141E0,-1.337760210E0
3.236699070E-1,6.748057365E0,3.904344320E0,-1.313818216E0
3.261577200E-1,6.886921406E0,3.775057554E0,-1.309029818E0
3.286455320E-1,7.044938564E0,3.636193752E0,-1.265934110E0
3.311333450E-1,7.236474514E0,3.487753391E0,-1.270722508E0
3.336211570E-1,7.418434143E0,3.358466387E0,-1.294664621E0
3.361089700E-1,7.605181694E0,3.233968019E0,-1.342548609E0
3.385967820E-1,7.744045258E0,3.138199806E0,-1.433528304E0
3.410845950E-1,7.858967304E0,3.037643433E0,-1.505354285E0
3.435724070E-1,7.969100475E0,2.937086821E0,-1.553238392E0
3.460602200E-1,8.060079575E0,2.836530447E0,-1.586757183E0
3.485480320E-1,8.127118111E0,2.740762472E0,-1.581968784E0
3.510358450E-1,8.146271706E0,2.678513050E0,-1.572391987E0
3.535236570E-1,8.175002098E0,2.640205860E0,-1.558026791E0
3.560114700E-1,8.218097687E0,2.611475468E0,-1.553238392E0
3.584992820E-1,8.232462883E0,2.644994259E0,-1.581968784E0
3.609870950E-1,8.213309288E0,2.673724651E0,-1.644217968E0
3.634749070E-1,8.131906509E0,2.702455282E0,-1.711255670E0
3.659627200E-1,8.031349182E0,2.740762472E0,-1.797446966E0
3.684505320E-1,7.902062893E0,2.807800055E0,-1.850119352E0
3.709383450E-1,7.763198853E0,2.908356428E0,-1.898003340E0
3.734261570E-1,7.629123688E0,2.999336243E0,-1.955464244E0
3.759139700E-1,7.466318130E0,3.104681015E0,-2.017713547E0
3.784017820E-1,7.255628109E0,3.219602823E0,-2.060809135E0
3.808895950E-1,7.068880558E0,3.334524393E0,-2.065597534E0
3.833774070E-1,6.886921406E0,3.420715570E0,-2.056020737E0
3.858652200E-1,6.752845764E0,3.502118587E0,-2.051232338E0
3.883530320E-1,6.633135796E0,3.597886562E0,-2.036867142E0
3.908408450E-1,6.532579422E0,3.703231573E0,-2.008136749E0
3.933286570E-1,6.446388245E0,3.808576345E0,-2.003348351E0
3.958164700E-1,6.408081055E0,3.904344320E0,-1.979406238E0
3.983042820E-1,6.379350662E0,3.942651749E0,-1.945887446E0
4.007920950E-1,6.350619793E0,3.952228546E0,-1.912368655E0
4.032799070E-1,6.364984989E0,3.928286552E0,-1.874061346E0
4.057677200E-1,6.417657852E0,3.846883535E0,-1.811812162E0
4.082555320E-1,6.527791023E0,3.746327162E0,-1.720832467E0
4.107433450E-1,6.728903770E0,3.636193752E0,-1.629852772E0
4.132311570E-1,6.949170589E0,3.506906986E0,-1.562815189E0
4.157189700E-1,7.174225330E0,3.425503969E0,-1.510142684E0
4.182067820E-1,7.389703751E0,3.363254786E0,-1.490989089E0
4.206945950E-1,7.552509308E0,3.324947596E0,-1.486200690E0
4.231824070E-1,7.681796074E0,3.315370798E0,-1.500565886E0
4.256702200E-1,7.782352448E0,3.291428804E0,-1.505354285E0
4.281580320E-1,7.858967304E0,3.277063608E0,-1.519719481E0
4.306458450E-1,7.897274494E0,3.262698412E0,-1.510142684E0
4.331336570E-1,7.887697697E0,3.267486811E0,-1.495777488E0
4.356214700E-1,7.887697697E0,3.272275209E0,-1.452681899E0
4.381092820E-1,7.897274494E0,3.257910013E0,-1.409586191E0
4.405970950E-1,7.945158482E0,3.243544817E0,-1.395220995E0
4.430849070E-1,7.993042469E0,3.248333216E0,-1.390432596E0
4.455727200E-1,8.079233170E0,3.281852007E0,-1.404797792E0
4.480605320E-1,8.131906509E0,3.315370798E0,-1.423951507E0
4.505483450E-1,8.151060104E0,3.324947596E0,-1.462258697E0
4.530361570E-1,8.146271706E0,3.358466387E0,-1.529296279E0
4.555239700E-1,8.160636902E0,3.377619982E0,-1.548449993E0
4.580117820E-1,8.155848503E0,3.382408381E0,-1.596333981E0
4.604995950E-1,8.107964516E0,3.430292368E0,-1.649006367E0
4.629874070E-1,8.050502777E0,3.454234600E0,-1.711255670E0
4.654752200E-1,7.916428089E0,3.521272182E0,-1.754351258E0
4.679630320E-1,7.710526466E0,3.631405354E0,-1.783081770E0
4.704508450E-1,7.428010941E0,3.775057554E0,-1.773504853E0
4.729386570E-1,7.164648533E0,3.980958939E0,-1.759139657E0
4.754264700E-1,6.949170589E0,4.186860085E0,-1.759139657E0
4.779142820E-1,6.781576157E0,4.354454517E0,-1.754351258E0
4.804020950E-1,6.719326973E0,4.488529682E0,-1.763928056E0
4.828899070E-1,6.719326973E0,4.555567265E0,-1.773504853E0
4.853777200E-1,6.757634163E0,4.565144062E0,-1.787870169E0
4.878655320E-1,6.839036942E0,4.531625271E0,-1.783081770E0
4.903533450E-1,6.963535786E0,4.488529682E0,-1.749562860E0
4.928411570E-1,7.116764545E0,4.435857296E0,-1.735197663E0
4.953289700E-1,7.308300495E0,4.373608112E0,-1.711255670E0
4.978167820E-1,7.495048523E0,4.320935726E0,-1.711255670E0
5.003045950E-1,7.633912086E0,4.253897667E0,-1.749562860E0
5.027925110E-1,7.763198853E0,4.191648483E0,-1.744774461E0
5.052804280E-1,7.873332500E0,4.105457306E0,-1.768716455E0
5.077683450E-1,7.959523678E0,4.038419724E0,-1.759139657E0
5.102562610E-1,8.016983986E0,3.971382141E0,-1.754351258E0
5.127441780E-1,8.055291176E0,3.933074951E0,-1.749562860E0
5.152320950E-1,8.079233170E0,3.918709517E0,-1.749562860E0
5.177200110E-1,8.131906509E0,3.913921118E0,-1.730409265E0
5.202079280E-1,8.160636902E0,3.952228546E0,-1.749562860E0
5.226958450E-1,8.175002098E0,3.976170540E0,-1.816600561E0
5.251837610E-1,8.208520889E0,4.000112534E0,-1.907580256E0
5.276716780E-1,8.242039680E0,4.019266129E0,-1.998559833E0
5.301595950E-1,8.270770073E0,4.019266129E0,-2.103904724E0
5.326474590E-1,8.299500465E0,3.995324135E0,-2.214038134E0
5.351353240E-1,8.323442459E0,3.990535736E0,-2.281075716E0
5.376231360E-1,8.313865662E0,4.004900932E0,-2.328959703E0
5.401109490E-1,8.270770073E0,4.024054527E0,-2.367266893E0
5.425987610E-1,8.261193275E0,4.028842926E0,-2.405574083E0
5.450865740E-1,8.246828079E0,4.033631325E0,-2.424727678E0
5.475743860E-1,8.170213699E0,4.033631325E0,-2.424727678E0
5.500621990E-1,8.016983986E0,4.091092110E0,-2.434304476E0
5.525500110E-1,7.782352448E0,4.206013680E0,-2.381632090E0
5.550378240E-1,7.595604897E0,4.344877720E0,-2.343324900E0
5.575256360E-1,7.423222542E0,4.474164486E0,-2.271498919E0
5.600134490E-1,7.341819286E0,4.560355663E0,-2.209249735E0
5.625012610E-1,7.327454090E0,4.608239651E0,-2.079962730E0
5.649890740E-1,7.375338554E0,4.603451252E0,-1.969829440E0
5.674768860E-1,7.461529732E0,4.550778866E0,-1.893214941E0
5.699646990E-1,7.557297707E0,4.483741283E0,-1.787870169E0
5.724525110E-1,7.677007675E0,4.411915302E0,-1.668160081E0
5.749403240E-1,7.815871239E0,4.301782131E0,-1.591545582E0
5.774281360E-1,7.921216488E0,4.196436882E0,-1.538873196E0
5.799159490E-1,8.031349182E0,4.105457306E0,-1.452681899E0
5.824037610E-1,8.103176117E0,4.024054527E0,-1.380855799E0
5.848915740E-1,8.155848503E0,3.957016945E0,-1.289876223E0
5.873793860E-1,8.189367294E0,3.880402327E0,-1.213261724E0
5.898671990E-1,8.242039680E0,3.827729940E0,-1.151012421E0
5.923550110E-1,8.280346870E0,3.770269156E0,-1.117493629E0
5.948428240E-1,8.294712067E0,3.712808371E0,-1.093551636E0
5.973306360E-1,8.318654060E0,3.684077978E0,-1.107916832E0
5.998184490E-1,8.275558472E0,3.684077978E0,-1.141435623E0
6.023062610E-1,8.232462883E0,3.655347347E0,-1.184531331E0
6.047940740E-1,8.184578896E0,3.636193752E0,-1.237203717E0
6.072818860E-1,8.170213699E0,3.588309765E0,-1.309029818E0
6.097696990E-1,8.170213699E0,3.511695385E0,-1.390432596E0
6.122575110E-1,8.189367294E0,3.459022999E0,-1.467047095E0
6.147453240E-1,8.232462883E0,3.368043184E0,-1.543661594E0
6.172331360E-1,8.299500465E0,3.286640406E0,-1.653794765E0
6.197209490E-1,8.371326447E0,3.229179621E0,-1.759139657E0
6.222087610E-1,8.423998833E0,3.181295395E0,-1.845330954E0
6.246965740E-1,8.471882820E0,3.138199806E0,-1.907580256E0
6.271843860E-1,8.495824814E0,3.109469414E0,-1.965041041E0
6.296721990E-1,8.491036415E0,3.104681015E0,-1.998559833E0
6.321600110E-1,8.486248016E0,3.104681015E0,-2.022501945E0
6.346478240E-1,8.462306023E0,3.119046211E0,-2.051232338E0
6.371356360E-1,8.395268440E0,3.157353401E0,-2.060809135E0
6.396234490E-1,8.318654060E0,3.171718597E0,-2.036867142E0
6.421112610E-1,8.246828079E0,3.190872431E0,-2.008136749E0
6.445990740E-1,8.093599319E0,3.214814425E0,-1.955464244E0
6.470868860E-1,7.921216488E0,3.286640406E0,-1.898003340E0
6.495746990E-1,7.734468460E0,3.377619982E0,-1.826177359E0
6.520625110E-1,7.590816498E0,3.487753391E0,-1.744774461E0
6.545503240E-1,7.485471725E0,3.588309765E0,-1.668160081E0
6.570381360E-1,7.399280548E0,3.655347347E0,-1.653794765E0
6.595259490E-1,7.346607685E0,3.698443174E0,-1.629852772E0
6.620137610E-1,7.351396084E0,3.736750364E0,-1.620275974E0
6.645015740E-1,7.423222542E0,3.746327162E0,-1.625064373E0
6.669893860E-1,7.490260124E0,3.703231573E0,-1.644217968E0
6.694771990E-1,7.586028099E0,3.655347347E0,-1.668160081E0
6.719650110E-1,7.710526466E0,3.588309765E0,-1.701678872E0
6.744528240E-1,7.782352448E0,3.482964993E0,-1.725620866E0
6.769406360E-1,7.868544102E0,3.396773577E0,-1.739986062E0
6.794284490E-1,7.964312077E0,3.334524393E0,-1.749562860E0
6.819162610E-1,8.045714378E0,3.267486811E0,-1.754351258E0
6.844040740E-1,8.131906509E0,3.229179621E0,-1.763928056E0
6.868918860E-1,8.237251282E0,3.233968019E0,-1.802235365E0
6.893796990E-1,8.313865662E0,3.219602823E0,-1.878849745E0
6.918675110E-1,8.390480042E0,3.210026026E0,-1.993771434E0
6.943553240E-1,8.452729225E0,3.181295395E0,-2.108693123E0
6.968431360E-1,8.524555206E0,3.166930199E0,-2.237980127E0
6.993309490E-1,8.615534782E0,3.171718597E0,-2.343324900E0
7.018187610E-1,8.687360764E0,3.186083794E0,-2.448669672E0
7.043065740E-1,8.740033150E0,3.181295395E0,-2.491765499E0
7.067943860E-1,8.763975143E0,3.166930199E0,-2.554014683E0
7.092821990E-1,8.797493935E0,3.200449228E0,-2.654571056E0
7.117700110E-1,8.811859131E0,3.229179621E0,-2.759916067E0
7.142578240E-1,8.807070732E0,3.272275209E0,-2.841318846E0
7.167456360E-1,8.735244751E0,3.329735994E0,-2.932298422E0
7.192334490E-1,8.658630371E0,3.382408381E0,-2.989759445E0
7.217212610E-1,8.582015991E0,3.439869404E0,-3.047220230E0
7.242090740E-1,8.558073997E0,3.497330189E0,-3.071162224E0
7.266968860E-1,8.534132004E0,3.540425777E0,-3.071162224E0
7.291846990E-1,8.505401611E0,3.588309765E0,-3.047220230E0
7.316725110E-1,8.423998833E0,3.631405354E0,-2.994547844E0
7.341603240E-1,8.309077263E0,3.688866377E0,-2.908356428E0
7.366481360E-1,8.141483307E0,3.798999548E0,-2.836530447E0
7.391359490E-1,7.988254070E0,3.928286552E0,-2.764704466E0
7.416237610E-1,7.887697697E0,4.067150116E0,-2.678513050E0
7.441115740E-1,7.815871239E0,4.143764496E0,-2.616263866E0
7.465993860E-1,7.782352448E0,4.148552895E0,-2.510919094E0
7.490871990E-1,7.782352448E0,4.105457306E0,-2.415150881E0
7.515750110E-1,7.796717644E0,4.052784920E0,-2.290652514E0
7.540628240E-1,7.839813232E0,3.952228546E0,-2.194884300E0
7.565506360E-1,7.897274494E0,3.870825529E0,-2.079962730E0
7.590384490E-1,7.983465672E0,3.770269156E0,-1.974617839E0
7.615262610E-1,8.093599319E0,3.669712543E0,-1.893214941E0
7.640140740E-1,8.242039680E0,3.564367771E0,-1.797446966E0
7.665018860E-1,8.356961250E0,3.487753391E0,-1.739986062E0
7.689896990E-1,8.428787231E0,3.420715570E0,-1.701678872E0
7.714775110E-1,8.452729225E0,3.358466387E0,-1.682525277E0
7.739653240E-1,8.414422035E0,3.296217203E0,-1.711255670E0
7.764531360E-1,8.337807655E0,3.224391222E0,-1.739986062E0
7.789409490E-1,8.270770073E0,3.133411407E0,-1.797446966E0
7.814287610E-1,8.194155693E0,3.052008629E0,-1.787870169E0
7.839165740E-1,8.170213699E0,2.989759445E0,-1.783081770E0
7.864043860E-1,8.184578896E0,2.961029053E0,-1.739986062E0
7.888921990E-1,8.222886086E0,2.932298422E0,-1.701678872E0
7.913800110E-1,8.285135269E0,2.903568029E0,-1.653794765E0
7.938678240E-1,8.356961250E0,2.889202833E0,-1.615487576E0
7.963556360E-1,8.452729225E0,2.817376852E0,-1.572391987E0
7.988434490E-1,8.491036415E0,2.740762472E0,-1.534084797E0
8.013312610E-1,8.558073997E0,2.640205860E0,-1.490989089E0
8.038190740E-1,8.629899979E0,2.563591480E0,-1.481412292E0
8.063068860E-1,8.711302757E0,2.496553898E0,-1.471835494E0
8.087946990E-1,8.792705536E0,2.453458309E0,-1.462258697E0
8.112825110E-1,8.898050308E0,2.467823505E0,-1.471835494E0
8.137703240E-1,9.008183479E0,2.467823505E0,-1.471835494E0
8.162581360E-1,9.051279068E0,2.491765499E0,-1.505354285E0
8.187459490E-1,9.075222015E0,2.515707493E0,-1.553238392E0
8.212337610E-1,9.036913872E0,2.525284290E0,-1.610699177E0
8.237215740E-1,8.965087891E0,2.539649487E0,-1.663371682E0
8.262093860E-1,8.854954720E0,2.549226284E0,-1.730409265E0
8.286971990E-1,8.749609947E0,2.563591480E0,-1.792658567E0
8.311850110E-1,8.653841972E0,2.549226284E0,-1.859696150E0
8.336728240E-1,8.572439194E0,2.544437885E0,-1.926733851E0
8.361606360E-1,8.553285599E0,2.506130695E0,-2.017713547E0
8.386484490E-1,8.548497200E0,2.467823505E0,-2.099116325E0
8.411362610E-1,8.577227592E0,2.391208887E0,-2.180519104E0
8.436240740E-1,8.605957985E0,2.319382906E0,-2.237980127E0
8.461118860E-1,8.610746384E0,2.242768526E0,-2.314594507E0
8.485996990E-1,8.620323181E0,2.132635117E0,-2.386420488E0
8.510875110E-1,8.644265175E0,1.998559833E0,-2.463035107E0
8.535753240E-1,8.696937561E0,1.874061346E0,-2.501342297E0
8.560631360E-1,8.720879555E0,1.739986062E0,-2.525284290E0
8.585509490E-1,8.696937561E0,1.639429569E0,-2.496553898E0
8.610387610E-1,8.677783966E0,1.558026791E0,-2.472611904E0
8.635265740E-1,8.668207169E0,1.486200690E0,-2.458246708E0
8.660143860E-1,8.634688377E0,1.414374709E0,-2.472611904E0
8.685021990E-1,8.610746384E0,1.361702204E0,-2.467823505E0
8.709900110E-1,8.586804390E0,1.313818216E0,-2.506130695E0
8.734778240E-1,8.567650795E0,1.270722508E0,-2.525284290E0
8.759656360E-1,8.543708801E0,1.241992116E0,-2.544437885E0
8.784534490E-1,8.538920403E0,1.232415318E0,-2.539649487E0
8.809412610E-1,8.510190010E0,1.227626920E0,-2.510919094E0
8.834290740E-1,8.486248016E0,1.198896527E0,-2.434304476E0
8.859168860E-1,8.500613213E0,1.170166135E0,-2.328959703E0
8.884046990E-1,8.548497200E0,1.170166135E0,-2.223614931E0
8.908925110E-1,8.644265175E0,1.174954534E0,-2.108693123E0
8.933803240E-1,8.763975143E0,1.213261724E0,-1.988983035E0
8.958681360E-1,8.869319916E0,1.237203717E0,-1.845330954E0
8.983559490E-1,8.945934296E0,1.299453020E0,-1.749562860E0
9.008437610E-1,9.017760277E0,1.395220995E0,-1.639429569E0
9.033315740E-1,9.056067467E0,1.495777488E0,-1.500565886E0
9.058193860E-1,9.118317604E0,1.596333981E0,-1.318606615E0
9.083071990E-1,9.199720383E0,1.696890473E0,-1.155800819E0
9.107950110E-1,9.276334763E0,1.816600561E0,-1.012148738E0
9.132828240E-1,9.338583946E0,1.974617839E0,-9.020155072E-1
9.157706360E-1,9.352949142E0,2.151788712E0,-7.918822169E-1
9.182584490E-1,9.333795547E0,2.362478495E0,-7.679402232E-1
9.207462610E-1,9.247604370E0,2.606687069E0,-8.014590144E-1
9.232340740E-1,9.127894402E0,2.855684042E0,-8.828618526E-1
9.257218860E-1,8.955511093E0,3.095104218E0,-1.021725535E0
9.282096990E-1,8.783128738E0,3.291428804E0,-1.208473325E0
9.306975110E-1,8.572439194E0,3.502118587E0,-1.419163108E0
9.331853240E-1,8.366538048E0,3.717596769E0,-1.610699177E0
9.356731360E-1,8.194155693E0,3.928286552E0,-1.759139657E0
9.381609490E-1,8.036137581E0,4.143764496E0,-1.955464244E0
9.406487610E-1,7.906851292E0,4.340089321E0,-2.113481522E0
9.431365740E-1,7.796717644E0,4.498106480E0,-2.261922121E0
9.456243860E-1,7.700949669E0,4.651335239E0,-2.400785685E0
9.481121990E-1,7.633912086E0,4.804564476E0,-2.486977100E0
9.506000110E-1,7.562086105E0,4.948216438E0,-2.568379879E0
9.530878240E-1,7.480683327E0,5.058349609E0,-2.697666883E0
9.555756360E-1,7.394492149E0,5.154117584E0,-2.874837637E0
9.580634490E-1,7.317877293E0,5.221155167E0,-3.023278236E0
9.605512610E-1,7.260416508E0,5.259462357E0,-3.176506996E0
9.630390740E-1,7.155071735E0,5.259462357E0,-3.305794001E0
9.655268860E-1,7.097610950E0,5.288193226E0,-3.406350374E0
9.680146990E-1,7.044938564E0,5.302558422E0,-3.425503969E0
9.705025110E-1,7.006631374E0,5.331288815E0,-3.401561975E0
9.729903240E-1,6.977900982E0,5.379172802E0,-3.387196779E0
9.754781360E-1,6.997054577E0,5.388749599E0,-3.353677988E0
9.779659490E-1,7.040150166E0,5.364807606E0,-3.348889589E0
9.804537610E-1,7.102399349E0,5.297770023E0,-3.320159197E0
9.829415740E-1,7.179013729E0,5.240308762E0,-3.291428804E0
9.854293860E-1,7.250839710E0,5.197213173E0,-3.257910013E0
9.879171990E-1,7.308300495E0,5.187636375E0,-3.229179621E0
9.904050110E-1,7.365761757E0,5.182847977E0,-3.152565002E0
9.928928240E-1,7.404068947E0,5.206789970E0,-3.052008629E0
9.953806360E-1,7.413645744E0,5.221155167E0,-2.989759445E0
9.978684490E-1,7.428010941E0,5.206789970E0,-2.932298422E0
1.000356261E0,7.432799339E0,5.158905983E0,-2.913144827E0
1.002844074E0,7.442376137E0,5.149329185E0,-2.913144827E0
1.005331886E0,7.447164536E0,5.144540787E0,-2.903568029E0
1.007819699E0,7.418434143E0,5.178059578E0,-2.889202833E0
1.010307511E0,7.408857346E0,5.202001572E0,-2.903568029E0
1.012795324E0,7.432799339E0,5.178059578E0,-2.889202833E0
1.015283136E0,7.509413719E0,5.154117584E0,-2.855684042E0
1.017770949E0,7.624335289E0,5.111021996E0,-2.783858061E0
1.020258761E0,7.772775650E0,5.082291603E0,-2.692878246E0
1.022746574E0,7.945158482E0,5.072714806E0,-2.616263866E0
1.025234386E0,8.055291176E0,5.115810394E0,-2.544437885E0
1.027722199E0,8.131906509E0,5.182847977E0,-2.496553898E0
1.030210011E0,8.136694908E0,5.235520363E0,-2.477400303E0
1.032697824E0,8.112752914E0,5.292981625E0,-2.506130695E0
1.035185636E0,8.036137581E0,5.331288815E0,-2.539649487E0
1.037673449E0,7.940370083E0,5.355230808E0,-2.621052265E0
1.040161261E0,7.815871239E0,5.374384403E0,-2.712032080E0
1.042649074E0,7.657854080E0,5.398326397E0,-2.831742048E0
1.045136886E0,7.509413719E0,5.479729176E0,-2.946663857E0
1.047624699E0,7.370550156E0,5.561131954E0,-3.138199806E0
1.050112511E0,7.250839710E0,5.575497150E0,-3.401561975E0
1.052600324E0,7.169436932E0,5.546766758E0,-3.645770550E0
1.055088136E0,7.140706539E0,5.498882771E0,-3.875613928E0
1.057575949E0,7.131129742E0,5.431845188E0,-4.043208122E0
1.060063761E0,7.159860134E0,5.383961201E0,-4.182071686E0
1.062551574E0,7.193378925E0,5.321712017E0,-4.287416458E0
1.065039386E0,7.241262913E0,5.249885559E0,-4.340089321E0
1.067527199E0,7.298723698E0,5.149329185E0,-4.378396511E0
1.070015011E0,7.337030888E0,5.043984413E0,-4.411915302E0
1.072502824E0,7.370550156E0,4.938639641E0,-4.421492100E0
1.074990636E0,7.432799339E0,4.838083267E0,-4.431068897E0
1.077478449E0,7.490260124E0,4.732738018E0,-4.455010891E0
1.079966261E0,7.518990517E0,4.646546841E0,-4.440645695E0
1.082454803E0,7.547720909E0,4.584297657E0,-4.373608112E0
1.084942720E0,7.566874504E0,4.474164486E0,-4.253897667E0
1.087430532E0,7.576451302E0,4.378396511E0,-4.067150116E0
1.089918345E0,7.595604897E0,4.277839661E0,-3.837306738E0
1.092406157E0,7.653065681E0,4.225167274E0,-3.540425777E0
1.094893970E0,7.753622055E0,4.234744072E0,-3.262698412E0
1.097381782E0,7.858967304E0,4.273051262E0,-3.023278236E0
1.099869595E0,7.969100475E0,4.335300922E0,-2.841318846E0
1.102357407E0,8.064867973E0,4.392761707E0,-2.731185675E0
1.104845220E0,8.079233170E0,4.445434093E0,-2.678513050E0
1.107333032E0,8.064867973E0,4.517260075E0,-2.664147854E0
1.109820845E0,8.031349182E0,4.613028049E0,-2.592321873E0
1.112308657E0,7.993042469E0,4.694430828E0,-2.510919094E0
1.114796470E0,7.988254070E0,4.771045208E0,-2.453458309E0
1.117284282E0,7.997830868E0,4.818929672E0,-2.400785685E0
1.119772095E0,8.050502777E0,4.866813660E0,-2.405574083E0
1.122259907E0,8.084021568E0,4.881178856E0,-2.477400303E0
1.124747720E0,8.107964516E0,4.866813660E0,-2.606687069E0
1.127235532E0,8.103176117E0,4.862025261E0,-2.803011656E0
1.129723345E0,8.060079575E0,4.862025261E0,-3.028066635E0
1.132211157E0,8.050502777E0,4.866813660E0,-3.257910013E0
1.134698970E0,8.031349182E0,4.852448463E0,-3.468599796E0
1.137186782E0,8.031349182E0,4.857236862E0,-3.684077978E0
1.139674595E0,8.002618790E0,4.866813660E0,-3.880402327E0
1.142162407E0,7.964312077E0,4.871602058E0,-4.019266129E0
1.144650220E0,7.892486095E0,4.871602058E0,-4.153341293E0
1.147138032E0,7.791929245E0,4.828506470E0,-4.330512524E0
1.149625845E0,7.677007675E0,4.771045208E0,-4.435857296E0
1.152113657E0,7.557297707E0,4.689642429E0,-4.517260075E0
1.154601470E0,7.437587738E0,4.617816448E0,-4.608239651E0
1.157089282E0,7.341819286E0,4.517260075E0,-4.660912037E0
1.159577095E0,7.279570103E0,4.387973309E0,-4.699219227E0
1.162064907E0,7.207744122E0,4.234744072E0,-4.713584423E0
1.164552720E0,7.202955723E0,4.119822502E0,-4.689642429E0
1.167040532E0,7.198167324E0,4.000112534E0,-4.613028049E0
1.169528345E0,7.183802128E0,3.837306738E0,-4.478952885E0
1.172016157E0,7.183802128E0,3.660135746E0,-4.301782131E0
1.174503970E0,7.193378925E0,3.430292368E0,-4.024054527E0
1.176991782E0,7.212532520E0,3.186083794E0,-3.669712543E0
1.179479595E0,7.293935299E0,2.932298422E0,-3.301005602E0
1.181967407E0,7.432799339E0,2.673724651E0,-2.889202833E0
1.184455220E0,7.648277283E0,2.467823505E0,-2.448669672E0
1.186943032E0,7.897274494E0,2.276287317E0,-2.084751129E0
1.189430845E0,8.151060104E0,2.137423515E0,-1.821388960E0
1.191918657E0,8.395268440E0,2.017713547E0,-1.601122379E0
1.194406470E0,8.629899979E0,1.917157054E0,-1.433528304E0
1.196894282E0,8.816647530E0,1.869272947E0,-1.342548609E0
1.199382095E0,8.931569099E0,1.864484549E0,-1.299453020E0
1.201869907E0,9.032125473E0,1.854907751E0,-1.289876223E0
1.204357720E0,9.084798813E0,1.864484549E0,-1.280299306E0
1.206845532E0,9.051279068E0,1.859696150E0,-1.352125406E0
1.209333345E0,8.902838707E0,1.883638144E0,-1.505354285E0
1.211821157E0,8.682572365E0,1.902791858E0,-1.692102075E0
1.214308970E0,8.716091156E0,2.094327927E0,-1.653794765E0
1.216796782E0,8.696937561E0,2.372055292E0,-1.701678872E0
1.219284595E0,8.400056839E0,2.573168278E0,-1.969829440E0
1.221772407E0,8.055291176E0,2.664147854E0,-2.257133722E0
1.224260220E0,7.830236435E0,2.683301449E0,-2.381632090E0
1.226748032E0,7.667430878E0,2.673724651E0,-2.467823505E0
1.229235845E0,7.518990517E0,2.549226284E0,-2.630629063E0
1.231723657E0,7.423222542E0,2.372055292E0,-2.803011656E0
1.234211470E0,7.404068947E0,2.204461098E0,-2.984971046E0
1.236699282E0,7.466318130E0,2.070385933E0,-3.171718597E0
1.239187095E0,7.609970093E0,1.950675845E0,-3.291428804E0
1.241674907E0,7.796717644E0,1.816600561E0,-3.296217203E0
1.244162720E0,7.997830868E0,1.672948480E0,-3.277063608E0
1.246650532E0,8.184578896E0,1.510142684E0,-3.248333216E0
1.249138345E0,8.347384453E0,1.356913805E0,-3.253121614E0
1.251626157E0,8.433575630E0,1.222838521E0,-3.320159197E0
1.254113970E0,8.481459618E0,1.069609642E0,-3.449446201E0
1.256601782E0,8.538920403E0,9.546879530E-1,-3.569156170E0
1.259089595E0,8.591592789E0,8.924387097E-1,-3.617040157E0
1.261577407E0,8.677783966E0,8.876502514E-1,-3.612251759E0
1.264065220E0,8.744821548E0,9.211691022E-1,-3.578732967E0
1.266553032E0,8.744821548E0,9.882067442E-1,-3.573944569E0
1.269040845E0,8.677783966E0,1.079186440E0,-3.588309765E0
1.271528657E0,8.596381187E0,1.194108129E0,-3.554790974E0
1.274016470E0,8.505401611E0,1.352125406E0,-3.573944569E0
1.276504282E0,8.366538048E0,1.529296279E0,-3.588309765E0
1.278992095E0,8.194155693E0,1.754351258E0,-3.617040157E0
1.281479907E0,8.002618790E0,1.969829440E0,-3.626616955E0
1.283967720E0,7.782352448E0,2.223614931E0,-3.645770550E0
1.286455532E0,7.605181694E0,2.506130695E0,-3.607463360E0
1.288943345E0,7.456741333E0,2.793434858E0,-3.550002575E0
1.291431157E0,7.322665691E0,3.090315819E0,-3.497330189E0
1.293918970E0,7.207744122E0,3.420715570E0,-3.415927172E0
1.296406782E0,7.078457355E0,3.736750364E0,-3.353677988E0
1.298894595E0,7.040150166E0,4.014477730E0,-3.339312792E0
1.301382407E0,7.035361767E0,4.215590477E0,-3.406350374E0
1.303870220E0,7.088034153E0,4.368819714E0,-3.516483784E0
1.306358032E0,7.193378925E0,4.488529682E0,-3.650558949E0
1.308845845E0,7.332242489E0,4.545990467E0,-3.813364744E0
1.311333657E0,7.490260124E0,4.574720860E0,-3.937863350E0
1.313821470E0,7.643488884E0,4.608239651E0,-4.057573318E0
1.316309282E0,7.681796074E0,4.598662853E0,-4.177283287E0
1.318797095E0,7.705738068E0,4.541202068E0,-4.364031315E0
1.321284907E0,7.753622055E0,4.464587688E0,-4.613028049E0
1.323772720E0,7.787140846E0,4.392761707E0,-4.881178856E0
1.326260532E0,7.806294441E0,4.354454517E0,-5.096656799E0
1.328748345E0,7.811082840E0,4.344877720E0,-5.297770023E0
1.331236157E0,7.801506042E0,4.335300922E0,-5.479729176E0
1.333723970E0,7.801506042E0,4.277839661E0,-5.618592739E0
1.336211782E0,7.806294441E0,4.229955673E0,-5.752667904E0
1.338699595E0,7.811082840E0,4.182071686E0,-5.814917564E0
1.341187407E0,7.772775650E0,4.177283287E0,-5.834071159E0
1.343675220E0,7.729680061E0,4.182071686E0,-5.814917564E0
1.346163032E0,7.677007675E0,4.220378876E0,-5.762245178E0
1.348650845E0,7.571662903E0,4.220378876E0,-5.699995518E0
1.351138657E0,7.485471725E0,4.210802078E0,-5.623381138E0
1.353626470E0,7.413645744E0,4.162918091E0,-5.556343555E0
1.356114282E0,7.360973358E0,4.105457306E0,-5.450998783E0
1.358602095E0,7.279570103E0,4.014477730E0,-5.269039154E0
1.361089907E0,7.231686115E0,3.894767523E0,-5.072714806E0
1.363577720E0,7.265204906E0,3.746327162E0,-4.852448463E0
1.366065532E0,7.313088894E0,3.655347347E0,-4.584297657E0
1.368553345E0,7.356184959E0,3.621828556E0,-4.282628059E0
1.371041157E0,7.413645744E0,3.573944569E0,-3.980958939E0
1.373528970E0,7.509413719E0,3.502118587E0,-3.703231573E0
1.376016782E0,7.643488884E0,3.377619982E0,-3.444657803E0
1.378504595E0,7.830236435E0,3.272275209E0,-3.133411407E0
1.380992407E0,8.036137581E0,3.205237627E0,-2.874837637E0
1.383480220E0,8.246828079E0,3.147776604E0,-2.644994259E0
1.385968032E0,8.414422035E0,3.099892616E0,-2.424727678E0
1.388455845E0,8.553285599E0,3.032855034E0,-2.237980127E0
1.390943657E0,8.706514359E0,2.951452255E0,-2.123058319E0
1.393431470E0,8.883685112E0,2.817376852E0,-2.017713547E0
1.395919282E0,9.027337074E0,2.683301449E0,-1.883638144E0
1.398407095E0,9.127894402E0,2.587533474E0,-1.744774461E0
1.400894907E0,9.209297180E0,2.482188702E0,-1.639429569E0
1.403382720E0,9.281123161E0,2.376843691E0,-1.605910778E0
1.405870532E0,9.367314339E0,2.295440912E0,-1.596333981E0
1.408358345E0,9.439140320E0,2.261922121E0,-1.615487576E0
1.410846157E0,9.472659111E0,2.305017710E0,-1.644217968E0
1.413333970E0,9.439140320E0,2.376843691E0,-1.696890473E0
1.415821782E0,9.338583946E0,2.458246708E0,-1.792658567E0
1.418309595E0,9.190143585E0,2.520495892E0,-1.898003340E0
1.420797407E0,9.051279068E0,2.582745075E0,-1.998559833E0
1.423285220E0,8.921992302E0,2.635417461E0,-2.079962730E0
1.425773032E0,8.821435928E0,2.654571056E0,-2.166153908E0
1.428260845E0,8.740033150E0,2.673724651E0,-2.261922121E0
1.430748657E0,8.696937561E0,2.731185675E0,-2.333748102E0
1.433236470E0,8.658630371E0,2.793434858E0,-2.429516077E0
1.435724282E0,8.605957985E0,2.836530447E0,-2.611475468E0
1.438212095E0,8.510190010E0,2.870049238E0,-2.831742048E0
1.440699907E0,8.400056839E0,2.913144827E0,-3.042431831E0
1.443187720E0,8.261193275E0,2.932298422E0,-3.200449228E0
1.445675532E0,8.151060104E0,2.932298422E0,-3.315370798E0
1.448163345E0,8.060079575E0,2.874837637E0,-3.368043184E0
1.450651157E0,7.964312077E0,2.812588453E0,-3.372831583E0
1.453138970E0,7.863755703E0,2.755127668E0,-3.315370798E0
1.455626782E0,7.782352448E0,2.731185675E0,-3.233968019E0
1.458114595E0,7.724891663E0,2.673724651E0,-3.147776604E0
1.460602407E0,7.657854080E0,2.587533474E0,-3.123834610E0
1.463090220E0,7.657854080E0,2.510919094E0,-3.142988205E0
1.465578032E0,7.681796074E0,2.439092875E0,-3.138199806E0
1.468065845E0,7.758410454E0,2.410362482E0,-3.023278236E0
1.470553657E0,7.858967304E0,2.424727678E0,-2.836530447E0
1.473041470E0,7.959523678E0,2.472611904E0,-2.621052265E0
1.475529282E0,8.084021568E0,2.520495892E0,-2.415150881E0
1.478017095E0,8.160636902E0,2.606687069E0,-2.237980127E0
1.480504907E0,8.213309288E0,2.707243681E0,-2.118269920E0
1.482992720E0,8.270770073E0,2.788646460E0,-2.008136749E0
1.485480532E0,8.318654060E0,2.836530447E0,-1.912368655E0
1.487968345E0,8.366538048E0,2.846107244E0,-1.859696150E0
1.490456157E0,8.380903244E0,2.803011656E0,-1.821388960E0
1.492943970E0,8.385691643E0,2.759916067E0,-1.730409265E0
1.495431782E0,8.400056839E0,2.692878246E0,-1.601122379E0
1.497919595E0,8.433575630E0,2.611475468E0,-1.452681899E0
1.500407407E0,8.457517624E0,2.530072689E0,-1.318606615E0
1.502895220E0,8.491036415E0,2.467823505E0,-1.208473325E0
1.505383032E0,8.514978409E0,2.391208887E0,-1.117493629E0
1.507870845E0,8.519766808E0,2.309806108E0,-1.064821243E0
1.510358657E0,8.514978409E0,2.204461098E0,-9.834183455E-1
1.512846470E0,8.486248016E0,2.070385933E0,-9.211691022E-1
1.515334230E0,8.452729225E0,1.955464244E0,-8.637082577E-1
1.517821990E0,8.409633636E0,1.821388960E0,-7.870938182E-1
1.520309751E0,8.318654060E0,1.692102075E0,-7.535749674E-1
1.522797511E0,8.227674484E0,1.562815189E0,-7.296329737E-1
1.525285272E0,8.155848503E0,1.414374709E0,-6.769605279E-1
1.527773032E0,8.117541313E0,1.275510907E0,-5.859808922E-1
1.530260793E0,8.107964516E0,1.151012421E0,-5.093663931E-1
1.532748553E0,8.127118111E0,1.117493629E0,-3.992331326E-1
1.535236313E0,8.131906509E0,1.127070427E0,-3.082534671E-1
1.537724074E0,8.050502777E0,1.155800819E0,-2.843114436E-1
1.540211834E0,7.854178905E0,1.241992116E0,-2.651578486E-1
1.542700220E0,7.571662903E0,1.347337008E0,-3.082534671E-1
1.545187980E0,7.341819286E0,1.471835494E0,-4.279635549E-1
1.547675740E0,7.193378925E0,1.620275974E0,-6.194996834E-1
1.550163501E0,7.088034153E0,1.759139657E0,-8.445546627E-1
1.552651261E0,6.997054577E0,1.926733851E0,-1.069609642E0
1.555139022E0,6.949170589E0,2.084751129E0,-1.356913805E0
1.557626782E0,6.968324184E0,2.257133722E0,-1.605910778E0
1.560114543E0,7.035361767E0,2.443881273E0,-1.869272947E0
1.562602303E0,7.116764545E0,2.683301449E0,-2.142211914E0
1.565090063E0,7.212532520E0,2.927510023E0,-2.463035107E0
1.567577824E0,7.298723698E0,3.176506996E0,-2.836530447E0
1.570065584E0,7.432799339E0,3.391985178E0,-3.277063608E0
1.572553345E0,7.542932510E0,3.550002575E0,-3.751115561E0
1.575041105E0,7.633912086E0,3.664924145E0,-4.201225281E0
1.577528865E0,7.715314865E0,3.760692358E0,-4.613028049E0
1.580016626E0,7.700949669E0,3.837306738E0,-4.938639641E0
1.582504386E0,7.657854080E0,3.913921118E0,-5.211578369E0
1.584992147E0,7.633912086E0,3.937863350E0,-5.460575581E0
1.587479907E0,7.595604897E0,3.957016945E0,-5.656899929E0
1.589967668E0,7.523778915E0,3.961805344E0,-5.819705963E0
1.592455428E0,7.428010941E0,3.928286552E0,-5.968146324E0
1.594943188E0,7.317877293E0,3.880402327E0,-6.039972305E0
1.597430949E0,7.193378925E0,3.875613928E0,-6.063914299E0
1.599918709E0,7.059303761E0,3.861248732E0,-5.996876717E0
1.602406470E0,6.949170589E0,3.813364744E0,-5.848436356E0
1.604894230E0,6.939593792E0,3.741538763E0,-5.628169537E0
1.607381990E0,6.953958988E0,3.664924145E0,-5.374384403E0
1.609869803E0,6.977900982E0,3.545214176E0,-5.048772812E0
1.612357615E0,7.030573368E0,3.420715570E0,-4.689642429E0
1.614845428E0,7.102399349E0,3.277063608E0,-4.344877720E0
1.617333240E0,7.202955723E0,3.123834610E0,-3.961805344E0
1.619821053E0,7.341819286E0,2.946663857E0,-3.588309765E0
1.622308865E0,7.451952934E0,2.779069662E0,-3.219602823E0
1.624796678E0,7.533355713E0,2.625840664E0,-2.893991232E0
1.627284490E0,7.629123688E0,2.491765499E0,-2.635417461E0
1.629772303E0,7.734468460E0,2.367266893E0,-2.395997286E0
1.632260115E0,7.868544102E0,2.233191729E0,-2.175730705E0
1.634747928E0,7.973888874E0,2.156577110E0,-1.998559833E0
1.637235740E0,8.002618790E0,2.099116325E0,-1.850119352E0
1.639723553E0,7.949946880E0,2.108693123E0,-1.778293371E0
1.642211365E0,7.849390507E0,2.180519104E0,-1.816600561E0
1.644699178E0,7.767987251E0,2.247556925E0,-1.945887446E0
1.647186990E0,7.691372871E0,2.314594507E0,-2.180519104E0
1.649674803E0,7.581239700E0,2.386420488E0,-2.467823505E0
1.652162615E0,7.456741333E0,2.501342297E0,-2.846107244E0
1.654650428E0,7.380126953E0,2.692878246E0,-3.243544817E0
1.657138240E0,7.394492149E0,2.917933226E0,-3.631405354E0
1.659626053E0,7.518990517E0,3.085527420E0,-4.014477730E0
1.662113865E0,7.696161270E0,3.214814425E0,-4.387973309E0
1.664601678E0,7.878120899E0,3.262698412E0,-4.747103214E0
1.667089490E0,8.031349182E0,3.262698412E0,-5.082291603E0
1.669577303E0,8.117541313E0,3.195660830E0,-5.407903194E0
1.672065115E0,8.179790497E0,3.138199806E0,-5.699995518E0
1.674552928E0,8.198944092E0,3.066373825E0,-5.968146324E0
1.677040740E0,8.155848503E0,3.061585426E0,-6.212354660E0
1.679528553E0,8.084021568E0,3.071162224E0,-6.394314289E0
1.682016365E0,7.935581684E0,3.075950623E0,-6.509235859E0
1.684504178E0,7.744045258E0,3.114257812E0,-6.571485043E0
1.686991990E0,7.552509308E0,3.138199806E0,-6.547543049E0
1.689479803E0,7.413645744E0,3.162141800E0,-6.446986675E0
1.691967615E0,7.279570103E0,3.195660830E0,-6.293757915E0
1.694455428E0,7.121552944E0,3.186083794E0,-6.083067894E0
1.696943240E0,7.040150166E0,3.186083794E0,-5.853224754E0
1.699431053E0,6.963535786E0,3.138199806E0,-5.589862347E0
1.701918865E0,6.944382191E0,3.056797028E0,-5.312135220E0
1.704406678E0,6.934805393E0,2.980182648E0,-5.043984413E0
1.706894490E0,6.920440197E0,2.884414434E0,-4.780622005E0
1.709382303E0,6.891709805E0,2.779069662E0,-4.488529682E0
1.711870115E0,6.896498203E0,2.673724651E0,-4.167706490E0
1.714357928E0,6.910863400E0,2.563591480E0,-3.818153143E0
1.716845740E0,6.968324184E0,2.520495892E0,-3.478176594E0
1.719333553E0,6.973112583E0,2.530072689E0,-3.090315819E0
1.721821365E0,6.910863400E0,2.568379879E0,-2.731185675E0
1.724309178E0,6.757634163E0,2.601898670E0,-2.367266893E0
1.726796990E0,6.594828606E0,2.625840664E0,-2.012925148E0
1.729284803E0,6.465541840E0,2.659359455E0,-1.634641171E0
1.731772615E0,6.398504257E0,2.678513050E0,-1.347337008E0
1.734260428E0,6.398504257E0,2.688089848E0,-1.198896527E0
1.736748240E0,6.451176643E0,2.707243681E0,-1.146224022E0
1.739236053E0,6.551733017E0,2.750339270E0,-1.208473325E0
1.741723865E0,6.676231384E0,2.865260839E0,-1.404797792E0
1.744211678E0,6.834248543E0,2.975394249E0,-1.701678872E0
1.746699490E0,6.968324184E0,3.119046211E0,-2.065597534E0
1.749187303E0,7.049726963E0,3.277063608E0,-2.439092875E0
1.751675115E0,7.044938564E0,3.463811398E0,-2.846107244E0
1.754162928E0,6.944382191E0,3.660135746E0,-3.305794001E0
1.756650740E0,6.810306549E0,3.822941542E0,-3.755903959E0
1.759138553E0,6.709750175E0,3.957016945E0,-4.191648483E0
1.761626365E0,6.642712593E0,4.105457306E0,-4.589086056E0
1.764114178E0,6.623558998E0,4.225167274E0,-4.962581635E0
1.766601990E0,6.618770599E0,4.287416458E0,-5.336077213E0
1.769089803E0,6.647500992E0,4.296993732E0,-5.661688328E0
1.771577615E0,6.724115372E0,4.277839661E0,-5.896320343E0
1.774065428E0,6.752845764E0,4.253897667E0,-6.030395508E0
1.776553240E0,6.709750175E0,4.258686066E0,-6.078279495E0
1.779041053E0,6.599617004E0,4.306570530E0,-6.083067894E0
1.781528865E0,6.470330238E0,4.392761707E0,-6.044760704E0
1.784016678E0,6.312312603E0,4.498106480E0,-6.035183907E0
1.786504490E0,6.187814236E0,4.531625271E0,-6.044760704E0
1.788992303E0,6.154295444E0,4.522048473E0,-6.063914299E0
1.791480115E0,6.168660641E0,4.455010891E0,-6.092644691E0
1.793967928E0,6.163872242E0,4.340089321E0,-6.097433090E0
1.796455740E0,6.154295444E0,4.244320869E0,-6.059125900E0
1.798943553E0,6.139930248E0,4.167706490E0,-5.982511520E0
1.801431365E0,6.115988255E0,4.115034103E0,-5.834071159E0
1.803919178E0,6.154295444E0,4.091092110E0,-5.623381138E0
1.806406990E0,6.192602634E0,4.043208122E0,-5.393537998E0
1.808894803E0,6.240486622E0,3.928286552E0,-5.125387192E0
1.811382615E0,6.307524204E0,3.755903959E0,-4.842871666E0
1.813870428E0,6.388927460E0,3.569156170E0,-4.498106480E0
1.816358240E0,6.523002625E0,3.411138773E0,-4.110245705E0
1.818846053E0,6.709750175E0,3.320159197E0,-3.688866377E0
1.821333865E0,6.939593792E0,3.257910013E0,-3.339312792E0
1.823821678E0,7.193378925E0,3.186083794E0,-3.061585426E0
1.826309490E0,7.447164536E0,3.114257812E0,-2.831742048E0
1.828797303E0,7.662642479E0,3.052008629E0,-2.664147854E0
1.831285115E0,7.820659637E0,3.042431831E0,-2.563591480E0
1.833772928E0,7.892486095E0,3.056797028E0,-2.582745075E0
1.836260740E0,7.902062893E0,3.099892616E0,-2.688089848E0
1.838748553E0,7.839813232E0,3.195660830E0,-2.850895643E0
1.841236365E0,7.739256859E0,3.348889589E0,-3.047220230E0
1.843724178E0,7.590816498E0,3.564367771E0,-3.224391222E0
1.846211990E0,7.375338554E0,3.837306738E0,-3.420715570E0
1.848699803E0,7.135918140E0,4.095880508E0,-3.597886562E0
1.851187615E0,6.910863400E0,4.311358929E0,-3.818153143E0
1.853675428E0,6.704961777E0,4.478952885E0,-4.028842926E0
1.856163240E0,6.546944618E0,4.565144062E0,-4.229955673E0
1.858651053E0,6.374562263E0,4.608239651E0,-4.411915302E0
1.861138865E0,6.173449039E0,4.651335239E0,-4.598662853E0
1.863626678E0,6.029797077E0,4.727949619E0,-4.790199280E0
1.866114490E0,5.938817501E0,4.809352875E0,-5.029619217E0
1.868602303E0,5.924452305E0,4.857236862E0,-5.345654011E0
1.871090115E0,5.972336292E0,4.818929672E0,-5.743091106E0
1.873577928E0,6.029797077E0,4.689642429E0,-6.150105476E0
1.876065740E0,6.044162273E0,4.502894878E0,-6.499659061E0
1.878553553E0,6.044162273E0,4.335300922E0,-6.782175064E0
1.881041365E0,6.048950672E0,4.162918091E0,-6.992864609E0
1.883529178E0,6.087257862E0,4.009689331E0,-7.170035362E0
1.886016990E0,6.149507046E0,3.870825529E0,-7.284957409E0
1.888504803E0,6.288370609E0,3.751115561E0,-7.361571789E0
1.890992615E0,6.508637428E0,3.602674961E0,-7.375936985E0
1.893480428E0,6.786364555E0,3.449446201E0,-7.299322605E0
1.895968240E0,7.049726963E0,3.277063608E0,-7.174823761E0
1.898456053E0,7.284358501E0,3.147776604E0,-6.940192223E0
1.900943865E0,7.499836922E0,3.018489838E0,-6.590638638E0
1.903431678E0,7.648277283E0,2.941875219E0,-6.159682274E0
1.905919490E0,7.825448036E0,2.846107244E0,-5.709572315E0
1.908407303E0,7.978677273E0,2.735974073E0,-5.254673958E0
1.910895115E0,8.084021568E0,2.659359455E0,-4.814141273E0
1.913382928E0,8.170213699E0,2.640205860E0,-4.378396511E0
1.915870740E0,8.179790497E0,2.659359455E0,-3.995324135E0
1.918358553E0,8.179790497E0,2.740762472E0,-3.602674961E0
1.920846365E0,8.203732491E0,2.812588453E0,-3.224391222E0
1.923334178E0,8.270770073E0,2.879626036E0,-2.870049238E0
1.925821990E0,8.380903244E0,2.937086821E0,-2.544437885E0
1.928309803E0,8.486248016E0,2.946663857E0,-2.319382906E0
1.930797615E0,8.495824814E0,2.941875219E0,-2.190095901E0
1.933285428E0,8.438364029E0,2.965817451E0,-2.108693123E0
1.935773240E0,8.356961250E0,2.999336243E0,-2.070385933E0
1.938261053E0,8.246828079E0,3.052008629E0,-2.027290344E0
1.940748865E0,8.122329712E0,3.119046211E0,-2.003348351E0
1.943236678E0,7.973888874E0,3.190872431E0,-1.965041041E0
1.945724490E0,7.748833656E0,3.262698412E0,-1.979406238E0
1.948212303E0,7.509413719E0,3.348889589E0,-2.012925148E0
1.950700115E0,7.269993305E0,3.497330189E0,-2.156577110E0
1.953187928E0,6.997054577E0,3.708019972E0,-2.463035107E0
1.955675740E0,6.738480568E0,3.913921118E0,-3.052008629E0
1.958163553E0,6.527791023E0,4.047996521E0,-3.832518339E0
1.960651365E0,6.388927460E0,4.091092110E0,-4.665700436E0
1.963139178E0,6.240486622E0,4.134187698E0,-5.460575581E0
1.965626990E0,6.120776653E0,4.186860085E0,-6.178835869E0
1.968114803E0,6.068104267E0,4.220378876E0,-6.844424248E0
1.970602615E0,6.058527470E0,4.268262863E0,-7.442974567E0
1.973090428E0,6.077681065E0,4.316147327E0,-7.950545311E0
1.975578240E0,6.106411457E0,4.392761707E0,-8.376712799E0
1.978066053E0,6.173449039E0,4.474164486E0,-8.673594475E0
1.980553865E0,6.245275021E0,4.541202068E0,-8.913014412E0
1.983041678E0,6.326677799E0,4.560355663E0,-9.099761963E0
1.985529490E0,6.427234650E0,4.526836872E0,-9.205106735E0
1.988017303E0,6.570886612E0,4.455010891E0,-9.152434349E0
1.990505115E0,6.795941353E0,4.373608112E0,-9.003993988E0
1.992992928E0,7.131129742E0,4.263474464E0,-8.726266861E0
1.995480740E0,7.490260124E0,4.158129692E0,-8.410231590E0
1.997968553E0,7.796717644E0,4.067150116E0,-8.084620476E0
2.000456365E0,8.002618790E0,3.976170540E0,-7.754220963E0
2.002944178E0,8.151060104E0,3.928286552E0,-7.423820972E0
2.005431990E0,8.251616478E0,3.880402327E0,-7.045536995E0
2.007919803E0,8.347384453E0,3.837306738E0,-6.638522625E0
2.010407615E0,8.404845238E0,3.784634352E0,-6.202777863E0
2.012895428E0,8.433575630E0,3.693654776E0,-5.752667904E0
2.015383240E0,8.529343605E0,3.535637379E0,-5.197213173E0
2.017871053E0,8.936357498E0,3.439869404E0,-5.565920353E0
2.020358865E0,8.194155693E0,3.224391222E0,-6.753444672E0
2.022846678E0,8.261193275E0,3.281852007E0,-5.494094372E0
2.025334490E0,8.275558472E0,3.344101191E0,-4.177283287E0
2.027822303E0,7.739256859E0,3.224391222E0,-3.267486811E0
2.030310115E0,7.174225330E0,3.176506996E0,-2.410362482E0
2.032797928E0,6.714538574E0,3.315370798E0,-1.797446966E0
2.035285740E0,6.489483833E0,3.573944569E0,-1.725620866E0
2.037773553E0,6.594828606E0,3.755903959E0,-2.022501945E0
2.040261365E0,6.786364555E0,3.789422750E0,-2.467823505E0
2.042749178E0,6.862978935E0,3.655347347E0,-3.023278236E0
2.045236990E0,6.791152954E0,3.348889589E0,-3.521272182E0
2.047724803E0,6.633135796E0,3.071162224E0,-3.923498154E0
2.050212615E0,6.475118637E0,2.927510023E0,-4.191648483E0
2.052700428E0,6.331466198E0,2.908356428E0,-4.469376087E0
2.055188240E0,6.226121426E0,2.951452255E0,-4.780622005E0
2.057676053E0,6.159083843E0,2.994547844E0,-5.134963989E0
2.060163865E0,6.120776653E0,3.028066635E0,-5.551555157E0
2.062651678E0,6.077681065E0,3.052008629E0,-6.030395508E0
2.065139490E0,6.063315868E0,3.075950623E0,-6.566696644E0
2.067627303E0,6.106411457E0,3.104681015E0,-7.141304970E0
2.070115115E0,6.183025837E0,3.119046211E0,-7.720701694E0
2.072602928E0,6.331466198E0,3.133411407E0,-8.285733223E0
2.075090740E0,6.542156219E0,3.142988205E0,-8.831611633E0
2.077578553E0,6.752845764E0,3.166930199E0,-9.238625526E0
2.080066365E0,6.973112583E0,3.176506996E0,-9.549872398E0
2.082554178E0,7.164648533E0,3.219602823E0,-9.774927139E0
2.085041990E0,7.332242489E0,3.324947596E0,-9.851541519E0
2.087529803E0,7.471106529E0,3.435081005E0,-9.784503937E0
2.090017615E0,7.576451302E0,3.530848980E0,-9.597756386E0
2.092505428E0,7.691372871E0,3.617040157E0,-9.300874710E0
2.094993240E0,7.758410454E0,3.722385168E0,-8.932168007E0
2.097481053E0,7.739256859E0,3.842095137E0,-8.529942513E0
2.099968865E0,7.667430878E0,4.024054527E0,-8.151658058E0
2.102457147E0,7.571662903E0,4.220378876E0,-7.797316551E0
2.104944907E0,7.466318130E0,4.373608112E0,-7.505223751E0
2.107432668E0,7.351396084E0,4.493318081E0,-7.222707748E0
2.109920428E0,7.255628109E0,4.555567265E0,-6.921038628E0
2.112408188E0,7.159860134E0,4.603451252E0,-6.590638638E0
2.114895949E0,7.092822552E0,4.613028049E0,-6.279392719E0
2.117383709E0,7.001842976E0,4.617816448E0,-6.016030312E0
2.119871470E0,6.872556210E0,4.660912037E0,-5.814917564E0
2.122359230E0,6.752845764E0,4.742314816E0,-5.743091106E0
2.124846990E0,6.599617004E0,4.833294868E0,-5.795763969E0
2.127334751E0,6.436811447E0,4.933851242E0,-5.944204330E0
2.129822511E0,6.269217014E0,4.991312027E0,-6.154893875E0
2.132310272E0,6.115988255E0,5.024830818E0,-6.327276707E0
2.134798032E0,6.005855083E0,5.058349609E0,-6.456563473E0
2.137285793E0,5.953182697E0,5.063138008E0,-6.523601055E0
2.139773553E0,5.957971096E0,5.087080002E0,-6.585850239E0
2.142261313E0,5.967547894E0,5.091868401E0,-6.638522625E0
2.144749074E0,5.981913090E0,5.125387192E0,-6.657676220E0
2.147236834E0,6.005855083E0,5.163694382E0,-6.676829815E0
2.149724595E0,6.020220280E0,5.192424774E0,-6.695983410E0
2.152212355E0,6.048950672E0,5.259462357E0,-6.719925404E0
2.154700115E0,6.092046261E0,5.340865612E0,-6.686406612E0
2.157187876E0,6.149507046E0,5.450998783E0,-6.600215435E0
2.159675636E0,6.226121426E0,5.551555157E0,-6.557119846E0
2.162163397E0,6.321889400E0,5.656899929E0,-6.518812656E0
2.164651157E0,6.441599846E0,5.747879505E0,-6.571485043E0
2.167138918E0,6.561309814E0,5.795763969E0,-6.719925404E0
2.169626678E0,6.685808182E0,5.781398773E0,-6.916250229E0
2.172114438E0,6.829460144E0,5.776610374E0,-7.088632584E0
2.174602251E0,6.953958988E0,5.786187172E0,-7.179612160E0
2.177090063E0,7.064092159E0,5.776610374E0,-7.174823761E0
2.179577876E0,7.164648533E0,5.786187172E0,-7.064690590E0
2.182065688E0,7.284358501E0,5.786187172E0,-6.925827026E0
2.184553501E0,7.399280548E0,5.781398773E0,-6.753444672E0
2.187041313E0,7.495048523E0,5.757456303E0,-6.576273441E0
2.189529126E0,7.547720909E0,5.752667904E0,-6.403891087E0
2.192016938E0,7.542932510E0,5.776610374E0,-6.308123112E0
2.194504751E0,7.471106529E0,5.800552368E0,-6.245873451E0
2.196992563E0,7.341819286E0,5.834071159E0,-6.150105476E0
2.199480376E0,7.174225330E0,5.834071159E0,-6.039972305E0
2.201968188E0,7.025784969E0,5.829282761E0,-5.929839134E0
2.204456001E0,6.906075001E0,5.848436356E0,-5.771821976E0
2.206943813E0,6.767210960E0,5.834071159E0,-5.632957935E0
2.209431626E0,6.642712593E0,5.786187172E0,-5.527613163E0
2.211919438E0,6.556521416E0,5.704783916E0,-5.450998783E0
2.214407251E0,6.503849030E0,5.585073948E0,-5.360019207E0
2.216895063E0,6.465541840E0,5.436633587E0,-5.278616428E0
2.219382876E0,6.470330238E0,5.254673958E0,-5.216366768E0
2.221870688E0,6.503849030E0,5.053561211E0,-5.158905983E0
2.224358501E0,6.561309814E0,4.871602058E0,-5.096656799E0
2.226846313E0,6.642712593E0,4.699219227E0,-5.058349609E0
2.229334126E0,6.724115372E0,4.536413670E0,-5.106233597E0
2.231821938E0,6.781576157E0,4.354454517E0,-5.206789970E0
2.234309751E0,6.776787758E0,4.158129692E0,-5.364807606E0
2.236797563E0,6.719326973E0,3.957016945E0,-5.546766758E0
2.239285376E0,6.613982201E0,3.808576345E0,-5.699995518E0
2.241773188E0,6.527791023E0,3.746327162E0,-5.781398773E0
2.244261001E0,6.503849030E0,3.727173567E0,-5.814917564E0
2.246748813E0,6.580463409E0,3.722385168E0,-5.862801552E0
2.249236626E0,6.690596581E0,3.679289579E0,-5.925050735E0
2.251724438E0,6.843825340E0,3.607463360E0,-5.982511520E0
2.254212251E0,6.958747387E0,3.535637379E0,-6.068702698E0
2.256700063E0,7.040150166E0,3.487753391E0,-6.207566261E0
2.259187876E0,7.102399349E0,3.463811398E0,-6.308123112E0
2.261675688E0,7.179013729E0,3.444657803E0,-6.394314289E0
2.264163501E0,7.236474514E0,3.444657803E0,-6.432621479E0
2.266651313E0,7.250839710E0,3.459022999E0,-6.442198277E0
2.269139126E0,7.212532520E0,3.506906986E0,-6.403891087E0
2.271626938E0,7.164648533E0,3.573944569E0,-6.375160694E0
2.274114751E0,7.073668957E0,3.660135746E0,-6.303334713E0
2.276602563E0,6.982689381E0,3.751115561E0,-6.236296654E0
2.279090376E0,6.910863400E0,3.822941542E0,-6.183624268E0
2.281578188E0,6.829460144E0,3.856460333E0,-6.107009888E0
2.284066001E0,6.762422562E0,3.851671934E0,-6.025607109E0
2.286553813E0,6.719326973E0,3.856460333E0,-5.925050735E0
2.289041626E0,6.666654587E0,3.822941542E0,-5.819705963E0
2.291529438E0,6.604405403E0,3.784634352E0,-5.733514309E0
2.294017251E0,6.566098213E0,3.736750364E0,-5.647323132E0
2.296505063E0,6.489483833E0,3.712808371E0,-5.546766758E0
2.298992876E0,6.403292656E0,3.693654776E0,-5.431845188E0
2.301480688E0,6.350619793E0,3.674500942E0,-5.278616428E0
2.303968501E0,6.326677799E0,3.612251759E0,-5.077503204E0
2.306456313E0,6.312312603E0,3.530848980E0,-4.862025261E0
2.308944126E0,6.341042995E0,3.425503969E0,-4.617816448E0
2.311431938E0,6.393715858E0,3.272275209E0,-4.392761707E0
2.313919751E0,6.475118637E0,3.138199806E0,-4.234744072E0
2.316407563E0,6.575675011E0,3.013701439E0,-4.110245705E0
2.318895376E0,6.652289391E0,2.917933226E0,-4.019266129E0
2.321383188E0,6.709750175E0,2.879626036E0,-3.985747337E0
2.323871001E0,6.700173378E0,2.879626036E0,-3.995324135E0
2.326358813E0,6.647500992E0,2.903568029E0,-4.014477730E0
2.328846626E0,6.594828606E0,2.970605850E0,-4.062361717E0
2.331334438E0,6.542156219E0,3.071162224E0,-4.115034103E0
2.333822251E0,6.489483833E0,3.200449228E0,-4.196436882E0
2.336310063E0,6.446388245E0,3.324947596E0,-4.287416458E0
2.338797876E0,6.412869453E0,3.425503969E0,-4.311358929E0
2.341285688E0,6.408081055E0,3.502118587E0,-4.335300922E0
2.343773501E0,6.422446251E0,3.550002575E0,-4.344877720E0
2.346261313E0,6.523002625E0,3.593098164E0,-4.359242916E0
2.348749126E0,6.652289391E0,3.645770550E0,-4.402338505E0
2.351236938E0,6.800729752E0,3.760692358E0,-4.478952885E0
2.353724751E0,6.953958988E0,3.861248732E0,-4.584297657E0
2.356212563E0,7.116764545E0,3.923498154E0,-4.694430828E0
2.358700376E0,7.293935299E0,3.942651749E0,-4.794987679E0
2.361188188E0,7.451952934E0,3.933074951E0,-4.862025261E0
2.363676001E0,7.600393295E0,3.923498154E0,-4.862025261E0
2.366163813E0,7.700949669E0,3.937863350E0,-4.828506470E0
2.368651626E0,7.791929245E0,3.952228546E0,-4.766256809E0
2.371139438E0,7.844601631E0,4.004900932E0,-4.694430828E0
2.373627251E0,7.906851292E0,4.047996521E0,-4.579509258E0
2.376115063E0,7.978677273E0,4.067150116E0,-4.483741283E0
2.378602876E0,8.045714378E0,4.086303711E0,-4.407126904E0
2.381090688E0,8.131906509E0,4.028842926E0,-4.320935726E0
2.383578501E0,8.203732491E0,3.918709517E0,-4.225167274E0
2.386066313E0,8.328230858E0,3.779845953E0,-4.095880508E0
2.388554126E0,8.467094421E0,3.621828556E0,-3.933074951E0
2.391041938E0,8.634688377E0,3.473388195E0,-3.727173567E0
2.393529751E0,8.744821548E0,3.348889589E0,-3.502118587E0
2.396017563E0,8.874108315E0,3.267486811E0,-3.272275209E0
2.398505376E0,8.989029884E0,3.238756418E0,-3.104681015E0
2.400993188E0,9.080010414E0,3.233968019E0,-2.941875219E0
2.403481001E0,9.132682800E0,3.262698412E0,-2.826953650E0
2.405968813E0,9.151836395E0,3.286640406E0,-2.726397276E0
2.408456626E0,9.147047997E0,3.315370798E0,-2.635417461E0
2.410944438E0,9.123106003E0,3.348889589E0,-2.587533474E0
2.413432251E0,9.108740807E0,3.382408381E0,-2.544437885E0
2.415920063E0,9.075222015E0,3.430292368E0,-2.544437885E0
2.418407876E0,9.075222015E0,3.521272182E0,-2.568379879E0
2.420895688E0,9.123106003E0,3.612251759E0,-2.601898670E0
2.423383501E0,9.247604370E0,3.693654776E0,-2.616263866E0
2.425871313E0,9.376891136E0,3.746327162E0,-2.630629063E0
2.428359126E0,9.482235909E0,3.746327162E0,-2.649782658E0
2.430846938E0,9.587580681E0,3.693654776E0,-2.664147854E0
2.433334751E0,9.683348656E0,3.650558949E0,-2.668936253E0
2.435822563E0,9.755174637E0,3.593098164E0,-2.726397276E0
2.438310376E0,9.831789017E0,3.502118587E0,-2.798223257E0
2.440798188E0,9.870096207E0,3.396773577E0,-2.865260839E0
2.443286001E0,9.932345390E0,3.286640406E0,-2.937086821E0
2.445773813E0,1.001374817E1,3.200449228E0,-3.018489838E0
2.448261626E0,1.009515190E1,3.095104218E0,-3.080739021E0
2.450749438E0,1.021007347E1,3.008913040E0,-3.133411407E0
2.453237251E0,1.034893703E1,2.874837637E0,-3.181295395E0
2.455725063E0,1.052131939E1,2.712032080E0,-3.176506996E0
2.458212876E0,1.063624096E1,2.568379879E0,-3.152565002E0
2.460700688E0,1.070327854E1,2.395997286E0,-3.075950623E0
2.463188501E0,1.071285534E1,2.228403330E0,-3.008913040E0
2.465676313E0,1.070806694E1,2.089539528E0,-2.903568029E0
2.468164126E0,1.069370174E1,1.988983035E0,-2.831742048E0
2.470651938E0,1.069849014E1,1.898003340E0,-2.755127668E0
2.473139751E0,1.072722054E1,1.821388960E0,-2.702455282E0
2.475627563E0,1.079425812E1,1.792658567E0,-2.644994259E0
2.478115376E0,1.087566090E1,1.778293371E0,-2.573168278E0
2.480603188E0,1.093312168E1,1.759139657E0,-2.501342297E0
2.483091001E0,1.096185207E1,1.759139657E0,-2.453458309E0
2.485578813E0,1.097142887E1,1.744774461E0,-2.386420488E0
2.488066626E0,1.094748688E1,1.739986062E0,-2.376843691E0
2.490554438E0,1.089960289E1,1.701678872E0,-2.376843691E0
2.493042251E0,1.087087250E1,1.644217968E0,-2.434304476E0
2.495530063E0,1.086129570E1,1.591545582E0,-2.501342297E0
2.498017876E0,1.085650730E1,1.543661594E0,-2.587533474E0
2.500505688E0,1.083735371E1,1.505354285E0,-2.673724651E0
2.502993501E0,1.078468132E1,1.510142684E0,-2.783858061E0
2.505481313E0,1.072722054E1,1.529296279E0,-2.893991232E0
2.507969126E0,1.067454815E1,1.534084797E0,-2.999336243E0
2.510456938E0,1.062187576E1,1.529296279E0,-3.104681015E0
2.512944751E0,1.055483818E1,1.500565886E0,-3.195660830E0
2.515432563E0,1.043991661E1,1.471835494E0,-3.324947596E0
2.517920376E0,1.031541824E1,1.428739905E0,-3.420715570E0
2.520408188E0,1.017655468E1,1.361702204E0,-3.506906986E0
2.522896001E0,1.002811337E1,1.328183413E0,-3.593098164E0
2.525383813E0,9.898826599E0,1.294664621E0,-3.674500942E0
2.527871626E0,9.807847023E0,1.299453020E0,-3.727173567E0
2.530359438E0,9.745597839E0,1.299453020E0,-3.765480757E0
2.532847251E0,9.716867447E0,1.261145711E0,-3.760692358E0
2.535335063E0,9.635464668E0,1.198896527E0,-3.760692358E0
2.537822876E0,9.549273491E0,1.107916832E0,-3.731961966E0
2.540310688E0,9.501389503E0,1.031302333E0,-3.693654776E0
2.542798501E0,9.467870712E0,9.451110959E-1,-3.688866377E0
2.545286313E0,9.448717117E0,8.972271085E-1,-3.669712543E0
2.547774126E0,9.458293915E0,8.924387097E-1,-3.631405354E0
2.550261938E0,9.510966301E0,9.451110959E-1,-3.578732967E0
2.552749751E0,9.582792282E0,1.055244446E0,-3.540425777E0
2.555237563E0,9.645041466E0,1.208473325E0,-3.502118587E0
2.557725376E0,9.697713852E0,1.361702204E0,-3.420715570E0
2.560213188E0,9.692925453E0,1.462258697E0,-3.339312792E0
2.562701470E0,9.606734276E0,1.562815189E0,-3.253121614E0
2.565189126E0,9.491812706E0,1.649006367E0,-3.171718597E0
2.567676782E0,9.329007149E0,1.730409265E0,-3.119046211E0
2.570164438E0,9.175778389E0,1.787870169E0,-3.061585426E0
2.572652095E0,9.046490669E0,1.854907751E0,-2.989759445E0
2.575139751E0,8.965087891E0,1.869272947E0,-2.922721624E0
2.577627407E0,8.965087891E0,1.907580256E0,-2.836530447E0
2.580115063E0,9.027337074E0,1.941099048E0,-2.712032080E0
2.582602720E0,9.099164009E0,1.921945453E0,-2.554014683E0
2.585090376E0,9.209297180E0,1.869272947E0,-2.419939280E0
2.587578084E0,9.329007149E0,1.811812162E0,-2.266710520E0
2.590065845E0,9.443928719E0,1.720832467E0,-2.103904724E0
2.592553657E0,9.496601105E0,1.663371682E0,-1.979406238E0
2.595041522E0,9.520543098E0,1.620275974E0,-1.888426542E0
2.597529386E0,9.496601105E0,1.610699177E0,-1.807023764E0
2.600017251E0,9.419986725E0,1.649006367E0,-1.749562860E0
2.602505115E0,9.362525940E0,1.759139657E0,-1.730409265E0
2.604992980E0,9.300276756E0,1.893214941E0,-1.716044068E0
2.607480845E0,9.242815971E0,2.046443939E0,-1.658583283E0
2.609968709E0,9.166201591E0,2.199672699E0,-1.605910778E0
2.612456574E0,9.103952408E0,2.343324900E0,-1.538873196E0
2.614944438E0,9.065644264E0,2.415150881E0,-1.476623893E0
2.617432303E0,9.027337074E0,2.486977100E0,-1.467047095E0
2.619920168E0,8.989029884E0,2.549226284E0,-1.467047095E0
2.622408032E0,8.917203903E0,2.630629063E0,-1.505354285E0
2.624895897E0,8.854954720E0,2.731185675E0,-1.558026791E0
2.627383761E0,8.821435928E0,2.822165251E0,-1.615487576E0
2.629871626E0,8.826224327E0,2.932298422E0,-1.692102075E0
2.632359490E0,8.888473511E0,3.104681015E0,-1.720832467E0
2.634847355E0,8.979453087E0,3.277063608E0,-1.749562860E0
2.637335220E0,9.127894402E0,3.487753391E0,-1.725620866E0
2.639823084E0,9.247604370E0,3.717596769E0,-1.725620866E0
2.642310949E0,9.357737541E0,3.923498154E0,-1.739986062E0
2.644798813E0,9.439140320E0,4.095880508E0,-1.744774461E0
2.647286678E0,9.496601105E0,4.225167274E0,-1.797446966E0
2.649774543E0,9.506177902E0,4.340089321E0,-1.874061346E0
2.652262355E0,9.463082314E0,4.450222492E0,-1.984194636E0
2.654750115E0,9.362525940E0,4.574720860E0,-2.180519104E0
2.657237876E0,9.247604370E0,4.737526417E0,-2.395997286E0
2.659725636E0,9.123106003E0,4.919486046E0,-2.635417461E0
2.662213397E0,9.046490669E0,5.120598793E0,-2.913144827E0
2.664701157E0,9.003395081E0,5.321712017E0,-3.157353401E0
2.667188918E0,9.022548676E0,5.489305973E0,-3.372831583E0
2.669676678E0,9.080010414E0,5.642534733E0,-3.550002575E0
2.672164438E0,9.194931984E0,5.728725910E0,-3.679289579E0
2.674652199E0,9.333795547E0,5.786187172E0,-3.755903959E0
2.677139959E0,9.448717117E0,5.814917564E0,-3.842095137E0
2.679627720E0,9.558850288E0,5.829282761E0,-3.894767523E0
2.682115480E0,9.611522675E0,5.867589951E0,-3.957016945E0
2.684603240E0,9.630676270E0,5.915473938E0,-4.019266129E0
2.687091001E0,9.606734276E0,5.953781128E0,-4.100668907E0
2.689578761E0,9.554061890E0,5.972934723E0,-4.210802078E0
2.692066522E0,9.506177902E0,5.977723122E0,-4.258686066E0
2.694554282E0,9.491812706E0,5.996876717E0,-4.244320869E0
2.697042043E0,9.520543098E0,6.011241913E0,-4.210802078E0
2.699529803E0,9.630676270E0,6.001665115E0,-4.124610901E0
2.702017563E0,9.755174637E0,5.953781128E0,-4.000112534E0
2.704505324E0,9.927556992E0,5.896320343E0,-3.866037130E0
2.706993084E0,1.010472870E1,5.795763969E0,-3.722385168E0
2.709480845E0,1.028189945E1,5.656899929E0,-3.559579372E0
2.711968605E0,1.044470501E1,5.508459568E0,-3.425503969E0
2.714456365E0,1.057878017E1,5.355230808E0,-3.281852007E0
2.716944126E0,1.066018295E1,5.211578369E0,-3.166930199E0
2.719431886E0,1.075116253E1,5.111021996E0,-3.037643433E0
2.721919647E0,1.084214211E1,5.024830818E0,-2.898779631E0
2.724407459E0,1.094269848E1,4.996100426E0,-2.764704466E0
2.726895272E0,1.111029339E1,4.986523628E0,-2.611475468E0
2.729383084E0,1.130661774E1,4.976946831E0,-2.434304476E0
2.731870897E0,1.151251888E1,4.953004837E0,-2.218826532E0
2.734358709E0,1.170405483E1,4.881178856E0,-1.993771434E0
2.736846522E0,1.189080238E1,4.771045208E0,-1.763928056E0
2.739334334E0,1.205839729E1,4.646546841E0,-1.548449993E0
2.741822147E0,1.220204926E1,4.517260075E0,-1.361702204E0
2.744309959E0,1.229781723E1,4.387973309E0,-1.184531331E0
2.746797772E0,1.235048962E1,4.306570530E0,-1.050456047E0
2.749285584E0,1.232175922E1,4.277839661E0,-9.115923047E-1
2.751773397E0,1.225472164E1,4.296993732E0,-8.014590144E-1
2.754261209E0,1.215416527E1,4.344877720E0,-6.625953317E-1
2.756749022E0,1.207276249E1,4.383184910E0,-5.572504401E-1
2.759236834E0,1.201051235E1,4.397550106E0,-4.519055784E-1
2.761724647E0,1.198178196E1,4.340089321E0,-3.465606868E-1
2.764212459E0,1.194826317E1,4.277839661E0,-2.890998423E-1
2.766700272E0,1.190037918E1,4.210802078E0,-2.220622003E-1
2.769188084E0,1.181418800E1,4.148552895E0,-1.837549806E-1
2.771675897E0,1.173278522E1,4.076726913E0,-1.215057373E-1
2.774163709E0,1.166574764E1,4.028842926E0,-8.319851011E-2
2.776651522E0,1.157955647E1,3.995324135E0,-3.052607179E-2
2.779139334E0,1.147900009E1,3.990535736E0,2.693476900E-2
2.781627147E0,1.136407852E1,4.009689331E0,9.397241473E-2
2.784114959E0,1.124915695E1,3.985747337E0,1.705868691E-1
2.786602772E0,1.117254257E1,3.947440147E0,2.998737693E-1
2.789090584E0,1.110071659E1,3.909132719E0,4.291606545E-1
2.791578397E0,1.108635139E1,3.851671934E0,5.823895931E-1
2.794066209E0,1.108156300E1,3.784634352E0,7.787141204E-1
2.796554022E0,1.108156300E1,3.708019972E0,9.654618502E-1
2.799041834E0,1.112944698E1,3.626616955E0,1.118690729E0
2.801529647E0,1.117733097E1,3.554790974E0,1.295861721E0
2.804017459E0,1.120606136E1,3.482964993E0,1.458667397E0
2.806505272E0,1.123479176E1,3.415927172E0,1.607107878E0
2.808993084E0,1.123479176E1,3.344101191E0,1.769913554E0
2.811480897E0,1.120606136E1,3.272275209E0,1.927930951E0
2.813968709E0,1.116775417E1,3.214814425E0,2.100313425E0
2.816456522E0,1.111029339E1,3.162141800E0,2.234388828E0
2.818944334E0,1.104325581E1,3.152565002E0,2.334945202E0
2.821432147E0,1.096664047E1,3.166930199E0,2.397194386E0
2.823919959E0,1.093312168E1,3.176506996E0,2.425924778E0
2.826407772E0,1.089960289E1,3.195660830E0,2.454655409E0
2.828895584E0,1.086129570E1,3.200449228E0,2.469020605E0
2.831383397E0,1.078468132E1,3.195660830E0,2.469020605E0
2.833871209E0,1.069849014E1,3.186083794E0,2.435501575E0
2.836359022E0,1.061229897E1,3.171718597E0,2.430713177E0
2.838846834E0,1.051174259E1,3.190872431E0,2.401982784E0
2.841334647E0,1.046385860E1,3.224391222E0,2.358887196E0
2.843822459E0,1.043033981E1,3.238756418E0,2.282272816E0
2.846310272E0,1.038724422E1,3.253121614E0,2.191293001E0
2.848798084E0,1.032499504E1,3.281852007E0,2.042852640E0
2.851285897E0,1.027232265E1,3.310582399E0,1.894412041E0
2.853773709E0,1.019570827E1,3.372831583E0,1.726817966E0
2.856261522E0,1.008078671E1,3.449446201E0,1.573589087E0
2.858749334E0,9.965864182E0,3.545214176E0,1.429937005E0
2.861237147E0,9.841365814E0,3.631405354E0,1.295861721E0
2.863724959E0,9.745597839E0,3.698443174E0,1.185728431E0
2.866212772E0,9.664195061E0,3.765480757E0,1.089960337E0
2.868700584E0,9.625887871E0,3.803787947E0,1.032499433E0
2.871188397E0,9.563638687E0,3.822941542E0,9.702502489E-1
2.873676209E0,9.506177902E0,3.813364744E0,8.936358094E-1
2.876164022E0,9.453505516E0,3.798999548E0,8.074445128E-1
2.878651834E0,9.419986725E0,3.746327162E0,7.260416746E-1
2.881139647E0,9.396044731E0,3.708019972E0,6.446388364E-1
2.883627459E0,9.376891136E0,3.664924145E0,5.776011348E-1
2.886115272E0,9.372102737E0,3.626616955E0,4.866214991E-1
2.888603084E0,9.381679535E0,3.602674961E0,3.716998100E-1
2.891090897E0,9.376891136E0,3.588309765E0,2.902969420E-1
2.893578709E0,9.372102737E0,3.569156170E0,1.993172914E-1
2.896066522E0,9.372102737E0,3.535637379E0,1.035492271E-1
2.898554334E0,9.338583946E0,3.530848980E0,7.781155407E-3
2.901042147E0,9.285911560E0,3.545214176E0,-9.277531505E-2
2.903529959E0,9.257181168E0,3.545214176E0,-2.124854028E-1
2.906017772E0,9.185355186E0,3.569156170E0,-3.082534671E-1
2.908505584E0,9.132682800E0,3.602674961E0,-4.135983288E-1
2.910993397E0,9.070432663E0,3.660135746E0,-4.902127981E-1
2.913481209E0,9.036913872E0,3.693654776E0,-5.428852439E-1
2.915969022E0,8.993818283E0,3.741538763E0,-5.620388389E-1
2.918456834E0,8.931569099E0,3.779845953E0,-5.572504401E-1
2.920944647E0,8.850166321E0,3.808576345E0,-5.524620414E-1
2.923432459E0,8.768763542E0,3.842095137E0,-5.572504401E-1
2.925920272E0,8.716091156E0,3.832518339E0,-5.764040351E-1
2.928408084E0,8.677783966E0,3.842095137E0,-5.764040351E-1
2.930895897E0,8.644265175E0,3.837306738E0,-6.290764809E-1
2.933383709E0,8.596381187E0,3.842095137E0,-6.769605279E-1
2.935871522E0,8.538920403E0,3.822941542E0,-7.248445749E-1
2.938359334E0,8.495824814E0,3.822941542E0,-7.727286220E-1
2.940847147E0,8.462306023E0,3.837306738E0,-8.110358119E-1
2.943334959E0,8.457517624E0,3.832518339E0,-8.541314602E-1
2.945822772E0,8.476671219E0,3.803787947E0,-9.115923047E-1
2.948310584E0,8.471882820E0,3.789422750E0,-9.546879530E-1
2.950798397E0,8.471882820E0,3.794211149E0,-1.016937137E0
2.953286209E0,8.457517624E0,3.789422750E0,-1.064821243E0
2.955774022E0,8.495824814E0,3.779845953E0,-1.088763237E0
2.958261834E0,8.538920403E0,3.779845953E0,-1.093551636E0
2.960749647E0,8.601169586E0,3.727173567E0,-1.088763237E0
2.963237459E0,8.649053574E0,3.669712543E0,-1.083974838E0
2.965725272E0,8.668207169E0,3.626616955E0,-1.098340034E0
2.968213084E0,8.711302757E0,3.578732967E0,-1.093551636E0
2.970700897E0,8.749609947E0,3.545214176E0,-1.069609642E0
2.973188709E0,8.759186745E0,3.516483784E0,-1.064821243E0
2.975676522E0,8.740033150E0,3.516483784E0,-1.074398041E0
2.978164334E0,8.763975143E0,3.511695385E0,-1.083974838E0
2.980652147E0,8.768763542E0,3.506906986E0,-1.103128433E0
2.983139959E0,8.773551941E0,3.506906986E0,-1.112705231E0
2.985627772E0,8.797493935E0,3.521272182E0,-1.136647224E0
2.988115584E0,8.816647530E0,3.554790974E0,-1.136647224E0
2.990603397E0,8.845377922E0,3.578732967E0,-1.165377736E0
2.993091209E0,8.854954720E0,3.626616955E0,-1.203684926E0
2.995579022E0,8.898050308E0,3.664924145E0,-1.261145711E0
2.998066834E0,8.907627106E0,3.712808371E0,-1.337760210E0
3.000554647E0,8.936357498E0,3.755903959E0,-1.428739905E0
3.003042459E0,8.965087891E0,3.803787947E0,-1.529296279E0
3.005530272E0,8.969876289E0,3.842095137E0,-1.625064373E0
3.008018084E0,8.945934296E0,3.875613928E0,-1.730409265E0
3.010505897E0,8.917203903E0,3.937863350E0,-1.778293371E0
3.012993709E0,8.874108315E0,3.971382141E0,-1.840542555E0
3.015481522E0,8.845377922E0,4.000112534E0,-1.878849745E0
3.017969334E0,8.811859131E0,4.028842926E0,-1.859696150E0
3.020457147E0,8.797493935E0,4.067150116E0,-1.845330954E0
3.022944959E0,8.797493935E0,4.105457306E0,-1.807023764E0
3.025432772E0,8.807070732E0,4.119822502E0,-1.744774461E0
3.027920584E0,8.826224327E0,4.115034103E0,-1.668160081E0
3.030408397E0,8.850166321E0,4.124610901E0,-1.581968784E0
3.032896209E0,8.854954720E0,4.124610901E0,-1.505354285E0
3.035384022E0,8.864531517E0,4.110245705E0,-1.438316703E0
3.037871834E0,8.864531517E0,4.100668907E0,-1.371279001E0
3.040359647E0,8.883685112E0,4.100668907E0,-1.275510907E0
3.042847459E0,8.888473511E0,4.086303711E0,-1.198896527E0
3.045335272E0,8.902838707E0,4.076726913E0,-1.107916832E0
3.047823084E0,8.917203903E0,4.095880508E0,-1.031302333E0
3.050310897E0,8.926780701E0,4.110245705E0,-9.690531492E-1
3.052798709E0,8.921992302E0,4.138976097E0,-9.115923047E-1
3.055286522E0,8.917203903E0,4.143764496E0,-8.780734539E-1
3.057774334E0,8.931569099E0,4.143764496E0,-8.589198589E-1
3.060262147E0,8.921992302E0,4.134187698E0,-8.541314602E-1
3.062749959E0,8.902838707E0,4.138976097E0,-8.254010081E-1
3.065237772E0,8.859743118E0,4.138976097E0,-8.445546627E-1
3.067725584E0,8.845377922E0,4.138976097E0,-8.301894665E-1
3.070213397E0,8.859743118E0,4.124610901E0,-7.870938182E-1
3.072701209E0,8.878896713E0,4.100668907E0,-7.248445749E-1
3.075189022E0,8.888473511E0,4.081515312E0,-6.865373254E-1
3.077676834E0,8.907627106E0,4.100668907E0,-6.482301354E-1
3.080164647E0,8.917203903E0,4.067150116E0,-6.099228859E-1
3.082652459E0,8.926780701E0,4.024054527E0,-5.907692909E-1
3.085140272E0,8.950722694E0,3.995324135E0,-5.764040351E-1
3.087628084E0,8.979453087E0,3.957016945E0,-5.764040351E-1
3.090115897E0,8.974664688E0,3.909132719E0,-5.716156363E-1
3.092603709E0,8.960299492E0,3.885190725E0,-5.668272376E-1
3.095091522E0,8.960299492E0,3.870825529E0,-5.572504401E-1
3.097579334E0,8.965087891E0,3.851671934E0,-5.476736426E-1
3.100067147E0,8.955511093E0,3.837306738E0,-5.237316489E-1
3.102554959E0,8.965087891E0,3.818153143E0,-4.950011969E-1
3.105042772E0,9.012971878E0,3.770269156E0,-4.662707746E-1
3.107530584E0,9.060855865E0,3.708019972E0,-4.662707746E-1
3.110018397E0,9.099164009E0,3.660135746E0,-4.566939771E-1
3.112506209E0,9.123106003E0,3.588309765E0,-4.614823759E-1
3.114994022E0,9.142259598E0,3.526060581E0,-4.902127981E-1
3.117481834E0,9.190143585E0,3.487753391E0,-5.141547918E-1
3.119969647E0,9.209297180E0,3.459022999E0,-5.764040351E-1
3.122458136E0,9.233239174E0,3.415927172E0,-6.147112846E-1
3.124945636E0,9.252392769E0,3.396773577E0,-6.578069329E-1
3.127433136E0,9.233239174E0,3.377619982E0,-7.056909800E-1
3.129920636E0,9.214085579E0,3.372831583E0,-7.583633661E-1
3.132408136E0,9.185355186E0,3.372831583E0,-8.014590144E-1
3.134895636E0,9.161413193E0,3.372831583E0,-8.349778652E-1
3.137383188E0,9.142259598E0,3.377619982E0,-8.493430614E-1
3.139870793E0,9.099164009E0,3.377619982E0,-8.637082577E-1
3.142358449E0,9.065644264E0,3.363254786E0,-8.637082577E-1
3.144846157E0,9.041702271E0,3.363254786E0,-8.541314602E-1
3.147333918E0,9.012971878E0,3.353677988E0,-8.349778652E-1
3.149821730E0,9.008183479E0,3.358466387E0,-8.301894665E-1
3.152309595E0,8.979453087E0,3.368043184E0,-8.397662640E-1
3.154797511E0,8.965087891E0,3.339312792E0,-8.445546627E-1
3.157285480E0,8.941145897E0,3.334524393E0,-8.301894665E-1
3.159773501E0,8.907627106E0,3.334524393E0,-8.206126094E-1
3.162261522E0,8.893261909E0,3.348889589E0,-8.397662640E-1
3.164749543E0,8.898050308E0,3.363254786E0,-8.301894665E-1
3.167237563E0,8.931569099E0,3.382408381E0,-8.254010081E-1
3.169725584E0,8.965087891E0,3.406350374E0,-8.206126094E-1
3.172213605E0,8.969876289E0,3.420715570E0,-8.301894665E-1
3.174701626E0,8.993818283E0,3.425503969E0,-8.445546627E-1
3.177189595E0,9.003395081E0,3.411138773E0,-8.541314602E-1
3.179677355E0,8.998606682E0,3.406350374E0,-8.828618526E-1
3.182165115E0,8.969876289E0,3.411138773E0,-8.780734539E-1
3.184652876E0,8.974664688E0,3.401561975E0,-9.307458997E-1
3.187140636E0,8.969876289E0,3.382408381E0,-9.403226972E-1
3.189628397E0,8.979453087E0,3.382408381E0,-9.642647505E-1
3.192116157E0,8.979453087E0,3.377619982E0,-1.002571940E0
3.194603918E0,8.974664688E0,3.372831583E0,-1.021725535E0
3.197091678E0,8.931569099E0,3.382408381E0,-1.050456047E0
3.199579438E0,8.931569099E0,3.411138773E0,-1.050456047E0
3.202067199E0,8.936357498E0,3.420715570E0,-1.083974838E0
3.204554959E0,8.917203903E0,3.420715570E0,-1.098340034E0
3.207042720E0,8.926780701E0,3.425503969E0,-1.146224022E0
3.209530480E0,8.941145897E0,3.401561975E0,-1.198896527E0
3.212018240E0,8.979453087E0,3.382408381E0,-1.237203717E0
3.214506001E0,9.003395081E0,3.363254786E0,-1.251568913E0
3.216993761E0,8.998606682E0,3.358466387E0,-1.289876223E0
3.219481522E0,8.993818283E0,3.348889589E0,-1.337760210E0
3.221969282E0,9.008183479E0,3.363254786E0,-1.323395014E0
3.224457043E0,8.993818283E0,3.382408381E0,-1.309029818E0
3.226944803E0,8.984241486E0,3.411138773E0,-1.289876223E0
3.229432563E0,8.984241486E0,3.420715570E0,-1.251568913E0
3.231920324E0,9.003395081E0,3.425503969E0,-1.194108129E0
3.234408084E0,9.027337074E0,3.401561975E0,-1.151012421E0
3.236895845E0,9.056067467E0,3.377619982E0,-1.083974838E0
3.239383605E0,9.060855865E0,3.329735994E0,-1.040879130E0
3.241871365E0,9.060855865E0,3.291428804E0,-1.002571940E0
3.244359126E0,9.103952408E0,3.267486811E0,-9.882067442E-1
3.246846938E0,9.137471199E0,3.219602823E0,-9.882067442E-1
3.249334751E0,9.194931984E0,3.186083794E0,-9.882067442E-1
3.251822563E0,9.242815971E0,3.176506996E0,-1.002571940E0
3.254310376E0,9.290699959E0,3.157353401E0,-1.012148738E0
3.256798188E0,9.329007149E0,3.147776604E0,-1.031302333E0
3.259286001E0,9.338583946E0,3.152565002E0,-1.050456047E0
3.261773813E0,9.352949142E0,3.157353401E0,-1.031302333E0
3.264261626E0,9.362525940E0,3.162141800E0,-1.007360339E0
3.266749438E0,9.386467934E0,3.176506996E0,-9.690531492E-1
3.269237251E0,9.372102737E0,3.186083794E0,-9.211691022E-1
3.271725063E0,9.357737541E0,3.190872431E0,-8.780734539E-1
3.274212876E0,9.348160744E0,3.181295395E0,-8.732850552E-1
3.276700688E0,9.329007149E0,3.176506996E0,-8.493430614E-1
3.279188501E0,9.285911560E0,3.181295395E0,-8.732850552E-1
3.281676313E0,9.242815971E0,3.229179621E0,-9.068039060E-1
3.284164126E0,9.190143585E0,3.301005602E0,-9.163807034E-1
3.286651938E0,9.156624794E0,3.372831583E0,-9.115923047E-1
3.289139751E0,9.127894402E0,3.463811398E0,-9.355342984E-1
3.291627563E0,9.123106003E0,3.540425777E0,-9.355342984E-1
3.294115376E0,9.113529205E0,3.602674961E0,-9.498994946E-1
3.296603188E0,9.118317604E0,3.636193752E0,-9.403226972E-1
3.299091001E0,9.147047997E0,3.655347347E0,-9.307458997E-1
3.301578813E0,9.123106003E0,3.660135746E0,-9.115923047E-1
3.304066626E0,9.103952408E0,3.655347347E0,-9.307458997E-1
3.306554438E0,9.137471199E0,3.621828556E0,-9.307458997E-1
3.309042251E0,9.147047997E0,3.593098164E0,-9.259575009E-1
3.311530063E0,9.190143585E0,3.569156170E0,-9.451110959E-1
3.314017876E0,9.199720383E0,3.554790974E0,-9.451110959E-1
3.316505688E0,9.218873978E0,3.559579372E0,-9.642647505E-1
3.318993501E0,9.228450775E0,3.564367771E0,-9.834183455E-1
3.321481313E0,9.247604370E0,3.564367771E0,-9.929951429E-1
3.323969126E0,9.276334763E0,3.550002575E0,-1.007360339E0
3.326456938E0,9.305065155E0,3.535637379E0,-1.007360339E0
3.328944751E0,9.333795547E0,3.502118587E0,-9.882067442E-1
3.331432563E0,9.362525940E0,3.473388195E0,-9.690531492E-1
3.333920376E0,9.386467934E0,3.420715570E0,-9.498994946E-1
3.336408188E0,9.410409927E0,3.368043184E0,-9.211691022E-1
3.338896001E0,9.429563522E0,3.320159197E0,-8.924387097E-1
3.341383813E0,9.434351921E0,3.281852007E0,-8.684966564E-1
3.343871626E0,9.439140320E0,3.233968019E0,-8.397662640E-1
3.346359438E0,9.419986725E0,3.224391222E0,-8.014590144E-1
3.348847251E0,9.415198326E0,3.219602823E0,-7.631517649E-1
3.351335063E0,9.405621529E0,3.186083794E0,-7.487865686E-1
3.353822876E0,9.386467934E0,3.171718597E0,-7.248445749E-1
3.356310688E0,9.405621529E0,3.142988205E0,-6.817489266E-1
3.358798501E0,9.439140320E0,3.123834610E0,-6.482301354E-1
3.361286313E0,9.453505516E0,3.090315819E0,-6.147112846E-1
3.363774126E0,9.458293915E0,3.061585426E0,-5.764040351E-1
3.366261938E0,9.439140320E0,3.037643433E0,-5.716156363E-1
3.368749751E0,9.429563522E0,3.023278236E0,-5.668272376E-1
3.371237563E0,9.429563522E0,3.013701439E0,-5.668272376E-1
3.373725376E0,9.419986725E0,3.013701439E0,-5.764040351E-1
3.376213188E0,9.415198326E0,3.023278236E0,-5.955576897E-1
3.378701001E0,9.415198326E0,3.042431831E0,-6.099228859E-1
3.381188813E0,9.419986725E0,3.056797028E0,-6.194996834E-1
3.383676626E0,9.424775124E0,3.085527420E0,-6.051344872E-1
3.386164438E0,9.429563522E0,3.119046211E0,-6.003460884E-1
3.388652251E0,9.429563522E0,3.133411407E0,-6.051344872E-1
3.391140063E0,9.443928719E0,3.147776604E0,-5.955576897E-1
3.393627876E0,9.472659111E0,3.157353401E0,-5.955576897E-1
3.396115688E0,9.477447510E0,3.166930199E0,-6.147112846E-1
3.398603501E0,9.482235909E0,3.166930199E0,-6.817489266E-1
3.401091313E0,9.467870712E0,3.181295395E0,-7.152677774E-1
3.403579126E0,9.424775124E0,3.214814425E0,-7.679402232E-1
3.406066938E0,9.429563522E0,3.248333216E0,-7.870938182E-1
3.408554751E0,9.410409927E0,3.291428804E0,-7.966706157E-1
3.411042563E0,9.386467934E0,3.334524393E0,-7.727286220E-1
3.413530376E0,9.372102737E0,3.368043184E0,-7.631517649E-1
3.416018188E0,9.314641953E0,3.372831583E0,-7.296329737E-1
3.418506001E0,9.319430351E0,3.391985178E0,-7.056909800E-1
3.420993813E0,9.319430351E0,3.396773577E0,-6.817489266E-1
3.423481626E0,9.333795547E0,3.363254786E0,-6.625953317E-1
3.425969438E0,9.329007149E0,3.358466387E0,-6.913257241E-1
3.428457251E0,9.305065155E0,3.339312792E0,-7.009025216E-1
3.430945063E0,9.324218750E0,3.334524393E0,-7.679402232E-1
3.433432876E0,9.348160744E0,3.339312792E0,-8.110358119E-1
3.435920688E0,9.357737541E0,3.344101191E0,-8.254010081E-1
3.438408501E0,9.372102737E0,3.363254786E0,-8.732850552E-1
3.440896313E0,9.367314339E0,3.387196779E0,-9.020155072E-1
3.443384126E0,9.376891136E0,3.396773577E0,-9.403226972E-1
3.445871938E0,9.372102737E0,3.415927172E0,-9.451110959E-1
3.448359751E0,9.352949142E0,3.420715570E0,-9.690531492E-1
3.450847563E0,9.352949142E0,3.425503969E0,-9.929951429E-1
3.453335376E0,9.352949142E0,3.425503969E0,-9.977835417E-1
3.455823188E0,9.343372345E0,3.415927172E0,-1.012148738E0
3.458311001E0,9.333795547E0,3.425503969E0,-1.002571940E0
3.460798813E0,9.329007149E0,3.415927172E0,-1.021725535E0
3.463286626E0,9.314641953E0,3.425503969E0,-1.036090732E0
3.465774438E0,9.290699959E0,3.435081005E0,-1.040879130E0
3.468262251E0,9.266757965E0,3.459022999E0,-1.055244446E0
3.470750063E0,9.261969566E0,3.482964993E0,-1.064821243E0
3.473237876E0,9.271546364E0,3.492541790E0,-1.064821243E0
3.475725688E0,9.281123161E0,3.506906986E0,-1.064821243E0
3.478213501E0,9.290699959E0,3.511695385E0,-1.064821243E0
3.480701313E0,9.314641953E0,3.492541790E0,-1.064821243E0
3.483189126E0,9.338583946E0,3.468599796E0,-1.031302333E0
3.485676938E0,9.386467934E0,3.411138773E0,-9.786299467E-1
3.488164751E0,9.439140320E0,3.372831583E0,-9.259575009E-1
3.490652563E0,9.482235909E0,3.348889589E0,-8.637082577E-1
3.493140376E0,9.506177902E0,3.305794001E0,-8.110358119E-1
3.495628188E0,9.525331497E0,3.286640406E0,-7.679402232E-1
3.498116001E0,9.534908295E0,3.286640406E0,-7.487865686E-1
3.500603813E0,9.558850288E0,3.315370798E0,-7.104793787E-1
3.503091626E0,9.539696693E0,3.305794001E0,-6.865373254E-1
3.505579438E0,9.544485092E0,3.344101191E0,-6.434416771E-1
3.508067251E0,9.563638687E0,3.372831583E0,-6.051344872E-1
3.510555063E0,9.568427086E0,3.425503969E0,-5.811924338E-1
3.513042876E0,9.554061890E0,3.449446201E0,-5.524620414E-1
3.515530688E0,9.573215485E0,3.482964993E0,-5.093663931E-1
3.518018501E0,9.563638687E0,3.511695385E0,-4.806360006E-1
3.520506313E0,9.568427086E0,3.535637379E0,-4.566939771E-1
3.522994126E0,9.563638687E0,3.550002575E0,-4.423287511E-1
3.525481938E0,9.549273491E0,3.578732967E0,-4.566939771E-1
3.527969751E0,9.554061890E0,3.612251759E0,-4.806360006E-1
3.530457563E0,9.573215485E0,3.645770550E0,-5.045779943E-1
3.532945376E0,9.592369080E0,3.688866377E0,-5.572504401E-1
3.535433188E0,9.649829865E0,3.693654776E0,-5.955576897E-1
3.537921001E0,9.692925453E0,3.712808371E0,-6.242880821E-1
3.540408813E0,9.721655846E0,3.731961966E0,-6.482301354E-1
3.542896626E0,9.750386238E0,3.765480757E0,-6.817489266E-1
3.545384438E0,9.774328232E0,3.789422750E0,-7.009025216E-1
3.547872251E0,9.807847023E0,3.818153143E0,-7.056909800E-1
3.550360063E0,9.822212219E0,3.818153143E0,-7.296329737E-1
3.552847876E0,9.855731010E0,3.842095137E0,-7.487865686E-1
3.555335688E0,9.884461403E0,3.866037130E0,-7.535749674E-1
3.557823501E0,9.908403397E0,3.875613928E0,-7.535749674E-1
3.560311313E0,9.941922188E0,3.894767523E0,-7.631517649E-1
3.562799855E0,9.975440979E0,3.899555922E0,-7.392097712E-1
3.565287511E0,1.001374817E1,3.899555922E0,-7.152677774E-1
3.567775168E0,1.004726696E1,3.885190725E0,-6.673837304E-1
3.570262824E0,1.008078671E1,3.870825529E0,-6.434416771E-1
3.572750480E0,1.011430550E1,3.866037130E0,-6.051344872E-1
3.575238136E0,1.013824749E1,3.880402327E0,-5.859808922E-1
3.577725793E0,1.017176628E1,3.885190725E0,-5.620388389E-1
3.580213449E0,1.021486187E1,3.899555922E0,-5.524620414E-1
3.582701470E0,1.023401546E1,3.885190725E0,-5.333084464E-1
3.585189490E0,1.026753426E1,3.899555922E0,-5.093663931E-1
3.587677511E0,1.029147625E1,3.904344320E0,-5.093663931E-1
3.590165532E0,1.031062984E1,3.913921118E0,-4.902127981E-1
3.592653397E0,1.032020664E1,3.909132719E0,-4.710591733E-1
3.595141209E0,1.036330223E1,3.909132719E0,-4.758476019E-1
3.597629022E0,1.042076302E1,3.913921118E0,-4.854243994E-1
3.600116834E0,1.046385860E1,3.933074951E0,-5.141547918E-1
3.602604647E0,1.053568459E1,3.923498154E0,-5.620388389E-1
3.605092459E0,1.058356857E1,3.942651749E0,-6.003460884E-1
3.607580220E0,1.066497135E1,3.947440147E0,-6.386532784E-1
3.610067980E0,1.071285534E1,3.942651749E0,-6.673837304E-1
3.612555740E0,1.077031612E1,3.961805344E0,-6.865373254E-1
3.615043501E0,1.080862331E1,3.980958939E0,-7.248445749E-1
3.617531261E0,1.082777691E1,3.966593742E0,-7.583633661E-1
3.620019022E0,1.086608410E1,3.990535736E0,-7.918822169E-1
3.622506782E0,1.089002609E1,4.000112534E0,-8.397662640E-1
3.624994543E0,1.093791008E1,3.995324135E0,-8.876502514E-1
3.627482303E0,1.094269848E1,4.024054527E0,-9.355342984E-1
3.629970063E0,1.094748688E1,4.019266129E0,-9.594763517E-1
3.632457824E0,1.089002609E1,4.000112534E0,-9.834183455E-1
3.634945584E0,1.086608410E1,3.976170540E0,-9.738415480E-1
3.637433345E0,1.083256531E1,3.966593742E0,-9.642647505E-1
3.639921105E0,1.077510452E1,3.952228546E0,-9.451110959E-1
3.642408865E0,1.076073933E1,3.928286552E0,-9.211691022E-1
3.644896626E0,1.075116253E1,3.913921118E0,-8.876502514E-1
3.647384386E0,1.076073933E1,3.894767523E0,-8.493430614E-1
3.649872147E0,1.077031612E1,3.904344320E0,-8.014590144E-1
3.652359907E0,1.080862331E1,3.894767523E0,-7.775170207E-1
3.654847668E0,1.085171890E1,3.880402327E0,-7.487865686E-1
3.657335428E0,1.087566090E1,3.837306738E0,-7.296329737E-1
3.659823188E0,1.089002609E1,3.770269156E0,-7.152677774E-1
3.662310949E0,1.088044930E1,3.731961966E0,-7.296329737E-1
3.664798709E0,1.087087250E1,3.684077978E0,-7.344213724E-1
3.667286470E0,1.087087250E1,3.640982151E0,-7.344213724E-1
3.669774230E0,1.088044930E1,3.602674961E0,-7.104793787E-1
3.672261990E0,1.089960289E1,3.588309765E0,-7.344213724E-1
3.674749803E0,1.090917969E1,3.573944569E0,-7.344213724E-1
3.677237615E0,1.092354488E1,3.554790974E0,-7.679402232E-1
3.679725428E0,1.092833328E1,3.516483784E0,-8.110358119E-1
3.682213240E0,1.093791008E1,3.492541790E0,-8.493430614E-1
3.684701053E0,1.097142887E1,3.449446201E0,-8.684966564E-1
3.687188865E0,1.097142887E1,3.401561975E0,-9.020155072E-1
3.689676678E0,1.096664047E1,3.353677988E0,-9.498994946E-1
3.692164490E0,1.095227528E1,3.301005602E0,-1.040879130E0
3.694652303E0,1.095227528E1,3.257910013E0,-1.122282028E0
3.697140115E0,1.094748688E1,3.224391222E0,-1.194108129E0
3.699627928E0,1.098579407E1,3.210026026E0,-1.265934110E0
3.702115740E0,1.104804420E1,3.181295395E0,-1.313818216E0
3.704603553E0,1.108156300E1,3.166930199E0,-1.366490602E0
3.707091365E0,1.112944698E1,3.162141800E0,-1.404797792E0
3.709579178E0,1.114381218E1,3.171718597E0,-1.452681899E0
3.712066990E0,1.113902378E1,3.166930199E0,-1.476623893E0
3.714554803E0,1.112465858E1,3.181295395E0,-1.519719481E0
3.717042615E0,1.110071659E1,3.176506996E0,-1.553238392E0
3.719530428E0,1.107198620E1,3.190872431E0,-1.586757183E0
3.722018240E0,1.104804420E1,3.210026026E0,-1.596333981E0
3.724506053E0,1.100973606E1,3.257910013E0,-1.596333981E0
3.726993865E0,1.093791008E1,3.286640406E0,-1.581968784E0
3.729481678E0,1.085650730E1,3.372831583E0,-1.524507880E0
3.731969490E0,1.076073933E1,3.444657803E0,-1.462258697E0
3.734457303E0,1.068412495E1,3.516483784E0,-1.419163108E0
3.736945115E0,1.061708736E1,3.559579372E0,-1.380855799E0
3.739432928E0,1.055004978E1,3.607463360E0,-1.352125406E0
3.741920740E0,1.049258900E1,3.655347347E0,-1.332971811E0
3.744408553E0,1.044949341E1,3.688866377E0,-1.328183413E0
3.746896365E0,1.038724422E1,3.712808371E0,-1.366490602E0
3.749384178E0,1.033936024E1,3.755903959E0,-1.366490602E0
3.751871990E0,1.027232265E1,3.798999548E0,-1.366490602E0
3.754359803E0,1.019570827E1,3.866037130E0,-1.361702204E0
3.756847615E0,1.010472870E1,3.933074951E0,-1.361702204E0
3.759335428E0,1.004726696E1,4.009689331E0,-1.352125406E0
3.761823240E0,9.989806175E0,4.062361717E0,-1.342548609E0
3.764311053E0,9.937133789E0,4.110245705E0,-1.366490602E0
3.766798865E0,9.889249802E0,4.134187698E0,-1.376067400E0
3.769286678E0,9.865307808E0,4.153341293E0,-1.414374709E0
3.771774490E0,9.865307808E0,4.143764496E0,-1.428739905E0
3.774262303E0,9.889249802E0,4.143764496E0,-1.457470298E0
3.776750115E0,9.961075783E0,4.115034103E0,-1.443105102E0
3.779237928E0,1.002811337E1,4.067150116E0,-1.428739905E0
3.781725740E0,1.007120991E1,4.009689331E0,-1.371279001E0
3.784213553E0,1.013345909E1,3.952228546E0,-1.313818216E0
3.786701365E0,1.013345909E1,3.899555922E0,-1.294664621E0
3.789189178E0,1.013345909E1,3.851671934E0,-1.280299306E0
3.791676990E0,1.015261269E1,3.866037130E0,-1.285087705E0
3.794164803E0,1.013345909E1,3.880402327E0,-1.270722508E0
3.796652615E0,1.009515190E1,3.913921118E0,-1.270722508E0
3.799140428E0,1.002811337E1,3.942651749E0,-1.275510907E0
3.801628240E0,9.970652580E0,3.952228546E0,-1.256357312E0
3.804116053E0,9.903614998E0,3.909132719E0,-1.184531331E0
3.806603865E0,9.894038200E0,3.861248732E0,-1.074398041E0
3.809091678E0,9.917980194E0,3.794211149E0,-9.355342984E-1
3.811579490E0,9.951498985E0,3.731961966E0,-7.775170207E-1
3.814067303E0,9.975440979E0,3.655347347E0,-6.434416771E-1
3.816555115E0,1.000417137E1,3.588309765E0,-5.237316489E-1
3.819042928E0,1.000417137E1,3.511695385E0,-4.183867574E-1
3.821530740E0,9.989806175E0,3.473388195E0,-3.082534671E-1
3.824018553E0,9.980229378E0,3.406350374E0,-1.933317930E-1
3.826506365E0,9.985017776E0,3.334524393E0,-9.756372124E-2
3.828994178E0,1.000417137E1,3.272275209E0,4.129998013E-2
3.831481990E0,1.000417137E1,3.229179621E0,1.562216580E-1
3.833969803E0,1.004247856E1,3.171718597E0,2.519897223E-1
3.836457615E0,1.005205631E1,3.142988205E0,3.381809890E-1
3.838945428E0,1.006163311E1,3.114257812E0,3.956418335E-1
3.841433240E0,1.009036350E1,3.085527420E0,4.531026781E-1
3.843921053E0,1.015261269E1,3.042431831E0,4.626794755E-1
3.846408865E0,1.020049667E1,2.994547844E0,4.339490533E-1
3.848896678E0,1.023401546E1,2.941875219E0,4.004302323E-1
3.851384490E0,1.022922707E1,2.908356428E0,3.716998100E-1
3.853872303E0,1.020049667E1,2.884414434E0,3.333925903E-1
3.856360115E0,1.018134308E1,2.870049238E0,2.807201445E-1
3.858847928E0,1.011909389E1,2.879626036E0,2.328361124E-1
3.861335740E0,1.010951710E1,2.903568029E0,1.945288926E-1
3.863823553E0,1.014782429E1,2.922721624E0,1.657984704E-1
3.866311365E0,1.016697788E1,2.922721624E0,1.514332592E-1
3.868799178E0,1.021007347E1,2.908356428E0,1.466448605E-1
3.871286990E0,1.018134308E1,2.870049238E0,1.179144308E-1
3.873774803E0,1.014303589E1,2.841318846E0,1.179144308E-1
3.876262615E0,1.006642151E1,2.836530447E0,1.466448605E-1
3.878750428E0,1.000417137E1,2.865260839E0,1.562216580E-1
3.881238240E0,9.961075783E0,2.898779631E0,1.227028370E-1
3.883726053E0,9.932345390E0,2.951452255E0,5.087678507E-2
3.886213865E0,9.951498985E0,2.989759445E0,-2.094926499E-2
3.888701678E0,9.970652580E0,3.023278236E0,-9.277531505E-2
3.891189490E0,9.999382973E0,3.032855034E0,-1.693897694E-1
3.893677303E0,1.004247856E1,3.042431831E0,-2.938882709E-1
3.896165115E0,1.008557510E1,3.028066635E0,-4.183867574E-1
3.898652928E0,1.011909389E1,3.013701439E0,-5.333084464E-1
3.901140740E0,1.008557510E1,3.032855034E0,-6.386532784E-1
3.903628553E0,1.002332497E1,3.095104218E0,-7.535749674E-1
3.906116365E0,9.989806175E0,3.195660830E0,-8.637082577E-1
3.908604178E0,9.917980194E0,3.291428804E0,-9.642647505E-1
3.911091990E0,9.870096207E0,3.368043184E0,-1.036090732E0
3.913579803E0,9.807847023E0,3.468599796E0,-1.107916832E0
3.916067615E0,9.731232643E0,3.530848980E0,-1.170166135E0
3.918555428E0,9.668983459E0,3.607463360E0,-1.203684926E0
3.921043240E0,9.587580681E0,3.640982151E0,-1.241992116E0
3.923531053E0,9.510966301E0,3.669712543E0,-1.261145711E0
3.926018865E0,9.453505516E0,3.698443174E0,-1.285087705E0
3.928506678E0,9.429563522E0,3.708019972E0,-1.323395014E0
3.930994490E0,9.429563522E0,3.727173567E0,-1.328183413E0
3.933482303E0,9.458293915E0,3.703231573E0,-1.313818216E0
3.935970115E0,9.520543098E0,3.679289579E0,-1.313818216E0
3.938457928E0,9.630676270E0,3.626616955E0,-1.265934110E0
3.940945740E0,9.755174637E0,3.573944569E0,-1.218050122E0
3.943433553E0,9.870096207E0,3.511695385E0,-1.194108129E0
3.945921365E0,9.985017776E0,3.435081005E0,-1.136647224E0
3.948409178E0,1.009036350E1,3.353677988E0,-1.093551636E0
3.950896990E0,1.016218948E1,3.296217203E0,-1.074398041E0
3.953384803E0,1.021007347E1,3.301005602E0,-1.045667648E0
3.955872615E0,1.019570827E1,3.324947596E0,-1.007360339E0
3.958360428E0,1.017176628E1,3.363254786E0,-9.786299467E-1
3.960848240E0,1.010951710E1,3.444657803E0,-9.642647505E-1
3.963336053E0,1.007599831E1,3.530848980E0,-9.355342984E-1
3.965823865E0,1.001853657E1,3.593098164E0,-8.972271085E-1
3.968311678E0,9.980229378E0,3.621828556E0,-8.924387097E-1
3.970799490E0,9.937133789E0,3.688866377E0,-8.684966564E-1
3.973287303E0,9.889249802E0,3.755903959E0,-8.780734539E-1
3.975775115E0,9.841365814E0,3.846883535E0,-8.876502514E-1
3.978262928E0,9.836577415E0,3.923498154E0,-9.020155072E-1
3.980750740E0,9.822212219E0,4.000112534E0,-9.307458997E-1
3.983238553E0,9.793481827E0,4.081515312E0,-9.882067442E-1
3.985726365E0,9.726444244E0,4.148552895E0,-1.045667648E0
3.988214178E0,9.697713852E0,4.210802078E0,-1.131858826E0
3.990701990E0,9.678560257E0,4.277839661E0,-1.203684926E0
3.993189803E0,9.649829865E0,4.296993732E0,-1.285087705E0
3.995677615E0,9.625887871E0,4.306570530E0,-1.337760210E0
3.998165428E0,9.568427086E0,4.325724125E0,-1.371279001E0
4.000653240E0,9.506177902E0,4.320935726E0,-1.390432596E0
4.003141053E0,9.458293915E0,4.325724125E0,-1.395220995E0
4.005628865E0,9.429563522E0,4.330512524E0,-1.423951507E0
4.008116678E0,9.434351921E0,4.320935726E0,-1.457470298E0
4.010604490E0,9.453505516E0,4.292205334E0,-1.481412292E0
4.013092303E0,9.491812706E0,4.244320869E0,-1.452681899E0
4.015580115E0,9.506177902E0,4.177283287E0,-1.419163108E0
4.018067928E0,9.554061890E0,4.086303711E0,-1.352125406E0
4.020555740E0,9.611522675E0,3.990535736E0,-1.275510907E0
4.023043553E0,9.692925453E0,3.885190725E0,-1.165377736E0
4.025531365E0,9.755174637E0,3.741538763E0,-1.040879130E0
4.028019178E0,9.812635422E0,3.650558949E0,-9.259575009E-1
4.030506990E0,9.874884605E0,3.559579372E0,-8.206126094E-1
4.032994803E0,9.908403397E0,3.482964993E0,-7.583633661E-1
4.035482615E0,9.946710587E0,3.430292368E0,-7.009025216E-1
4.037970428E0,9.985017776E0,3.391985178E0,-6.482301354E-1
4.040458240E0,1.002811337E1,3.344101191E0,-5.955576897E-1
4.042946053E0,1.005684471E1,3.315370798E0,-5.476736426E-1
4.045433865E0,1.005205631E1,3.272275209E0,-4.997895956E-1
4.047921678E0,1.004247856E1,3.229179621E0,-4.327519536E-1
4.050409490E0,1.005205631E1,3.181295395E0,-3.752911091E-1
4.052897303E0,1.004726696E1,3.138199806E0,-3.178302646E-1
4.055385115E0,1.005684471E1,3.095104218E0,-2.890998423E-1
4.057872928E0,1.010472870E1,3.066373825E0,-2.555810213E-1
4.060360740E0,1.017176628E1,3.047220230E0,-2.316390127E-1
4.062848553E0,1.022922707E1,3.032855034E0,-2.268506140E-1
4.065336365E0,1.030105305E1,3.008913040E0,-2.316390127E-1
4.067824178E0,1.035372543E1,2.984971046E0,-2.651578486E-1
4.070311990E0,1.037766743E1,2.980182648E0,-2.747346461E-1
4.072799803E0,1.038724422E1,2.941875219E0,-3.274070919E-1
4.075287615E0,1.038724422E1,2.917933226E0,-3.513490856E-1
4.077775428E0,1.032499504E1,2.922721624E0,-3.800795078E-1
4.080263240E0,1.020528507E1,2.984971046E0,-4.135983288E-1
4.082751053E0,1.009994030E1,3.085527420E0,-4.566939771E-1
4.085238865E0,9.994594574E0,3.200449228E0,-5.141547918E-1
4.087726678E0,9.889249802E0,3.315370798E0,-6.003460884E-1
4.090214490E0,9.774328232E0,3.415927172E0,-6.625953317E-1
4.092702303E0,9.673771858E0,3.516483784E0,-7.248445749E-1
4.095190115E0,9.606734276E0,3.626616955E0,-7.679402232E-1
4.097677928E0,9.549273491E0,3.708019972E0,-8.254010081E-1
4.100165740E0,9.558850288E0,3.760692358E0,-8.780734539E-1
4.102653553E0,9.616311073E0,3.765480757E0,-9.642647505E-1
4.105141365E0,9.673771858E0,3.746327162E0,-1.060032845E0
4.107629178E0,9.750386238E0,3.736750364E0,-1.131858826E0
4.110116990E0,9.807847023E0,3.731961966E0,-1.179742932E0
4.112604803E0,9.836577415E0,3.741538763E0,-1.213261724E0
4.115092615E0,9.874884605E0,3.755903959E0,-1.246780515E0
4.117580428E0,9.894038200E0,3.779845953E0,-1.289876223E0
4.120068240E0,9.913191795E0,3.798999548E0,-1.318606615E0
4.122556053E0,9.956287384E0,3.851671934E0,-1.385644197E0
4.125043865E0,9.994594574E0,3.875613928E0,-1.447893500E0
4.127531678E0,1.004726696E1,3.851671934E0,-1.524507880E0
4.130019490E0,1.008078671E1,3.803787947E0,-1.591545582E0
4.132507303E0,1.011909389E1,3.760692358E0,-1.649006367E0
4.134995115E0,1.014782429E1,3.717596769E0,-1.687313676E0
4.137482928E0,1.013824749E1,3.727173567E0,-1.692102075E0
4.139970740E0,1.010472870E1,3.741538763E0,-1.682525277E0
4.142458970E0,1.007120991E1,3.751115561E0,-1.677736878E0
4.144946834E0,1.005205631E1,3.765480757E0,-1.649006367E0
4.147434595E0,1.004247856E1,3.760692358E0,-1.601122379E0
4.149922355E0,1.000417137E1,3.755903959E0,-1.562815189E0
4.152410115E0,9.985017776E0,3.717596769E0,-1.519719481E0
4.154897876E0,9.898826599E0,3.664924145E0,-1.490989089E0
4.157385636E0,9.750386238E0,3.679289579E0,-1.481412292E0
4.159873397E0,9.568427086E0,3.731961966E0,-1.452681899E0
4.162361157E0,9.410409927E0,3.818153143E0,-1.409586191E0
4.164848918E0,9.290699959E0,3.923498154E0,-1.366490602E0
4.167336678E0,9.214085579E0,4.024054527E0,-1.337760210E0
4.169824438E0,9.142259598E0,4.091092110E0,-1.342548609E0
4.172312199E0,9.084798813E0,4.115034103E0,-1.328183413E0
4.174799959E0,9.008183479E0,4.115034103E0,-1.337760210E0
4.177287720E0,8.936357498E0,4.091092110E0,-1.356913805E0
4.179775480E0,8.917203903E0,4.071938515E0,-1.342548609E0
4.182263240E0,8.945934296E0,4.071938515E0,-1.337760210E0
4.184751001E0,8.955511093E0,4.091092110E0,-1.385644197E0
4.187238761E0,8.974664688E0,4.100668907E0,-1.447893500E0
4.189726522E0,8.984241486E0,4.115034103E0,-1.495777488E0
4.192214282E0,8.974664688E0,4.124610901E0,-1.519719481E0
4.194702043E0,8.960299492E0,4.115034103E0,-1.562815189E0
4.197189803E0,8.921992302E0,4.095880508E0,-1.610699177E0
4.199677563E0,8.864531517E0,4.091092110E0,-1.644217968E0
4.202165324E0,8.792705536E0,4.100668907E0,-1.663371682E0
4.204653084E0,8.730456352E0,4.119822502E0,-1.672948480E0
4.207140845E0,8.696937561E0,4.158129692E0,-1.706467271E0
4.209628605E0,8.663418770E0,4.182071686E0,-1.754351258E0
4.212116418E0,8.663418770E0,4.167706490E0,-1.763928056E0
4.214604230E0,8.653841972E0,4.143764496E0,-1.816600561E0
4.217092043E0,8.649053574E0,4.134187698E0,-1.850119352E0
4.219579855E0,8.682572365E0,4.086303711E0,-1.917157054E0
4.222067668E0,8.725667953E0,3.985747337E0,-2.008136749E0
4.224555480E0,8.783128738E0,3.885190725E0,-2.123058319E0
4.227043293E0,8.850166321E0,3.794211149E0,-2.194884300E0
4.229531105E0,8.907627106E0,3.688866377E0,-2.281075716E0
4.232018918E0,8.907627106E0,3.602674961E0,-2.376843691E0
4.234506730E0,8.907627106E0,3.545214176E0,-2.477400303E0
4.236994543E0,8.878896713E0,3.497330189E0,-2.539649487E0
4.239482355E0,8.854954720E0,3.506906986E0,-2.577956676E0
4.241970168E0,8.797493935E0,3.516483784E0,-2.582745075E0
4.244457980E0,8.730456352E0,3.569156170E0,-2.554014683E0
4.246945793E0,8.649053574E0,3.626616955E0,-2.510919094E0
4.249433605E0,8.514978409E0,3.688866377E0,-2.482188702E0
4.251921418E0,8.323442459E0,3.755903959E0,-2.448669672E0
4.254409230E0,8.127118111E0,3.837306738E0,-2.424727678E0
4.256897043E0,7.964312077E0,3.904344320E0,-2.410362482E0
4.259384855E0,7.787140846E0,4.014477730E0,-2.400785685E0
4.261872668E0,7.590816498E0,4.119822502E0,-2.352901697E0
4.264360480E0,7.437587738E0,4.215590477E0,-2.271498919E0
4.266848293E0,7.313088894E0,4.320935726E0,-2.199672699E0
4.269336105E0,7.217320919E0,4.407126904E0,-2.108693123E0
4.271823918E0,7.179013729E0,4.445434093E0,-2.008136749E0
4.274311730E0,7.226897717E0,4.416703701E0,-1.931522250E0
4.276799543E0,7.332242489E0,4.364031315E0,-1.850119352E0
4.279287355E0,7.499836922E0,4.287416458E0,-1.739986062E0
4.281775168E0,7.662642479E0,4.172494888E0,-1.629852772E0
4.284262980E0,7.830236435E0,4.052784920E0,-1.534084797E0
4.286750793E0,7.983465672E0,3.966593742E0,-1.443105102E0
4.289238605E0,8.093599319E0,3.875613928E0,-1.395220995E0
4.291726418E0,8.179790497E0,3.827729940E0,-1.366490602E0
4.294214230E0,8.222886086E0,3.822941542E0,-1.366490602E0
4.296702043E0,8.256404877E0,3.832518339E0,-1.390432596E0
4.299189855E0,8.299500465E0,3.837306738E0,-1.443105102E0
4.301677668E0,8.356961250E0,3.832518339E0,-1.514931083E0
4.304165480E0,8.423998833E0,3.808576345E0,-1.629852772E0
4.306653293E0,8.457517624E0,3.784634352E0,-1.720832467E0
4.309141105E0,8.510190010E0,3.765480757E0,-1.845330954E0
4.311628918E0,8.562862396E0,3.765480757E0,-1.965041041E0
4.314116730E0,8.591592789E0,3.784634352E0,-2.075174332E0
4.316604543E0,8.615534782E0,3.822941542E0,-2.209249735E0
4.319092355E0,8.658630371E0,3.832518339E0,-2.328959703E0
4.321580168E0,8.677783966E0,3.851671934E0,-2.429516077E0
4.324067980E0,8.706514359E0,3.856460333E0,-2.544437885E0
4.326555793E0,8.720879555E0,3.870825529E0,-2.640205860E0
4.329043605E0,8.696937561E0,3.889979124E0,-2.702455282E0
4.331531418E0,8.620323181E0,3.957016945E0,-2.769492865E0
4.334019230E0,8.481459618E0,4.043208122E0,-2.831742048E0
4.336507043E0,8.309077263E0,4.138976097E0,-2.937086821E0
4.338994855E0,8.151060104E0,4.229955673E0,-3.013701439E0
4.341482668E0,7.959523678E0,4.325724125E0,-3.047220230E0
4.343970480E0,7.806294441E0,4.402338505E0,-3.052008629E0
4.346458293E0,7.629123688E0,4.493318081E0,-3.032855034E0
4.348946105E0,7.461529732E0,4.589086056E0,-3.004124641E0
4.351433918E0,7.284358501E0,4.665700436E0,-2.961029053E0
4.353921730E0,7.145494938E0,4.737526417E0,-2.917933226E0
4.356409543E0,7.064092159E0,4.799776077E0,-2.841318846E0
4.358897355E0,7.001842976E0,4.857236862E0,-2.745550871E0
4.361385168E0,6.982689381E0,4.866813660E0,-2.635417461E0
4.363872980E0,7.011419773E0,4.804564476E0,-2.506130695E0
4.366360793E0,7.131129742E0,4.704007626E0,-2.343324900E0
4.368848605E0,7.274781704E0,4.555567265E0,-2.127846718E0
4.371336418E0,7.461529732E0,4.368819714E0,-1.898003340E0
4.373824230E0,7.672219276E0,4.186860085E0,-1.677736878E0
4.376312043E0,7.887697697E0,4.000112534E0,-1.500565886E0
4.378799855E0,8.112752914E0,3.837306738E0,-1.342548609E0
4.381287668E0,8.328230858E0,3.688866377E0,-1.237203717E0
4.383775480E0,8.538920403E0,3.554790974E0,-1.160589218E0
4.386263293E0,8.711302757E0,3.430292368E0,-1.127070427E0
4.388751105E0,8.826224327E0,3.310582399E0,-1.122282028E0
4.391238918E0,8.898050308E0,3.200449228E0,-1.127070427E0
4.393726730E0,8.965087891E0,3.119046211E0,-1.112705231E0
4.396214543E0,9.046490669E0,3.047220230E0,-1.098340034E0
4.398702355E0,9.127894402E0,3.013701439E0,-1.074398041E0
4.401190168E0,9.214085579E0,2.975394249E0,-1.064821243E0
4.403677980E0,9.285911560E0,2.961029053E0,-1.107916832E0
4.406165793E0,9.329007149E0,2.961029053E0,-1.160589218E0
4.408653605E0,9.329007149E0,2.980182648E0,-1.208473325E0
4.411141418E0,9.300276756E0,2.994547844E0,-1.289876223E0
4.413629230E0,9.214085579E0,3.023278236E0,-1.361702204E0
4.416117043E0,9.084798813E0,3.066373825E0,-1.385644197E0
4.418604855E0,8.926780701E0,3.128623009E0,-1.371279001E0
4.421092668E0,8.720879555E0,3.257910013E0,-1.356913805E0
4.423580480E0,8.433575630E0,3.368043184E0,-1.342548609E0
4.426068293E0,8.141483307E0,3.506906986E0,-1.337760210E0
4.428556105E0,7.825448036E0,3.626616955E0,-1.332971811E0
4.431043918E0,7.490260124E0,3.746327162E0,-1.337760210E0
4.433531730E0,7.202955723E0,3.846883535E0,-1.313818216E0
4.436019543E0,7.001842976E0,3.933074951E0,-1.261145711E0
4.438507355E0,6.882133007E0,3.985747337E0,-1.194108129E0
4.440995168E0,6.843825340E0,3.990535736E0,-1.103128433E0
4.443482980E0,6.930016994E0,3.889979124E0,-8.828618526E-1
4.445970793E0,7.001842976E0,3.770269156E0,-6.721721292E-1
4.448458605E0,7.044938564E0,3.736750364E0,-4.327519536E-1
4.450946418E0,7.183802128E0,3.655347347E0,-3.034650683E-1
4.453434230E0,7.375338554E0,3.516483784E0,-2.986766696E-1
4.455922043E0,7.499836922E0,3.401561975E0,-2.651578486E-1
4.458409855E0,7.586028099E0,3.262698412E0,-2.076970041E-1
4.460897668E0,7.643488884E0,3.128623009E0,-1.215057373E-1
4.463385480E0,7.696161270E0,3.042431831E0,1.735796221E-2
4.465873293E0,7.796717644E0,2.961029053E0,1.753752679E-1
4.468361105E0,7.911639690E0,2.917933226E0,3.238157928E-1
4.470848918E0,8.074444771E0,2.898779631E0,3.908534348E-1
4.473336730E0,8.232462883E0,2.865260839E0,3.812766075E-1
4.475824543E0,8.376114845E0,2.822165251E0,3.286041915E-1
4.478312355E0,8.534132004E0,2.740762472E0,2.615665495E-1
4.480800168E0,8.682572365E0,2.635417461E0,2.088941038E-1
4.483287980E0,8.831012726E0,2.539649487E0,1.945288926E-1
4.485775793E0,8.969876289E0,2.439092875E0,2.041056901E-1
4.488263605E0,9.089587212E0,2.333748102E0,2.088941038E-1
4.490751418E0,9.190143585E0,2.285864115E0,2.041056901E-1
4.493239230E0,9.257181168E0,2.257133722E0,1.801636815E-1
4.495727043E0,9.300276756E0,2.314594507E0,1.514332592E-1
4.498214855E0,9.285911560E0,2.362478495E0,5.566519126E-2
4.500702668E0,9.175778389E0,2.448669672E0,-4.967968538E-2
4.503190480E0,8.979453087E0,2.554014683E0,-1.741781682E-1
4.505678293E0,8.701725960E0,2.707243681E0,-3.274070919E-1
4.508166105E0,8.400056839E0,2.879626036E0,-4.614823759E-1
4.510653918E0,8.122329712E0,3.037643433E0,-5.524620414E-1
4.513141730E0,7.906851292E0,3.186083794E0,-6.242880821E-1
4.515629543E0,7.739256859E0,3.320159197E0,-6.961141229E-1
4.518117355E0,7.609970093E0,3.411138773E0,-7.056909800E-1
4.520605168E0,7.509413719E0,3.492541790E0,-7.056909800E-1
4.523092980E0,7.485471725E0,3.564367771E0,-7.200561762E-1
4.525580793E0,7.528567314E0,3.636193752E0,-7.248445749E-1
4.528068605E0,7.586028099E0,3.698443174E0,-7.727286220E-1
4.530556418E0,7.653065681E0,3.736750364E0,-8.397662640E-1
4.533044230E0,7.715314865E0,3.765480757E0,-9.068039060E-1
4.535532043E0,7.758410454E0,3.765480757E0,-1.012148738E0
4.538019855E0,7.811082840E0,3.722385168E0,-1.117493629E0
4.540507668E0,7.878120899E0,3.688866377E0,-1.203684926E0
4.542995480E0,7.973888874E0,3.645770550E0,-1.280299306E0
4.545483293E0,8.036137581E0,3.597886562E0,-1.337760210E0
4.547971105E0,8.088809967E0,3.526060581E0,-1.438316703E0
4.550458918E0,8.127118111E0,3.444657803E0,-1.529296279E0
4.552946730E0,8.141483307E0,3.363254786E0,-1.639429569E0
4.555434543E0,8.136694908E0,3.243544817E0,-1.754351258E0
4.557922355E0,8.175002098E0,3.123834610E0,-1.883638144E0
4.560410168E0,8.246828079E0,3.008913040E0,-1.998559833E0
4.562897980E0,8.309077263E0,2.913144827E0,-2.118269920E0
4.565385793E0,8.433575630E0,2.798223257E0,-2.223614931E0
4.567873605E0,8.553285599E0,2.673724651E0,-2.309806108E0
4.570361418E0,8.672995567E0,2.597110271E0,-2.415150881E0
4.572849230E0,8.754398346E0,2.525284290E0,-2.496553898E0
4.575337043E0,8.778340340E0,2.482188702E0,-2.606687069E0
4.577824855E0,8.797493935E0,2.439092875E0,-2.707243681E0
4.580312668E0,8.797493935E0,2.352901697E0,-2.836530447E0
4.582800480E0,8.797493935E0,2.228403330E0,-2.980182648E0
4.585288293E0,8.773551941E0,2.132635117E0,-3.095104218E0
4.587776105E0,8.716091156E0,2.051232338E0,-3.171718597E0
4.590263918E0,8.572439194E0,2.036867142E0,-3.224391222E0
4.592751730E0,8.333019257E0,2.084751129E0,-3.205237627E0
4.595239543E0,8.031349182E0,2.204461098E0,-3.157353401E0
4.597727355E0,7.720103264E0,2.367266893E0,-3.071162224E0
4.600215168E0,7.423222542E0,2.491765499E0,-2.994547844E0
4.602703501E0,7.193378925E0,2.601898670E0,-2.898779631E0
4.605191470E0,6.992266178E0,2.630629063E0,-2.788646460E0
4.607679282E0,6.824671745E0,2.616263866E0,-2.668936253E0
4.610167095E0,6.738480568E0,2.568379879E0,-2.491765499E0
4.612654855E0,6.719326973E0,2.486977100E0,-2.309806108E0
4.615142615E0,6.767210960E0,2.395997286E0,-2.079962730E0
4.617630376E0,6.867767811E0,2.290652514E0,-1.807023764E0
4.620118136E0,7.030573368E0,2.180519104E0,-1.538873196E0
4.622605897E0,7.241262913E0,2.065597534E0,-1.280299306E0
4.625093657E0,7.466318130E0,1.941099048E0,-1.040879130E0
4.627581418E0,7.657854080E0,1.797446966E0,-8.301894665E-1
4.630069178E0,7.858967304E0,1.658583283E0,-6.482301354E-1
4.632556938E0,8.007407188E0,1.553238392E0,-5.093663931E-1
4.635044699E0,8.146271706E0,1.486200690E0,-4.088099301E-1
4.637532459E0,8.289923668E0,1.443105102E0,-3.417722881E-1
4.640020220E0,8.457517624E0,1.438316703E0,-2.986766696E-1
4.642508188E0,8.582015991E0,1.481412292E0,-3.178302646E-1
4.644996157E0,8.663418770E0,1.572391987E0,-3.561375141E-1
4.647484126E0,8.725667953E0,1.701678872E0,-4.423287511E-1
4.649971990E0,8.768763542E0,1.850119352E0,-5.428852439E-1
4.652459803E0,8.768763542E0,2.017713547E0,-6.913257241E-1
4.654947615E0,8.792705536E0,2.170942307E0,-8.637082577E-1
4.657435428E0,8.840589523E0,2.328959703E0,-9.977835417E-1
4.659923240E0,8.898050308E0,2.448669672E0,-1.165377736E0
4.662411053E0,9.003395081E0,2.577956676E0,-1.352125406E0
4.664898865E0,9.103952408E0,2.688089848E0,-1.572391987E0
4.667386678E0,9.099164009E0,2.831742048E0,-1.835754156E0
4.669874490E0,9.036913872E0,2.999336243E0,-2.132635117E0
4.672362303E0,8.945934296E0,3.157353401E0,-2.448669672E0
4.674850115E0,8.773551941E0,3.334524393E0,-2.783858061E0
4.677337876E0,8.601169586E0,3.511695385E0,-3.114257812E0
4.679825636E0,8.433575630E0,3.655347347E0,-3.454234600E0
4.682313397E0,8.275558472E0,3.770269156E0,-3.760692358E0
4.684801157E0,8.175002098E0,3.880402327E0,-4.014477730E0
4.687288918E0,8.146271706E0,3.918709517E0,-4.177283287E0
4.689776678E0,8.175002098E0,3.933074951E0,-4.273051262E0
4.692264438E0,8.280346870E0,3.928286552E0,-4.282628059E0
4.694752199E0,8.385691643E0,3.923498154E0,-4.258686066E0
4.697239959E0,8.500613213E0,3.870825529E0,-4.191648483E0
4.699727720E0,8.577227592E0,3.813364744E0,-4.129399300E0
4.702215480E0,8.582015991E0,3.775057554E0,-4.014477730E0
4.704703240E0,8.538920403E0,3.755903959E0,-3.918709517E0
4.707191001E0,8.467094421E0,3.693654776E0,-3.827729940E0
4.709678761E0,8.395268440E0,3.631405354E0,-3.751115561E0
4.712166522E0,8.328230858E0,3.545214176E0,-3.688866377E0
4.714654282E0,8.313865662E0,3.463811398E0,-3.626616955E0
4.717142043E0,8.313865662E0,3.415927172E0,-3.550002575E0
4.719629803E0,8.366538048E0,3.387196779E0,-3.516483784E0
4.722117563E0,8.447940826E0,3.387196779E0,-3.502118587E0
4.724605324E0,8.514978409E0,3.425503969E0,-3.478176594E0
4.727093084E0,8.567650795E0,3.459022999E0,-3.468599796E0
4.729580845E0,8.562862396E0,3.478176594E0,-3.435081005E0
4.732068605E0,8.524555206E0,3.463811398E0,-3.391985178E0
4.734556365E0,8.471882820E0,3.396773577E0,-3.310582399E0
4.737044126E0,8.486248016E0,3.301005602E0,-3.195660830E0
4.739531886E0,8.577227592E0,3.229179621E0,-3.037643433E0
4.742019647E0,8.687360764E0,3.205237627E0,-2.850895643E0
4.744507459E0,8.826224327E0,3.219602823E0,-2.668936253E0
4.746995272E0,8.955511093E0,3.286640406E0,-2.534861088E0
4.749483084E0,9.070432663E0,3.372831583E0,-2.429516077E0
4.751970897E0,9.151836395E0,3.482964993E0,-2.372055292E0
4.754458709E0,9.185355186E0,3.573944569E0,-2.376843691E0
4.756946522E0,9.103952408E0,3.650558949E0,-2.439092875E0
4.759434334E0,8.912415504E0,3.712808371E0,-2.496553898E0
4.761922147E0,8.687360764E0,3.765480757E0,-2.554014683E0
4.764409959E0,8.486248016E0,3.856460333E0,-2.549226284E0
4.766897772E0,8.309077263E0,3.918709517E0,-2.525284290E0
4.769385584E0,8.151060104E0,3.985747337E0,-2.501342297E0
4.771873397E0,8.021772385E0,4.062361717E0,-2.477400303E0
4.774361209E0,7.926004887E0,4.167706490E0,-2.443881273E0
4.776849022E0,7.820659637E0,4.263474464E0,-2.400785685E0
4.779336834E0,7.729680061E0,4.340089321E0,-2.391208887E0
4.781824647E0,7.633912086E0,4.392761707E0,-2.352901697E0
4.784312459E0,7.523778915E0,4.407126904E0,-2.305017710E0
4.786800272E0,7.451952934E0,4.344877720E0,-2.281075716E0
4.789288084E0,7.404068947E0,4.263474464E0,-2.266710520E0
4.791775897E0,7.408857346E0,4.153341293E0,-2.261922121E0
4.794263709E0,7.432799339E0,3.980958939E0,-2.281075716E0
4.796751522E0,7.490260124E0,3.760692358E0,-2.314594507E0
4.799239334E0,7.609970093E0,3.545214176E0,-2.314594507E0
4.801727147E0,7.744045258E0,3.348889589E0,-2.295440912E0
4.804214959E0,7.935581684E0,3.142988205E0,-2.252345324E0
4.806702772E0,8.098387718E0,2.932298422E0,-2.190095901E0
4.809190584E0,8.242039680E0,2.731185675E0,-2.099116325E0
4.811678397E0,8.409633636E0,2.549226284E0,-1.974617839E0
4.814166209E0,8.639476776E0,2.343324900E0,-1.835754156E0
4.816654022E0,8.898050308E0,2.147000313E0,-1.730409265E0
4.819141834E0,9.132682800E0,1.979406238E0,-1.653794765E0
4.821629647E0,9.333795547E0,1.888426542E0,-1.620275974E0
4.824117459E0,9.463082314E0,1.821388960E0,-1.610699177E0
4.826605272E0,9.487024307E0,1.811812162E0,-1.658583283E0
4.829093084E0,9.463082314E0,1.854907751E0,-1.730409265E0
4.831580897E0,9.405621529E0,1.893214941E0,-1.845330954E0
4.834068709E0,9.305065155E0,1.974617839E0,-1.945887446E0
4.836556522E0,9.137471199E0,2.079962730E0,-2.051232338E0
4.839044334E0,8.965087891E0,2.209249735E0,-2.079962730E0
4.841532147E0,8.811859131E0,2.338536501E0,-2.084751129E0
4.844019959E0,8.692149162E0,2.434304476E0,-2.084751129E0
4.846507772E0,8.610746384E0,2.496553898E0,-2.079962730E0
4.848995584E0,8.548497200E0,2.534861088E0,-2.065597534E0
4.851483397E0,8.471882820E0,2.549226284E0,-1.998559833E0
4.853971209E0,8.376114845E0,2.510919094E0,-1.926733851E0
4.856459022E0,8.270770073E0,2.467823505E0,-1.826177359E0
4.858946834E0,8.189367294E0,2.410362482E0,-1.754351258E0
4.861434647E0,8.160636902E0,2.362478495E0,-1.682525277E0
4.863922459E0,8.160636902E0,2.338536501E0,-1.577180386E0
4.866410272E0,8.203732491E0,2.266710520E0,-1.452681899E0
4.868898084E0,8.342596054E0,2.233191729E0,-1.309029818E0
4.871385897E0,8.505401611E0,2.185307503E0,-1.170166135E0
4.873873709E0,8.649053574E0,2.190095901E0,-1.026513934E0
4.876361522E0,8.725667953E0,2.261922121E0,-9.163807034E-1
4.878849334E0,8.749609947E0,2.309806108E0,-8.445546627E-1
4.881337147E0,8.754398346E0,2.362478495E0,-8.206126094E-1
4.883824959E0,8.759186745E0,2.434304476E0,-7.823054194E-1
4.886312772E0,8.783128738E0,2.515707493E0,-7.631517649E-1
4.888800584E0,8.831012726E0,2.621052265E0,-7.870938182E-1
4.891288397E0,8.854954720E0,2.735974073E0,-8.637082577E-1
4.893776209E0,8.854954720E0,2.908356428E0,-1.021725535E0
4.896264022E0,8.826224327E0,3.042431831E0,-1.218050122E0
4.898751834E0,8.802282333E0,3.214814425E0,-1.414374709E0
4.901239647E0,8.754398346E0,3.401561975E0,-1.629852772E0
4.903727459E0,8.620323181E0,3.550002575E0,-1.893214941E0
4.906215272E0,8.457517624E0,3.640982151E0,-2.199672699E0
4.908703084E0,8.313865662E0,3.693654776E0,-2.496553898E0
4.911190897E0,8.203732491E0,3.746327162E0,-2.764704466E0
4.913678709E0,8.112752914E0,3.808576345E0,-2.999336243E0
4.916166522E0,8.031349182E0,3.856460333E0,-3.229179621E0
4.918654334E0,7.954735279E0,3.894767523E0,-3.463811398E0
4.921142147E0,7.854178905E0,3.928286552E0,-3.664924145E0
4.923629959E0,7.763198853E0,3.928286552E0,-3.842095137E0
4.926117772E0,7.700949669E0,3.856460333E0,-4.004900932E0
4.928605584E0,7.677007675E0,3.784634352E0,-4.071938515E0
4.931093397E0,7.677007675E0,3.698443174E0,-4.091092110E0
4.933581209E0,7.715314865E0,3.569156170E0,-4.115034103E0
4.936069022E0,7.791929245E0,3.415927172E0,-4.119822502E0
4.938556834E0,7.897274494E0,3.238756418E0,-4.105457306E0
4.941044647E0,8.002618790E0,3.061585426E0,-4.095880508E0
4.943532459E0,8.069656372E0,2.956240654E0,-3.980958939E0
4.946020272E0,8.103176117E0,2.903568029E0,-3.794211149E0
4.948508084E0,8.088809967E0,2.874837637E0,-3.545214176E0
4.950995897E0,8.084021568E0,2.846107244E0,-3.243544817E0
4.953483709E0,8.079233170E0,2.836530447E0,-2.903568029E0
4.955971522E0,8.074444771E0,2.850895643E0,-2.539649487E0
4.958459334E0,8.021772385E0,2.850895643E0,-2.233191729E0
4.960947147E0,7.916428089E0,2.822165251E0,-2.032078743E0
4.963434959E0,7.825448036E0,2.774281263E0,-1.854907751E0
4.965922772E0,7.758410454E0,2.745550871E0,-1.682525277E0
4.968410584E0,7.700949669E0,2.740762472E0,-1.514931083E0
4.970898397E0,7.633912086E0,2.755127668E0,-1.371279001E0
4.973386209E0,7.595604897E0,2.798223257E0,-1.246780515E0
4.975874022E0,7.638700485E0,2.846107244E0,-1.127070427E0
4.978361834E0,7.767987251E0,2.889202833E0,-9.929951429E-1
4.980849647E0,7.921216488E0,2.956240654E0,-9.355342984E-1
4.983337459E0,8.050502777E0,2.999336243E0,-9.642647505E-1
4.985825272E0,8.127118111E0,2.980182648E0,-1.189319730E0
4.988313084E0,8.194155693E0,2.908356428E0,-1.519719481E0
4.990800897E0,8.218097687E0,2.793434858E0,-1.912368655E0
4.993288709E0,8.213309288E0,2.692878246E0,-2.305017710E0
4.995776522E0,8.175002098E0,2.630629063E0,-2.678513050E0
4.998264334E0,8.136694908E0,2.577956676E0,-3.042431831E0
5.000752147E0,8.122329712E0,2.539649487E0,-3.363254786E0
5.003239959E0,8.165425301E0,2.496553898E0,-3.650558949E0
5.005727772E0,8.232462883E0,2.439092875E0,-3.904344320E0
5.008215584E0,8.294712067E0,2.395997286E0,-4.105457306E0
5.010703397E0,8.347384453E0,2.352901697E0,-4.234744072E0
5.013191209E0,8.414422035E0,2.328959703E0,-4.316147327E0
5.015679022E0,8.486248016E0,2.328959703E0,-4.373608112E0
5.018166834E0,8.538920403E0,2.338536501E0,-4.416703701E0
5.020654647E0,8.586804390E0,2.352901697E0,-4.440645695E0
5.023142459E0,8.639476776E0,2.386420488E0,-4.431068897E0
5.025630272E0,8.711302757E0,2.429516077E0,-4.392761707E0
5.028118084E0,8.763975143E0,2.491765499E0,-4.287416458E0
5.030605897E0,8.883685112E0,2.554014683E0,-4.143764496E0
5.033093709E0,9.012971878E0,2.582745075E0,-3.937863350E0
5.035581522E0,9.170989990E0,2.568379879E0,-3.722385168E0
5.038069334E0,9.309853554E0,2.606687069E0,-3.497330189E0
5.040557147E0,9.396044731E0,2.654571056E0,-3.296217203E0
5.043044959E0,9.419986725E0,2.673724651E0,-3.119046211E0
5.045532772E0,9.352949142E0,2.688089848E0,-2.961029053E0
5.048020584E0,9.242815971E0,2.673724651E0,-2.826953650E0
5.050508397E0,9.084798813E0,2.649782658E0,-2.707243681E0
5.052996209E0,8.859743118E0,2.668936253E0,-2.621052265E0
5.055484022E0,8.582015991E0,2.664147854E0,-2.568379879E0
5.057971834E0,8.318654060E0,2.616263866E0,-2.563591480E0
5.060459647E0,8.074444771E0,2.554014683E0,-2.563591480E0
5.062947459E0,7.887697697E0,2.439092875E0,-2.592321873E0
5.065435272E0,7.753622055E0,2.309806108E0,-2.549226284E0
5.067923084E0,7.705738068E0,2.137423515E0,-2.482188702E0
5.070410897E0,7.696161270E0,1.984194636E0,-2.381632090E0
5.072898709E0,7.739256859E0,1.821388960E0,-2.285864115E0
5.075386522E0,7.825448036E0,1.629852772E0,-2.190095901E0
5.077874334E0,7.911639690E0,1.433528304E0,-2.099116325E0
5.080362147E0,7.940370083E0,1.270722508E0,-1.960252643E0
5.082849959E0,7.906851292E0,1.122282028E0,-1.826177359E0
5.085337772E0,7.815871239E0,9.786299467E-1,-1.658583283E0
5.087825584E0,7.782352448E0,8.493430614E-1,-1.452681899E0
5.090313397E0,7.825448036E0,7.679402232E-1,-1.198896527E0
5.092801209E0,7.954735279E0,7.009025216E-1,-8.637082577E-1
5.095289022E0,8.170213699E0,6.482301354E-1,-5.428852439E-1
5.097776834E0,8.423998833E0,5.859808922E-1,-2.843114436E-1
5.100264647E0,8.720879555E0,4.902127981E-1,-6.404489279E-2
5.102752459E0,9.008183479E0,3.800795078E-1,1.466448605E-1
5.105240272E0,9.276334763E0,3.082534671E-1,3.142389655E-1
5.107728084E0,9.558850288E0,2.699462473E-1,5.057750940E-1
5.110215897E0,9.874884605E0,2.603694201E-1,7.020996213E-1
5.112703709E0,1.018134308E1,2.555810213E-1,8.792705536E-1
5.115191522E0,1.043512821E1,3.130418658E-1,9.989806414E-1
5.117679334E0,1.064102936E1,4.471171796E-1,1.032499433E0
5.120167147E0,1.076552773E1,6.673837304E-1,1.061229944E0
5.122654959E0,1.079904652E1,9.882067442E-1,1.032499433E0
5.125142772E0,1.076552773E1,1.366490602E0,8.313865662E-1
5.127630584E0,1.067454815E1,1.773504853E0,4.961982965E-1
5.130118397E0,1.048780060E1,2.266710520E0,4.129998013E-2
5.132606209E0,1.024838066E1,2.774281263E0,-5.620388389E-1
5.135094022E0,9.889249802E0,3.281852007E0,-1.251568913E0
5.137581834E0,9.424775124E0,3.803787947E0,-2.051232338E0
5.140069647E0,8.941145897E0,4.282628059E0,-2.927510023E0
5.142557459E0,8.467094421E0,4.675277233E0,-3.822941542E0
5.145045272E0,8.055291176E0,4.981735229E0,-4.680065632E0
5.147533084E0,7.700949669E0,5.230731964E0,-5.465363979E0
5.150020897E0,7.413645744E0,5.379172802E0,-6.193201065E0
5.152508709E0,7.169436932E0,5.474940777E0,-6.973711014E0
5.154996522E0,7.020996571E0,5.470152378E0,-7.711124897E0
5.157484334E0,6.973112583E0,5.393537998E0,-8.319252014E0
5.159972147E0,7.016208172E0,5.283404827E0,-8.759785652E0
5.162459959E0,7.135918140E0,5.149329185E0,-8.975263596E0
5.164947772E0,7.313088894E0,5.000888824E0,-8.989628792E0
5.167435584E0,7.499836922E0,4.833294868E0,-8.798092842E0
5.169923397E0,7.677007675E0,4.680065632E0,-8.448538780E0
5.172411209E0,7.839813232E0,4.517260075E0,-7.984064102E0
5.174899022E0,7.949946880E0,4.378396511E0,-7.395090580E0
5.177386834E0,8.016983986E0,4.253897667E0,-6.729502201E0
5.179874647E0,8.045714378E0,4.162918091E0,-5.992088318E0
5.182362459E0,8.050502777E0,4.081515312E0,-5.211578369E0
5.184850272E0,8.040925980E0,4.024054527E0,-4.392761707E0
5.187338084E0,8.026560783E0,3.899555922E0,-3.583521366E0
5.189825897E0,8.026560783E0,3.755903959E0,-2.812588453E0
5.192313709E0,8.040925980E0,3.588309765E0,-2.075174332E0
5.194801522E0,8.103176117E0,3.401561975E0,-1.361702204E0
5.197289334E0,8.227674484E0,3.200449228E0,-6.817489266E-1
5.199777147E0,8.366538048E0,2.999336243E0,-3.052607179E-2
5.202264959E0,8.558073997E0,2.798223257E0,5.680243373E-1
5.204752772E0,8.811859131E0,2.630629063E0,1.080383539E0
5.207240584E0,9.084798813E0,2.525284290E0,1.492186189E0
5.209728397E0,9.343372345E0,2.448669672E0,1.741183162E0
5.212216209E0,9.554061890E0,2.395997286E0,1.817797661E0
5.214704022E0,9.678560257E0,2.391208887E0,1.731606364E0
5.217191834E0,9.707290649E0,2.434304476E0,1.511339784E0
5.219679647E0,9.621099472E0,2.510919094E0,1.166574836E0
5.222167459E0,9.501389503E0,2.635417461E0,7.595604658E-1
5.224655272E0,9.343372345E0,2.759916067E0,2.759317458E-1
5.227143084E0,9.147047997E0,2.913144827E0,-2.938882709E-1
5.229630897E0,8.945934296E0,3.085527420E0,-9.068039060E-1
5.232118709E0,8.735244751E0,3.233968019E0,-1.581968784E0
5.234606522E0,8.538920403E0,3.368043184E0,-2.290652514E0
5.237094334E0,8.352172852E0,3.497330189E0,-3.004124641E0
5.239582147E0,8.179790497E0,3.631405354E0,-3.708019972E0
5.242069959E0,8.026560783E0,3.755903959E0,-4.373608112E0
5.244557772E0,7.902062893E0,3.875613928E0,-4.976946831E0
