"Time (s)","Gyroscope x (rad/s)","Gyroscope y (rad/s)","Gyroscope z (rad/s)"
7.151943300E-2,-1.544632297E-2,6.524739787E-3,-9.147951752E-2
7.406307900E-2,-3.781685978E-2,-9.454214945E-3,-8.615319431E-2
7.660729800E-2,-7.084003091E-2,-2.969422378E-2,-7.976161689E-2
7.910932900E-2,-1.091895252E-1,-5.526055023E-2,-7.230477035E-2
8.159708900E-2,-1.528653353E-1,-8.402267098E-2,-6.378266215E-2
8.408485000E-2,-2.008021921E-1,-1.149153188E-1,-5.419528857E-2
8.657261000E-2,-2.498043180E-1,-1.490037590E-1,-4.354264960E-2
8.906031800E-2,-2.998717129E-1,-1.841574460E-1,-3.395527974E-2
9.154802700E-2,-3.499391079E-1,-2.193111479E-1,-2.223737910E-2
9.403573500E-2,-3.989412189E-1,-2.544648647E-1,-1.158474199E-2
9.652344300E-2,-4.447475672E-1,-2.874880135E-1,1.331579551E-4
9.901115200E-2,-4.862928391E-1,-3.205111921E-1,1.291632187E-2
1.014988600E-1,-5.235770941E-1,-3.482080400E-1,2.569948509E-2
1.039865680E-1,-5.544697046E-1,-3.716438413E-1,3.954791278E-2
1.064742770E-1,-5.768402815E-1,-3.897533417E-1,5.233107507E-2
1.089619850E-1,-5.906887054E-1,-3.993407190E-1,6.404897571E-2
1.114496930E-1,-5.970802903E-1,-4.025365114E-1,7.683213800E-2
1.139374020E-1,-5.949497223E-1,-3.972101808E-1,8.748477697E-2
1.164251100E-1,-5.842971206E-1,-3.844270110E-1,9.707214683E-2
1.189128180E-1,-5.640571117E-1,-3.652522564E-1,1.045289934E-1
1.214005270E-1,-5.363602638E-1,-3.396859467E-1,1.098553166E-1
1.238882350E-1,-5.012065172E-1,-3.077280223E-1,1.119858399E-1
1.263759430E-1,-4.596612751E-1,-2.704437971E-1,1.130511016E-1
1.288636520E-1,-4.127896726E-1,-2.288985252E-1,1.109205782E-1
1.313513600E-1,-3.595264852E-1,-1.841574460E-1,1.077247858E-1
1.338390680E-1,-3.030675054E-1,-1.372858584E-1,1.023984700E-1
1.363267770E-1,-2.444780022E-1,-8.721846342E-2,9.387636185E-2
1.388144850E-1,-1.826927215E-1,-3.715106845E-2,8.428898454E-2
1.413021930E-1,-1.187768951E-1,1.398158539E-2,7.257108390E-2
1.437899020E-1,-5.592634156E-2,6.404897571E-2,5.872265995E-2
1.462776100E-1,4.793686327E-3,1.109205782E-1,4.487423226E-2
1.487653180E-1,6.231792271E-2,1.545963883E-1,3.102580272E-2
1.512530270E-1,1.155811027E-1,1.940111369E-1,1.504684892E-2
1.537407350E-1,1.656484902E-1,2.291648388E-1,-9.321057005E-4
1.562284430E-1,2.082590461E-1,2.600574791E-1,-1.797632314E-2
1.587161520E-1,2.476737946E-1,2.877543271E-1,-3.395527974E-2
1.612038600E-1,2.806969583E-1,3.101248741E-1,-4.780370742E-2
1.636915680E-1,3.094590902E-1,3.292996287E-1,-6.165213138E-2
1.661793290E-1,3.328948915E-1,3.442133069E-1,-7.337003201E-2
1.686670890E-1,3.510043621E-1,3.548659384E-1,-8.508793265E-2
1.711548500E-1,3.659180701E-1,3.623228073E-1,-9.467530251E-2
1.736426100E-1,3.755054474E-1,3.665838540E-1,-1.031974182E-1
1.761303710E-1,3.818970025E-1,3.687143922E-1,-1.095889956E-1
1.786181310E-1,3.829622865E-1,3.687143922E-1,-1.138500497E-1
1.811058910E-1,3.808317482E-1,3.644533157E-1,-1.159805804E-1
1.835936520E-1,3.765707016E-1,3.601922691E-1,-1.170458421E-1
1.860814120E-1,3.691138625E-1,3.527354300E-1,-1.170458421E-1
1.885691730E-1,3.584612012E-1,3.431480527E-1,-1.149153188E-1
1.910569330E-1,3.467433155E-1,3.324954212E-1,-1.117195264E-1
1.935446930E-1,3.307643533E-1,3.207775056E-1,-1.063932031E-1
1.960324540E-1,3.147853911E-1,3.069290817E-1,-1.000016257E-1
1.985202140E-1,2.977411747E-1,2.941459119E-1,-9.361004084E-2
2.010079750E-1,2.796317041E-1,2.802974880E-1,-8.721846342E-2
2.034957350E-1,2.615222335E-1,2.664490640E-1,-7.869634777E-2
2.059834960E-1,2.434127480E-1,2.526006401E-1,-6.910897791E-2
2.084712560E-1,2.263685167E-1,2.398174703E-1,-5.952160433E-2
2.109590160E-1,2.103895694E-1,2.291648388E-1,-4.993423447E-2
2.134467770E-1,1.965411454E-1,2.185122073E-1,-4.141212255E-2
2.159345370E-1,1.848232448E-1,2.110553533E-1,-3.182475269E-2
2.184222980E-1,1.773663908E-1,2.057290375E-1,-2.223737910E-2
2.209100580E-1,1.720400751E-1,2.025332451E-1,-1.478053257E-2
2.233978180E-1,1.699095517E-1,2.014679909E-1,-7.323687430E-3
2.258855790E-1,1.720400751E-1,2.035985142E-1,-9.321057005E-4
2.283733390E-1,1.773663908E-1,2.078595608E-1,4.394212738E-3
2.308611000E-1,1.869537681E-1,2.153164148E-1,9.720530361E-3
2.333488600E-1,1.997369379E-1,2.270343155E-1,1.398158539E-2
2.358366210E-1,2.178464085E-1,2.440785319E-1,1.717737690E-2
2.383243810E-1,2.423474789E-1,2.653838098E-1,2.037316747E-2
2.408121410E-1,2.721748650E-1,2.941459119E-1,2.356895804E-2
2.432999020E-1,3.105243444E-1,3.282343447E-1,2.356895804E-2
2.457876620E-1,3.552654386E-1,3.687143922E-1,2.463422157E-2
2.482754230E-1,4.063980877E-1,4.145207107E-1,2.250369452E-2
2.507631830E-1,4.639223218E-1,4.656533599E-1,2.143843099E-2
2.532509430E-1,5.278381109E-1,5.221123695E-1,1.717737690E-2
2.557387040E-1,5.970802903E-1,5.849629045E-1,1.291632187E-2
2.582264640E-1,6.727139950E-1,6.542050242E-1,6.524739787E-3
2.607142250E-1,7.547392845E-1,7.319692969E-1,1.331579551E-4
2.632019850E-1,8.431561589E-1,8.171903491E-1,-8.388951421E-3
2.656897460E-1,9.400951862E-1,9.088030457E-1,-1.584579609E-2
2.681775060E-1,1.046621561E0,1.007872581E0,-2.330264263E-2
2.706652660E-1,1.161669970E0,1.112268448E0,-3.182475269E-2
2.731530270E-1,1.287371159E0,1.220925331E0,-4.034686089E-2
2.756407870E-1,1.421594381E0,1.335973740E0,-5.099949613E-2
2.781285480E-1,1.566470146E0,1.456348538E0,-6.165213138E-2
2.806163080E-1,1.718802929E0,1.582049608E0,-7.337003201E-2
2.831040680E-1,1.879657745E0,1.710946560E0,-8.615319431E-2
2.855918290E-1,2.045838833E0,1.840908766E0,-1.000016257E-1
2.880795890E-1,2.214150429E0,1.969805598E0,-1.170458421E-1
2.905673500E-1,2.385658026E0,2.095506668E0,-1.372858584E-1
2.930551100E-1,2.555034876E0,2.214816332E0,-1.585911214E-1
2.955428710E-1,2.721215963E0,2.326668978E0,-1.841574460E-1
2.980306310E-1,2.879940271E0,2.427869081E0,-2.107890397E-1
3.005183910E-1,3.030142546E0,2.516285896E0,-2.406164259E-1
3.030061520E-1,3.166496277E0,2.590854406E0,-2.704437971E-1
3.054939120E-1,3.290066719E0,2.649443865E0,-3.013364673E-1
3.079816730E-1,3.397658348E0,2.692054272E0,-3.311638236E-1
3.104694330E-1,3.491401672E0,2.720816612E0,-3.599259555E-1
3.129571930E-1,3.570231199E0,2.735730171E0,-3.833617568E-1
3.154449540E-1,3.637342691E0,2.742121696E0,-4.014712274E-1
3.179327140E-1,3.692736387E0,2.741056442E0,-4.142543972E-1
3.204204750E-1,3.741738558E0,2.735730171E0,-4.217112362E-1
3.229082350E-1,3.784349203E0,2.728273392E0,-4.227765203E-1
3.253959960E-1,3.825894356E0,2.725077629E0,-4.185154438E-1
3.278837560E-1,3.869570255E0,2.728273392E0,-4.099933505E-1
3.303715160E-1,3.917506933E0,2.739991188E0,-3.961449265E-1
3.328592770E-1,3.973966122E0,2.764492273E0,-3.791007102E-1
3.353470370E-1,4.040012360E0,2.800711155E0,-3.588607013E-1
3.378347980E-1,4.115645885E0,2.849713326E0,-3.364901543E-1
3.403225580E-1,4.204062939E0,2.910433531E0,-3.109238148E-1
3.428103180E-1,4.299936771E0,2.978610277E0,-2.853575051E-1
3.452980790E-1,4.403267384E0,3.051048279E0,-2.608564198E-1
3.477858390E-1,4.508728504E0,3.123486042E0,-2.363553643E-1
3.502736000E-1,4.616320133E0,3.194858789E0,-2.150501013E-1
3.527613600E-1,4.719650745E0,3.260905266E0,-1.948100924E-1
3.552491210E-1,4.818719864E0,3.319494724E0,-1.767006069E-1
3.577368810E-1,4.910332680E0,3.369562149E0,-1.607216448E-1
3.602246410E-1,4.991292953E0,3.411107302E0,-1.468732208E-1
3.627124020E-1,5.060534954E0,3.443065166E0,-1.340900660E-1
3.652001620E-1,5.116993904E0,3.463305235E0,-1.234374270E-1
3.676879230E-1,5.158539295E0,3.472892523E0,-1.138500497E-1
3.701756830E-1,5.181974888E0,3.470762014E0,-1.074584723E-1
3.726634430E-1,5.188366413E0,3.457978964E0,-1.021321490E-1
3.751512040E-1,5.173452854E0,3.431347370E0,-9.893636405E-2
3.776389640E-1,5.137233734E0,3.394063234E0,-9.787109494E-2
3.801267250E-1,5.079709530E0,3.345061064E0,-9.787109494E-2
3.826144850E-1,4.998749733E0,3.285406113E0,-1.010668874E-1
3.851022460E-1,4.897549629E0,3.214033604E0,-1.063932031E-1
3.875900060E-1,4.777174950E0,3.133073568E0,-1.117195264E-1
3.900777660E-1,4.639755726E0,3.045722008E0,-1.181111038E-1
3.925655270E-1,4.487422943E0,2.951978683E0,-1.245026886E-1
3.950532870E-1,4.322307110E0,2.853974342E0,-1.298290044E-1
3.975410480E-1,4.147603989E0,2.752774477E0,-1.351553202E-1
4.000288080E-1,3.963313341E0,2.649443865E0,-1.404816359E-1
4.025165680E-1,3.771565914E0,2.543982744E0,-1.436774284E-1
4.050043290E-1,3.575557470E0,2.436391115E0,-1.458079666E-1
4.074920890E-1,3.375287771E0,2.326668978E0,-1.458079666E-1
4.099798500E-1,3.173953056E0,2.214816332E0,-1.404816359E-1
4.124676100E-1,2.974748611E0,2.102963686E0,-1.319595277E-1
4.149553710E-1,2.777674913E0,1.991110921E0,-1.170458421E-1
4.174431310E-1,2.586992741E0,1.880323529E0,-9.680583328E-2
4.199308910E-1,2.404832602E0,1.770601273E0,-7.230477035E-2
4.224186520E-1,2.231194735E0,1.663009644E0,-4.247738793E-2
4.249064120E-1,2.069274664E0,1.557548642E0,-1.051947847E-2
4.273941730E-1,1.916941881E0,1.454218030E0,2.356895804E-2
4.298819330E-1,1.776327133E0,1.353017926E0,5.872265995E-2
4.323696930E-1,1.645299673E0,1.255013704E0,9.387636185E-2
4.348574540E-1,1.524924874E0,1.161270499E0,1.279647946E-1
4.373452140E-1,1.415202737E0,1.071788430E0,1.609879732E-1
4.398329750E-1,1.315068007E0,9.897630811E-1,1.918806136E-1
4.423207350E-1,1.226651073E0,9.162598848E-1,2.217079997E-1
4.448084960E-1,1.151017308E0,8.502135277E-1,2.504701018E-1
4.472962560E-1,1.086036325E0,7.916240692E-1,2.760364413E-1
4.497840160E-1,1.033838391E0,7.426218987E-1,2.984069884E-1
4.522717770E-1,9.944236279E-1,7.000113726E-1,3.165164590E-1
4.547595370E-1,9.645962119E-1,6.648576856E-1,3.303648829E-1
4.572472980E-1,9.454214573E-1,6.360955238E-1,3.399522603E-1
4.597350580E-1,9.337036014E-1,6.115944982E-1,3.452785909E-1
4.622228180E-1,9.283772707E-1,5.913544893E-1,3.442133069E-1
4.647105790E-1,9.294425249E-1,5.753754973E-1,3.399522603E-1
4.671983390E-1,9.347688556E-1,5.625923872E-1,3.303648829E-1
4.696861000E-1,9.443562031E-1,5.519397259E-1,3.186469972E-1
4.721738600E-1,9.571393728E-1,5.434176326E-1,3.016027808E-1
4.746616210E-1,9.709877968E-1,5.359607935E-1,2.834932804E-1
4.771493810E-1,9.848362207E-1,5.274386406E-1,2.632532716E-1
4.796371410E-1,9.986846447E-1,5.189165473E-1,2.419480085E-1
4.821249020E-1,1.010402560E0,5.061333776E-1,2.206427306E-1
4.846126620E-1,1.019989967E0,4.912196994E-1,1.993374527E-1
4.871004230E-1,1.025316238E0,4.731102288E-1,1.780321896E-1
4.895881830E-1,1.027446747E0,4.507396817E-1,1.588574350E-1
4.920759430E-1,1.026381493E0,4.241080880E-1,1.407479644E-1
4.945637040E-1,1.021055222E0,3.942807019E-1,1.237037405E-1
4.970514640E-1,1.013598323E0,3.612575233E-1,1.077247858E-1
4.995392250E-1,1.002945662E0,3.261038363E-1,9.068056941E-2
5.020269850E-1,9.880320430E-1,2.888196111E-1,7.363634557E-2
5.045146930E-1,9.709877968E-1,2.504701018E-1,5.659212917E-2
5.070024020E-1,9.507477880E-1,2.099900991E-1,4.061317816E-2
5.094901100E-1,9.262467623E-1,1.695100814E-1,2.250369452E-2
5.119778180E-1,8.996151686E-1,1.290300637E-1,4.394212738E-3
5.144655270E-1,8.719182611E-1,8.855003864E-2,-1.265000552E-2
5.169532350E-1,8.410256505E-1,4.700475931E-2,-3.075948730E-2
5.194409430E-1,8.101329803E-1,6.524739787E-3,-4.780370742E-2
5.219286520E-1,7.813708782E-1,-3.395527974E-2,-6.378266215E-2
5.244163600E-1,7.526087761E-1,-7.230477035E-2,-7.976161689E-2
5.269040680E-1,7.270424366E-1,-1.074584723E-1,-9.467530251E-2
5.293917770E-1,7.025413513E-1,-1.415469050E-1,-1.095889956E-1
5.318794850E-1,6.812360883E-1,-1.703090221E-1,-1.223721579E-1
5.343671930E-1,6.631265879E-1,-1.937448233E-1,-1.340900660E-1
5.368549020E-1,6.482129097E-1,-2.150501013E-1,-1.426121742E-1
5.393426100E-1,6.343644857E-1,-2.299637944E-1,-1.521995366E-1
5.418303180E-1,6.247771382E-1,-2.395511568E-1,-1.596563905E-1
5.443180270E-1,6.151897311E-1,-2.406164259E-1,-1.681784987E-1
5.468057350E-1,6.087981462E-1,-2.352901101E-1,-1.777658761E-1
5.492934430E-1,6.024065614E-1,-2.235722095E-1,-1.894837767E-1
5.517811520E-1,5.970802903E-1,-2.054627240E-1,-2.043974549E-1
5.542688600E-1,5.906887054E-1,-1.820269227E-1,-2.225069404E-1
5.567565680E-1,5.842971206E-1,-1.564605981E-1,-2.438122183E-1
5.592442770E-1,5.779055357E-1,-1.287637353E-1,-2.683132887E-1
5.617319850E-1,5.715139508E-1,-1.010668874E-1,-2.938795984E-1
5.642196930E-1,5.629918575E-1,-7.550056279E-2,-3.215764761E-1
5.667074020E-1,5.544697046E-1,-5.099949613E-2,-3.482080400E-1
5.691951100E-1,5.448823571E-1,-3.075948730E-2,-3.737743795E-1
5.716828180E-1,5.331644416E-1,-1.371526904E-2,-3.972101808E-1
5.741705270E-1,5.214465261E-1,-3.062632866E-3,-4.174501896E-1
5.766582870E-1,5.075981021E-1,1.198421582E-3,-4.344944060E-1
5.791460480E-1,4.926844239E-1,1.331579551E-4,-4.472775757E-1
5.816338080E-1,4.777707458E-1,-8.388951421E-3,-4.536691606E-1
5.841215680E-1,4.628570378E-1,-2.223737910E-2,-4.547344148E-1
5.866093290E-1,4.490086138E-1,-4.034686089E-2,-4.483428299E-1
5.890970890E-1,4.372907281E-1,-6.378266215E-2,-4.344944060E-1
5.915848500E-1,4.266380966E-1,-9.041424841E-2,-4.142543972E-1
5.940726100E-1,4.170507193E-1,-1.181111038E-1,-3.876228034E-1
5.965603710E-1,4.095938802E-1,-1.468732208E-1,-3.545996249E-1
5.990481310E-1,4.032022953E-1,-1.735048145E-1,-3.183806837E-1
6.015358910E-1,3.957454562E-1,-1.990711391E-1,-2.789659202E-1
6.040236520E-1,3.882885873E-1,-2.214416862E-1,-2.374206334E-1
6.065114120E-1,3.808317482E-1,-2.406164259E-1,-1.937448233E-1
6.089991730E-1,3.701791167E-1,-2.544648647E-1,-1.511342824E-1
6.114869330E-1,3.584612012E-1,-2.661827505E-1,-1.095889956E-1
6.139746930E-1,3.435475230E-1,-2.736395895E-1,-6.804371625E-2
6.164624540E-1,3.275685608E-1,-2.768353820E-1,-2.756369673E-2
6.189502140E-1,3.115896285E-1,-2.757701278E-1,1.291632187E-2
6.214379750E-1,2.945453823E-1,-2.715090811E-1,5.233107507E-2
6.239257350E-1,2.764359117E-1,-2.629869580E-1,9.068056941E-2
6.264134960E-1,2.593916953E-1,-2.512690723E-1,1.290300637E-1
6.289012560E-1,2.412822098E-1,-2.363553643E-1,1.663142890E-1
6.313890160E-1,2.242379934E-1,-2.182458937E-1,2.004027218E-1
6.338767770E-1,2.061285079E-1,-1.980058849E-1,2.344911546E-1
6.363645370E-1,1.869537681E-1,-1.756353378E-1,2.664490640E-1
6.388522980E-1,1.677790284E-1,-1.543300748E-1,2.962764502E-1
6.413400580E-1,1.486042738E-1,-1.319595277E-1,3.250385821E-1
6.438278180E-1,1.283642650E-1,-1.106542572E-1,3.527354300E-1
6.463155790E-1,1.081242561E-1,-9.041424841E-2,3.772364855E-1
6.488033390E-1,8.681898564E-2,-7.230477035E-2,4.006722867E-1
6.512911000E-1,6.657897681E-2,-5.739107728E-2,4.198470414E-1
6.537788600E-1,4.527370632E-2,-4.460791498E-2,4.358259737E-1
6.562666210E-1,2.396843210E-2,-3.715106845E-2,4.475438893E-1
6.587543810E-1,3.728422802E-3,-3.395527974E-2,4.560659826E-1
6.612421410E-1,-1.651158556E-2,-3.715106845E-2,4.613923132E-1
6.637299020E-1,-3.462106735E-2,-4.460791498E-2,4.624575675E-1
6.662176620E-1,-5.060002208E-2,-5.419528857E-2,4.624575675E-1
6.687054230E-1,-6.338318437E-2,-6.804371625E-2,4.635228515E-1
6.711931830E-1,-7.190529257E-2,-8.402267098E-2,4.656533599E-1
6.736809430E-1,-7.616634667E-2,-1.010668874E-1,4.731102288E-1
6.761687040E-1,-7.510108501E-2,-1.191763729E-1,4.858933687E-1
6.786564640E-1,-6.977476925E-2,-1.383511126E-1,5.050681233E-1
6.811442250E-1,-5.912213027E-2,-1.564605981E-1,5.306344628E-1
6.836319850E-1,-4.420844093E-2,-1.724395454E-1,5.604618192E-1
6.861197460E-1,-2.822948620E-2,-1.852227151E-1,5.956155062E-1
6.886075060E-1,-1.118526794E-2,-1.958753467E-1,6.339650154E-1
6.910952660E-1,5.858949851E-3,-2.022669315E-1,6.733797789E-1
6.935830270E-1,2.183790505E-2,-2.065279931E-1,7.138597965E-1
6.960707870E-1,3.781685978E-2,-2.086585164E-1,7.554050684E-1
6.985585480E-1,5.060002208E-2,-2.065279931E-1,7.980156541E-1
7.010463080E-1,6.444845349E-2,-2.043974549E-1,8.416914344E-1
7.035340680E-1,7.403582335E-2,-1.990711391E-1,8.853672147E-1
7.060218290E-1,8.149266988E-2,-1.916143000E-1,9.279778004E-1
7.085095890E-1,8.362319320E-2,-1.820269227E-1,9.673925638E-1
7.109973500E-1,8.255793154E-2,-1.713742912E-1,1.004676819E0
7.134851100E-1,7.616634667E-2,-1.607216448E-1,1.038765192E0
7.159728710E-1,6.551371515E-2,-1.511342824E-1,1.069657803E0
7.184606310E-1,5.166528746E-2,-1.415469050E-1,1.097354650E0
7.209483910E-1,3.462106735E-2,-1.340900660E-1,1.121855736E0
7.234361520E-1,1.438105945E-2,-1.266332120E-1,1.143161058E0
7.259239120E-1,-7.989477366E-3,-1.213068962E-1,1.161270499E0
7.284116730E-1,-3.036001325E-2,-1.170458421E-1,1.175118923E0
7.308994330E-1,-5.379581451E-2,-1.149153188E-1,1.186836839E0
7.333871930E-1,-7.829687744E-2,-1.149153188E-1,1.193228483E0
7.358749540E-1,-1.006674170E-1,-1.149153188E-1,1.196424246E0
7.383627140E-1,-1.241032109E-1,-1.181111038E-1,1.198554754E0
7.408504750E-1,-1.486042738E-1,-1.234374270E-1,1.195358992E0
7.433382350E-1,-1.741705984E-1,-1.308942735E-1,1.190032601E0
7.458259960E-1,-1.986716688E-1,-1.404816359E-1,1.180445313E0
7.483137560E-1,-2.242379934E-1,-1.500690132E-1,1.169792652E0
7.508015160E-1,-2.498043180E-1,-1.585911214E-1,1.155944228E0
7.532892770E-1,-2.753706574E-1,-1.681784987E-1,1.138900042E0
7.557770370E-1,-2.956106663E-1,-1.777658761E-1,1.122920990E0
7.582647980E-1,-3.137201369E-1,-1.884185076E-1,1.108007312E0
7.607525580E-1,-3.265033066E-1,-1.990711391E-1,1.093093634E0
7.632403180E-1,-3.339601457E-1,-2.086585164E-1,1.077114701E0
7.657280790E-1,-3.382211924E-1,-2.182458937E-1,1.061135769E0
7.682158390E-1,-3.360906839E-1,-2.257027328E-1,1.044091582E0
7.707036000E-1,-3.296990991E-1,-2.320943177E-1,1.025982022E0
7.731913600E-1,-3.201117218E-1,-2.352901101E-1,1.006807327E0
7.756791210E-1,-3.073285520E-1,-2.363553643E-1,9.844367504E-1
7.781668810E-1,-2.913496196E-1,-2.342248410E-1,9.599357247E-1
7.806546410E-1,-2.732401192E-1,-2.288985252E-1,9.333041310E-1
7.831424020E-1,-2.551306486E-1,-2.214416862E-1,9.034767151E-1
7.856301620E-1,-2.359558940E-1,-2.107890397E-1,8.736493587E-1
7.881179230E-1,-2.146506310E-1,-2.001364082E-1,8.427566886E-1
7.906056830E-1,-1.933453530E-1,-1.884185076E-1,8.139945865E-1
7.930934430E-1,-1.720400751E-1,-1.745700836E-1,7.831019163E-1
7.955812040E-1,-1.507348120E-1,-1.585911214E-1,7.532745600E-1
7.980689640E-1,-1.304948032E-1,-1.426121742E-1,7.202513814E-1
8.005567250E-1,-1.113200486E-1,-1.255679578E-1,6.882934570E-1
8.030444850E-1,-9.214530140E-2,-1.095889956E-1,6.563355327E-1
8.055322460E-1,-7.190529257E-2,-9.574057162E-2,6.243776679E-1
8.080200060E-1,-5.379581451E-2,-8.615319431E-2,5.924197435E-1
8.105077660E-1,-3.888212144E-2,-7.869634777E-2,5.604618192E-1
8.129955270E-1,-2.396843210E-2,-7.656582445E-2,5.285038948E-1
8.154832870E-1,-1.331579592E-2,-7.550056279E-2,4.965460002E-1
8.179710480E-1,-3.728422802E-3,-7.869634777E-2,4.635228515E-1
8.204588080E-1,3.728422802E-3,-8.189214021E-2,4.283691347E-1
8.229465680E-1,1.118526794E-2,-8.828372508E-2,3.932154477E-1
8.254343290E-1,1.757685095E-2,-9.574057162E-2,3.559312224E-1
8.279220890E-1,2.503369562E-2,-1.063932031E-1,3.175817132E-1
8.304098500E-1,3.036001325E-2,-1.202416345E-1,2.792322338E-1
8.328976100E-1,3.568633273E-2,-1.362205893E-1,2.387522161E-1
8.353853710E-1,4.101264849E-2,-1.521995366E-1,1.972069293E-1
8.378731310E-1,4.527370632E-2,-1.671132296E-1,1.567269117E-1
8.403608910E-1,4.953476042E-2,-1.820269227E-1,1.151816323E-1
8.428486520E-1,5.379581451E-2,-1.937448233E-1,7.683213800E-2
8.453364120E-1,5.805686861E-2,-2.033322006E-1,4.167843983E-2
8.478241730E-1,6.551371515E-2,-2.097237855E-1,1.078579482E-2
8.503119330E-1,7.616634667E-2,-2.118543088E-1,-1.265000552E-2
8.527996930E-1,8.894951642E-2,-2.107890397E-1,-3.182475269E-2
8.552874540E-1,1.038632020E-1,-2.065279931E-1,-4.673844203E-2
8.577752140E-1,1.177116334E-1,-1.969406158E-1,-5.739107728E-2
8.602629750E-1,1.326253265E-1,-1.841574460E-1,-6.591318548E-2
8.627507350E-1,1.464737505E-1,-1.692437679E-1,-7.230477035E-2
8.652384960E-1,1.581916511E-1,-1.543300748E-1,-7.656582445E-2
8.677262560E-1,1.699095517E-1,-1.394163817E-1,-7.976161689E-2
8.702140160E-1,1.773663908E-1,-1.266332120E-1,-8.082687855E-2
8.727017770E-1,1.826927215E-1,-1.149153188E-1,-8.082687855E-2
8.751895370E-1,1.848232448E-1,-1.031974182E-1,-8.082687855E-2
8.776772980E-1,1.837579757E-1,-9.041424841E-2,-7.976161689E-2
8.801650580E-1,1.794969290E-1,-7.869634777E-2,-7.869634777E-2
8.826528180E-1,1.709748209E-1,-6.484792382E-2,-7.443529367E-2
8.851405790E-1,1.592569202E-1,-5.099949613E-2,-6.910897791E-2
8.876283390E-1,1.454084814E-1,-3.608580679E-2,-6.271740049E-2
8.901161000E-1,1.283642650E-1,-2.117211558E-2,-5.632581562E-2
8.926038600E-1,1.102547869E-1,-8.388951421E-3,-4.886896908E-2
8.950916210E-1,9.001477808E-2,1.198421582E-3,-4.354264960E-2
8.975793810E-1,6.870950758E-2,5.459476262E-3,-3.928159550E-2
9.000671410E-1,4.740423337E-2,4.394212738E-3,-3.821633384E-2
9.025549020E-1,2.609895915E-2,-9.321057005E-4,-4.034686089E-2
9.050426620E-1,6.924213842E-3,-1.051947847E-2,-4.567318037E-2
9.075304230E-1,-1.118526794E-2,-2.330264263E-2,-5.419528857E-2
9.100181830E-1,-2.609895915E-2,-3.608580679E-2,-6.484792382E-2
9.125059430E-1,-3.675159439E-2,-4.780370742E-2,-7.869634777E-2
9.149937040E-1,-4.314317927E-2,-5.632581562E-2,-9.574057162E-2
9.174814640E-1,-4.527370632E-2,-6.378266215E-2,-1.170458421E-1
9.199692250E-1,-4.420844093E-2,-6.697845459E-2,-1.415469050E-1
9.224569850E-1,-3.888212144E-2,-6.804371625E-2,-1.703090221E-1
9.249447460E-1,-2.929474972E-2,-6.697845459E-2,-2.012016773E-1
9.274325060E-1,-1.438105945E-2,-6.378266215E-2,-2.310290486E-1
9.299202660E-1,7.989477366E-3,-5.952160433E-2,-2.597911656E-1
9.324080270E-1,3.568633273E-2,-5.313002318E-2,-2.842922211E-1
9.348957870E-1,6.977476925E-2,-4.460791498E-2,-3.055975139E-1
9.373835480E-1,1.059937328E-1,-3.289001435E-2,-3.205111921E-1
9.398713080E-1,1.432779580E-1,-1.691105962E-2,-3.311638236E-1
9.423590680E-1,1.794969290E-1,3.328948980E-3,-3.354249001E-1
9.448468290E-1,2.135853618E-1,2.676474862E-2,-3.343596160E-1
9.473345890E-1,2.434127480E-1,5.339634046E-2,-3.290333152E-1
9.498223500E-1,2.700443268E-1,8.002793044E-2,-3.183806837E-1
9.523101100E-1,2.913496196E-1,1.077247858E-1,-3.045322299E-1
9.547978710E-1,3.073285520E-1,1.322258562E-1,-2.864227593E-1
9.572856310E-1,3.158506751E-1,1.545963883E-1,-2.672480047E-1
9.597733910E-1,3.201117218E-1,1.727058738E-1,-2.459427416E-1
9.622611520E-1,3.190464675E-1,1.865542978E-1,-2.214416862E-1
9.647489120E-1,3.126548827E-1,1.961416751E-1,-1.958753467E-1
9.672366730E-1,3.030675054E-1,2.014679909E-1,-1.681784987E-1
9.697244330E-1,2.913496196E-1,2.067943066E-1,-1.404816359E-1
9.722121930E-1,2.764359117E-1,2.089248300E-1,-1.127847880E-1
9.746999540E-1,2.615222335E-1,2.099900991E-1,-8.508793265E-2
9.771877140E-1,2.434127480E-1,2.110553533E-1,-6.058686972E-2
9.796754750E-1,2.263685167E-1,2.099900991E-1,-3.821633384E-2
9.821632350E-1,2.093243003E-1,2.057290375E-1,-2.117211558E-2
9.846509960E-1,1.933453530E-1,1.993374527E-1,-9.454214945E-3
9.871387560E-1,1.794969290E-1,1.908153445E-1,-3.062632866E-3
9.896265160E-1,1.667137593E-1,1.790974438E-1,-4.127896391E-3
9.921142770E-1,1.571263820E-1,1.652490199E-1,-1.158474199E-2
9.946020370E-1,1.496695429E-1,1.535311192E-1,-2.436790615E-2
9.970897980E-1,1.475390196E-1,1.418132186E-1,-4.354264960E-2
9.995775580E-1,1.486042738E-1,1.322258562E-1,-6.697845459E-2
1.002065318E0,1.539305896E-1,1.258342713E-1,-9.361004084E-2
1.004553079E0,1.635179669E-1,1.215732098E-1,-1.234374270E-1
1.007040839E0,1.763011366E-1,1.194426864E-1,-1.543300748E-1
1.009528600E0,1.933453530E-1,1.183774248E-1,-1.852227151E-1
1.012016360E0,2.146506310E-1,1.173121557E-1,-2.129195631E-1
1.014504068E0,2.391516864E-1,1.173121557E-1,-2.384859025E-1
1.016991777E0,2.657832801E-1,1.194426864E-1,-2.576606572E-1
1.019479485E0,2.934801280E-1,1.247690022E-1,-2.704437971E-1
1.021967193E0,3.233075142E-1,1.322258562E-1,-2.768353820E-1
1.024454902E0,3.531349003E-1,1.407479644E-1,-2.757701278E-1
1.026942610E0,3.829622865E-1,1.503353268E-1,-2.672480047E-1
1.029430318E0,4.106591344E-1,1.609879732E-1,-2.523343265E-1
1.031918027E0,4.330296814E-1,1.705753356E-1,-2.310290486E-1
1.034405735E0,4.490086138E-1,1.780321896E-1,-2.033322006E-1
1.036893443E0,4.575307369E-1,1.844237745E-1,-1.713742912E-1
1.039381152E0,4.564654827E-1,1.865542978E-1,-1.330247968E-1
1.041868860E0,4.436823130E-1,1.865542978E-1,-9.467530251E-2
1.044356568E0,4.223770201E-1,1.865542978E-1,-5.526055023E-2
1.046844277E0,3.925496638E-1,1.844237745E-1,-2.117211558E-2
1.049331985E0,3.563306928E-1,1.822932363E-1,9.720530361E-3
1.051819693E0,3.169159293E-1,1.812279820E-1,3.528685868E-2
1.054307402E0,2.764359117E-1,1.812279820E-1,5.446160212E-2
1.056795110E0,2.370211631E-1,1.812279820E-1,6.617950648E-2
1.059282818E0,2.008021921E-1,1.801627129E-1,7.044056058E-2
1.061770527E0,1.677790284E-1,1.790974438E-1,6.617950648E-2
1.064258235E0,1.411474347E-1,1.780321896E-1,5.339634046E-2
1.066745943E0,1.198421568E-1,1.748363972E-1,3.422159329E-2
1.069233652E0,1.070589945E-1,1.716406047E-1,6.524739787E-3
1.071721360E0,1.049284711E-1,1.695100814E-1,-2.756369673E-2
1.074209068E0,1.134505793E-1,1.673795432E-1,-6.591318548E-2
1.076696777E0,1.347558498E-1,1.684448123E-1,-1.095889956E-1
1.079184485E0,1.656484902E-1,1.716406047E-1,-1.521995366E-1
1.081672246E0,2.071937770E-1,1.790974438E-1,-1.948100924E-1
1.084160006E0,2.551306486E-1,1.886848211E-1,-2.342248410E-1
1.086647766E0,3.083938360E-1,2.014679909E-1,-2.672480047E-1
1.089135527E0,3.605917394E-1,2.142511457E-1,-2.917490900E-1
1.091623287E0,4.106591344E-1,2.270343155E-1,-3.087933064E-1
1.094111048E0,4.532696903E-1,2.387522161E-1,-3.173153996E-1
1.096598808E0,4.862928391E-1,2.472743243E-1,-3.194459379E-1
1.099086568E0,5.065328479E-1,2.504701018E-1,-3.151848912E-1
1.101574329E0,5.139896870E-1,2.494048476E-1,-3.066627681E-1
1.104062089E0,5.065328479E-1,2.440785319E-1,-2.928143442E-1
1.106549850E0,4.873581231E-1,2.323606312E-1,-2.757701278E-1
1.109037610E0,4.554001987E-1,2.131858915E-1,-2.544648647E-1
1.111525371E0,4.117243886E-1,1.908153445E-1,-2.299637944E-1
1.114013131E0,3.595264852E-1,1.631184965E-1,-2.022669315E-1
1.116500891E0,2.998717129E-1,1.343563795E-1,-1.724395454E-1
1.118988652E0,2.380864173E-1,1.055942550E-1,-1.415469050E-1
1.121476412E0,1.773663908E-1,7.576687634E-2,-1.117195264E-1
1.123964173E0,1.198421568E-1,4.913528636E-2,-8.508793265E-2
1.126451933E0,6.870950758E-2,2.783001214E-2,-6.058686972E-2
1.128939693E0,2.716422267E-2,1.185105834E-2,-4.141212255E-2
1.131427454E0,-4.793686327E-3,3.328948980E-3,-2.756369673E-2
1.133915214E0,-2.290316857E-2,4.394212738E-3,-2.223737910E-2
1.136402975E0,-2.716422267E-2,1.291632187E-2,-2.330264263E-2
1.138890735E0,-1.757685095E-2,2.996053919E-2,-3.075948730E-2
1.141378496E0,5.858949851E-3,5.339634046E-2,-4.247738793E-2
1.143866256E0,3.994738683E-2,8.215846121E-2,-5.739107728E-2
1.146354016E0,8.255793154E-2,1.141163707E-1,-7.443529367E-2
1.148841777E0,1.304948032E-1,1.471395344E-1,-9.041424841E-2
1.151329537E0,1.784316599E-1,1.812279820E-1,-1.053279415E-1
1.153817298E0,2.221074700E-1,2.131858915E-1,-1.181111038E-1
1.156305058E0,2.583264410E-1,2.430132627E-1,-1.319595277E-1
1.158792818E0,2.860232890E-1,2.696448565E-1,-1.447426975E-1
1.161280579E0,3.041327596E-1,2.898848653E-1,-1.564605981E-1
1.163768339E0,3.105243444E-1,3.026680350E-1,-1.681784987E-1
1.166256100E0,3.062632978E-1,3.069290817E-1,-1.798963994E-1
1.168743860E0,2.924148738E-1,3.047985733E-1,-1.905490309E-1
1.171231621E0,2.700443268E-1,2.962764502E-1,-2.012016773E-1
1.173719381E0,2.391516864E-1,2.813627720E-1,-2.129195631E-1
1.176207141E0,2.029327303E-1,2.621880174E-1,-2.235722095E-1
1.178694902E0,1.635179669E-1,2.376869470E-1,-2.352901101E-1
1.181182662E0,1.230379492E-1,2.121206224E-1,-2.480732650E-1
1.183670423E0,8.575372398E-2,1.865542978E-1,-2.597911656E-1
1.186158183E0,5.273054913E-2,1.631184965E-1,-2.725743353E-1
1.188645943E0,2.716422267E-2,1.428784877E-1,-2.832269669E-1
1.191133704E0,1.118526794E-2,1.237037405E-1,-2.928143442E-1
1.193621464E0,5.858949851E-3,1.087900475E-1,-2.981406748E-1
1.196109225E0,7.989477366E-3,9.813741595E-2,-2.992059290E-1
1.198596985E0,1.864211448E-2,9.068056941E-2,-2.949448824E-1
1.201084746E0,3.355580568E-2,8.641951531E-2,-2.874880135E-1
1.203572506E0,5.060002208E-2,8.748477697E-2,-2.768353820E-1
1.206060266E0,7.190529257E-2,9.174583107E-2,-2.640522122E-1
1.208548027E0,9.427583218E-2,9.920267761E-2,-2.523343265E-1
1.211035787E0,1.166463718E-1,1.098553166E-1,-2.416816950E-1
1.213523548E0,1.411474347E-1,1.237037405E-1,-2.331595868E-1
1.216011308E0,1.677790284E-1,1.375521719E-1,-2.257027328E-1
1.218499068E0,1.933453530E-1,1.535311192E-1,-2.182458937E-1
1.220986829E0,2.178464085E-1,1.695100814E-1,-2.097237855E-1
1.223474589E0,2.380864173E-1,1.844237745E-1,-2.001364082E-1
1.225962350E0,2.540653646E-1,1.982721984E-1,-1.905490309E-1
1.228450110E0,2.636527419E-1,2.099900991E-1,-1.841574460E-1
1.230937871E0,2.700443268E-1,2.195774615E-1,-1.809616536E-1
1.233425631E0,2.721748650E-1,2.259690464E-1,-1.830921918E-1
1.235913391E0,2.732401192E-1,2.280995846E-1,-1.884185076E-1
1.238401152E0,2.743053734E-1,2.270343155E-1,-1.948100924E-1
1.240888912E0,2.775011659E-1,2.227732539E-1,-2.022669315E-1
1.243376673E0,2.806969583E-1,2.153164148E-1,-2.086585164E-1
1.245864433E0,2.849580348E-1,2.078595608E-1,-2.139848322E-1
1.248352193E0,2.892190814E-1,1.993374527E-1,-2.171806246E-1
1.250839954E0,2.966759205E-1,1.886848211E-1,-2.214416862E-1
1.253327714E0,3.030675054E-1,1.748363972E-1,-2.267680019E-1
1.255815475E0,3.105243444E-1,1.588574350E-1,-2.352901101E-1
1.258303235E0,3.169159293E-1,1.396826953E-1,-2.448774725E-1
1.260790996E0,3.201117218E-1,1.183774248E-1,-2.565953732E-1
1.263278756E0,3.233075142E-1,9.707214683E-2,-2.715090811E-1
1.265766516E0,3.254380524E-1,7.576687634E-2,-2.885532975E-1
1.268254277E0,3.265033066E-1,5.339634046E-2,-3.098585606E-1
1.270742037E0,3.296990991E-1,3.209106624E-2,-3.343596160E-1
1.273229798E0,3.328948915E-1,1.185105834E-2,-3.620564938E-1
1.275717558E0,3.371559381E-1,-5.193160381E-3,-3.961449265E-1
1.278205318E0,3.414169848E-1,-1.904158667E-2,-4.323638678E-1
1.280693079E0,3.478085697E-1,-2.969422378E-2,-4.717786312E-1
1.283180839E0,3.584612012E-1,-3.502054140E-2,-5.101281404E-1
1.285668600E0,3.755054474E-1,-3.715106845E-2,-5.495429039E-1
1.288156360E0,4.000065029E-1,-3.395527974E-2,-5.846965909E-1
1.290644121E0,4.340949357E-1,-2.649843320E-2,-6.177197695E-1
1.293131881E0,4.777707458E-1,-1.478053257E-2,-6.475471258E-1
1.295619641E0,5.278381109E-1,2.263685223E-3,-6.752439737E-1
1.298107402E0,5.832318664E-1,2.250369452E-2,-7.008103132E-1
1.300595162E0,6.386255622E-1,4.487423226E-2,-7.253113985E-1
1.303082923E0,6.929540038E-1,6.831002980E-2,-7.487471700E-1
1.305570683E0,7.408908606E-1,9.068056941E-2,-7.711177468E-1
1.308058443E0,7.813708782E-1,1.109205782E-1,-7.881619334E-1
1.310546204E0,8.122635484E-1,1.290300637E-1,-8.009451032E-1
1.313033964E0,8.325035572E-1,1.460742801E-1,-8.041408658E-1
1.315521725E0,8.388951421E-1,1.599227041E-1,-7.988145947E-1
1.318009485E0,8.335688114E-1,1.737711281E-1,-7.839008570E-1
1.320497246E0,8.133288026E-1,1.854890287E-1,-7.636608481E-1
1.322985006E0,7.803056240E-1,1.961416751E-1,-7.402250767E-1
1.325472766E0,7.344992757E-1,2.025332451E-1,-7.189198136E-1
1.327960527E0,6.780403256E-1,2.035985142E-1,-7.018755674E-1
1.330448287E0,6.109287143E-1,1.993374527E-1,-6.933534741E-1
1.332936048E0,5.342296958E-1,1.908153445E-1,-6.954839826E-1
1.335423808E0,4.500738978E-1,1.759016514E-1,-7.072018981E-1
1.337911568E0,3.595264852E-1,1.588574350E-1,-7.285071611E-1
1.340399329E0,2.636527419E-1,1.407479644E-1,-7.604650855E-1
1.342887089E0,1.677790284E-1,1.215732098E-1,-8.009451032E-1
1.345374850E0,7.297056168E-2,9.920267761E-2,-8.520777822E-1
1.347862610E0,-1.544632297E-2,7.363634557E-2,-9.170588255E-1
1.350350371E0,-9.321057051E-2,4.700475931E-2,-9.958883524E-1
1.352838131E0,-1.539305896E-1,1.930790395E-2,-1.083239913E0
1.355325891E0,-1.944106072E-1,-8.388951421E-3,-1.174852610E0
1.357813652E0,-2.114548385E-1,-3.928159550E-2,-1.262204289E0
1.360301412E0,-2.008021921E-1,-7.230477035E-2,-1.338903189E0
1.362789173E0,-1.656484902E-1,-1.063932031E-1,-1.400688529E0
1.365276933E0,-1.070589945E-1,-1.372858584E-1,-1.445429564E0
1.367764693E0,-2.929474972E-2,-1.617869139E-1,-1.470995903E0
1.370252454E0,6.125266105E-2,-1.777658761E-1,-1.477387547E0
1.372740214E0,1.624527127E-1,-1.852227151E-1,-1.464604378E0
1.375227975E0,2.721748650E-1,-1.862879843E-1,-1.431581140E0
1.377715735E0,3.872233331E-1,-1.777658761E-1,-1.381513834E0
1.380203496E0,5.022718310E-1,-1.649827063E-1,-1.316532731E0
1.382691256E0,6.194508076E-1,-1.468732208E-1,-1.240898967E0
1.385179016E0,7.344992757E-1,-1.287637353E-1,-1.156743169E0
1.387666777E0,8.452867270E-1,-1.106542572E-1,-1.062999964E0
1.390154537E0,9.507477880E-1,-9.041424841E-2,-9.639304280E-1
1.392642298E0,1.047686815E0,-6.804371625E-2,-8.584693074E-1
1.395130058E0,1.132907867E0,-4.247738793E-2,-7.487471700E-1
1.397617818E0,1.203215241E0,-1.158474199E-2,-6.358292103E-1
1.400105579E0,1.256478429E0,2.037316747E-2,-5.239765644E-1
1.402593339E0,1.292697430E0,5.339634046E-2,-4.131891429E-1
1.405081100E0,1.310806870E0,8.322372288E-2,-3.066627681E-1
1.407568860E0,1.315068007E0,1.066595241E-1,-2.054627240E-1
1.410056621E0,1.305480599E0,1.279647946E-1,-1.127847880E-1
1.412544381E0,1.276718497E0,1.588574350E-1,-2.862896025E-2
1.415032141E0,1.223455310E0,1.972069293E-1,4.700475931E-2
1.417519902E0,1.146756291E0,2.344911546E-1,1.183774248E-1
1.420007662E0,1.047686815E0,2.632532716E-1,1.865542978E-1
1.422495423E0,9.273120165E-1,2.824280262E-1,2.515353858E-1
1.424983183E0,7.877624631E-1,2.920154035E-1,3.122554123E-1
1.427470943E0,6.343644857E-1,2.920154035E-1,3.633880615E-1
1.429958704E0,4.703139067E-1,2.824280262E-1,4.059986174E-1
1.432446464E0,3.009369671E-1,2.643185556E-1,4.400870502E-1
1.434934225E0,1.336905807E-1,2.376869470E-1,4.667186439E-1
1.437421985E0,-2.503369562E-2,2.067943066E-1,4.826975763E-1
1.439909746E0,-1.720400751E-1,1.727058738E-1,4.922849536E-1
1.442397506E0,-3.020022511E-1,1.386174262E-1,4.944154918E-1
1.444885266E0,-4.117243886E-1,1.045289934E-1,4.944154918E-1
1.447373027E0,-4.990760088E-1,7.150582224E-2,4.944154918E-1
1.449860787E0,-5.629918575E-1,4.380896688E-2,4.944154918E-1
1.452348548E0,-6.013413072E-1,2.037316747E-2,4.965460002E-1
1.454836308E0,-6.151897311E-1,4.394212738E-3,4.986765385E-1
1.457324068E0,-6.045371294E-1,-7.323687430E-3,5.018723607E-1
1.459811829E0,-5.704486966E-1,-1.158474199E-2,5.040028691E-1
1.462299589E0,-5.150549412E-1,-1.051947847E-2,5.071986318E-1
1.464787350E0,-4.404865205E-1,-1.997369342E-3,5.103944540E-1
1.467275110E0,-3.488738537E-1,9.720530361E-3,5.135902166E-1
1.469762871E0,-2.444780022E-1,2.783001214E-2,5.178512931E-1
1.472250631E0,-1.326253265E-1,4.913528636E-2,5.242428780E-1
1.474738391E0,-1.651158556E-2,7.363634557E-2,5.359607935E-1
1.477226152E0,9.534109384E-2,1.045289934E-1,5.508744717E-1
1.479713912E0,1.954758763E-1,1.386174262E-1,5.689839721E-1
1.482201673E0,2.796317041E-1,1.759016514E-1,5.892239809E-1
1.484689433E0,3.435475230E-1,2.163816839E-1,6.094639897E-1
1.487177193E0,3.829622865E-1,2.557964325E-1,6.265081763E-1
1.489664954E0,3.968107104E-1,2.920154035E-1,6.403566003E-1
1.492152714E0,3.850927949E-1,3.229080439E-1,6.499440074E-1
1.494640475E0,3.478085697E-1,3.474090993E-1,6.542050242E-1
1.497128235E0,2.870885432E-1,3.623228073E-1,6.542050242E-1
1.499615996E0,2.061285079E-1,3.676491082E-1,6.467481852E-1
1.502103756E0,1.091895252E-1,3.623228073E-1,6.360955238E-1
1.504591516E0,-1.597895520E-3,3.484743834E-1,6.201165915E-1
1.507079277E0,-1.230379492E-1,3.292996287E-1,6.009418368E-1
1.509567037E0,-2.476737946E-1,3.058638275E-1,5.764408112E-1
1.512054798E0,-3.744401634E-1,2.813627720E-1,5.487439036E-1
1.514542558E0,-4.980107546E-1,2.557964325E-1,5.135902166E-1
1.517030318E0,-6.141244769E-1,2.312953621E-1,4.720449448E-1
1.519518079E0,-7.174550891E-1,2.078595608E-1,4.262386262E-1
1.522005839E0,-8.058719635E-1,1.854890287E-1,3.772364855E-1
1.524493600E0,-8.740488291E-1,1.673795432E-1,3.271690905E-1
1.526981360E0,-9.219856858E-1,1.514005959E-1,2.771016955E-1
1.529469121E0,-9.464867711E-1,1.407479644E-1,2.312953621E-1
1.531956881E0,-9.507477880E-1,1.332911104E-1,1.876195520E-1
1.534444641E0,-9.326383471E-1,1.300953180E-1,1.471395344E-1
1.536932402E0,-8.985498548E-1,1.290300637E-1,1.098553166E-1
1.539420162E0,-8.463519812E-1,1.290300637E-1,7.683213800E-2
1.541907923E0,-7.824361324E-1,1.300953180E-1,4.807002097E-2
1.544395683E0,-7.068024278E-1,1.343563795E-1,2.463422157E-2
1.546883443E0,-6.215813160E-1,1.396826953E-1,6.524739787E-3
1.549371204E0,-5.310339332E-1,1.450090110E-1,-6.258423906E-3
1.551858964E0,-4.351601899E-1,1.482048035E-1,-1.158474199E-2
1.554346725E0,-3.360906839E-1,1.492700726E-1,-8.388951421E-3
1.556834485E0,-2.391516864E-1,1.482048035E-1,2.263685223E-3
1.559322246E0,-1.443432271E-1,1.450090110E-1,1.930790395E-2
1.561810006E0,-5.699160323E-2,1.386174262E-1,4.167843983E-2
1.564297766E0,2.183790505E-2,1.322258562E-1,6.724476814E-2
1.566785527E0,9.001477808E-2,1.237037405E-1,9.387636185E-2
1.569273287E0,1.464737505E-1,1.162468940E-1,1.215732098E-1
1.571761048E0,1.912148297E-1,1.077247858E-1,1.471395344E-1
1.574248808E0,2.263685167E-1,1.013332009E-1,1.727058738E-1
1.576736568E0,2.519348562E-1,9.707214683E-2,1.982721984E-1
1.579224329E0,2.679138184E-1,9.600688517E-2,2.217079997E-1
1.581712089E0,2.775011659E-1,9.813741595E-2,2.440785319E-1
1.584199850E0,2.806969583E-1,1.055942550E-1,2.675143182E-1
1.586687610E0,2.785664499E-1,1.194426864E-1,2.909501195E-1
1.589175371E0,2.711096108E-1,1.418132186E-1,3.186469972E-1
1.591663131E0,2.604569495E-1,1.705753356E-1,3.484743834E-1
1.594150891E0,2.444780022E-1,2.078595608E-1,3.825628161E-1
1.596638652E0,2.263685167E-1,2.515353858E-1,4.219775498E-1
1.599126412E0,2.029327303E-1,3.016027808E-1,4.645881057E-1
1.601614173E0,1.731053442E-1,3.559312224E-1,5.103944540E-1
1.604101933E0,1.347558498E-1,4.123901725E-1,5.583313107E-1
1.606589693E0,8.681898564E-2,4.656533599E-1,6.030724049E-1
1.609077454E0,2.716422267E-2,5.125249624E-1,6.424871087E-1
1.611565214E0,-4.207791388E-2,5.487439036E-1,6.723145247E-1
1.614052975E0,-1.187768951E-1,5.700492263E-1,6.904240251E-1
1.616540735E0,-2.008021921E-1,5.775060654E-1,6.957502961E-1
1.619028496E0,-2.860232890E-1,5.711144805E-1,6.850976944E-1
1.621516256E0,-3.723096550E-1,5.530049801E-1,6.616618633E-1
1.624004016E0,-4.564654827E-1,5.231776237E-1,6.243776679E-1
1.626491777E0,-5.352949500E-1,4.869586527E-1,5.743102431E-1
1.628979537E0,-6.077328920E-1,4.464786351E-1,5.135902166E-1
1.631467298E0,-6.737792492E-1,4.038680792E-1,4.443480968E-1
1.633955058E0,-7.281076908E-1,3.633880615E-1,3.676491082E-1
1.636442818E0,-7.728487849E-1,3.229080439E-1,2.877543271E-1
1.638930579E0,-8.090677261E-1,2.845585644E-1,2.057290375E-1
1.641418339E0,-8.346340656E-1,2.494048476E-1,1.258342713E-1
1.643906100E0,-8.516782522E-1,2.163816839E-1,5.020054802E-2
1.646393860E0,-8.623309135E-1,1.865542978E-1,-1.904158667E-2
1.648881621E0,-8.687224984E-1,1.620532274E-1,-7.763108611E-2
1.651369381E0,-8.708530068E-1,1.439437568E-1,-1.266332120E-1
1.653857141E0,-8.687224984E-1,1.300953180E-1,-1.628521830E-1
1.656344902E0,-8.612656593E-1,1.215732098E-1,-1.862879843E-1
1.658832662E0,-8.484824896E-1,1.173121557E-1,-1.958753467E-1
1.661320423E0,-8.282424808E-1,1.141163707E-1,-1.926795542E-1
1.663808183E0,-7.984151244E-1,1.119858399E-1,-1.788311303E-1
1.666295943E0,-7.590003610E-1,1.087900475E-1,-1.543300748E-1
1.668783704E0,-7.121287584E-1,1.055942550E-1,-1.223721579E-1
1.671271464E0,-6.567350626E-1,1.023984700E-1,-8.402267098E-2
1.673759225E0,-5.906887054E-1,9.920267761E-2,-4.141212255E-2
1.676246985E0,-5.182507634E-1,9.707214683E-2,3.328948980E-3
1.678734746E0,-4.372907281E-1,9.707214683E-2,4.913528636E-2
1.681222506E0,-3.499391079E-1,1.034637317E-1,9.707214683E-2
1.683710266E0,-2.561959028E-1,1.151816323E-1,1.439437568E-1
1.686198027E0,-1.592569202E-1,1.322258562E-1,1.908153445E-1
1.688685787E0,-6.125266105E-2,1.556616426E-1,2.366216928E-1
1.691173548E0,3.781685978E-2,1.822932363E-1,2.813627720E-1
1.693661308E0,1.315600574E-1,2.110553533E-1,3.239732981E-1
1.696149068E0,2.210422009E-1,2.398174703E-1,3.665838540E-1
1.698636829E0,3.030675054E-1,2.664490640E-1,4.081291258E-1
1.701124589E0,3.723096550E-1,2.888196111E-1,4.507396817E-1
1.703612350E0,4.287686050E-1,3.069290817E-1,4.944154918E-1
1.706100110E0,4.713791609E-1,3.197122514E-1,5.370260477E-1
1.708587871E0,4.990760088E-1,3.271690905E-1,5.775060654E-1
1.711075631E0,5.097286701E-1,3.314301372E-1,6.169208288E-1
1.713563391E0,5.054675937E-1,3.314301372E-1,6.520745158E-1
1.716051152E0,4.862928391E-1,3.282343447E-1,6.819018722E-1
1.718538912E0,4.532696903E-1,3.239732981E-1,7.053377032E-1
1.721026673E0,4.095938802E-1,3.165164590E-1,7.202513814E-1
1.723514433E0,3.552654386E-1,3.047985733E-1,7.266429663E-1
1.726002193E0,2.945453823E-1,2.898848653E-1,7.223818898E-1
1.728489954E0,2.284990549E-1,2.717753947E-1,7.095987201E-1
1.730977714E0,1.603221744E-1,2.494048476E-1,6.872282028E-1
1.733465475E0,9.214530140E-2,2.270343155E-1,6.563355327E-1
1.735953235E0,2.503369562E-2,2.035985142E-1,6.179860830E-1
1.738440996E0,-3.888212144E-2,1.822932363E-1,5.764408112E-1
1.740928756E0,-9.960214794E-2,1.631184965E-1,5.295692086E-1
1.743416516E0,-1.560611278E-1,1.471395344E-1,4.826975763E-1
1.745904277E0,-2.071937770E-1,1.332911104E-1,4.400870502E-1
1.748392037E0,-2.508696020E-1,1.226384789E-1,4.028028250E-1
1.750879798E0,-2.870885432E-1,1.141163707E-1,3.751059473E-1
1.753367558E0,-3.158506751E-1,1.055942550E-1,3.591270149E-1
1.755855318E0,-3.371559381E-1,9.920267761E-2,3.548659384E-1
1.758343079E0,-3.520696461E-1,9.387636185E-2,3.591270149E-1
1.760830839E0,-3.605917394E-1,9.068056941E-2,3.708449006E-1
1.763318600E0,-3.637875319E-1,9.068056941E-2,3.900196552E-1
1.765806360E0,-3.627222776E-1,9.600688517E-2,4.134554565E-1
1.768294121E0,-3.605917394E-1,1.077247858E-1,4.432828426E-1
1.770781881E0,-3.573959470E-1,1.279647946E-1,4.741754830E-1
1.773269641E0,-3.531349003E-1,1.535311192E-1,5.071986318E-1
1.775757402E0,-3.488738537E-1,1.833585054E-1,5.402218103E-1
1.778245162E0,-3.424822688E-1,2.131858915E-1,5.689839721E-1
1.780732923E0,-3.328948915E-1,2.398174703E-1,5.934849977E-1
1.783220683E0,-3.222422600E-1,2.611227632E-1,6.126597524E-1
1.785708443E0,-3.073285520E-1,2.739059031E-1,6.265081763E-1
1.788196204E0,-2.881538272E-1,2.771016955E-1,6.339650154E-1
1.790683964E0,-2.668485343E-1,2.707101107E-1,6.360955238E-1
1.793171725E0,-2.402169555E-1,2.568616867E-1,6.318345070E-1
1.795659485E0,-2.103895694E-1,2.376869470E-1,6.254429221E-1
1.798147246E0,-1.773663908E-1,2.174469382E-1,6.158555150E-1
1.800635006E0,-1.390169114E-1,1.961416751E-1,6.041376591E-1
1.803122766E0,-9.960214794E-2,1.780321896E-1,5.934849977E-1
1.805610527E0,-5.805686861E-2,1.631184965E-1,5.817670822E-1
1.808098287E0,-1.438105945E-2,1.514005959E-1,5.711144805E-1
1.810586048E0,2.822948620E-2,1.418132186E-1,5.604618192E-1
1.813073808E0,7.084003091E-2,1.332911104E-1,5.466133952E-1
1.815561568E0,1.123853177E-1,1.226384789E-1,5.306344628E-1
1.818049329E0,1.486042738E-1,1.077247858E-1,5.103944540E-1
1.820537089E0,1.816274524E-1,8.961530030E-2,4.848281145E-1
1.823024850E0,2.071937770E-1,6.831002980E-2,4.550007284E-1
1.825512610E0,2.263685167E-1,4.274370521E-2,4.198470414E-1
1.828000371E0,2.402169555E-1,1.717737690E-2,3.825628161E-1
1.830488131E0,2.455432713E-1,-1.051947847E-2,3.452785909E-1
1.832975891E0,2.455432713E-1,-3.502054140E-2,3.090596199E-1
1.835463652E0,2.402169555E-1,-5.526055023E-2,2.802974880E-1
1.837951412E0,2.284990549E-1,-7.017423958E-2,2.611227632E-1
1.840439173E0,2.125200927E-1,-7.976161689E-2,2.547311783E-1
1.842926933E0,1.912148297E-1,-8.295740932E-2,2.568616867E-1
1.845414693E0,1.656484902E-1,-8.189214021E-2,2.653838098E-1
1.847902454E0,1.368863732E-1,-7.656582445E-2,2.802974880E-1
1.850390214E0,1.027979404E-1,-6.484792382E-2,2.973417044E-1
1.852877975E0,6.551371515E-2,-4.993423447E-2,3.154512048E-1
1.855365735E0,2.396843210E-2,-2.969422378E-2,3.324954212E-1
1.857853496E0,-2.077264152E-2,-8.388951421E-3,3.474090993E-1
1.860341256E0,-6.657897681E-2,1.078579482E-2,3.612575233E-1
1.862829016E0,-1.134505793E-1,2.676474862E-2,3.719101548E-1
1.865316777E0,-1.571263820E-1,4.061317816E-2,3.804322779E-1
1.867804537E0,-1.976063997E-1,5.233107507E-2,3.868238628E-1
1.870292298E0,-2.338253707E-1,6.085318699E-2,3.910849094E-1
1.872780058E0,-2.647180259E-1,6.831002980E-2,3.921501637E-1
1.875267818E0,-2.892190814E-1,7.150582224E-2,3.900196552E-1
1.877755579E0,-3.062632978E-1,7.257108390E-2,3.836280704E-1
1.880243339E0,-3.158506751E-1,7.150582224E-2,3.729754388E-1
1.882731100E0,-3.158506751E-1,6.724476814E-2,3.580617309E-1
1.885218860E0,-3.073285520E-1,6.191844866E-2,3.388870060E-1
1.887706621E0,-2.892190814E-1,5.446160212E-2,3.165164590E-1
1.890194381E0,-2.636527419E-1,4.700475931E-2,2.898848653E-1
1.892682141E0,-2.306295782E-1,3.848264739E-2,2.611227632E-1
1.895169902E0,-1.922800839E-1,3.102580272E-2,2.291648388E-1
1.897657662E0,-1.507348120E-1,2.463422157E-2,1.950764060E-1
1.900145423E0,-1.102547869E-1,1.930790395E-2,1.599227041E-1
1.902633183E0,-7.084003091E-2,1.611211337E-2,1.247690022E-1
1.905120943E0,-3.568633273E-2,1.398158539E-2,9.068056941E-2
1.907608704E0,-5.858949851E-3,1.398158539E-2,5.765739456E-2
1.910096464E0,1.544632297E-2,1.398158539E-2,2.889527567E-2
1.912584225E0,2.929474972E-2,1.398158539E-2,3.328948980E-3
1.915071985E0,3.355580568E-2,1.398158539E-2,-1.797632314E-2
1.917559746E0,2.716422267E-2,1.185105834E-2,-3.502054140E-2
1.920047506E0,1.118526794E-2,6.524739787E-3,-4.993423447E-2
1.922535266E0,-1.544632297E-2,1.331579551E-4,-6.165213138E-2
1.925023027E0,-5.060002208E-2,-8.388951421E-3,-7.123950869E-2
1.927510787E0,-9.214530140E-2,-1.691105962E-2,-8.082687855E-2
1.929998548E0,-1.411474347E-1,-2.436790615E-2,-8.828372508E-2
1.932486308E0,-1.944106072E-1,-3.075948730E-2,-9.574057162E-2
1.934974068E0,-2.508696020E-1,-3.289001435E-2,-1.021321490E-1
1.937461829E0,-3.083938360E-1,-3.182475269E-2,-1.063932031E-1
1.939949589E0,-3.637875319E-1,-2.649843320E-2,-1.085237339E-1
1.942437350E0,-4.181159735E-1,-1.691105962E-2,-1.053279415E-1
1.944925110E0,-4.671181142E-1,-4.127896391E-3,-9.787109494E-2
1.947412871E0,-5.118591785E-1,1.185105834E-2,-8.295740932E-2
1.949900631E0,-5.512739420E-1,3.315633163E-2,-6.378266215E-2
1.952388391E0,-5.864276290E-1,5.765739456E-2,-4.034686089E-2
1.954876152E0,-6.151897311E-1,8.428898454E-2,-1.371526904E-2
1.957363912E0,-6.375603080E-1,1.130511016E-1,1.398158539E-2
1.959851673E0,-6.546044946E-1,1.407479644E-1,3.954791278E-2
1.962339433E0,-6.652571559E-1,1.663142890E-1,6.298371404E-2
1.964827193E0,-6.695181727E-1,1.854890287E-1,8.109319210E-2
1.967314954E0,-6.695181727E-1,2.004027218E-1,9.281109273E-2
1.969802714E0,-6.631265879E-1,2.099900991E-1,9.707214683E-2
1.972290475E0,-6.535392404E-1,2.163816839E-1,9.494162351E-2
1.974778235E0,-6.375603080E-1,2.206427306E-1,8.535424620E-2
1.977265996E0,-6.183855534E-1,2.249037921E-1,7.150582224E-2
1.979753756E0,-5.938844681E-1,2.312953621E-1,5.126581341E-2
1.982241516E0,-5.661876202E-1,2.398174703E-1,2.463422157E-2
1.984729277E0,-5.352949500E-1,2.504701018E-1,-5.193160381E-3
1.987217037E0,-5.022718310E-1,2.611227632E-1,-4.034686089E-2
1.989704798E0,-4.681833684E-1,2.717753947E-1,-7.869634777E-2
1.992192558E0,-4.340949357E-1,2.792322338E-1,-1.191763729E-1
1.994680318E0,-4.000065029E-1,2.845585644E-1,-1.628521830E-1
1.997168079E0,-3.680485785E-1,2.856238186E-1,-2.054627240E-1
1.999655839E0,-3.403517306E-1,2.845585644E-1,-2.491385341E-1
2.002143600E0,-3.169159293E-1,2.792322338E-1,-2.906838059E-1
2.004631360E0,-2.977411747E-1,2.717753947E-1,-3.300985694E-1
2.007119121E0,-2.838927507E-1,2.621880174E-1,-3.652522564E-1
2.009606881E0,-2.753706574E-1,2.515353858E-1,-3.940143883E-1
2.012094641E0,-2.721748650E-1,2.398174703E-1,-4.153196514E-1
2.014582402E0,-2.743053734E-1,2.302301079E-1,-4.281028211E-1
2.017070162E0,-2.806969583E-1,2.238385230E-1,-4.355596602E-1
2.019557923E0,-2.934801280E-1,2.195774615E-1,-4.355596602E-1
2.022045683E0,-3.094590902E-1,2.206427306E-1,-4.302333593E-1
2.024533443E0,-3.286338449E-1,2.302301079E-1,-4.195807278E-1
2.027021204E0,-3.520696461E-1,2.472743243E-1,-4.067975581E-1
2.029508964E0,-3.755054474E-1,2.728406489E-1,-3.897533417E-1
2.031996725E0,-4.000065029E-1,3.005374968E-1,-3.705785871E-1
2.034484485E0,-4.213117659E-1,3.314301372E-1,-3.471427858E-1
2.036972246E0,-4.404865205E-1,3.601922691E-1,-3.183806837E-1
2.039460006E0,-4.543349445E-1,3.857586086E-1,-2.842922211E-1
2.041947766E0,-4.649875760E-1,4.070638716E-1,-2.448774725E-1
2.044435527E0,-4.703139067E-1,4.241080880E-1,-2.043974549E-1
2.046923287E0,-4.703139067E-1,4.368912578E-1,-1.639174372E-1
2.049411048E0,-4.649875760E-1,4.486091435E-1,-1.266332120E-1
2.051898808E0,-4.543349445E-1,4.603270590E-1,-9.361004084E-2
2.054386568E0,-4.383559823E-1,4.709796906E-1,-6.484792382E-2
2.056874329E0,-4.181159735E-1,4.826975763E-1,-4.460791498E-2
2.059362089E0,-3.925496638E-1,4.944154918E-1,-3.182475269E-2
2.061849850E0,-3.627222776E-1,5.050681233E-1,-2.649843320E-2
2.064337610E0,-3.265033066E-1,5.125249624E-1,-3.075948730E-2
2.066825371E0,-2.849580348E-1,5.178512931E-1,-4.247738793E-2
2.069313131E0,-2.391516864E-1,5.199818015E-1,-6.058686972E-2
2.071800891E0,-1.901495606E-1,5.157207847E-1,-8.721846342E-2
2.074288652E0,-1.379516423E-1,5.071986318E-1,-1.181111038E-1
2.076776412E0,-8.468846232E-2,4.944154918E-1,-1.532648057E-1
2.079264173E0,-3.142527863E-2,4.763059914E-1,-1.926795542E-1
2.081751933E0,2.077264152E-2,4.571312666E-1,-2.363553643E-1
2.084239693E0,6.977476925E-2,4.347607195E-1,-2.832269669E-1
2.086727454E0,1.177116334E-1,4.123901725E-1,-3.311638236E-1
2.089215214E0,1.613874435E-1,3.889544010E-1,-3.791007102E-1
2.091702975E0,2.029327303E-1,3.644533157E-1,-4.270375669E-1
2.094190735E0,2.402169555E-1,3.399522603E-1,-4.707133770E-1
2.096678496E0,2.721748650E-1,3.143859208E-1,-5.111933947E-1
2.099166256E0,2.988064587E-1,2.898848653E-1,-5.442165732E-1
2.101654016E0,3.201117218E-1,2.685796022E-1,-5.697829127E-1
2.104141777E0,3.339601457E-1,2.483395934E-1,-5.900229216E-1
2.106629537E0,3.414169848E-1,2.302301079E-1,-6.006755233E-1
2.109117298E0,3.414169848E-1,2.153164148E-1,-6.049365997E-1
2.111605058E0,3.318296373E-1,2.046637833E-1,-6.006755233E-1
2.114092818E0,3.137201369E-1,1.993374527E-1,-5.921534300E-1
2.116580579E0,2.870885432E-1,2.014679909E-1,-5.793702602E-1
2.119068339E0,2.519348562E-1,2.121206224E-1,-5.612607598E-1
2.121556100E0,2.093243003E-1,2.291648388E-1,-5.420860648E-1
2.124043860E0,1.613874435E-1,2.515353858E-1,-5.175849795E-1
2.126531621E0,1.102547869E-1,2.781669796E-1,-4.888228476E-1
2.129019381E0,6.018739566E-2,3.037332892E-1,-4.557996690E-1
2.131507141E0,1.012000442E-2,3.271690905E-1,-4.185154438E-1
2.133994902E0,-3.675159439E-2,3.484743834E-1,-3.801659644E-1
2.136482662E0,-7.936213911E-2,3.665838540E-1,-3.407512009E-1
2.138970423E0,-1.177116334E-1,3.825628161E-1,-3.013364673E-1
2.141458183E0,-1.496695429E-1,3.953459561E-1,-2.651174963E-1
2.143945943E0,-1.763011366E-1,4.081291258E-1,-2.299637944E-1
2.146433704E0,-1.954758763E-1,4.198470414E-1,-1.990711391E-1
2.148921464E0,-2.050632536E-1,4.336954653E-1,-1.713742912E-1
2.151409225E0,-2.071937770E-1,4.475438893E-1,-1.490037590E-1
2.153896985E0,-1.997369379E-1,4.613923132E-1,-1.330247968E-1
2.156384746E0,-1.826927215E-1,4.741754830E-1,-1.245026886E-1
2.158872506E0,-1.560611278E-1,4.848281145E-1,-1.234374270E-1
2.161360266E0,-1.230379492E-1,4.912196994E-1,-1.308942735E-1
2.163848027E0,-8.362319320E-2,4.944154918E-1,-1.468732208E-1
2.166335787E0,-3.781685978E-2,4.912196994E-1,-1.703090221E-1
2.168823548E0,1.012000442E-2,4.848281145E-1,-2.012016773E-1
2.171311308E0,5.805686861E-2,4.741754830E-1,-2.374206334E-1
2.173799068E0,1.059937328E-1,4.581965208E-1,-2.779006660E-1
2.176286829E0,1.528653353E-1,4.400870502E-1,-3.215764761E-1
2.178774589E0,1.954758763E-1,4.187817574E-1,-3.663175404E-1
2.181262350E0,2.348906398E-1,3.953459561E-1,-4.099933505E-1
2.183750110E0,2.668485343E-1,3.708449006E-1,-4.515386224E-1
2.186237871E0,2.934801280E-1,3.442133069E-1,-4.888228476E-1
2.188725631E0,3.126548827E-1,3.186469972E-1,-5.218459964E-1
2.191213391E0,3.211769760E-1,2.952111959E-1,-5.516734123E-1
2.193701152E0,3.222422600E-1,2.760364413E-1,-5.761744976E-1
2.196188912E0,3.137201369E-1,2.621880174E-1,-5.953491926E-1
2.198676673E0,2.945453823E-1,2.536658943E-1,-6.102629304E-1
2.201164433E0,2.647180259E-1,2.504701018E-1,-6.219807863E-1
2.203652193E0,2.284990549E-1,2.526006401E-1,-6.273071170E-1
2.206139954E0,1.858884990E-1,2.557964325E-1,-6.273071170E-1
2.208627714E0,1.400821656E-1,2.600574791E-1,-6.219807863E-1
2.211115475E0,9.321057051E-2,2.621880174E-1,-6.102629304E-1
2.213603235E0,4.740423337E-2,2.621880174E-1,-5.910881758E-1
2.216090996E0,2.663159044E-3,2.579269707E-1,-5.665870905E-1
2.218578756E0,-3.888212144E-2,2.504701018E-1,-5.367597342E-1
2.221066516E0,-7.723161578E-2,2.419480085E-1,-5.048018098E-1
2.223554277E0,-1.081242561E-1,2.344911546E-1,-4.728438854E-1
2.226042037E0,-1.336905807E-1,2.312953621E-1,-4.408859909E-1
2.228529798E0,-1.528653353E-1,2.302301079E-1,-4.131891429E-1
2.231017558E0,-1.667137593E-1,2.344911546E-1,-3.876228034E-1
2.233505318E0,-1.731053442E-1,2.419480085E-1,-3.641870022E-1
2.235993079E0,-1.720400751E-1,2.536658943E-1,-3.439469934E-1
2.238480839E0,-1.656484902E-1,2.653838098E-1,-3.279680312E-1
2.240968600E0,-1.539305896E-1,2.781669796E-1,-3.141196072E-1
2.243456360E0,-1.368863732E-1,2.888196111E-1,-3.034669757E-1
2.245944121E0,-1.145158410E-1,2.952111959E-1,-2.970753908E-1
2.248431881E0,-8.894951642E-2,2.973417044E-1,-2.917490900E-1
2.250919641E0,-6.231792271E-2,2.952111959E-1,-2.896185517E-1
2.253407402E0,-3.355580568E-2,2.888196111E-1,-2.874880135E-1
2.255895162E0,-4.793686327E-3,2.781669796E-1,-2.896185517E-1
2.258382923E0,2.290316857E-2,2.643185556E-1,-2.938795984E-1
2.260870683E0,4.953476042E-2,2.483395934E-1,-3.013364673E-1
2.263358443E0,7.297056168E-2,2.291648388E-1,-3.087933064E-1
2.265846204E0,9.427583218E-2,2.099900991E-1,-3.205111921E-1
2.268333964E0,1.134505793E-1,1.908153445E-1,-3.332943618E-1
2.270821725E0,1.283642650E-1,1.705753356E-1,-3.492733240E-1
2.273309485E0,1.400821656E-1,1.514005959E-1,-3.673827946E-1
2.275797246E0,1.486042738E-1,1.322258562E-1,-3.854922652E-1
2.278285006E0,1.560611278E-1,1.151816323E-1,-4.046670198E-1
2.280772766E0,1.603221744E-1,9.920267761E-2,-4.227765203E-1
2.283260527E0,1.624527127E-1,8.322372288E-2,-4.387554526E-1
2.285748287E0,1.635179669E-1,7.044056058E-2,-4.526038766E-1
2.288236048E0,1.635179669E-1,5.765739456E-2,-4.643217921E-1
2.290723808E0,1.624527127E-1,4.913528636E-2,-4.728438854E-1
2.293211568E0,1.613874435E-1,4.380896688E-2,-4.771049619E-1
2.295699329E0,1.603221744E-1,4.167843983E-2,-4.792354703E-1
2.298187089E0,1.592569202E-1,4.167843983E-2,-4.781702161E-1
2.300674850E0,1.592569202E-1,4.593949392E-2,-4.749744236E-1
2.303162610E0,1.592569202E-1,5.339634046E-2,-4.696480930E-1
2.305650371E0,1.581916511E-1,6.404897571E-2,-4.611259997E-1
2.308138131E0,1.571263820E-1,7.789740711E-2,-4.515386224E-1
2.310625891E0,1.560611278E-1,9.494162351E-2,-4.419512451E-1
2.313113652E0,1.549958587E-1,1.141163707E-1,-4.312986135E-1
2.315601412E0,1.539305896E-1,1.364869028E-1,-4.217112362E-1
2.318089173E0,1.507348120E-1,1.599227041E-1,-4.121238589E-1
2.320576933E0,1.454084814E-1,1.833585054E-1,-4.036017656E-1
2.323064693E0,1.390169114E-1,2.089248300E-1,-3.972101808E-1
2.325552454E0,1.294295341E-1,2.355564237E-1,-3.929491341E-1
2.328040214E0,1.177116334E-1,2.643185556E-1,-3.886880577E-1
2.330527975E0,1.017326787E-1,2.920154035E-1,-3.844270110E-1
2.333015735E0,8.255793154E-2,3.186469972E-1,-3.791007102E-1
2.335503496E0,6.018739566E-2,3.442133069E-1,-3.737743795E-1
2.337991256E0,3.568633273E-2,3.665838540E-1,-3.652522564E-1
2.340479016E0,7.989477366E-3,3.846933246E-1,-3.556649089E-1
2.342966777E0,-2.077264152E-2,3.985417485E-1,-3.428817391E-1
2.345454537E0,-5.273054913E-2,4.059986174E-1,-3.279680312E-1
2.347942298E0,-8.468846232E-2,4.081291258E-1,-3.119890988E-1
2.350430058E0,-1.177116334E-1,4.049333334E-1,-2.960101366E-1
2.352917818E0,-1.496695429E-1,3.974764943E-1,-2.800311744E-1
2.355405579E0,-1.816274524E-1,3.878891170E-1,-2.661827505E-1
2.357893339E0,-2.125200927E-1,3.772364855E-1,-2.565953732E-1
2.360381100E0,-2.412822098E-1,3.644533157E-1,-2.491385341E-1
2.362868860E0,-2.668485343E-1,3.506048918E-1,-2.448774725E-1
2.365356621E0,-2.892190814E-1,3.388870060E-1,-2.438122183E-1
2.367844381E0,-3.062632978E-1,3.271690905E-1,-2.459427416E-1
2.370332141E0,-3.190464675E-1,3.165164590E-1,-2.512690723E-1
2.372819902E0,-3.275685608E-1,3.058638275E-1,-2.576606572E-1
2.375307662E0,-3.307643533E-1,2.984069884E-1,-2.661827505E-1
2.377795423E0,-3.275685608E-1,2.909501195E-1,-2.779006660E-1
2.380283183E0,-3.179811835E-1,2.856238186E-1,-2.896185517E-1
2.382770943E0,-3.009369671E-1,2.824280262E-1,-3.034669757E-1
2.385258704E0,-2.764359117E-1,2.813627720E-1,-3.173153996E-1
2.387746464E0,-2.455432713E-1,2.824280262E-1,-3.300985694E-1
2.390234225E0,-2.093243003E-1,2.856238186E-1,-3.428817391E-1
2.392721985E0,-1.699095517E-1,2.909501195E-1,-3.535343707E-1
2.395209746E0,-1.272990108E-1,2.973417044E-1,-3.620564938E-1
2.397697506E0,-8.362319320E-2,3.058638275E-1,-3.684480488E-1
2.400185266E0,-3.888212144E-2,3.154512048E-1,-3.716438413E-1
2.402673027E0,4.793686327E-3,3.250385821E-1,-3.737743795E-1
2.405160787E0,4.527370632E-2,3.356912136E-1,-3.727091253E-1
2.407648548E0,8.149266988E-2,3.452785909E-1,-3.695133328E-1
2.410136308E0,1.134505793E-1,3.538006842E-1,-3.631217480E-1
2.412624068E0,1.390169114E-1,3.612575233E-1,-3.524691164E-1
2.415111829E0,1.592569202E-1,3.676491082E-1,-3.386206925E-1
2.417599589E0,1.731053442E-1,3.729754388E-1,-3.237069845E-1
2.420087350E0,1.816274524E-1,3.783017397E-1,-3.055975139E-1
2.422575110E0,1.837579757E-1,3.836280704E-1,-2.864227593E-1
2.425062871E0,1.816274524E-1,3.910849094E-1,-2.693785429E-1
2.427550631E0,1.752358675E-1,4.006722867E-1,-2.512690723E-1
2.430038391E0,1.645832360E-1,4.145207107E-1,-2.363553643E-1
2.432526152E0,1.507348120E-1,4.315649271E-1,-2.235722095E-1
2.435013912E0,1.347558498E-1,4.507396817E-1,-2.129195631E-1
2.437501673E0,1.155811027E-1,4.720449448E-1,-2.033322006E-1
2.439989433E0,9.534109384E-2,4.965460002E-1,-1.980058849E-1
2.442477193E0,7.403582335E-2,5.221123695E-1,-1.926795542E-1
2.444964954E0,5.273054913E-2,5.476786494E-1,-1.894837767E-1
2.447452714E0,3.142527863E-2,5.721797347E-1,-1.884185076E-1
2.449940475E0,1.012000442E-2,5.945502520E-1,-1.873532385E-1
2.452428235E0,-1.118526794E-2,6.115944982E-1,-1.894837767E-1
2.454915996E0,-2.929474972E-2,6.254429221E-1,-1.926795542E-1
2.457403756E0,-4.633896798E-2,6.328997612E-1,-1.969406158E-1
2.459891516E0,-6.018739566E-2,6.350302696E-1,-2.012016773E-1
2.462379277E0,-7.297056168E-2,6.318345070E-1,-2.065279931E-1
2.464867037E0,-8.362319320E-2,6.254429221E-1,-2.129195631E-1
2.467354798E0,-9.108003974E-2,6.147902608E-1,-2.203764170E-1
2.469842558E0,-9.534109384E-2,5.998765826E-1,-2.288985252E-1
2.472330318E0,-9.640636295E-2,5.828323960E-1,-2.384859025E-1
2.474818079E0,-9.427583218E-2,5.604618192E-1,-2.480732650E-1
2.477305839E0,-9.108003974E-2,5.327649713E-1,-2.597911656E-1
2.479793600E0,-8.362319320E-2,5.018723607E-1,-2.715090811E-1
2.482281360E0,-7.723161578E-2,4.709796906E-1,-2.842922211E-1
2.484769121E0,-6.870950758E-2,4.368912578E-1,-2.970753908E-1
2.487256881E0,-6.018739566E-2,4.017375410E-1,-3.098585606E-1
2.489744641E0,-5.166528746E-2,3.665838540E-1,-3.226417303E-1
2.492232402E0,-4.314317927E-2,3.314301372E-1,-3.364901543E-1
2.494720162E0,-3.462106735E-2,2.962764502E-1,-3.492733240E-1
2.497207923E0,-2.609895915E-2,2.643185556E-1,-3.620564938E-1
2.499695683E0,-1.864211448E-2,2.344911546E-1,-3.727091253E-1
2.502183443E0,-1.118526794E-2,2.078595608E-1,-3.822965026E-1
2.504671204E0,-3.728422802E-3,1.844237745E-1,-3.876228034E-1
2.507158964E0,3.728422802E-3,1.652490199E-1,-3.908185959E-1
2.509646725E0,1.118526794E-2,1.503353268E-1,-3.908185959E-1
2.512134485E0,1.970737800E-2,1.418132186E-1,-3.886880577E-1
2.514622246E0,2.716422267E-2,1.375521719E-1,-3.844270110E-1
2.517110006E0,3.568633273E-2,1.386174262E-1,-3.791007102E-1
2.519597766E0,4.527370632E-2,1.450090110E-1,-3.727091253E-1
2.522085527E0,5.486107618E-2,1.556616426E-1,-3.673827946E-1
2.524573287E0,6.764423847E-2,1.705753356E-1,-3.620564938E-1
2.527061048E0,8.042740822E-2,1.886848211E-1,-3.567301631E-1
2.529548808E0,9.427583218E-2,2.089248300E-1,-3.524691164E-1
2.532036568E0,1.102547869E-1,2.280995846E-1,-3.492733240E-1
2.534524329E0,1.283642650E-1,2.472743243E-1,-3.460775316E-1
2.537012089E0,1.464737505E-1,2.643185556E-1,-3.418164849E-1
2.539499850E0,1.667137593E-1,2.781669796E-1,-3.375554085E-1
2.541987610E0,1.869537681E-1,2.888196111E-1,-3.332943618E-1
2.544475371E0,2.103895694E-1,2.941459119E-1,-3.290333152E-1
2.546963131E0,2.338253707E-1,2.962764502E-1,-3.237069845E-1
2.549450891E0,2.583264410E-1,2.930806577E-1,-3.194459379E-1
2.551938652E0,2.860232890E-1,2.866890728E-1,-3.151848912E-1
2.554426412E0,3.147853911E-1,2.760364413E-1,-3.098585606E-1
2.556914173E0,3.435475230E-1,2.632532716E-1,-3.055975139E-1
2.559401933E0,3.744401634E-1,2.494048476E-1,-2.992059290E-1
2.561889693E0,4.053328037E-1,2.334259003E-1,-2.928143442E-1
2.564377454E0,4.362254739E-1,2.185122073E-1,-2.853575051E-1
2.566865214E0,4.681833684E-1,2.035985142E-1,-2.789659202E-1
2.569352975E0,4.980107546E-1,1.897500902E-1,-2.725743353E-1
2.571840735E0,5.278381109E-1,1.759016514E-1,-2.672480047E-1
2.574328496E0,5.544697046E-1,1.631184965E-1,-2.640522122E-1
2.576816256E0,5.800360441E-1,1.514005959E-1,-2.597911656E-1
2.579304016E0,6.024065614E-1,1.396826953E-1,-2.576606572E-1
2.581791777E0,6.247771382E-1,1.268995255E-1,-2.555301189E-1
2.584279537E0,6.428865790E-1,1.098553166E-1,-2.502037883E-1
2.586767298E0,6.599308252E-1,8.961530030E-2,-2.448774725E-1
2.589255058E0,6.727139950E-1,6.404897571E-2,-2.363553643E-1
2.591742818E0,6.833665967E-1,3.528685868E-2,-2.267680019E-1
2.594230579E0,6.897581816E-1,2.263685223E-3,-2.150501013E-1
2.596718339E0,6.929540038E-1,-3.289001435E-2,-2.022669315E-1
2.599206100E0,6.918887496E-1,-7.017423958E-2,-1.884185076E-1
2.601693860E0,6.886929274E-1,-1.063932031E-1,-1.735048145E-1
2.604181621E0,6.812360883E-1,-1.415469050E-1,-1.585911214E-1
2.606669381E0,6.705834866E-1,-1.735048145E-1,-1.458079666E-1
2.609157141E0,6.578003168E-1,-2.022669315E-1,-1.351553202E-1
2.611644902E0,6.407560706E-1,-2.267680019E-1,-1.287637353E-1
2.614132662E0,6.226465702E-1,-2.480732650E-1,-1.245026886E-1
2.616620423E0,6.034718752E-1,-2.640522122E-1,-1.213068962E-1
2.619108183E0,5.821665525E-1,-2.789659202E-1,-1.213068962E-1
2.621595943E0,5.608612895E-1,-2.906838059E-1,-1.223721579E-1
2.624083704E0,5.395560265E-1,-2.981406748E-1,-1.255679578E-1
2.626571464E0,5.161202550E-1,-2.970753908E-1,-1.308942735E-1
2.629059225E0,4.916191697E-1,-2.885532975E-1,-1.383511126E-1
2.631546985E0,4.628570378E-1,-2.736395895E-1,-1.458079666E-1
2.634034746E0,4.330296814E-1,-2.523343265E-1,-1.543300748E-1
2.636522506E0,4.010717571E-1,-2.278332561E-1,-1.639174372E-1
2.639010266E0,3.680485785E-1,-2.012016773E-1,-1.724395454E-1
2.641498027E0,3.350254297E-1,-1.745700836E-1,-1.809616536E-1
2.643985787E0,3.020022511E-1,-1.500690132E-1,-1.884185076E-1
2.646473548E0,2.689790726E-1,-1.298290044E-1,-1.926795542E-1
2.648961308E0,2.348906398E-1,-1.149153188E-1,-1.958753467E-1
2.651449068E0,2.018674612E-1,-1.063932031E-1,-1.958753467E-1
2.653936829E0,1.667137593E-1,-1.042626798E-1,-1.948100924E-1
2.656424589E0,1.326253265E-1,-1.085237339E-1,-1.916143000E-1
2.658912350E0,9.853688627E-2,-1.159805804E-1,-1.884185076E-1
2.661400110E0,6.657897681E-2,-1.287637353E-1,-1.852227151E-1
2.663887871E0,3.675159439E-2,-1.436774284E-1,-1.820269227E-1
2.666375631E0,9.054740891E-3,-1.585911214E-1,-1.798963994E-1
2.668863391E0,-1.651158556E-2,-1.756353378E-1,-1.788311303E-1
2.671351152E0,-3.888212144E-2,-1.916143000E-1,-1.798963994E-1
2.673838912E0,-5.699160323E-2,-2.065279931E-1,-1.830921918E-1
2.676326673E0,-7.084003091E-2,-2.214416862E-1,-1.873532385E-1
2.678814433E0,-8.042740822E-2,-2.374206334E-1,-1.926795542E-1
2.681302193E0,-8.468846232E-2,-2.523343265E-1,-1.990711391E-1
2.683789954E0,-8.575372398E-2,-2.683132887E-1,-2.054627240E-1
2.686277714E0,-8.362319320E-2,-2.842922211E-1,-2.118543088E-1
2.688765475E0,-7.936213911E-2,-2.970753908E-1,-2.182458937E-1
2.691253235E0,-7.190529257E-2,-3.098585606E-1,-2.246374637E-1
2.693740996E0,-6.125266105E-2,-3.194459379E-1,-2.310290486E-1
2.696228756E0,-4.953476042E-2,-3.290333152E-1,-2.363553643E-1
2.698716516E0,-3.675159439E-2,-3.354249001E-1,-2.406164259E-1
2.701204277E0,-2.183790505E-2,-3.418164849E-1,-2.438122183E-1
2.703692037E0,-7.989477366E-3,-3.492733240E-1,-2.470080107E-1
2.706179798E0,5.858949851E-3,-3.609912097E-1,-2.459427416E-1
2.708667558E0,2.183790505E-2,-3.780354261E-1,-2.384859025E-1
2.711155318E0,3.675159439E-2,-4.057323039E-1,-2.246374637E-1
2.713643079E0,5.166528746E-2,-4.451470375E-1,-2.001364082E-1
2.716130839E0,6.870950758E-2,-4.962796867E-1,-1.671132296E-1
2.718618600E0,8.681898564E-2,-5.559344888E-1,-1.234374270E-1
2.721106360E0,1.059937328E-1,-6.187850237E-1,-7.337003201E-2
2.723594121E0,1.272990108E-1,-6.656566262E-1,-2.223737910E-2
2.726081881E0,1.464737505E-1,-6.795050502E-1,2.143843099E-2
2.728569641E0,1.592569202E-1,-6.390250325E-1,5.020054802E-2
2.731057402E0,1.613874435E-1,-5.399554968E-1,5.552686751E-2
2.733545162E0,1.496695429E-1,-3.993407190E-1,3.954791278E-2
2.736032923E0,1.198421568E-1,-2.427469492E-1,5.459476262E-3
2.738520683E0,7.403582335E-2,-9.574057162E-2,-3.608580679E-2
2.741008443E0,1.651158556E-2,2.569948509E-2,-7.443529367E-2
2.743496204E0,-4.633896798E-2,1.130511016E-1,-1.021321490E-1
2.745983964E0,-1.091895252E-1,1.663142890E-1,-1.138500497E-1
2.748471725E0,-1.635179669E-1,1.886848211E-1,-1.085237339E-1
2.750959485E0,-2.071937770E-1,1.854890287E-1,-8.828372508E-2
2.753447246E0,-2.370211631E-1,1.631184965E-1,-5.419528857E-2
2.755935006E0,-2.540653646E-1,1.247690022E-1,-1.051947847E-2
2.758422766E0,-2.583264410E-1,7.257108390E-2,3.954791278E-2
2.760910527E0,-2.530001104E-1,1.078579482E-2,9.387636185E-2
2.763398287E0,-2.402169555E-1,-5.845634267E-2,1.514005959E-1
2.765886048E0,-2.210422009E-1,-1.287637353E-1,2.078595608E-1
2.768373808E0,-1.954758763E-1,-1.948100924E-1,2.611227632E-1
2.770861568E0,-1.656484902E-1,-2.502037883E-1,3.101248741E-1
2.773349329E0,-1.294295341E-1,-2.928143442E-1,3.506048918E-1
2.775837089E0,-8.681898564E-2,-3.205111921E-1,3.846933246E-1
2.778324850E0,-3.888212144E-2,-3.343596160E-1,4.081291258E-1
2.780812610E0,1.118526794E-2,-3.375554085E-1,4.209122956E-1
2.783300371E0,6.231792271E-2,-3.311638236E-1,4.219775498E-1
2.785788131E0,1.123853177E-1,-3.183806837E-1,4.134554565E-1
2.788275891E0,1.603221744E-1,-3.045322299E-1,3.953459561E-1
2.790763652E0,2.029327303E-1,-2.906838059E-1,3.708449006E-1
2.793251412E0,2.402169555E-1,-2.789659202E-1,3.410175145E-1
2.795739173E0,2.721748650E-1,-2.693785429E-1,3.101248741E-1
2.798226933E0,2.977411747E-1,-2.629869580E-1,2.781669796E-1
2.800714693E0,3.179811835E-1,-2.619217038E-1,2.472743243E-1
2.803202454E0,3.328948915E-1,-2.651174963E-1,2.174469382E-1
2.805690214E0,3.424822688E-1,-2.736395895E-1,1.897500902E-1
2.808177975E0,3.456780612E-1,-2.874880135E-1,1.663142890E-1
2.810665735E0,3.446127772E-1,-3.066627681E-1,1.450090110E-1
2.813153496E0,3.382211924E-1,-3.279680312E-1,1.290300637E-1
2.815641256E0,3.265033066E-1,-3.545996249E-1,1.151816323E-1
2.818129016E0,3.105243444E-1,-3.833617568E-1,1.045289934E-1
2.820616777E0,2.924148738E-1,-4.110586047E-1,9.494162351E-2
2.823104537E0,2.700443268E-1,-4.376901984E-1,8.641951531E-2
2.825592298E0,2.455432713E-1,-4.621912539E-1,7.896266878E-2
2.828080058E0,2.178464085E-1,-4.824312627E-1,7.257108390E-2
2.830567818E0,1.901495606E-1,-4.973449707E-1,6.617950648E-2
2.833055579E0,1.613874435E-1,-5.069323182E-1,5.978792161E-2
2.835543339E0,1.336905807E-1,-5.111933947E-1,5.233107507E-2
2.838031100E0,1.070589945E-1,-5.111933947E-1,4.487423226E-2
2.840518860E0,8.255793154E-2,-5.090628862E-1,3.848264739E-2
2.843006621E0,6.018739566E-2,-5.037365556E-1,3.209106624E-2
2.845494381E0,4.207791388E-2,-5.005407333E-1,2.783001214E-2
2.847982141E0,2.609895915E-2,-4.962796867E-1,2.356895804E-2
2.850469902E0,1.331579592E-2,-4.952144325E-1,2.143843099E-2
2.852957662E0,4.793686327E-3,-4.952144325E-1,2.143843099E-2
2.855445423E0,-5.326318205E-4,-4.973449707E-1,2.037316747E-2
2.857933183E0,-2.663159044E-3,-4.994754791E-1,2.250369452E-2
2.860420943E0,-5.326318205E-4,-5.026713014E-1,2.569948509E-2
2.862908704E0,5.858949851E-3,-5.048018098E-1,2.996053919E-2
2.865396464E0,1.331579592E-2,-5.048018098E-1,3.315633163E-2
2.867884225E0,2.396843210E-2,-5.026713014E-1,3.741738573E-2
2.870371985E0,3.781685978E-2,-4.952144325E-1,4.061317816E-2
2.872859746E0,5.166528746E-2,-4.824312627E-1,4.061317816E-2
2.875347506E0,6.657897681E-2,-4.611259997E-1,3.848264739E-2
2.877835266E0,8.042740822E-2,-4.302333593E-1,3.315633163E-2
2.880323027E0,9.214530140E-2,-3.886880577E-1,2.356895804E-2
2.882810787E0,9.960214794E-2,-3.375554085E-1,1.078579482E-2
2.885298548E0,1.027979404E-1,-2.789659202E-1,-7.323687430E-3
2.887786308E0,9.960214794E-2,-2.161153555E-1,-2.649843320E-2
2.890274068E0,9.214530140E-2,-1.553953290E-1,-4.567318037E-2
2.892761829E0,7.829687744E-2,-9.787109494E-2,-6.271740049E-2
2.895249589E0,6.125266105E-2,-4.993423447E-2,-7.550056279E-2
2.897737350E0,3.994738683E-2,-1.265000552E-2,-8.295740932E-2
2.900225110E0,1.651158556E-2,1.398158539E-2,-8.508793265E-2
2.902712871E0,-6.924213842E-3,2.889527567E-2,-7.976161689E-2
2.905200631E0,-2.929474972E-2,3.528685868E-2,-7.017423958E-2
2.907688391E0,-5.060002208E-2,3.315633163E-2,-5.419528857E-2
2.910176204E0,-6.977476925E-2,2.250369452E-2,-3.502054140E-2
2.912664016E0,-8.681898564E-2,7.590003312E-3,-1.371526904E-2
2.915151829E0,-1.027979404E-1,-1.158474199E-2,8.655266836E-3
2.917639641E0,-1.155811027E-1,-2.969422378E-2,3.102580272E-2
2.920127454E0,-1.251684725E-1,-4.673844203E-2,5.126581341E-2
2.922615266E0,-1.326253265E-1,-6.058686972E-2,6.937529147E-2
2.925103079E0,-1.368863732E-1,-6.910897791E-2,8.322372288E-2
2.927590891E0,-1.379516423E-1,-7.337003201E-2,9.068056941E-2
2.930078704E0,-1.358211190E-1,-7.337003201E-2,9.707214683E-2
2.932566516E0,-1.304948032E-1,-7.017423958E-2,9.920267761E-2
2.935054329E0,-1.230379492E-1,-6.271740049E-2,9.600688517E-2
2.937542141E0,-1.145158410E-1,-5.419528857E-2,9.068056941E-2
2.940029954E0,-1.049284711E-1,-4.247738793E-2,8.215846121E-2
2.942517766E0,-9.534109384E-2,-2.969422378E-2,7.150582224E-2
2.945005579E0,-8.575372398E-2,-1.584579609E-2,5.978792161E-2
2.947493391E0,-7.723161578E-2,-3.062632866E-3,4.593949392E-2
2.949981204E0,-6.977476925E-2,9.720530361E-3,3.209106624E-2
2.952469016E0,-6.444845349E-2,2.037316747E-2,1.824264042E-2
2.954956829E0,-6.125266105E-2,2.889527567E-2,7.590003312E-3
2.957444641E0,-6.018739566E-2,3.528685868E-2,-9.321057005E-4
2.959932454E0,-6.125266105E-2,3.848264739E-2,-5.193160381E-3
2.962420266E0,-6.338318437E-2,3.954791278E-2,-8.388951421E-3
2.964908079E0,-6.764423847E-2,3.848264739E-2,-7.323687430E-3
2.967395891E0,-7.297056168E-2,3.528685868E-2,-5.193160381E-3
2.969883704E0,-7.936213911E-2,3.102580272E-2,1.331579551E-4
2.972371516E0,-8.894951642E-2,2.569948509E-2,5.459476262E-3
2.974859329E0,-9.853688627E-2,2.037316747E-2,1.291632187E-2
2.977347089E0,-1.081242561E-1,1.611211337E-2,2.143843099E-2
2.979834850E0,-1.177116334E-1,1.185105834E-2,3.209106624E-2
2.982322610E0,-1.272990108E-1,6.524739787E-3,4.274370521E-2
2.984810371E0,-1.347558498E-1,3.328948980E-3,5.446160212E-2
2.987298131E0,-1.400821656E-1,-9.321057005E-4,6.724476814E-2
2.989785891E0,-1.454084814E-1,-4.127896391E-3,8.215846121E-2
2.992273652E0,-1.475390196E-1,-8.388951421E-3,9.920267761E-2
2.994761412E0,-1.475390196E-1,-1.265000552E-2,1.173121557E-1
2.997249173E0,-1.454084814E-1,-1.691105962E-2,1.364869028E-1
2.999736933E0,-1.411474347E-1,-2.010685205E-2,1.556616426E-1
3.002224693E0,-1.358211190E-1,-2.010685205E-2,1.737711281E-1
3.004712454E0,-1.272990108E-1,-2.010685205E-2,1.908153445E-1
3.007200214E0,-1.187768951E-1,-1.797632314E-2,2.067943066E-1
3.009687975E0,-1.091895252E-1,-1.371526904E-2,2.185122073E-1
3.012175735E0,-9.960214794E-2,-8.388951421E-3,2.291648388E-1
3.014663496E0,-9.001477808E-2,-1.997369342E-3,2.366216928E-1
3.017151256E0,-8.042740822E-2,5.459476262E-3,2.419480085E-1
3.019639016E0,-7.190529257E-2,1.398158539E-2,2.451438010E-1
3.022126777E0,-6.444845349E-2,2.250369452E-2,2.462090552E-1
3.024614537E0,-5.805686861E-2,3.102580272E-2,2.472743243E-1
3.027102298E0,-5.273054913E-2,3.954791278E-2,2.483395934E-1
3.029590058E0,-4.953476042E-2,4.807002097E-2,2.472743243E-1
3.032077818E0,-4.740423337E-2,5.552686751E-2,2.451438010E-1
3.034565579E0,-4.846949503E-2,6.511423737E-2,2.440785319E-1
3.037053339E0,-5.273054913E-2,7.363634557E-2,2.430132627E-1
3.039541100E0,-5.912213027E-2,8.322372288E-2,2.398174703E-1
3.042028860E0,-6.870950758E-2,9.281109273E-2,2.376869470E-1
3.044516621E0,-8.255793154E-2,1.013332009E-1,2.355564237E-1
3.047004381E0,-9.853688627E-2,1.077247858E-1,2.344911546E-1
3.049492141E0,-1.166463718E-1,1.130511016E-1,2.334259003E-1
3.051979902E0,-1.379516423E-1,1.151816323E-1,2.344911546E-1
3.054467662E0,-1.603221744E-1,1.151816323E-1,2.387522161E-1
3.056955423E0,-1.826927215E-1,1.130511016E-1,2.451438010E-1
3.059443183E0,-2.039979845E-1,1.066595241E-1,2.526006401E-1
3.061930943E0,-2.263685167E-1,9.813741595E-2,2.632532716E-1
3.064418704E0,-2.466085255E-1,8.641951531E-2,2.749711871E-1
3.066906464E0,-2.647180259E-1,7.470161468E-2,2.909501195E-1
3.069394225E0,-2.806969583E-1,6.085318699E-2,3.079943359E-1
3.071881985E0,-2.945453823E-1,4.700475931E-2,3.292996287E-1
3.074369746E0,-3.041327596E-1,3.209106624E-2,3.548659384E-1
3.076857506E0,-3.105243444E-1,1.717737690E-2,3.814975321E-1
3.079345266E0,-3.137201369E-1,1.198421582E-3,4.123901725E-1
3.081833027E0,-3.126548827E-1,-1.371526904E-2,4.432828426E-1
3.084320787E0,-3.094590902E-1,-2.756369673E-2,4.773712754E-1
3.086808548E0,-3.030675054E-1,-4.141212255E-2,5.103944540E-1
3.089296308E0,-2.956106663E-1,-5.419528857E-2,5.444828868E-1
3.091784068E0,-2.849580348E-1,-6.378266215E-2,5.764408112E-1
3.094271829E0,-2.743053734E-1,-7.123950869E-2,6.083986759E-1
3.096759589E0,-2.625874877E-1,-7.763108611E-2,6.371608377E-1
3.099247350E0,-2.508696020E-1,-8.189214021E-2,6.627271175E-1
3.101735110E0,-2.380864173E-1,-8.402267098E-2,6.861629486E-1
3.104222871E0,-2.263685167E-1,-8.721846342E-2,7.074682117E-1
3.106710631E0,-2.167811543E-1,-9.147951752E-2,7.255777121E-1
3.109198391E0,-2.061285079E-1,-9.680583328E-2,7.415566444E-1
3.111686152E0,-1.976063997E-1,-1.042626798E-1,7.532745600E-1
3.114173912E0,-1.890842915E-1,-1.117195264E-1,7.628619075E-1
3.116661673E0,-1.816274524E-1,-1.202416345E-1,7.713840604E-1
3.119149433E0,-1.752358675E-1,-1.298290044E-1,7.777756453E-1
3.121637193E0,-1.699095517E-1,-1.415469050E-1,7.820366621E-1
3.124124954E0,-1.645832360E-1,-1.532648057E-1,7.862977386E-1
3.126612714E0,-1.592569202E-1,-1.671132296E-1,7.884282470E-1
3.129100475E0,-1.560611278E-1,-1.820269227E-1,7.894935012E-1
3.131588235E0,-1.528653353E-1,-1.980058849E-1,7.905587554E-1
3.134075996E0,-1.507348120E-1,-2.118543088E-1,7.916240692E-1
3.136563756E0,-1.475390196E-1,-2.278332561E-1,7.937545776E-1
3.139051516E0,-1.475390196E-1,-2.427469492E-1,7.980156541E-1
3.141539277E0,-1.475390196E-1,-2.565953732E-1,8.022766709E-1
3.144027037E0,-1.496695429E-1,-2.683132887E-1,8.086682558E-1
3.146514798E0,-1.539305896E-1,-2.810964286E-1,8.161250949E-1
3.149002558E0,-1.592569202E-1,-2.928143442E-1,8.257125020E-1
3.151490318E0,-1.656484902E-1,-3.034669757E-1,8.352998495E-1
3.153978079E0,-1.741705984E-1,-3.151848912E-1,8.448871970E-1
3.156465839E0,-1.826927215E-1,-3.258375227E-1,8.555398583E-1
3.158953600E0,-1.933453530E-1,-3.386206925E-1,8.672577739E-1
3.161441360E0,-2.039979845E-1,-3.503385782E-1,8.789756894E-1
3.163929121E0,-2.135853618E-1,-3.631217480E-1,8.906935453E-1
3.166416881E0,-2.242379934E-1,-3.769701719E-1,9.024114609E-1
3.168904641E0,-2.327601016E-1,-3.908185959E-1,9.130641222E-1
3.171392402E0,-2.412822098E-1,-4.046670198E-1,9.215862155E-1
3.173880162E0,-2.487390637E-1,-4.174501896E-1,9.290430546E-1
3.176367923E0,-2.561959028E-1,-4.302333593E-1,9.333041310E-1
3.178855683E0,-2.636527419E-1,-4.419512451E-1,9.354346395E-1
3.181343443E0,-2.689790726E-1,-4.515386224E-1,9.343693852E-1
3.183831204E0,-2.721748650E-1,-4.600607455E-1,9.322388172E-1
3.186318964E0,-2.732401192E-1,-4.664523304E-1,9.290430546E-1
3.188806725E0,-2.711096108E-1,-4.717786312E-1,9.247819781E-1
3.191294485E0,-2.657832801E-1,-4.760396779E-1,9.205209613E-1
3.193782246E0,-2.572611570E-1,-4.781702161E-1,9.183903933E-1
3.196270006E0,-2.466085255E-1,-4.781702161E-1,9.162598848E-1
3.198757766E0,-2.338253707E-1,-4.749744236E-1,9.141293764E-1
3.201245527E0,-2.210422009E-1,-4.696480930E-1,9.119988084E-1
3.203733287E0,-2.093243003E-1,-4.632565379E-1,9.088030457E-1
3.206221048E0,-1.976063997E-1,-4.547344148E-1,9.066725373E-1
3.208708808E0,-1.880190372E-1,-4.451470375E-1,9.013462067E-1
3.211196568E0,-1.805621833E-1,-4.355596602E-1,8.949546218E-1
3.213684329E0,-1.763011366E-1,-4.281028211E-1,8.874977827E-1
3.216172089E0,-1.763011366E-1,-4.217112362E-1,8.779103756E-1
3.218659850E0,-1.794969290E-1,-4.163849354E-1,8.651272058E-1
3.221147610E0,-1.869537681E-1,-4.131891429E-1,8.512787819E-1
3.223635371E0,-1.986716688E-1,-4.099933505E-1,8.342345953E-1
3.226123131E0,-2.157158852E-1,-4.078628123E-1,8.182556629E-1
3.228610891E0,-2.370211631E-1,-4.067975581E-1,8.012114167E-1
3.231098652E0,-2.604569495E-1,-4.046670198E-1,7.852324843E-1
3.233586412E0,-2.870885432E-1,-4.025365114E-1,7.692534924E-1
3.236074173E0,-3.137201369E-1,-4.004059732E-1,7.522093058E-1
3.238561933E0,-3.424822688E-1,-3.972101808E-1,7.362303138E-1
3.241049693E0,-3.723096550E-1,-3.950796425E-1,7.213166356E-1
3.243537454E0,-4.000065029E-1,-3.929491341E-1,7.053377032E-1
3.246025214E0,-4.287686050E-1,-3.918838501E-1,6.914892793E-1
3.248512975E0,-4.543349445E-1,-3.908185959E-1,6.765755415E-1
3.251000735E0,-4.799012840E-1,-3.908185959E-1,6.616618633E-1
3.253488496E0,-5.033370852E-1,-3.897533417E-1,6.456829309E-1
3.255976256E0,-5.246423483E-1,-3.897533417E-1,6.275734305E-1
3.258464016E0,-5.427518487E-1,-3.897533417E-1,6.062681675E-1
3.260951777E0,-5.576655269E-1,-3.908185959E-1,5.828323960E-1
3.263439537E0,-5.672528744E-1,-3.940143883E-1,5.562008023E-1
3.265927298E0,-5.725792050E-1,-3.982754350E-1,5.274386406E-1
3.268415058E0,-5.725792050E-1,-4.046670198E-1,4.976112843E-1
3.270902818E0,-5.672528744E-1,-4.131891429E-1,4.667186439E-1
3.273390579E0,-5.587307811E-1,-4.217112362E-1,4.368912578E-1
3.275878339E0,-5.448823571E-1,-4.291680753E-1,4.070638716E-1
3.278366100E0,-5.267728567E-1,-4.366249442E-1,3.793670237E-1
3.280853860E0,-5.065328479E-1,-4.408859909E-1,3.506048918E-1
3.283341621E0,-4.820317924E-1,-4.419512451E-1,3.261038363E-1
3.285829381E0,-4.564654827E-1,-4.376901984E-1,3.016027808E-1
3.288317141E0,-4.277033508E-1,-4.312986135E-1,2.792322338E-1
3.290804902E0,-3.978759646E-1,-4.217112362E-1,2.600574791E-1
3.293292662E0,-3.680485785E-1,-4.110586047E-1,2.430132627E-1
3.295780423E0,-3.392864764E-1,-3.982754350E-1,2.280995846E-1
3.298268183E0,-3.115896285E-1,-3.854922652E-1,2.174469382E-1
3.300755943E0,-2.870885432E-1,-3.737743795E-1,2.089248300E-1
3.303243704E0,-2.679138184E-1,-3.609912097E-1,2.035985142E-1
3.305731464E0,-2.540653646E-1,-3.503385782E-1,2.004027218E-1
3.308219225E0,-2.476737946E-1,-3.407512009E-1,2.004027218E-1
3.310706985E0,-2.508696020E-1,-3.311638236E-1,2.025332451E-1
3.313194746E0,-2.615222335E-1,-3.226417303E-1,2.067943066E-1
3.315682506E0,-2.828274965E-1,-3.162501454E-1,2.142511457E-1
3.318170266E0,-3.126548827E-1,-3.119890988E-1,2.238385230E-1
3.320658027E0,-3.531349003E-1,-3.109238148E-1,2.334259003E-1
3.323145787E0,-4.010717571E-1,-3.130543530E-1,2.430132627E-1
3.325633548E0,-4.554001987E-1,-3.194459379E-1,2.526006401E-1
3.328121308E0,-5.161202550E-1,-3.300985694E-1,2.611227632E-1
3.330609068E0,-5.821665525E-1,-3.428817391E-1,2.696448565E-1
3.333096829E0,-6.492781639E-1,-3.599259555E-1,2.792322338E-1
3.335584589E0,-7.174550891E-1,-3.791007102E-1,2.888196111E-1
3.338072350E0,-7.845667005E-1,-3.993407190E-1,2.984069884E-1
3.340560110E0,-8.484824896E-1,-4.217112362E-1,3.069290817E-1
3.343047871E0,-9.070720077E-1,-4.440817833E-1,3.143859208E-1
3.345535631E0,-9.582046270E-1,-4.675175846E-1,3.186469972E-1
3.348023391E0,-9.997498989E-1,-4.920186400E-1,3.175817132E-1
3.350511152E0,-1.031707883E0,-5.175849795E-1,3.111901283E-1
3.352998912E0,-1.051947832E0,-5.420860648E-1,2.962764502E-1
3.355486673E0,-1.059404731E0,-5.665870905E-1,2.739059031E-1
3.357974433E0,-1.054078341E0,-5.889576077E-1,2.419480085E-1
3.360462193E0,-1.033838391E0,-6.091976166E-1,2.014679909E-1
3.362949954E0,-1.001880407E0,-6.262418628E-1,1.514005959E-1
3.365437714E0,-9.539436102E-1,-6.379597783E-1,9.387636185E-2
3.367925475E0,-8.942888379E-1,-6.454166174E-1,2.889527567E-2
3.370413235E0,-8.218508959E-1,-6.464818716E-1,-4.247738793E-2
3.372900996E0,-7.376950979E-1,-6.422207952E-1,-1.159805804E-1
3.375388756E0,-6.428865790E-1,-6.305029392E-1,-1.916143000E-1
3.377876516E0,-5.416865349E-1,-6.123934388E-1,-2.661827505E-1
3.380364277E0,-4.340949357E-1,-5.889576077E-1,-3.386206925E-1
3.382852037E0,-3.243727684E-1,-5.623260736E-1,-4.046670198E-1
3.385339798E0,-2.146506310E-1,-5.324986577E-1,-4.664523304E-1
3.387827558E0,-1.091895252E-1,-5.026713014E-1,-5.186502337E-1
3.390315318E0,-1.012000442E-2,-4.707133770E-1,-5.633913279E-1
3.392803079E0,7.829687744E-2,-4.387554526E-1,-5.985450149E-1
3.395290839E0,1.560611278E-1,-4.078628123E-1,-6.251766086E-1
3.397778600E0,2.189116776E-1,-3.780354261E-1,-6.432861090E-1
3.400266360E0,2.679138184E-1,-3.503385782E-1,-6.550039649E-1
3.402754121E0,2.998717129E-1,-3.279680312E-1,-6.581997871E-1
3.405241881E0,3.147853911E-1,-3.119890988E-1,-6.539387107E-1
3.407729641E0,3.126548827E-1,-3.045322299E-1,-6.422207952E-1
3.410217402E0,2.913496196E-1,-3.045322299E-1,-6.219807863E-1
3.412705162E0,2.551306486E-1,-3.119890988E-1,-5.953491926E-1
3.415192923E0,2.029327303E-1,-3.258375227E-1,-5.655218363E-1
3.417680683E0,1.390169114E-1,-3.471427858E-1,-5.335639119E-1
3.420168443E0,6.657897681E-2,-3.748396337E-1,-5.026713014E-1
3.422656204E0,-9.054740891E-3,-4.099933505E-1,-4.739091694E-1
3.425143964E0,-8.575372398E-2,-4.494080842E-1,-4.472775757E-1
3.427631725E0,-1.603221744E-1,-4.920186400E-1,-4.270375669E-1
3.430119485E0,-2.284990549E-1,-5.335639119E-1,-4.099933505E-1
3.432607246E0,-2.881538272E-1,-5.729786754E-1,-3.982754350E-1
3.435095006E0,-3.350254297E-1,-6.091976166E-1,-3.918838501E-1
3.437582766E0,-3.691138625E-1,-6.400902867E-1,-3.897533417E-1
3.440070527E0,-3.872233331E-1,-6.645913720E-1,-3.908185959E-1
3.442558287E0,-3.882885873E-1,-6.816355586E-1,-3.961449265E-1
3.445046048E0,-3.701791167E-1,-6.912229657E-1,-4.067975581E-1
3.447533808E0,-3.318296373E-1,-6.933534741E-1,-4.185154438E-1
3.450021568E0,-2.743053734E-1,-6.901576519E-1,-4.312986135E-1
3.452509329E0,-1.986716688E-1,-6.805703044E-1,-4.462123215E-1
3.454997089E0,-1.091895252E-1,-6.656566262E-1,-4.589954615E-1
3.457484850E0,-7.989477366E-3,-6.454166174E-1,-4.717786312E-1
3.459972610E0,9.960214794E-2,-6.219807863E-1,-4.834965467E-1
3.462460371E0,2.093243003E-1,-5.964145064E-1,-4.920186400E-1
3.464948131E0,3.179811835E-1,-5.687175989E-1,-4.973449707E-1
3.467435891E0,4.213117659E-1,-5.410207510E-1,-4.994754791E-1
3.469923652E0,5.161202550E-1,-5.143891573E-1,-4.962796867E-1
3.472411412E0,6.002760530E-1,-4.909533858E-1,-4.888228476E-1
3.474899173E0,6.695181727E-1,-4.707133770E-1,-4.781702161E-1
3.477386933E0,7.227813601E-1,-4.515386224E-1,-4.643217921E-1
3.479874693E0,7.590003610E-1,-4.376901984E-1,-4.451470375E-1
3.482362506E0,7.749792933E-1,-4.259723127E-1,-4.238417745E-1
3.484850318E0,7.728487849E-1,-4.163849354E-1,-3.972101808E-1
3.487338131E0,7.526087761E-1,-4.099933505E-1,-3.673827946E-1
3.489825943E0,7.153245211E-1,-4.046670198E-1,-3.332943618E-1
3.492313756E0,6.652571559E-1,-3.982754350E-1,-2.970753908E-1
3.494801568E0,6.034718752E-1,-3.918838501E-1,-2.576606572E-1
3.497289381E0,5.342296958E-1,-3.854922652E-1,-2.161153555E-1
3.499777193E0,4.617917836E-1,-3.812312186E-1,-1.735048145E-1
3.502265006E0,3.872233331E-1,-3.780354261E-1,-1.287637353E-1
3.504752818E0,3.158506751E-1,-3.769701719E-1,-8.295740932E-2
3.507240631E0,2.487390637E-1,-3.801659644E-1,-3.608580679E-2
3.509728443E0,1.890842915E-1,-3.865575492E-1,9.720530361E-3
3.512216256E0,1.390169114E-1,-3.961449265E-1,5.552686751E-2
3.514704068E0,9.960214794E-2,-4.067975581E-1,9.707214683E-2
3.517191881E0,7.297056168E-2,-4.195807278E-1,1.343563795E-1
3.519679693E0,6.018739566E-2,-4.323638678E-1,1.641837656E-1
3.522167506E0,6.231792271E-2,-4.451470375E-1,1.854890287E-1
3.524655318E0,7.829687744E-2,-4.568649530E-1,1.972069293E-1
3.527143131E0,1.081242561E-1,-4.632565379E-1,1.972069293E-1
3.529630943E0,1.539305896E-1,-4.675175846E-1,1.865542978E-1
3.532118756E0,2.103895694E-1,-4.653870463E-1,1.695100814E-1
3.534606568E0,2.785664499E-1,-4.600607455E-1,1.460742801E-1
3.537094381E0,3.552654386E-1,-4.494080842E-1,1.183774248E-1
3.539582193E0,4.383559823E-1,-4.344944060E-1,8.748477697E-2
3.542070006E0,5.235770941E-1,-4.163849354E-1,5.446160212E-2
3.544557818E0,6.098634601E-1,-3.961449265E-1,1.930790395E-2
3.547045631E0,6.918887496E-1,-3.727091253E-1,-1.584579609E-2
3.549533443E0,7.685877085E-1,-3.482080400E-1,-4.886896908E-2
3.552021256E0,8.356993198E-1,-3.215764761E-1,-8.082687855E-2
3.554509016E0,8.910930157E-1,-2.917490900E-1,-1.095889956E-1
3.556996777E0,9.326383471E-1,-2.597911656E-1,-1.340900660E-1
3.559484537E0,9.603351951E-1,-2.288985252E-1,-1.521995366E-1
3.561972298E0,9.709877968E-1,-1.980058849E-1,-1.649827063E-1
3.564460058E0,9.656614661E-1,-1.692437679E-1,-1.724395454E-1
3.566947818E0,9.454214573E-1,-1.468732208E-1,-1.745700836E-1
3.569435579E0,9.092025161E-1,-1.276984811E-1,-1.713742912E-1
3.571923339E0,8.580698371E-1,-1.127847880E-1,-1.649827063E-1
3.574411100E0,7.941540480E-1,-1.031974182E-1,-1.543300748E-1
3.576898860E0,7.185203433E-1,-9.467530251E-2,-1.404816359E-1
3.579386621E0,6.343644857E-1,-8.934898674E-2,-1.213068962E-1
3.581874381E0,5.438171029E-1,-8.508793265E-2,-1.010668874E-1
3.584362141E0,4.500738978E-1,-7.976161689E-2,-7.976161689E-2
3.586849902E0,3.573959470E-1,-7.763108611E-2,-5.952160433E-2
3.589337662E0,2.668485343E-1,-7.656582445E-2,-3.928159550E-2
3.591825423E0,1.826927215E-1,-7.550056279E-2,-2.223737910E-2
3.594313183E0,1.049284711E-1,-7.550056279E-2,-7.323687430E-3
3.596800943E0,3.568633273E-2,-7.656582445E-2,5.459476262E-3
3.599288704E0,-2.396843210E-2,-7.656582445E-2,1.504684892E-2
3.601776464E0,-7.403582335E-2,-7.337003201E-2,2.250369452E-2
3.604264225E0,-1.123853177E-1,-6.804371625E-2,2.463422157E-2
3.606751985E0,-1.390169114E-1,-5.952160433E-2,2.356895804E-2
3.609239746E0,-1.539305896E-1,-4.780370742E-2,1.824264042E-2
3.611727506E0,-1.560611278E-1,-3.502054140E-2,9.720530361E-3
3.614215266E0,-1.454084814E-1,-2.117211558E-2,-1.997369342E-3
3.616703027E0,-1.241032109E-1,-7.323687430E-3,-1.478053257E-2
3.619190787E0,-9.214530140E-2,4.394212738E-3,-2.756369673E-2
3.621678548E0,-5.273054913E-2,1.398158539E-2,-4.034686089E-2
3.624166308E0,-5.858949851E-3,2.250369452E-2,-5.099949613E-2
3.626654068E0,4.420844093E-2,2.783001214E-2,-6.058686972E-2
3.629141829E0,9.747162461E-2,2.996053919E-2,-6.910897791E-2
3.631629589E0,1.518000662E-1,3.209106624E-2,-7.550056279E-2
3.634117350E0,2.050632536E-1,3.209106624E-2,-8.082687855E-2
3.636605110E0,2.572611570E-1,2.996053919E-2,-8.508793265E-2
3.639092871E0,3.073285520E-1,2.783001214E-2,-8.828372508E-2
3.641580631E0,3.552654386E-1,2.463422157E-2,-8.934898674E-2
3.644068391E0,3.968107104E-1,2.037316747E-2,-8.934898674E-2
3.646556152E0,4.330296814E-1,1.291632187E-2,-8.721846342E-2
3.649043912E0,4.617917836E-1,5.459476262E-3,-8.508793265E-2
3.651531673E0,4.820317924E-1,-4.127896391E-3,-8.295740932E-2
3.654019433E0,4.937497079E-1,-1.265000552E-2,-8.189214021E-2
3.656507193E0,4.948149621E-1,-1.904158667E-2,-8.189214021E-2
3.658994954E0,4.852275848E-1,-2.117211558E-2,-8.295740932E-2
3.661482714E0,4.660528302E-1,-1.691105962E-2,-8.508793265E-2
3.663970475E0,4.383559823E-1,-7.323687430E-3,-8.828372508E-2
3.666458235E0,4.021370113E-1,6.524739787E-3,-9.254477918E-2
3.668945996E0,3.616569936E-1,2.356895804E-2,-9.893636405E-2
3.671433756E0,3.158506751E-1,3.954791278E-2,-1.085237339E-1
3.673921516E0,2.668485343E-1,5.446160212E-2,-1.202416345E-1
3.676409277E0,2.146506310E-1,6.617950648E-2,-1.351553202E-1
3.678897037E0,1.603221744E-1,7.363634557E-2,-1.532648057E-1
3.681384798E0,1.059937328E-1,7.789740711E-2,-1.735048145E-1
3.683872558E0,5.273054913E-2,7.683213800E-2,-1.958753467E-1
3.686360318E0,4.793686327E-3,7.044056058E-2,-2.182458937E-1
3.688848079E0,-3.675159439E-2,5.978792161E-2,-2.384859025E-1
3.691335839E0,-7.084003091E-2,4.487423226E-2,-2.565953732E-1
3.693823600E0,-9.534109384E-2,2.889527567E-2,-2.715090811E-1
3.696311360E0,-1.113200486E-1,1.291632187E-2,-2.800311744E-1
3.698799121E0,-1.177116334E-1,-1.997369342E-3,-2.853575051E-1
3.701286881E0,-1.155811027E-1,-1.691105962E-2,-2.853575051E-1
3.703774641E0,-1.059937328E-1,-2.862896025E-2,-2.821617126E-1
3.706262402E0,-8.788424730E-2,-3.821633384E-2,-2.768353820E-1
3.708750162E0,-6.018739566E-2,-4.886896908E-2,-2.715090811E-1
3.711237923E0,-2.290316857E-2,-5.952160433E-2,-2.629869580E-1
3.713725683E0,2.077264152E-2,-7.230477035E-2,-2.555301189E-1
3.716213443E0,7.084003091E-2,-8.721846342E-2,-2.448774725E-1
3.718701204E0,1.262337416E-1,-1.042626798E-1,-2.310290486E-1
3.721188964E0,1.848232448E-1,-1.223721579E-1,-2.118543088E-1
3.723676725E0,2.434127480E-1,-1.394163817E-1,-1.884185076E-1
3.726164485E0,3.009369671E-1,-1.532648057E-1,-1.575258672E-1
3.728652246E0,3.542001545E-1,-1.649827063E-1,-1.223721579E-1
3.731140006E0,4.042675495E-1,-1.724395454E-1,-8.402267098E-2
3.733627766E0,4.511391521E-1,-1.735048145E-1,-4.567318037E-2
3.736115527E0,4.937497079E-1,-1.703090221E-1,-6.258423906E-3
3.738603287E0,5.342296958E-1,-1.628521830E-1,3.209106624E-2
3.741091048E0,5.725792050E-1,-1.500690132E-1,7.257108390E-2
3.743578808E0,6.066676378E-1,-1.340900660E-1,1.130511016E-1
3.746066568E0,6.375603080E-1,-1.159805804E-1,1.535311192E-1
3.748554329E0,6.609960794E-1,-9.574057162E-2,1.929458827E-1
3.751042089E0,6.780403256E-1,-7.550056279E-2,2.291648388E-1
3.753529850E0,6.886929274E-1,-5.632581562E-2,2.611227632E-1
3.756017610E0,6.918887496E-1,-3.928159550E-2,2.845585644E-1
3.758505371E0,6.865624189E-1,-2.436790615E-2,2.994722426E-1
3.760993131E0,6.748445034E-1,-1.265000552E-2,3.058638275E-1
3.763480891E0,6.546044946E-1,-5.193160381E-3,3.037332892E-1
3.765968652E0,6.290381551E-1,-9.321057005E-4,2.952111959E-1
3.768456412E0,5.992107987E-1,-9.321057005E-4,2.813627720E-1
3.770944173E0,5.651223660E-1,-5.193160381E-3,2.653838098E-1
3.773431933E0,5.267728567E-1,-1.265000552E-2,2.451438010E-1
3.775919693E0,4.884233773E-1,-2.330264263E-2,2.227732539E-1
3.778407454E0,4.511391521E-1,-3.821633384E-2,1.972069293E-1
3.780895214E0,4.149201810E-1,-5.419528857E-2,1.695100814E-1
3.783382975E0,3.829622865E-1,-7.337003201E-2,1.386174262E-1
3.785870735E0,3.542001545E-1,-9.574057162E-2,1.055942550E-1
3.788358496E0,3.296990991E-1,-1.191763729E-1,7.257108390E-2
3.790846256E0,3.105243444E-1,-1.415469050E-1,4.274370521E-2
3.793334016E0,2.945453823E-1,-1.617869139E-1,1.611211337E-2
3.795821777E0,2.860232890E-1,-1.767006069E-1,-5.193160381E-3
3.798309537E0,2.806969583E-1,-1.873532385E-1,-2.330264263E-2
3.800797298E0,2.796317041E-1,-1.916143000E-1,-3.821633384E-2
3.803285058E0,2.828274965E-1,-1.916143000E-1,-4.886896908E-2
3.805772818E0,2.881538272E-1,-1.873532385E-1,-5.739107728E-2
3.808260579E0,2.945453823E-1,-1.809616536E-1,-6.378266215E-2
3.810748339E0,3.020022511E-1,-1.735048145E-1,-6.591318548E-2
3.813236100E0,3.094590902E-1,-1.671132296E-1,-6.271740049E-2
3.815723860E0,3.158506751E-1,-1.617869139E-1,-5.526055023E-2
3.818211621E0,3.201117218E-1,-1.553953290E-1,-4.247738793E-2
3.820699381E0,3.222422600E-1,-1.479384899E-1,-2.543316968E-2
3.823187141E0,3.211769760E-1,-1.404816359E-1,-4.127896391E-3
3.825674902E0,3.169159293E-1,-1.330247968E-1,2.037316747E-2
3.828162662E0,3.094590902E-1,-1.245026886E-1,4.380896688E-2
3.830650423E0,2.977411747E-1,-1.159805804E-1,6.404897571E-2
3.833138183E0,2.828274965E-1,-1.074584723E-1,8.109319210E-2
3.835625943E0,2.657832801E-1,-9.893636405E-2,9.387636185E-2
3.838113704E0,2.476737946E-1,-9.041424841E-2,1.023984700E-1
3.840601464E0,2.274337858E-1,-8.082687855E-2,1.066595241E-1
3.843089225E0,2.061285079E-1,-6.910897791E-2,1.087900475E-1
3.845576985E0,1.826927215E-1,-5.632581562E-2,1.130511016E-1
3.848064746E0,1.581916511E-1,-4.141212255E-2,1.173121557E-1
3.850552506E0,1.315600574E-1,-2.330264263E-2,1.237037405E-1
3.853040266E0,1.038632020E-1,-5.193160381E-3,1.279647946E-1
3.855528027E0,7.510108501E-2,1.078579482E-2,1.279647946E-1
3.858015787E0,4.740423337E-2,2.143843099E-2,1.226384789E-1
3.860503548E0,2.077264152E-2,2.356895804E-2,1.087900475E-1
3.862991308E0,-1.597895520E-3,1.611211337E-2,8.855003864E-2
3.865479068E0,-1.970737800E-2,1.198421582E-3,6.191844866E-2
3.867966829E0,-3.249054030E-2,-1.904158667E-2,2.889527567E-2
3.870454589E0,-3.994738683E-2,-4.034686089E-2,-6.258423906E-3
3.872942350E0,-4.101264849E-2,-5.952160433E-2,-4.460791498E-2
3.875430110E0,-3.675159439E-2,-7.337003201E-2,-8.402267098E-2
3.877917871E0,-2.716422267E-2,-7.869634777E-2,-1.223721579E-1
3.880405631E0,-1.012000442E-2,-7.763108611E-2,-1.607216448E-1
3.882893391E0,1.225053146E-2,-7.337003201E-2,-1.969406158E-1
3.885381152E0,4.101264849E-2,-6.591318548E-2,-2.320943177E-1
3.887868912E0,7.190529257E-2,-6.058686972E-2,-2.640522122E-1
3.890356673E0,1.038632020E-1,-5.526055023E-2,-2.938795984E-1
3.892844433E0,1.347558498E-1,-5.419528857E-2,-3.205111921E-1
3.895332193E0,1.624527127E-1,-5.313002318E-2,-3.428817391E-1
3.897819954E0,1.837579757E-1,-5.313002318E-2,-3.599259555E-1
3.900307714E0,1.986716688E-1,-5.313002318E-2,-3.737743795E-1
3.902795475E0,2.050632536E-1,-5.206476152E-2,-3.844270110E-1
3.905283235E0,2.018674612E-1,-5.313002318E-2,-3.908185959E-1
3.907770996E0,1.890842915E-1,-5.313002318E-2,-3.929491341E-1
3.910258756E0,1.667137593E-1,-5.526055023E-2,-3.918838501E-1
3.912746516E0,1.368863732E-1,-5.739107728E-2,-3.876228034E-1
3.915234277E0,9.853688627E-2,-5.952160433E-2,-3.791007102E-1
3.917722037E0,5.592634156E-2,-6.058686972E-2,-3.663175404E-1
3.920209798E0,9.054740891E-3,-6.058686972E-2,-3.492733240E-1
3.922697558E0,-3.888212144E-2,-5.739107728E-2,-3.279680312E-1
3.925185318E0,-8.468846232E-2,-4.993423447E-2,-3.034669757E-1
3.927673079E0,-1.262337416E-1,-3.928159550E-2,-2.768353820E-1
3.930160839E0,-1.613874435E-1,-2.436790615E-2,-2.459427416E-1
3.932648600E0,-1.912148297E-1,-7.323687430E-3,-2.150501013E-1
3.935136360E0,-2.125200927E-1,1.078579482E-2,-1.809616536E-1
3.937624121E0,-2.263685167E-1,2.996053919E-2,-1.468732208E-1
3.940111933E0,-2.348906398E-1,4.700475931E-2,-1.117195264E-1
3.942599746E0,-2.348906398E-1,6.511423737E-2,-7.869634777E-2
3.945087558E0,-2.284990549E-1,8.215846121E-2,-4.780370742E-2
3.947575371E0,-2.167811543E-1,9.920267761E-2,-1.904158667E-2
3.950063183E0,-1.997369379E-1,1.162468940E-1,5.459476262E-3
3.952550996E0,-1.794969290E-1,1.322258562E-1,2.463422157E-2
3.955038808E0,-1.560611278E-1,1.460742801E-1,3.848264739E-2
3.957526621E0,-1.304948032E-1,1.556616426E-1,4.487423226E-2
3.960014433E0,-1.059937328E-1,1.588574350E-1,4.380896688E-2
3.962502246E0,-8.149266988E-2,1.556616426E-1,3.528685868E-2
3.964990058E0,-5.805686861E-2,1.460742801E-1,1.930790395E-2
3.967477871E0,-3.781685978E-2,1.332911104E-1,-9.321057005E-4
3.969965683E0,-2.290316857E-2,1.205079481E-1,-2.436790615E-2
3.972453496E0,-1.118526794E-2,1.087900475E-1,-4.886896908E-2
3.974941308E0,-2.663159044E-3,9.920267761E-2,-7.337003201E-2
3.977429121E0,5.326318205E-4,9.281109273E-2,-9.574057162E-2
3.979916933E0,5.326318205E-4,8.855003864E-2,-1.159805804E-1
3.982404746E0,-2.663159044E-3,8.535424620E-2,-1.340900660E-1
3.984892558E0,-1.118526794E-2,8.215846121E-2,-1.479384899E-1
3.987380371E0,-2.183790505E-2,7.789740711E-2,-1.596563905E-1
3.989868183E0,-3.568633273E-2,7.150582224E-2,-1.692437679E-1
3.992355996E0,-5.273054913E-2,6.511423737E-2,-1.767006069E-1
3.994843808E0,-7.084003091E-2,5.978792161E-2,-1.809616536E-1
3.997331621E0,-9.001477808E-2,5.339634046E-2,-1.809616536E-1
3.999819433E0,-1.081242561E-1,4.807002097E-2,-1.788311303E-1
4.002307246E0,-1.230379492E-1,4.274370521E-2,-1.703090221E-1
4.004795058E0,-1.347558498E-1,4.061317816E-2,-1.564605981E-1
4.007282871E0,-1.400821656E-1,4.167843983E-2,-1.383511126E-1
4.009770683E0,-1.411474347E-1,4.593949392E-2,-1.159805804E-1
4.012258496E0,-1.358211190E-1,5.446160212E-2,-9.041424841E-2
4.014746256E0,-1.272990108E-1,6.404897571E-2,-6.378266215E-2
4.017234016E0,-1.166463718E-1,7.683213800E-2,-3.608580679E-2
4.019721777E0,-1.027979404E-1,9.174583107E-2,-1.051947847E-2
4.022209537E0,-9.001477808E-2,1.066595241E-1,1.078579482E-2
4.024697298E0,-7.723161578E-2,1.215732098E-1,2.783001214E-2
4.027185058E0,-6.657897681E-2,1.354216337E-1,3.848264739E-2
4.029672818E0,-5.699160323E-2,1.482048035E-1,4.380896688E-2
4.032160579E0,-4.846949503E-2,1.577921808E-1,4.380896688E-2
4.034648339E0,-4.314317927E-2,1.663142890E-1,3.954791278E-2
4.037136100E0,-4.101264849E-2,1.695100814E-1,3.315633163E-2
4.039623860E0,-4.207791388E-2,1.716406047E-1,2.569948509E-2
4.042111621E0,-4.740423337E-2,1.716406047E-1,1.611211337E-2
4.044599381E0,-5.592634156E-2,1.695100814E-1,7.590003312E-3
4.047087141E0,-6.764423847E-2,1.663142890E-1,-9.321057005E-4
4.049574902E0,-8.255793154E-2,1.620532274E-1,-6.258423906E-3
4.052062662E0,-1.006674170E-1,1.556616426E-1,-8.388951421E-3
4.054550423E0,-1.219726875E-1,1.482048035E-1,-7.323687430E-3
4.057038183E0,-1.454084814E-1,1.407479644E-1,-1.997369342E-3
4.059525943E0,-1.709748209E-1,1.332911104E-1,6.524739787E-3
4.062013704E0,-1.965411454E-1,1.300953180E-1,1.717737690E-2
4.064501464E0,-2.221074700E-1,1.290300637E-1,3.102580272E-2
4.066989225E0,-2.455432713E-1,1.332911104E-1,4.487423226E-2
4.069476985E0,-2.668485343E-1,1.428784877E-1,5.872265995E-2
4.071964746E0,-2.828274965E-1,1.556616426E-1,7.257108390E-2
4.074452506E0,-2.913496196E-1,1.727058738E-1,8.215846121E-2
4.076940266E0,-2.924148738E-1,1.908153445E-1,8.641951531E-2
4.079428027E0,-2.849580348E-1,2.078595608E-1,8.641951531E-2
4.081915787E0,-2.679138184E-1,2.217079997E-1,7.896266878E-2
4.084403548E0,-2.402169555E-1,2.323606312E-1,6.511423737E-2
4.086891308E0,-2.029327303E-1,2.398174703E-1,4.593949392E-2
4.089379068E0,-1.571263820E-1,2.440785319E-1,2.037316747E-2
4.091866829E0,-1.038632020E-1,2.451438010E-1,-7.323687430E-3
4.094354589E0,-4.527370632E-2,2.472743243E-1,-3.821633384E-2
4.096842350E0,1.757685095E-2,2.504701018E-1,-7.017423958E-2
4.099330110E0,7.936213911E-2,2.547311783E-1,-1.000016257E-1
4.101817871E0,1.411474347E-1,2.600574791E-1,-1.276984811E-1
4.104305631E0,1.997369379E-1,2.664490640E-1,-1.521995366E-1
4.106793391E0,2.519348562E-1,2.739059031E-1,-1.724395454E-1
4.109281152E0,2.966759205E-1,2.813627720E-1,-1.884185076E-1
4.111768912E0,3.307643533E-1,2.877543271E-1,-1.980058849E-1
4.114256673E0,3.542001545E-1,2.920154035E-1,-2.022669315E-1
4.116744433E0,3.648527861E-1,2.952111959E-1,-2.001364082E-1
4.119232193E0,3.616569936E-1,2.952111959E-1,-1.905490309E-1
4.121719954E0,3.456780612E-1,2.941459119E-1,-1.735048145E-1
4.124207714E0,3.147853911E-1,2.888196111E-1,-1.500690132E-1
4.126695475E0,2.711096108E-1,2.824280262E-1,-1.191763729E-1
4.129183235E0,2.157158852E-1,2.749711871E-1,-8.082687855E-2
4.131670996E0,1.496695429E-1,2.685796022E-1,-3.502054140E-2
4.134158756E0,7.510108501E-2,2.643185556E-1,1.824264042E-2
4.136646516E0,-4.793686327E-3,2.653838098E-1,7.896266878E-2
4.139134277E0,-8.894951642E-2,2.739059031E-1,1.460742801E-1
4.141622037E0,-1.709748209E-1,2.930806577E-1,2.185122073E-1
4.144109798E0,-2.487390637E-1,3.218427896E-1,2.930806577E-1
4.146597558E0,-3.190464675E-1,3.612575233E-1,3.676491082E-1
4.149085318E0,-3.776359558E-1,4.070638716E-1,4.368912578E-1
4.151573079E0,-4.245075583E-1,4.560659826E-1,4.997417927E-1
4.154060839E0,-4.564654827E-1,5.071986318E-1,5.551354885E-1
4.156548600E0,-4.724444151E-1,5.551354885E-1,6.020070910E-1
4.159036360E0,-4.745749533E-1,6.009418368E-1,6.382260919E-1
4.161524121E0,-4.585959911E-1,6.414218545E-1,6.669881940E-1
4.164011881E0,-4.298338890E-1,6.765755415E-1,6.850976944E-1
4.166499641E0,-3.861580789E-1,7.085334659E-1,6.957502961E-1
4.168987402E0,-3.296990991E-1,7.351650596E-1,6.978808641E-1
4.171475162E0,-2.625874877E-1,7.564703226E-1,6.904240251E-1
4.173962923E0,-1.869537681E-1,7.735145688E-1,6.776408553E-1
4.176450683E0,-1.059937328E-1,7.862977386E-1,6.584661007E-1
4.178938443E0,-2.183790505E-2,7.926893234E-1,6.360955238E-1
4.181426204E0,6.018739566E-2,7.926893234E-1,6.083986759E-1
4.183913964E0,1.390169114E-1,7.873629928E-1,5.775060654E-1
4.186401725E0,2.125200927E-1,7.767103314E-1,5.423523784E-1
4.188889485E0,2.775011659E-1,7.607313991E-1,5.050681233E-1
4.191377246E0,3.328948915E-1,7.394261360E-1,4.624575675E-1
4.193865006E0,3.765707016E-1,7.127945423E-1,4.209122956E-1
4.196352766E0,4.095938802E-1,6.829671264E-1,3.783017397E-1
4.198840527E0,4.287686050E-1,6.499440074E-1,3.367564678E-1
4.201328287E0,4.362254739E-1,6.147902608E-1,2.984069884E-1
4.203816048E0,4.298338890E-1,5.775060654E-1,2.653838098E-1
4.206303808E0,4.117243886E-1,5.402218103E-1,2.376869470E-1
4.208791568E0,3.808317482E-1,4.997417927E-1,2.142511457E-1
4.211279329E0,3.424822688E-1,4.592617750E-1,1.982721984E-1
4.213767089E0,2.945453823E-1,4.187817574E-1,1.854890287E-1
4.216254850E0,2.412822098E-1,3.793670237E-1,1.759016514E-1
4.218742610E0,1.837579757E-1,3.410175145E-1,1.695100814E-1
4.221230371E0,1.262337416E-1,3.069290817E-1,1.652490199E-1
4.223718131E0,6.977476925E-2,2.781669796E-1,1.631184965E-1
4.226205891E0,1.331579592E-2,2.589922249E-1,1.620532274E-1
4.228693652E0,-3.994738683E-2,2.504701018E-1,1.641837656E-1
4.231181412E0,-9.108003974E-2,2.568616867E-1,1.705753356E-1
4.233669173E0,-1.379516423E-1,2.781669796E-1,1.833585054E-1
4.236156933E0,-1.784316599E-1,3.122554123E-1,2.025332451E-1
4.238644693E0,-2.125200927E-1,3.559312224E-1,2.291648388E-1
4.241132454E0,-2.391516864E-1,4.059986174E-1,2.632532716E-1
4.243620214E0,-2.551306486E-1,4.550007284E-1,3.058638275E-1
4.246107975E0,-2.615222335E-1,5.029376149E-1,3.538006842E-1
4.248595735E0,-2.593916953E-1,5.455481410E-1,4.049333334E-1
4.251083496E0,-2.487390637E-1,5.785713196E-1,4.581965208E-1
4.253571256E0,-2.274337858E-1,6.052029133E-1,5.093291998E-1
4.256059016E0,-1.997369379E-1,6.233124137E-1,5.583313107E-1
4.258546777E0,-1.635179669E-1,6.350302696E-1,6.030724049E-1
4.261034537E0,-1.209074259E-1,6.435524225E-1,6.414218545E-1
4.263522298E0,-7.403582335E-2,6.488786936E-1,6.723145247E-1
4.266010058E0,-2.077264152E-2,6.520745158E-1,6.936197877E-1
4.268497818E0,3.355580568E-2,6.531397700E-1,7.064029574E-1
4.270985579E0,9.001477808E-2,6.520745158E-1,7.064029574E-1
4.273473339E0,1.464737505E-1,6.467481852E-1,6.957502961E-1
4.275961100E0,1.997369379E-1,6.382260919E-1,6.733797789E-1
4.278448860E0,2.508696020E-1,6.254429221E-1,6.414218545E-1
4.280936621E0,2.956106663E-1,6.083986759E-1,6.009418368E-1
4.283424381E0,3.350254297E-1,5.849629045E-1,5.540702343E-1
4.285912141E0,3.669833243E-1,5.572660565E-1,5.029376149E-1
4.288399902E0,3.914843798E-1,5.253081322E-1,4.486091435E-1
4.290887662E0,4.095938802E-1,4.922849536E-1,3.932154477E-1
4.293375423E0,4.181159735E-1,4.581965208E-1,3.388870060E-1
4.295863183E0,4.202465117E-1,4.230428338E-1,2.877543271E-1
4.298350943E0,4.159854650E-1,3.878891170E-1,2.376869470E-1
4.300838704E0,4.063980877E-1,3.548659384E-1,1.940111369E-1
4.303326464E0,3.925496638E-1,3.229080439E-1,1.545963883E-1
4.305814225E0,3.723096550E-1,2.941459119E-1,1.205079481E-1
4.308301985E0,3.478085697E-1,2.675143182E-1,9.068056941E-2
4.310789746E0,3.169159293E-1,2.451438010E-1,6.831002980E-2
4.313277506E0,2.806969583E-1,2.270343155E-1,5.126581341E-2
4.315765266E0,2.391516864E-1,2.153164148E-1,4.061317816E-2
4.318253027E0,1.944106072E-1,2.099900991E-1,3.422159329E-2
4.320740787E0,1.454084814E-1,2.110553533E-1,3.528685868E-2
4.323228548E0,9.534109384E-2,2.185122073E-1,4.274370521E-2
4.325716308E0,4.633896798E-2,2.323606312E-1,5.765739456E-2
4.328204068E0,-2.663159044E-3,2.536658943E-1,8.215846121E-2
4.330691829E0,-4.846949503E-2,2.771016955E-1,1.151816323E-1
4.333179589E0,-9.108003974E-2,3.026680350E-1,1.567269117E-1
4.335667350E0,-1.304948032E-1,3.292996287E-1,2.057290375E-1
4.338155110E0,-1.645832360E-1,3.527354300E-1,2.632532716E-1
4.340642871E0,-1.944106072E-1,3.751059473E-1,3.239732981E-1
4.343130631E0,-2.199769467E-1,3.964112401E-1,3.868238628E-1
4.345618391E0,-2.423474789E-1,4.166512489E-1,4.475438893E-1
4.348106152E0,-2.604569495E-1,4.358259737E-1,5.018723607E-1
4.350593912E0,-2.753706574E-1,4.528702199E-1,5.498092175E-1
4.353081673E0,-2.860232890E-1,4.667186439E-1,5.881586671E-1
4.355569433E0,-2.924148738E-1,4.763059914E-1,6.158555150E-1
4.358057193E0,-2.945453823E-1,4.805670679E-1,6.339650154E-1
4.360544954E0,-2.913496196E-1,4.795017838E-1,6.414218545E-1
4.363032766E0,-2.849580348E-1,4.741754830E-1,6.371608377E-1
4.365520579E0,-2.732401192E-1,4.635228515E-1,6.222470999E-1
4.368008391E0,-2.583264410E-1,4.496744275E-1,5.988113284E-1
4.370496204E0,-2.412822098E-1,4.336954653E-1,5.657881498E-1
4.372984016E0,-2.210422009E-1,4.155859649E-1,5.231776237E-1
4.375471829E0,-1.986716688E-1,3.985417485E-1,4.741754830E-1
4.377959641E0,-1.763011366E-1,3.804322779E-1,4.187817574E-1
4.380447454E0,-1.539305896E-1,3.623228073E-1,3.580617309E-1
4.382935266E0,-1.315600574E-1,3.442133069E-1,2.941459119E-1
4.385423079E0,-1.123853177E-1,3.250385821E-1,2.280995846E-1
4.387910891E0,-9.534109384E-2,3.058638275E-1,1.631184965E-1
4.390398704E0,-8.362319320E-2,2.888196111E-1,1.002679393E-1
4.392886516E0,-7.616634667E-2,2.707101107E-1,3.954791278E-2
4.395374329E0,-7.510108501E-2,2.536658943E-1,-1.584579609E-2
4.397862141E0,-7.936213911E-2,2.376869470E-1,-6.697845459E-2
4.400349954E0,-8.894951642E-2,2.249037921E-1,-1.117195264E-1
4.402837766E0,-1.038632020E-1,2.142511457E-1,-1.511342824E-1
4.405325579E0,-1.251684725E-1,2.067943066E-1,-1.862879843E-1
4.407813391E0,-1.507348120E-1,2.025332451E-1,-2.150501013E-1
4.410301204E0,-1.816274524E-1,2.025332451E-1,-2.395511568E-1
4.412789016E0,-2.189116776E-1,2.067943066E-1,-2.587259114E-1
4.415276829E0,-2.615222335E-1,2.153164148E-1,-2.704437971E-1
4.417764641E0,-3.073285520E-1,2.280995846E-1,-2.747048736E-1
4.420252454E0,-3.573959470E-1,2.440785319E-1,-2.715090811E-1
4.422740266E0,-4.085285962E-1,2.632532716E-1,-2.587259114E-1
4.425228079E0,-4.607265294E-1,2.845585644E-1,-2.363553643E-1
4.427715891E0,-5.118591785E-1,3.058638275E-1,-2.043974549E-1
4.430203704E0,-5.619265437E-1,3.271690905E-1,-1.617869139E-1
4.432691516E0,-6.087981462E-1,3.484743834E-1,-1.095889956E-1
4.435179277E0,-6.503434777E-1,3.729754388E-1,-4.993423447E-2
4.437667037E0,-6.876276731E-1,3.974764943E-1,1.717737690E-2
4.440154798E0,-7.195855975E-1,4.241080880E-1,8.961530030E-2
4.442642558E0,-7.440866828E-1,4.507396817E-1,1.620532274E-1
4.445130318E0,-7.600656152E-1,4.773712754E-1,2.323606312E-1
4.447618079E0,-7.696529627E-1,5.029376149E-1,2.973417044E-1
4.450105839E0,-7.717835307E-1,5.253081322E-1,3.548659384E-1
4.452593600E0,-7.653919458E-1,5.455481410E-1,4.049333334E-1
4.455081360E0,-7.526087761E-1,5.604618192E-1,4.443480968E-1
4.457569121E0,-7.323687673E-1,5.732449889E-1,4.720449448E-1
4.460056881E0,-7.046719193E-1,5.807018280E-1,4.890891612E-1
4.462544641E0,-6.727139950E-1,5.860281587E-1,4.933502376E-1
4.465032402E0,-6.343644857E-1,5.870934129E-1,4.858933687E-1
4.467520162E0,-5.917539597E-1,5.849629045E-1,4.677838981E-1
4.470007923E0,-5.470128655E-1,5.785713196E-1,4.400870502E-1
4.472495683E0,-5.001412630E-1,5.689839721E-1,4.038680792E-1
4.474983443E0,-4.522044063E-1,5.562008023E-1,3.601922691E-1
4.477471204E0,-4.063980877E-1,5.402218103E-1,3.133206666E-1
4.479958964E0,-3.616569936E-1,5.221123695E-1,2.621880174E-1
4.482446725E0,-3.211769760E-1,5.029376149E-1,2.121206224E-1
4.484934485E0,-2.860232890E-1,4.837628603E-1,1.609879732E-1
4.487422246E0,-2.561959028E-1,4.635228515E-1,1.119858399E-1
4.489910006E0,-2.327601016E-1,4.443480968E-1,6.511423737E-2
4.492397766E0,-2.167811543E-1,4.262386262E-1,2.037316747E-2
4.494885527E0,-2.082590461E-1,4.102596641E-1,-2.117211558E-2
4.497373287E0,-2.082590461E-1,3.942807019E-1,-5.952160433E-2
4.499861048E0,-2.146506310E-1,3.793670237E-1,-9.467530251E-2
4.502348808E0,-2.295643091E-1,3.655185997E-1,-1.255679578E-1
4.504836568E0,-2.498043180E-1,3.527354300E-1,-1.511342824E-1
4.507324329E0,-2.753706574E-1,3.431480527E-1,-1.692437679E-1
4.509812089E0,-3.051980436E-1,3.378217220E-1,-1.809616536E-1
4.512299850E0,-3.392864764E-1,3.388870060E-1,-1.841574460E-1
4.514787610E0,-3.765707016E-1,3.463438451E-1,-1.777658761E-1
4.517275371E0,-4.159854650E-1,3.591270149E-1,-1.628521830E-1
4.519763131E0,-4.554001987E-1,3.761712313E-1,-1.394163817E-1
4.522250891E0,-4.937497079E-1,3.964112401E-1,-1.074584723E-1
4.524738652E0,-5.289034247E-1,4.166512489E-1,-6.804371625E-2
4.527226412E0,-5.587307811E-1,4.400870502E-1,-2.330264263E-2
4.529714173E0,-5.842971206E-1,4.603270590E-1,2.569948509E-2
4.532201933E0,-6.034718752E-1,4.795017838E-1,7.683213800E-2
4.534689693E0,-6.173202991E-1,4.965460002E-1,1.279647946E-1
4.537177454E0,-6.226465702E-1,5.103944540E-1,1.759016514E-1
4.539665214E0,-6.226465702E-1,5.221123695E-1,2.195774615E-1
4.542152975E0,-6.141244769E-1,5.327649713E-1,2.589922249E-1
4.544640735E0,-5.992107987E-1,5.402218103E-1,2.930806577E-1
4.547128496E0,-5.779055357E-1,5.487439036E-1,3.207775056E-1
4.549616256E0,-5.502086878E-1,5.562008023E-1,3.442133069E-1
4.552104016E0,-5.150549412E-1,5.647228956E-1,3.591270149E-1
4.554591777E0,-4.745749533E-1,5.732449889E-1,3.687143922E-1
4.557079537E0,-4.298338890E-1,5.807018280E-1,3.687143922E-1
4.559567298E0,-3.808317482E-1,5.849629045E-1,3.623228073E-1
4.562055058E0,-3.265033066E-1,5.870934129E-1,3.474090993E-1
4.564542818E0,-2.711096108E-1,5.849629045E-1,3.250385821E-1
4.567030579E0,-2.146506310E-1,5.796365738E-1,2.941459119E-1
4.569518339E0,-1.592569202E-1,5.721797347E-1,2.547311783E-1
4.572006100E0,-1.049284711E-1,5.625923872E-1,2.099900991E-1
4.574493860E0,-5.379581451E-2,5.519397259E-1,1.609879732E-1
4.576981621E0,-6.924213842E-3,5.391565561E-1,1.077247858E-1
4.579469381E0,3.568633273E-2,5.253081322E-1,5.233107507E-2
4.581957141E0,7.510108501E-2,5.093291998E-1,-4.127896391E-3
4.584444902E0,1.091895252E-1,4.922849536E-1,-6.058686972E-2
4.586932662E0,1.379516423E-1,4.763059914E-1,-1.159805804E-1
4.589420423E0,1.603221744E-1,4.635228515E-1,-1.681784987E-1
4.591908183E0,1.752358675E-1,4.518049359E-1,-2.171806246E-1
4.594395943E0,1.837579757E-1,4.443480968E-1,-2.619217038E-1
4.596883704E0,1.858884990E-1,4.390217662E-1,-2.992059290E-1
4.599371464E0,1.826927215E-1,4.336954653E-1,-3.311638236E-1
4.601859225E0,1.763011366E-1,4.251733422E-1,-3.567301631E-1
4.604346985E0,1.667137593E-1,4.155859649E-1,-3.737743795E-1
4.606834746E0,1.539305896E-1,4.028028250E-1,-3.833617568E-1
4.609322506E0,1.400821656E-1,3.857586086E-1,-3.854922652E-1
4.611810266E0,1.251684725E-1,3.665838540E-1,-3.822965026E-1
4.614298027E0,1.102547869E-1,3.442133069E-1,-3.748396337E-1
4.616785787E0,9.640636295E-2,3.207775056E-1,-3.652522564E-1
4.619273548E0,8.362319320E-2,2.973417044E-1,-3.535343707E-1
4.621761308E0,7.190529257E-2,2.760364413E-1,-3.439469934E-1
4.624249068E0,6.125266105E-2,2.568616867E-1,-3.343596160E-1
4.626736829E0,5.273054913E-2,2.408827394E-1,-3.269027770E-1
4.629224589E0,4.633896798E-2,2.280995846E-1,-3.215764761E-1
4.631712350E0,3.888212144E-2,2.185122073E-1,-3.162501454E-1
4.634200110E0,3.142527863E-2,2.121206224E-1,-3.151848912E-1
4.636687871E0,2.290316857E-2,2.067943066E-1,-3.141196072E-1
4.639175631E0,1.331579592E-2,2.046637833E-1,-3.173153996E-1
4.641663391E0,3.728422802E-3,2.025332451E-1,-3.205111921E-1
4.644151152E0,-6.924213842E-3,2.014679909E-1,-3.279680312E-1
4.646638912E0,-1.864211448E-2,2.014679909E-1,-3.364901543E-1
4.649126673E0,-3.142527863E-2,2.014679909E-1,-3.471427858E-1
4.651614433E0,-4.207791388E-2,2.014679909E-1,-3.588607013E-1
4.654102193E0,-5.273054913E-2,2.004027218E-1,-3.727091253E-1
4.656589954E0,-6.338318437E-2,1.972069293E-1,-3.886880577E-1
4.659077714E0,-7.403582335E-2,1.918806136E-1,-4.046670198E-1
4.661565475E0,-8.362319320E-2,1.854890287E-1,-4.238417745E-1
4.664053235E0,-9.214530140E-2,1.780321896E-1,-4.419512451E-1
4.666540996E0,-1.006674170E-1,1.695100814E-1,-4.621912539E-1
4.669028756E0,-1.070589945E-1,1.631184965E-1,-4.834965467E-1
4.671516516E0,-1.134505793E-1,1.567269117E-1,-5.058670640E-1
4.674004277E0,-1.166463718E-1,1.514005959E-1,-5.293028951E-1
4.676492037E0,-1.166463718E-1,1.503353268E-1,-5.538039207E-1
4.678979798E0,-1.155811027E-1,1.503353268E-1,-5.804355145E-1
4.681467558E0,-1.113200486E-1,1.514005959E-1,-6.070671082E-1
4.683955318E0,-1.059937328E-1,1.535311192E-1,-6.326334476E-1
4.686443079E0,-9.427583218E-2,1.556616426E-1,-6.571345329E-1
4.688930839E0,-8.042740822E-2,1.588574350E-1,-6.795050502E-1
4.691418600E0,-6.125266105E-2,1.609879732E-1,-6.986798048E-1
4.693906360E0,-3.675159439E-2,1.620532274E-1,-7.125282288E-1
4.696394121E0,-9.054740891E-3,1.641837656E-1,-7.231808305E-1
4.698881881E0,2.077264152E-2,1.652490199E-1,-7.306377292E-1
4.701369641E0,5.166528746E-2,1.695100814E-1,-7.359640002E-1
4.703857402E0,8.255793154E-2,1.748363972E-1,-7.380945683E-1
4.706345162E0,1.134505793E-1,1.822932363E-1,-7.370292544E-1
4.708832923E0,1.432779580E-1,1.940111369E-1,-7.338334918E-1
4.711320683E0,1.720400751E-1,2.057290375E-1,-7.263766527E-1
4.713808443E0,2.008021921E-1,2.185122073E-1,-7.135934830E-1
4.716296204E0,2.284990549E-1,2.312953621E-1,-6.954839826E-1
4.718783964E0,2.572611570E-1,2.419480085E-1,-6.741787195E-1
4.721271725E0,2.849580348E-1,2.494048476E-1,-6.486123800E-1
4.723759485E0,3.115896285E-1,2.515353858E-1,-6.198502779E-1
4.726247246E0,3.371559381E-1,2.494048476E-1,-5.878923535E-1
4.728735006E0,3.595264852E-1,2.440785319E-1,-5.548691750E-1
4.731222766E0,3.818970025E-1,2.323606312E-1,-5.229113102E-1
4.733710527E0,4.000065029E-1,2.185122073E-1,-4.909533858E-1
4.736198287E0,4.149201810E-1,2.025332451E-1,-4.621912539E-1
4.738686048E0,4.277033508E-1,1.844237745E-1,-4.355596602E-1
4.741173808E0,4.362254739E-1,1.652490199E-1,-4.121238589E-1
4.743661568E0,4.436823130E-1,1.439437568E-1,-3.918838501E-1
4.746149329E0,4.479433596E-1,1.226384789E-1,-3.759049177E-1
4.748637089E0,4.511391521E-1,9.920267761E-2,-3.631217480E-1
4.751124850E0,4.532696903E-1,7.576687634E-2,-3.556649089E-1
4.753612610E0,4.554001987E-1,5.020054802E-2,-3.492733240E-1
4.756100371E0,4.575307369E-1,2.463422157E-2,-3.482080400E-1
4.758588131E0,4.607265294E-1,-9.321057005E-4,-3.503385782E-1
4.761075891E0,4.660528302E-1,-2.649843320E-2,-3.567301631E-1
4.763563652E0,4.703139067E-1,-5.206476152E-2,-3.663175404E-1
4.766051412E0,4.767054915E-1,-7.656582445E-2,-3.812312186E-1
4.768539173E0,4.820317924E-1,-1.010668874E-1,-4.004059732E-1
4.771026933E0,4.873581231E-1,-1.245026886E-1,-4.238417745E-1
4.773514693E0,4.926844239E-1,-1.458079666E-1,-4.515386224E-1
4.776002454E0,4.969455004E-1,-1.639174372E-1,-4.824312627E-1
4.778490214E0,4.990760088E-1,-1.777658761E-1,-5.165197253E-1
4.780978027E0,5.001412630E-1,-1.873532385E-1,-5.527386665E-1
4.783465839E0,4.990760088E-1,-1.926795542E-1,-5.910881758E-1
4.785953652E0,4.948149621E-1,-1.958753467E-1,-6.294376254E-1
4.788441464E0,4.905539155E-1,-1.980058849E-1,-6.667218804E-1
4.790929277E0,4.852275848E-1,-2.001364082E-1,-7.018755674E-1
4.793417089E0,4.799012840E-1,-2.033322006E-1,-7.338334918E-1
4.795904902E0,4.745749533E-1,-2.086585164E-1,-7.604650855E-1
4.798392714E0,4.713791609E-1,-2.171806246E-1,-7.828356028E-1
4.800880527E0,4.681833684E-1,-2.288985252E-1,-7.998798490E-1
4.803368339E0,4.660528302E-1,-2.438122183E-1,-8.137282729E-1
4.805856152E0,4.639223218E-1,-2.597911656E-1,-8.222503662E-1
4.808343964E0,4.639223218E-1,-2.768353820E-1,-8.265114427E-1
4.810831777E0,4.649875760E-1,-2.928143442E-1,-8.265114427E-1
4.813319589E0,4.660528302E-1,-3.087933064E-1,-8.233156204E-1
4.815807402E0,4.681833684E-1,-3.247722387E-1,-8.169240355E-1
4.818295214E0,4.703139067E-1,-3.407512009E-1,-8.084019423E-1
4.820783027E0,4.735096991E-1,-3.545996249E-1,-7.977492809E-1
4.823270839E0,4.756402075E-1,-3.684480488E-1,-7.870966792E-1
4.825758652E0,4.788360000E-1,-3.801659644E-1,-7.732482553E-1
4.828246464E0,4.809665382E-1,-3.897533417E-1,-7.593998313E-1
4.830734277E0,4.820317924E-1,-3.982754350E-1,-7.434208393E-1
4.833222089E0,4.830970466E-1,-4.046670198E-1,-7.242461443E-1
4.835709902E0,4.841623306E-1,-4.110586047E-1,-7.029408216E-1
4.838197714E0,4.841623306E-1,-4.174501896E-1,-6.795050502E-1
4.840685527E0,4.841623306E-1,-4.227765203E-1,-6.539387107E-1
4.843173339E0,4.841623306E-1,-4.259723127E-1,-6.283723712E-1
4.845661152E0,4.830970466E-1,-4.281028211E-1,-6.017407775E-1
4.848148964E0,4.799012840E-1,-4.302333593E-1,-5.761744976E-1
4.850636777E0,4.777707458E-1,-4.302333593E-1,-5.527386665E-1
4.853124589E0,4.745749533E-1,-4.291680753E-1,-5.335639119E-1
4.855612350E0,4.713791609E-1,-4.281028211E-1,-5.143891573E-1
4.858100110E0,4.671181142E-1,-4.259723127E-1,-4.984102249E-1
4.860587871E0,4.628570378E-1,-4.238417745E-1,-4.856270552E-1
4.863075631E0,4.585959911E-1,-4.206459820E-1,-4.760396779E-1
4.865563391E0,4.522044063E-1,-4.174501896E-1,-4.675175846E-1
4.868051152E0,4.447475672E-1,-4.142543972E-1,-4.632565379E-1
4.870538912E0,4.362254739E-1,-4.110586047E-1,-4.600607455E-1
4.873026673E0,4.287686050E-1,-4.067975581E-1,-4.589954615E-1
4.875514433E0,4.191812575E-1,-4.004059732E-1,-4.600607455E-1
4.878002193E0,4.106591344E-1,-3.950796425E-1,-4.632565379E-1
4.880489954E0,4.021370113E-1,-3.886880577E-1,-4.685828388E-1
4.882977714E0,3.946801722E-1,-3.812312186E-1,-4.749744236E-1
4.885465475E0,3.861580789E-1,-3.737743795E-1,-4.824312627E-1
4.887953235E0,3.776359558E-1,-3.641870022E-1,-4.920186400E-1
4.890440996E0,3.701791167E-1,-3.545996249E-1,-5.026713014E-1
4.892928756E0,3.627222776E-1,-3.428817391E-1,-5.143891573E-1
4.895416516E0,3.552654386E-1,-3.311638236E-1,-5.261070728E-1
4.897904277E0,3.488738537E-1,-3.173153996E-1,-5.367597342E-1
4.900392037E0,3.424822688E-1,-3.013364673E-1,-5.452818274E-1
4.902879798E0,3.382211924E-1,-2.842922211E-1,-5.506081581E-1
4.905367558E0,3.350254297E-1,-2.672480047E-1,-5.538039207E-1
4.907855318E0,3.339601457E-1,-2.491385341E-1,-5.538039207E-1
4.910343079E0,3.350254297E-1,-2.288985252E-1,-5.516734123E-1
4.912830839E0,3.360906839E-1,-2.075932473E-1,-5.474123359E-1
4.915318600E0,3.382211924E-1,-1.820269227E-1,-5.431513190E-1
4.917806360E0,3.424822688E-1,-1.564605981E-1,-5.378249884E-1
4.920294121E0,3.456780612E-1,-1.287637353E-1,-5.314334035E-1
4.922781881E0,3.510043621E-1,-1.010668874E-1,-5.250418186E-1
4.925269641E0,3.552654386E-1,-7.443529367E-2,-5.175849795E-1
4.927757402E0,3.595264852E-1,-4.993423447E-2,-5.101281404E-1
4.930245162E0,3.637875319E-1,-2.543316968E-2,-5.016059875E-1
4.932732923E0,3.680485785E-1,-3.062632866E-3,-4.941491783E-1
4.935220683E0,3.701791167E-1,1.930790395E-2,-4.856270552E-1
4.937708443E0,3.701791167E-1,4.167843983E-2,-4.781702161E-1
4.940196204E0,3.712443709E-1,6.298371404E-2,-4.707133770E-1
4.942683964E0,3.712443709E-1,8.322372288E-2,-4.643217921E-1
4.945171725E0,3.701791167E-1,1.023984700E-1,-4.589954615E-1
4.947659485E0,3.691138625E-1,1.194426864E-1,-4.547344148E-1
4.950147246E0,3.669833243E-1,1.354216337E-1,-4.494080842E-1
4.952635006E0,3.627222776E-1,1.514005959E-1,-4.451470375E-1
4.955122766E0,3.573959470E-1,1.673795432E-1,-4.398207366E-1
4.957610527E0,3.520696461E-1,1.822932363E-1,-4.323638678E-1
4.960098287E0,3.456780612E-1,1.982721984E-1,-4.270375669E-1
4.962586048E0,3.371559381E-1,2.142511457E-1,-4.195807278E-1
4.965073808E0,3.275685608E-1,2.312953621E-1,-4.131891429E-1
4.967561568E0,3.147853911E-1,2.483395934E-1,-4.089280665E-1
4.970049329E0,2.998717129E-1,2.653838098E-1,-4.067975581E-1
4.972537089E0,2.828274965E-1,2.802974880E-1,-4.046670198E-1
4.975024850E0,2.636527419E-1,2.930806577E-1,-4.057323039E-1
4.977512610E0,2.434127480E-1,3.026680350E-1,-4.067975581E-1
4.980000371E0,2.210422009E-1,3.090596199E-1,-4.078628123E-1
4.982488131E0,1.954758763E-1,3.133206666E-1,-4.110586047E-1
4.984975891E0,1.688442826E-1,3.154512048E-1,-4.142543972E-1
4.987463652E0,1.390169114E-1,3.143859208E-1,-4.185154438E-1
4.989951412E0,1.091895252E-1,3.111901283E-1,-4.217112362E-1
4.992439173E0,7.829687744E-2,3.069290817E-1,-4.270375669E-1
4.994926933E0,4.846949503E-2,2.994722426E-1,-4.312986135E-1
4.997414693E0,1.970737800E-2,2.898848653E-1,-4.344944060E-1
4.999902454E0,-6.924213842E-3,2.771016955E-1,-4.387554526E-1
