"Time (s)","Acceleration x (m/s^2)","Acceleration y (m/s^2)","Acceleration z (m/s^2)"
2.548500700E-2,-1.177348709E1,-1.985391736E0,2.109890223E0
2.797641400E-2,-1.177827549E1,-1.951872945E0,2.167351007E0
3.046818400E-2,-1.175433350E1,-1.918354154E0,2.243965626E0
3.296042400E-2,-1.173996830E1,-1.884835243E0,2.320580006E0
3.545328900E-2,-1.172560310E1,-1.865681648E0,2.373252392E0
3.794683000E-2,-1.173517990E1,-1.856104851E0,2.445078373E0
4.044459100E-2,-1.172560310E1,-1.836951256E0,2.531269789E0
4.294235100E-2,-1.173996830E1,-1.841739655E0,2.598307371E0
4.539235100E-2,-1.174475670E1,-1.860893250E0,2.761113167E0
4.784235100E-2,-1.173517990E1,-1.899200439E0,2.832939148E0
5.034620500E-2,-1.172081470E1,-1.966238141E0,2.876034737E0
5.285005900E-2,-1.165856552E1,-2.023699045E0,2.904765129E0
5.540005900E-2,-1.158673954E1,-2.090736628E0,2.933495522E0
5.795005900E-2,-1.151491261E1,-2.143409014E0,2.957437754E0
6.050005900E-2,-1.142393303E1,-2.220023632E0,2.967014551E0
6.305005900E-2,-1.131858826E1,-2.277484417E0,2.923918724E0
6.560005900E-2,-1.119887829E1,-2.349310398E0,2.866457939E0
6.815005900E-2,-1.109832191E1,-2.406771183E0,2.852092743E0
7.070005900E-2,-1.100255394E1,-2.473809004E0,2.808997154E0
7.325005900E-2,-1.092593956E1,-2.526481390E0,2.761113167E0
7.580005900E-2,-1.083495998E1,-2.574365377E0,2.756324768E0
7.835005900E-2,-1.074876881E1,-2.631826162E0,2.689286947E0
8.090005900E-2,-1.067694283E1,-2.679710150E0,2.636614561E0
8.345005900E-2,-1.061469364E1,-2.703652382E0,2.598307371E0
8.600005900E-2,-1.060511684E1,-2.713229179E0,2.540846586E0
8.855005900E-2,-1.061469364E1,-2.694075346E0,2.478597403E0
9.110005900E-2,-1.061948204E1,-2.650979757E0,2.425924778E0
9.365005900E-2,-1.063863564E1,-2.622249365E0,2.354098797E0
9.620005900E-2,-1.067694283E1,-2.603095770E0,2.287061214E0
9.875005900E-2,-1.068173122E1,-2.574365377E0,2.181716204E0
1.013000590E-1,-1.070567322E1,-2.574365377E0,2.085948229E0
1.038500590E-1,-1.070567322E1,-2.593518972E0,2.004545450E0
1.064000590E-1,-1.070567322E1,-2.569576979E0,1.951872945E0
1.089500590E-1,-1.069130802E1,-2.574365377E0,1.913565755E0
1.115000590E-1,-1.065300083E1,-2.574365377E0,1.899200439E0
1.140500590E-1,-1.064342403E1,-2.564788580E0,1.903988957E0
1.166000590E-1,-1.065300083E1,-2.536058187E0,1.923142552E0
1.191500590E-1,-1.063863564E1,-2.507327795E0,1.961449742E0
1.217000590E-1,-1.064342403E1,-2.469020605E0,1.994968534E0
1.242500590E-1,-1.064342403E1,-2.449866772E0,2.033275843E0
1.268000590E-1,-1.063384724E1,-2.430713177E0,2.057217836E0
1.293500590E-1,-1.062427044E1,-2.406771183E0,2.066794634E0
1.319000590E-1,-1.061469364E1,-2.378040791E0,2.105101824E0
1.344500590E-1,-1.060511684E1,-2.373252392E0,2.129043818E0
1.370000590E-1,-1.059554005E1,-2.378040791E0,2.148197412E0
1.395500590E-1,-1.060990524E1,-2.358887196E0,2.148197412E0
1.421000590E-1,-1.060990524E1,-2.315791607E0,2.224812031E0
1.446500590E-1,-1.063384724E1,-2.277484417E0,2.253542423E0
1.472000590E-1,-1.066736603E1,-2.243965626E0,2.272696018E0
1.497500590E-1,-1.067215443E1,-2.200869799E0,2.296638012E0
1.523000590E-1,-1.068651962E1,-2.176927805E0,2.320580006E0
1.548500590E-1,-1.069609642E1,-2.148197412E0,2.315791607E0
1.574000590E-1,-1.067215443E1,-2.133832216E0,2.282272816E0
1.599448510E-1,-1.065300083E1,-2.124255419E0,2.229600430E0
1.624325590E-1,-1.063863564E1,-2.114678621E0,2.186504602E0
1.649202160E-1,-1.062427044E1,-2.114678621E0,2.148197412E0
1.674078720E-1,-1.059075165E1,-2.119467020E0,2.114678621E0
1.698955280E-1,-1.057638645E1,-2.105101824E0,2.100313425E0
1.723831840E-1,-1.056202126E1,-2.085948229E0,2.100313425E0
1.748708410E-1,-1.058596325E1,-2.066794634E0,2.124255419E0
1.773584970E-1,-1.060032845E1,-2.057217836E0,2.176927805E0
1.798461530E-1,-1.060990524E1,-2.042852640E0,2.191293001E0
1.823338090E-1,-1.058596325E1,-2.038064241E0,2.210446835E0
1.848214660E-1,-1.052850151E1,-2.047641039E0,2.272696018E0
1.873091220E-1,-1.044709873E1,-2.076371431E0,2.301426411E0
1.897967780E-1,-1.038006115E1,-2.090736628E0,2.330156803E0
1.922844340E-1,-1.029386997E1,-2.129043818E0,2.368463993E0
1.947720910E-1,-1.020289040E1,-2.191293001E0,2.382829189E0
1.972597470E-1,-1.011669922E1,-2.229600430E0,2.406771183E0
1.997474030E-1,-1.001614285E1,-2.277484417E0,2.459443808E0
2.022350590E-1,-9.915586472E0,-2.311003208E0,2.492962599E0
2.047227160E-1,-9.838972092E0,-2.344521999E0,2.526481390E0
2.072103720E-1,-9.762357712E0,-2.354098797E0,2.545634985E0
2.096980280E-1,-9.714473724E0,-2.387617588E0,2.564788580E0
2.121856840E-1,-9.642647743E0,-2.397194386E0,2.545634985E0
2.146733410E-1,-9.551667213E0,-2.416347980E0,2.492962599E0
2.171609970E-1,-9.465476036E0,-2.449866772E0,2.464232206E0
2.196486530E-1,-9.393650055E0,-2.464232206E0,2.449866772E0
2.221363090E-1,-9.345766068E0,-2.464232206E0,2.435501575E0
2.246239660E-1,-9.331400871E0,-2.454655409E0,2.421136379E0
2.271116220E-1,-9.302670479E0,-2.440289974E0,2.425924778E0
2.295992780E-1,-9.288305283E0,-2.430713177E0,2.421136379E0
2.320869340E-1,-9.259574890E0,-2.406771183E0,2.406771183E0
2.345745910E-1,-9.230844498E0,-2.392405987E0,2.368463993E0
2.370622470E-1,-9.192537308E0,-2.373252392E0,2.320580006E0
2.395499030E-1,-9.192537308E0,-2.339733601E0,2.272696018E0
2.420375590E-1,-9.168595314E0,-2.330156803E0,2.215235233E0
2.445252160E-1,-9.149441719E0,-2.296638012E0,2.162562609E0
2.470128720E-1,-9.125499725E0,-2.272696018E0,2.100313425E0
2.495005280E-1,-9.096769333E0,-2.253542423E0,2.028487444E0
2.519882370E-1,-9.063250542E0,-2.239177227E0,1.927930951E0
2.544759450E-1,-9.024943352E0,-2.239177227E0,1.836951256E0
2.569636530E-1,-8.972270966E0,-2.253542423E0,1.755548358E0
2.594513620E-1,-8.938752174E0,-2.267907619E0,1.678933978E0
2.619390700E-1,-8.895656586E0,-2.277484417E0,1.616684675E0
2.644267780E-1,-8.857349396E0,-2.301426411E0,1.568800688E0
2.669144870E-1,-8.823830605E0,-2.306214809E0,1.506551385E0
2.694021950E-1,-8.780735016E0,-2.325368404E0,1.449090600E0
2.718899030E-1,-8.723274231E0,-2.320580006E0,1.410783410E0
2.743776120E-1,-8.637083054E0,-2.306214809E0,1.377264500E0
2.768653200E-1,-8.565256119E0,-2.306214809E0,1.348534107E0
2.793530280E-1,-8.488641739E0,-2.291849613E0,1.324592113E0
2.818407370E-1,-8.402450562E0,-2.301426411E0,1.338957310E0
2.843284450E-1,-8.349778175E0,-2.287061214E0,1.338957310E0
2.868161530E-1,-8.316259384E0,-2.287061214E0,1.343745708E0
2.893038620E-1,-8.273163795E0,-2.248754025E0,1.358110905E0
2.917915700E-1,-8.277952194E0,-2.229600430E0,1.372476101E0
2.942792780E-1,-8.282740593E0,-2.210446835E0,1.382052898E0
2.967669870E-1,-8.297105789E0,-2.200869799E0,1.405994892E0
2.992546950E-1,-8.287528992E0,-2.167351007E0,1.434725404E0
3.017424030E-1,-8.301894188E0,-2.133832216E0,1.458667397E0
3.042301120E-1,-8.277952194E0,-2.081159830E0,1.511339784E0
3.067178200E-1,-8.244433403E0,-2.047641039E0,1.525704980E0
3.092055280E-1,-8.215703011E0,-2.009333849E0,1.525704980E0
3.116932370E-1,-8.182184219E0,-1.990180135E0,1.535281897E0
3.141809450E-1,-8.153453827E0,-1.971026540E0,1.544858694E0
3.166686530E-1,-8.148665428E0,-1.927930951E0,1.530493379E0
3.191563620E-1,-8.191761017E0,-1.927930951E0,1.535281897E0
3.216440700E-1,-8.206126213E0,-1.918354154E0,1.525704980E0
3.241317780E-1,-8.186972618E0,-1.913565755E0,1.516128182E0
3.266194870E-1,-8.201337814E0,-1.870470047E0,1.506551385E0
3.291071950E-1,-8.177395821E0,-1.832162857E0,1.492186189E0
3.315949030E-1,-8.129511833E0,-1.765125155E0,1.482609391E0
3.340826120E-1,-8.076839447E0,-1.712452769E0,1.516128182E0
3.365703200E-1,-8.043320656E0,-1.635838270E0,1.487397790E0
3.390580280E-1,-8.052897453E0,-1.597531080E0,1.449090600E0
3.415457370E-1,-8.052897453E0,-1.573589087E0,1.429937005E0
3.440334450E-1,-8.057685852E0,-1.559223890E0,1.391629696E0
3.465211530E-1,-8.076839447E0,-1.535281897E0,1.391629696E0
3.490088620E-1,-8.100781441E0,-1.520916581E0,1.377264500E0
3.514965700E-1,-8.129511833E0,-1.511339784E0,1.382052898E0
3.539842780E-1,-8.129511833E0,-1.487397790E0,1.396418095E0
3.564719870E-1,-8.081627846E0,-1.458667397E0,1.391629696E0
3.589596950E-1,-7.990648270E0,-1.453878999E0,1.382052898E0
3.614474030E-1,-7.875726700E0,-1.482609391E0,1.362899303E0
3.639351120E-1,-7.775169849E0,-1.506551385E0,1.295861721E0
3.664228200E-1,-7.674613476E0,-1.559223890E0,1.252766013E0
3.689105280E-1,-7.574057102E0,-1.645415068E0,1.171363235E0
3.713982370E-1,-7.487865925E0,-1.765125155E0,1.080383539E0
3.738859450E-1,-7.411251545E0,-1.889623642E0,9.846154451E-1
3.763736530E-1,-7.315483093E0,-2.014122248E0,8.888474107E-1
3.788613620E-1,-7.219715118E0,-2.129043818E0,8.074445128E-1
3.813490700E-1,-7.119158745E0,-2.239177227E0,7.308300734E-1
3.838367780E-1,-7.013813972E0,-2.320580006E0,6.063315868E-1
3.863244870E-1,-6.941987991E0,-2.349310398E0,5.345055461E-1
3.888121950E-1,-6.913257599E0,-2.358887196E0,4.531026781E-1
3.912999030E-1,-6.865373611E0,-2.373252392E0,3.764882088E-1
3.937876120E-1,-6.836642742E0,-2.358887196E0,3.238157928E-1
3.962753200E-1,-6.793547153E0,-2.373252392E0,2.902969420E-1
3.987630280E-1,-6.760028362E0,-2.382829189E0,2.472013235E-1
4.012507370E-1,-6.726509571E0,-2.392405987E0,1.945288926E-1
4.037384450E-1,-6.712144375E0,-2.387617588E0,1.418564469E-1
4.062261530E-1,-6.692990780E0,-2.397194386E0,8.918401599E-2
4.087138620E-1,-6.678625584E0,-2.392405987E0,6.045359373E-2
4.112015700E-1,-6.673837185E0,-2.401982784E0,-1.616086066E-2
4.136892780E-1,-6.673837185E0,-2.401982784E0,-4.489128292E-2
4.161769870E-1,-6.683413982E0,-2.358887196E0,-5.446808785E-2
4.186646950E-1,-6.726509571E0,-2.315791607E0,-8.319851011E-2
4.211524030E-1,-6.788758755E0,-2.287061214E0,-9.277531505E-2
4.236401120E-1,-6.807912350E0,-2.263119221E0,-9.277531505E-2
4.261278200E-1,-6.803123951E0,-2.210446835E0,-7.841010392E-2
4.286155280E-1,-6.803123951E0,-2.172139406E0,-5.925649032E-2
4.311032370E-1,-6.831854343E0,-2.119467020E0,-9.277531505E-2
4.335909450E-1,-6.860584736E0,-2.095525026E0,-1.023521200E-1
4.360786530E-1,-6.922834396E0,-2.085948229E0,-1.262941360E-1
4.385663620E-1,-6.961141586E0,-2.057217836E0,-1.262941360E-1
4.410540700E-1,-6.970718384E0,-2.033275843E0,-1.167173311E-1
4.435417780E-1,-6.980295181E0,-1.980603337E0,-7.841010392E-2
4.460294870E-1,-6.980295181E0,-1.899200439E0,-7.841010392E-2
4.485171950E-1,-6.989871979E0,-1.822586060E0,-3.052607179E-2
4.510049030E-1,-7.004237175E0,-1.760336757E0,2.214636654E-2
4.534926120E-1,-7.004237175E0,-1.702875972E0,5.566519126E-2
4.559803200E-1,-7.013813972E0,-1.635838270E0,1.322796494E-1
4.584680280E-1,-7.042544365E0,-1.583165884E0,1.849520802E-1
4.609556840E-1,-7.109581947E0,-1.511339784E0,2.376245260E-1
4.634433410E-1,-7.171831131E0,-1.453878999E0,2.759317458E-1
4.659309970E-1,-7.243657112E0,-1.420360208E0,3.142389655E-1
4.684186530E-1,-7.320271492E0,-1.405994892E0,3.142389655E-1
4.709063090E-1,-7.349001884E0,-1.405994892E0,2.998737693E-1
4.733939660E-1,-7.344213486E0,-1.429937005E0,2.184709013E-1
4.758816220E-1,-7.305906296E0,-1.525704980E0,1.322796494E-1
4.783692780E-1,-7.243657112E0,-1.631049871E0,6.524199992E-2
4.808569340E-1,-7.152677536E0,-1.745971560E0,-6.584054790E-3
4.833445910E-1,-6.999448776E0,-1.889623642E0,-5.446808785E-2
4.858322470E-1,-6.822277546E0,-2.042852640E0,-1.502361596E-1
4.883199030E-1,-6.578069210E0,-2.220023632E0,-2.460042238E-1
4.908075590E-1,-6.338648796E0,-2.387617588E0,-3.178302646E-1
4.932952160E-1,-6.089652061E0,-2.579153776E0,-3.561375141E-1
4.957828720E-1,-5.888539314E0,-2.741959572E0,-4.088099301E-1
4.982705280E-1,-5.720944881E0,-2.914341927E0,-3.992331326E-1
5.007581840E-1,-5.591658115E0,-3.062782526E0,-3.513490856E-1
5.032458410E-1,-5.515043736E0,-3.153762102E0,-2.364274114E-1
5.057334970E-1,-5.481524944E0,-3.220799923E0,-8.798690885E-2
5.082211530E-1,-5.524620533E0,-3.249530315E0,7.960720360E-2
5.107088090E-1,-5.639542103E0,-3.235165119E0,2.472013235E-1
5.131964660E-1,-5.835866451E0,-3.182492495E0,3.956418335E-1
5.156841220E-1,-6.051344872E0,-3.067570925E0,5.488707423E-1
5.181717780E-1,-6.295553207E0,-2.957437754E0,6.829460263E-1
5.206594340E-1,-6.506243229E0,-2.818573952E0,7.499836683E-1
5.231470910E-1,-6.697779179E0,-2.679710150E0,7.787141204E-1
5.256347470E-1,-6.874950409E0,-2.555211782E0,7.643488646E-1
5.281224030E-1,-7.037755966E0,-2.464232206E0,7.068880796E-1
5.306100590E-1,-7.195773125E0,-2.373252392E0,6.398503780E-1
5.330977160E-1,-7.358579159E0,-2.277484417E0,5.728127360E-1
5.355853720E-1,-7.521384716E0,-2.148197412E0,4.961982965E-1
5.380730280E-1,-7.708132267E0,-2.018910646E0,4.004302323E-1
5.405606840E-1,-7.890091896E0,-1.870470047E0,3.286041915E-1
5.430483410E-1,-8.081627846E0,-1.707664371E0,2.711433470E-1
5.455360490E-1,-8.292317390E0,-1.520916581E0,2.184709013E-1
5.480237570E-1,-8.479064941E0,-1.334168911E0,1.610100716E-1
5.505114660E-1,-8.637083054E0,-1.147421122E0,1.035492271E-1
5.529991740E-1,-8.756793022E0,-9.798270464E-1,2.693476900E-2
5.554868820E-1,-8.866926193E0,-8.265981078E-1,-7.362170517E-2
5.579745910E-1,-8.967482567E0,-7.164648771E-1,-1.454477459E-1
5.604622990E-1,-9.005789757E0,-6.398503780E-1,-2.172738016E-1
5.629500070E-1,-9.044096947E0,-6.015431881E-1,-2.747346461E-1
5.654377160E-1,-9.039308548E0,-5.823895931E-1,-3.034650683E-1
5.679254240E-1,-9.005789757E0,-5.871779919E-1,-2.986766696E-1
5.704131320E-1,-8.929175377E0,-6.063315868E-1,-2.890998423E-1
5.729008410E-1,-8.814253807E0,-6.494272351E-1,-2.555810213E-1
5.753885490E-1,-8.680178642E0,-7.739257216E-1,-1.837549806E-1
5.778762570E-1,-8.488641739E0,-9.367313981E-1,-1.023521200E-1
5.803639660E-1,-8.292317390E0,-1.147421122E0,7.781155407E-3
5.828516740E-1,-8.081627846E0,-1.396418095E0,1.562216580E-1
5.853393820E-1,-7.861361504E0,-1.640626669E0,4.052186310E-1
5.878270910E-1,-7.669825077E0,-1.865681648E0,7.116764784E-1
5.903147990E-1,-7.478289127E0,-2.095525026E0,1.032499433E0
5.928025070E-1,-7.315483093E0,-2.320580006E0,1.358110905E0
5.952902160E-1,-7.219715118E0,-2.526481390E0,1.635838270E0
5.977779240E-1,-7.133523941E0,-2.698863983E0,1.875258446E0
6.002656320E-1,-7.066486359E0,-2.847304344E0,2.095525026E0
6.027533410E-1,-7.018602371E0,-2.981379747E0,2.287061214E0
6.052410490E-1,-7.023390770E0,-3.086724520E0,2.449866772E0
6.077287570E-1,-7.071274757E0,-3.139396906E0,2.593518972E0
6.102164660E-1,-7.195773125E0,-3.129820108E0,2.713229179E0
6.127041740E-1,-7.358579159E0,-3.053205729E0,2.837727547E0
6.151918820E-1,-7.574057102E0,-2.957437754E0,2.895188332E0
6.176795910E-1,-7.870938301E0,-2.823362350E0,2.933495522E0
6.201672990E-1,-8.163030624E0,-2.689286947E0,2.880823135E0
6.226550070E-1,-8.474276543E0,-2.531269789E0,2.780266762E0
6.251427160E-1,-8.747216225E0,-2.349310398E0,2.598307371E0
6.276304240E-1,-8.967482567E0,-2.143409014E0,2.349310398E0
6.301181320E-1,-9.159018517E0,-1.913565755E0,2.042852640E0
6.326058410E-1,-9.317035675E0,-1.650203466E0,1.712452769E0
6.350935490E-1,-9.508571625E0,-1.372476101E0,1.377264500E0
6.375812570E-1,-9.676166534E0,-1.109113932E0,1.032499433E0
6.400689660E-1,-9.867702484E0,-8.744821548E-1,7.691373229E-1
6.425566740E-1,-1.008318043E1,-6.398503780E-1,5.823895931E-1
6.450443820E-1,-1.030344677E1,-4.291606545E-1,4.578910768E-1
6.475320910E-1,-1.049498272E1,-1.849520802E-1,3.621230125E-1
6.500197990E-1,-1.064342403E1,7.362170517E-2,2.663549483E-1
6.525075070E-1,-1.072003841E1,3.274070919E-1,1.610100716E-1
6.549952160E-1,-1.071046162E1,5.524620414E-1,1.735796221E-2
6.574829240E-1,-1.063384724E1,7.583633661E-1,-1.502361596E-1
6.599706320E-1,-1.050934792E1,8.924387097E-1,-3.130418658E-1
6.624583410E-1,-1.034175396E1,9.259575009E-1,-4.662707746E-1
6.649460490E-1,-1.013106441E1,8.732850552E-1,-5.285200477E-1
6.674337570E-1,-9.910798073E0,7.248445749E-1,-4.662707746E-1
6.699214660E-1,-9.700108528E0,5.237316489E-1,-3.369838893E-1
6.724091740E-1,-9.475052834E0,2.890998423E-1,-1.358709484E-1
6.748968820E-1,-9.202114105E0,2.573766746E-2,1.274912357E-1
6.773845910E-1,-8.943540573E0,-2.328361124E-1,4.483142793E-1
6.798722990E-1,-8.694543839E0,-5.201402903E-1,7.787141204E-1
6.823600070E-1,-8.426392555E0,-7.882909179E-1,1.123479128E0
6.848477160E-1,-8.167819023E0,-1.022922635E0,1.473032594E0
6.873354240E-1,-7.914033890E0,-1.262342811E0,1.817797661E0
6.898231320E-1,-7.660248280E0,-1.473032594E0,2.143409014E0
6.923108410E-1,-7.425616741E0,-1.678933978E0,2.459443808E0
6.947985490E-1,-7.229291916E0,-1.836951256E0,2.770689964E0
6.972862570E-1,-7.052121162E0,-1.980603337E0,3.053205729E0
6.997739660E-1,-6.918045998E0,-2.105101824E0,3.302202702E0
7.022616740E-1,-6.827065945E0,-2.181716204E0,3.551199675E0
7.047493820E-1,-6.764816761E0,-2.258330822E0,3.781043053E0
7.072370910E-1,-6.712144375E0,-2.296638012E0,3.939060450E0
7.097247990E-1,-6.678625584E0,-2.306214809E0,4.063559055E0
7.122125070E-1,-6.659471989E0,-2.272696018E0,4.140173435E0
7.147002160E-1,-6.664260387E0,-2.248754025E0,4.168903828E0
7.171879240E-1,-6.688202381E0,-2.186504602E0,4.144961834E0
7.196756320E-1,-6.740874767E0,-2.081159830E0,4.068347454E0
7.221633410E-1,-6.812700748E0,-1.947084546E0,3.939060450E0
7.246510490E-1,-6.851007938E0,-1.798644066E0,3.747524261E0
7.271387570E-1,-6.918045998E0,-1.597531080E0,3.532046080E0
7.296264660E-1,-6.980295181E0,-1.401206493E0,3.263895512E0
7.321141740E-1,-7.042544365E0,-1.180940032E0,2.995744944E0
7.346018820E-1,-7.152677536E0,-9.654618502E-1,2.727594376E0
7.370895910E-1,-7.238868713E0,-7.451952696E-1,2.502539396E0
7.395772990E-1,-7.325059891E0,-5.297171474E-1,2.243965626E0
7.420650070E-1,-7.420828342E0,-2.950853705E-1,1.985391736E0
7.445527160E-1,-7.516596317E0,-4.608838260E-2,1.741183162E0
7.470404240E-1,-7.617152691E0,2.076970041E-1,1.492186189E0
7.495281320E-1,-7.727285862E0,4.135983288E-1,1.214458823E0
7.520158410E-1,-7.851784706E0,5.907692909E-1,9.558850527E-1
7.545035490E-1,-7.981071472E0,7.631517649E-1,7.020996213E-1
7.569912570E-1,-8.115146637E0,9.020155072E-1,4.578910768E-1
7.594789660E-1,-8.210914612E0,1.002571940E0,2.136825025E-1
7.619666740E-1,-8.321047783E0,1.064821243E0,-6.584054790E-3
7.644543820E-1,-8.383296967E0,1.083974838E0,-1.646013707E-1
7.669420390E-1,-8.426392555E0,1.074398041E0,-3.082534671E-1
7.694296950E-1,-8.440757751E0,1.036090732E0,-4.423287511E-1
7.719173510E-1,-8.416815758E0,9.786299467E-1,-5.428852439E-1
7.744050070E-1,-8.378508568E0,9.259575009E-1,-6.338648796E-1
7.768926640E-1,-8.292317390E0,8.589198589E-1,-7.056909800E-1
7.793803200E-1,-8.210914612E0,7.870938182E-1,-7.487865686E-1
7.818679760E-1,-8.110358238E0,7.344213724E-1,-7.918822169E-1
7.843556320E-1,-8.048109055E0,6.625953317E-1,-8.301894665E-1
7.868432890E-1,-7.981071472E0,6.051344872E-1,-8.828618526E-1
7.893309450E-1,-7.961917877E0,5.811924338E-1,-8.924387097E-1
7.918186010E-1,-7.966706276E0,5.668272376E-1,-8.924387097E-1
7.943062570E-1,-7.995436668E0,5.668272376E-1,-8.684966564E-1
7.967939140E-1,-8.081627846E0,6.194996834E-1,-8.206126094E-1
7.992815700E-1,-8.172607422E0,6.817489266E-1,-7.918822169E-1
8.017692260E-1,-8.306682587E0,7.439981699E-1,-7.583633661E-1
8.042568820E-1,-8.459911346E0,8.158242106E-1,-7.344213724E-1
8.067445390E-1,-8.593987465E0,9.259575009E-1,-7.535749674E-1
8.092321950E-1,-8.713697433E0,1.040879130E0,-7.918822169E-1
8.117198510E-1,-8.833407402E0,1.179742932E0,-8.972271085E-1
8.142075070E-1,-8.943540573E0,1.328183413E0,-1.021725535E0
8.166951640E-1,-9.087192535E0,1.462258697E0,-1.122282028E0
8.191828200E-1,-9.221267700E0,1.581968784E0,-1.218050122E0
8.216704760E-1,-9.388861656E0,1.701678872E0,-1.323395014E0
8.241581320E-1,-9.566033363E0,1.802235365E0,-1.419163108E0
8.266457890E-1,-9.733627319E0,1.874061346E0,-1.529296279E0
8.291334450E-1,-9.891644478E0,1.941099048E0,-1.644217968E0
8.316211010E-1,-1.001614285E1,1.998559833E0,-1.802235365E0
8.341087570E-1,-1.014064121E1,2.051232338E0,-1.960252643E0
8.365964140E-1,-1.023640919E1,2.094327927E0,-2.108693123E0
8.390840700E-1,-1.033696556E1,2.142211914E0,-2.247556925E0
8.415717260E-1,-1.043273354E1,2.233191729E0,-2.324171305E0
8.440593820E-1,-1.059075165E1,2.300229311E0,-2.486977100E0
8.465470390E-1,-1.079186440E1,2.352901697E0,-2.989759445E0
8.490347470E-1,-1.090199757E1,2.391208887E0,-3.411138773E0
8.515224550E-1,-1.096424675E1,2.443881273E0,-4.024054527E0
8.540101640E-1,-1.103607273E1,2.458246708E0,-4.359242916E0
8.564978720E-1,-1.111747551E1,2.434304476E0,-4.541202068E0
8.589855800E-1,-1.118930149E1,2.352901697E0,-4.636970043E0
8.614732890E-1,-1.131379986E1,2.228403330E0,-4.976946831E0
8.639609970E-1,-1.143350983E1,2.094327927E0,-5.321712017E0
8.664487050E-1,-1.158195114E1,2.003348351E0,-5.637746334E0
8.689364140E-1,-1.175433350E1,1.945887446E0,-5.843647957E0
8.714241220E-1,-1.196023464E1,1.931522250E0,-5.968146324E0
8.739118300E-1,-1.181658268E1,1.658583283E0,-5.743091106E0
8.763995390E-1,-1.128985786E1,1.055244446E0,-5.149329185E0
8.788872470E-1,-1.074876881E1,3.944447339E-1,-4.455010891E0
8.813749550E-1,-1.038006115E1,-2.088941038E-1,-3.784634352E0
8.838626640E-1,-1.014542961E1,-6.877344251E-1,-3.162141800E0
8.863503720E-1,-9.992200851E0,-1.089960337E0,-2.692878246E0
8.888380800E-1,-9.862914085E0,-1.439513803E0,-2.276287317E0
8.913257890E-1,-9.848548889E0,-1.712452769E0,-2.175730705E0
8.938134970E-1,-9.944316864E0,-1.846528053E0,-2.094327927E0
8.963012050E-1,-9.882067680E0,-1.961449742E0,-2.118269920E0
8.987889140E-1,-9.819818497E0,-2.038064241E0,-2.228403330E0
9.012766220E-1,-9.791088104E0,-2.138620615E0,-2.357690096E0
9.037643300E-1,-9.795876503E0,-2.220023632E0,-2.453458309E0
9.062520390E-1,-9.791088104E0,-2.306214809E0,-2.525284290E0
9.087397470E-1,-9.728838921E0,-2.387617588E0,-2.611475468E0
9.112274550E-1,-9.695320129E0,-2.416347980E0,-2.688089848E0
9.137151640E-1,-9.623494148E0,-2.454655409E0,-2.735974073E0
9.162028720E-1,-9.513360023E0,-2.492962599E0,-2.807800055E0
9.186905800E-1,-9.422380447E0,-2.526481390E0,-2.764704466E0
9.211782890E-1,-9.431957245E0,-2.521692991E0,-2.640205860E0
9.236659970E-1,-9.465476036E0,-2.469020605E0,-2.510919094E0
9.261537050E-1,-9.518148422E0,-2.411559582E0,-2.314594507E0
9.286414140E-1,-9.657012939E0,-2.363675594E0,-2.089539528E0
9.311291220E-1,-9.762357712E0,-2.306214809E0,-1.898003340E0
9.336168300E-1,-9.810241699E0,-2.229600430E0,-1.754351258E0
9.361045390E-1,-9.877279282E0,-2.167351007E0,-1.577180386E0
9.385922470E-1,-9.944316864E0,-2.172139406E0,-1.395220995E0
9.410799550E-1,-9.901221275E0,-2.114678621E0,-1.304241419E0
9.435676640E-1,-9.838972092E0,-2.033275843E0,-1.265934110E0
9.460553720E-1,-9.795876503E0,-1.927930951E0,-1.198896527E0
9.485430800E-1,-9.877279282E0,-1.836951256E0,-1.040879130E0
9.510307890E-1,-9.977835655E0,-1.779490471E0,-8.589198589E-1
9.535184970E-1,-1.003050804E1,-1.745971560E0,-7.535749674E-1
9.560062050E-1,-1.011669922E1,-1.683722377E0,-6.721721292E-1
9.584939140E-1,-1.025077438E1,-1.602319479E0,-5.476736426E-1
9.609816220E-1,-1.034654236E1,-1.516128182E0,-4.088099301E-1
9.634693300E-1,-1.037048435E1,-1.420360208E0,-3.752911091E-1
9.659570390E-1,-1.038006115E1,-1.329380512E0,-3.369838893E-1
9.684447470E-1,-1.041836834E1,-1.214458823E0,-2.603694201E-1
9.709324550E-1,-1.049019432E1,-1.094748735E0,-1.885433793E-1
9.734201640E-1,-1.057159805E1,-9.894038439E-1,-1.502361596E-1
9.759078720E-1,-1.065778923E1,-9.319429994E-1,-1.502361596E-1
9.783955800E-1,-1.068651962E1,-9.271546006E-1,-1.406593472E-1
9.808832890E-1,-1.070567322E1,-8.984242082E-1,-1.023521200E-1
9.833709970E-1,-1.070567322E1,-8.553285599E-1,-8.798690885E-2
9.858587050E-1,-1.067694283E1,-7.930793166E-1,-1.215057373E-1
9.883464140E-1,-1.059075165E1,-7.643488646E-1,-1.741781682E-1
9.908341220E-1,-1.049019432E1,-7.595604658E-1,-2.268506140E-1
9.933218300E-1,-1.039921474E1,-7.499836683E-1,-2.507926226E-1
9.958095390E-1,-1.028908157E1,-7.930793166E-1,-3.034650683E-1
9.982972470E-1,-1.015979481E1,-8.744821548E-1,-3.896563351E-1
1.000784955E0,-1.005445004E1,-9.415197968E-1,-4.662707746E-1
1.003272664E0,-9.929951668E0,-9.750386477E-1,-5.189431906E-1
1.005760372E0,-9.843760490E0,-9.989806414E-1,-5.380968451E-1
1.008248080E0,-9.805453300E0,-1.018134236E0,-5.716156363E-1
1.010735789E0,-9.786299706E0,-9.894038439E-1,-6.242880821E-1
1.013223497E0,-9.762357712E0,-9.606734514E-1,-6.817489266E-1
1.015711205E0,-9.747992516E0,-9.415197968E-1,-7.104793787E-1
1.018198914E0,-9.738415718E0,-9.510966539E-1,-7.631517649E-1
1.020686622E0,-9.738415718E0,-9.558850527E-1,-8.349778652E-1
1.023174330E0,-9.747992516E0,-9.463081956E-1,-9.498994946E-1
1.025662039E0,-9.757569313E0,-9.080010056E-1,-1.117493629E0
1.028149747E0,-9.752780914E0,-8.601169586E-1,-1.232415318E0
1.030637455E0,-9.747992516E0,-8.170213103E-1,-1.342548609E0
1.033125164E0,-9.728838921E0,-7.739257216E-1,-1.409586191E0
1.035612872E0,-9.724050522E0,-7.451952696E-1,-1.419163108E0
1.038100580E0,-9.719262123E0,-7.356184721E-1,-1.390432596E0
1.040588289E0,-9.714473724E0,-7.116764784E-1,-1.366490602E0
1.043075997E0,-9.719262123E0,-6.829460263E-1,-1.313818216E0
1.045563705E0,-9.757569313E0,-6.398503780E-1,-1.246780515E0
1.048051414E0,-9.781511307E0,-5.680243373E-1,-1.165377736E0
1.050539122E0,-9.791088104E0,-5.201402903E-1,-1.079186440E0
1.053026830E0,-9.786299706E0,-4.866214991E-1,-1.002571940E0
1.055514539E0,-9.757569313E0,-4.578910768E-1,-9.307458997E-1
1.058002247E0,-9.724050522E0,-4.435258508E-1,-8.493430614E-1
1.060489955E0,-9.695320129E0,-4.243722558E-1,-7.775170207E-1
1.062977664E0,-9.647436142E0,-3.956418335E-1,-7.152677774E-1
1.065465372E0,-9.609128952E0,-3.908534348E-1,-6.434416771E-1
1.067953080E0,-9.580398560E0,-3.908534348E-1,-5.476736426E-1
1.070440789E0,-9.551667213E0,-3.764882088E-1,-4.423287511E-1
1.072928497E0,-9.566033363E0,-3.956418335E-1,-3.513490856E-1
1.075416205E0,-9.561244011E0,-3.860650361E-1,-2.795230448E-1
1.077903914E0,-9.561244011E0,-4.052186310E-1,-2.364274114E-1
1.080391622E0,-9.561244011E0,-4.483142793E-1,-2.076970041E-1
1.082879330E0,-9.566033363E0,-4.818331003E-1,-2.029085904E-1
1.085367039E0,-9.513360023E0,-5.632359385E-1,-1.837549806E-1
1.087854695E0,-9.484629631E0,-6.206967831E-1,-1.885433793E-1
1.090342351E0,-9.446322441E0,-6.877344251E-1,-1.885433793E-1
1.092830007E0,-9.403226852E0,-7.595604658E-1,-1.789665818E-1
1.095317664E0,-9.369708061E0,-8.122329116E-1,-1.502361596E-1
1.097805320E0,-9.369708061E0,-8.218097091E-1,-6.404489279E-2
1.100292976E0,-9.355342865E0,-8.122329116E-1,2.214636654E-2
1.102780632E0,-9.379284859E0,-7.787141204E-1,1.131260321E-1
1.105268289E0,-9.408015251E0,-7.308300734E-1,2.328361124E-1
1.107755945E0,-9.470264435E0,-6.877344251E-1,3.812766075E-1
1.110243601E0,-9.551667213E0,-6.494272351E-1,5.153518915E-1
1.112731257E0,-9.613917351E0,-6.063315868E-1,6.542156339E-1
1.115218914E0,-9.685743332E0,-5.392939448E-1,7.787141204E-1
1.117706570E0,-9.738415718E0,-4.626794755E-1,9.367313981E-1
1.120194226E0,-9.795876503E0,-4.004302323E-1,1.099537134E0
1.122681882E0,-9.800664902E0,-3.429693878E-1,1.238400817E0
1.125169539E0,-9.810241699E0,-3.142389655E-1,1.353322506E0
1.127657195E0,-9.786299706E0,-2.711433470E-1,1.453878999E0
1.130144851E0,-9.786299706E0,-2.663549483E-1,1.535281897E0
1.132632507E0,-9.786299706E0,-2.807201445E-1,1.573589087E0
1.135120164E0,-9.810241699E0,-2.950853705E-1,1.597531080E0
1.137607820E0,-9.819818497E0,-2.998737693E-1,1.578377485E0
1.140095476E0,-9.805453300E0,-3.238157928E-1,1.544858694E0
1.142583132E0,-9.762357712E0,-3.381809890E-1,1.482609391E0
1.145070789E0,-9.719262123E0,-3.286041915E-1,1.382052898E0
1.147558445E0,-9.671378136E0,-3.333925903E-1,1.224035621E0
1.150046101E0,-9.623494148E0,-3.429693878E-1,1.042076349E0
1.152533757E0,-9.599552155E0,-3.333925903E-1,8.457517624E-1
1.155021414E0,-9.556455612E0,-3.333925903E-1,6.398503780E-1
1.157509070E0,-9.537302017E0,-3.238157928E-1,4.195838571E-1
1.159996726E0,-9.532513618E0,-2.807201445E-1,1.945288926E-1
1.162484382E0,-9.546878815E0,-2.519897223E-1,-6.584054790E-3
1.164972039E0,-9.594763756E0,-2.136825025E-1,-2.220622003E-1
1.167459747E0,-9.623494148E0,-1.705868691E-1,-4.088099301E-1
1.169947455E0,-9.700108528E0,-1.657984704E-1,-5.907692909E-1
1.172435164E0,-9.757569313E0,-1.657984704E-1,-7.439981699E-1
1.174922872E0,-9.800664902E0,-1.705868691E-1,-8.493430614E-1
1.177410580E0,-9.843760490E0,-1.897404790E-1,-9.403226972E-1
1.179898289E0,-9.891644478E0,-2.136825025E-1,-1.036090732E0
1.182385997E0,-9.891644478E0,-2.232593149E-1,-1.107916832E0
1.184873705E0,-9.891644478E0,-2.519897223E-1,-1.165377736E0
1.187361414E0,-9.882067680E0,-2.615665495E-1,-1.232415318E0
1.189849122E0,-9.877279282E0,-2.807201445E-1,-1.265934110E0
1.192336830E0,-9.848548889E0,-3.286041915E-1,-1.347337008E0
1.194824539E0,-9.834183693E0,-4.004302323E-1,-1.400009394E0
1.197312247E0,-9.815030098E0,-4.578910768E-1,-1.452681899E0
1.199799955E0,-9.810241699E0,-5.488707423E-1,-1.524507880E0
1.202287664E0,-9.795876503E0,-6.159083843E-1,-1.605910778E0
1.204775372E0,-9.771934509E0,-6.829460263E-1,-1.653794765E0
1.207263080E0,-9.747992516E0,-6.973112226E-1,-1.716044068E0
1.209750789E0,-9.743204117E0,-7.068880796E-1,-1.787870169E0
1.212238497E0,-9.762357712E0,-7.068880796E-1,-1.859696150E0
1.214726205E0,-9.776722908E0,-7.116764784E-1,-1.921945453E0
1.217213914E0,-9.781511307E0,-7.164648771E-1,-1.969829440E0
1.219701622E0,-9.805453300E0,-6.973112226E-1,-2.022501945E0
1.222189330E0,-9.853337288E0,-6.829460263E-1,-2.065597534E0
1.224677039E0,-9.886856079E0,-6.637924314E-1,-2.123058319E0
1.227164747E0,-9.920374870E0,-6.637924314E-1,-2.156577110E0
1.229652455E0,-9.982624054E0,-6.398503780E-1,-2.218826532E0
1.232140164E0,-1.004487324E1,-6.254851818E-1,-2.285864115E0
1.234627872E0,-1.010233402E1,-6.111199856E-1,-2.348113298E0
1.237115580E0,-1.015021801E1,-5.728127360E-1,-2.395997286E0
1.239603289E0,-1.015979481E1,-5.345055461E-1,-2.443881273E0
1.242090997E0,-1.020289040E1,-5.009866953E-1,-2.491765499E0
1.244578705E0,-1.022204399E1,-4.387374520E-1,-2.554014683E0
1.247066414E0,-1.022683239E1,-3.908534348E-1,-2.577956676E0
1.249554122E0,-1.022683239E1,-4.004302323E-1,-2.582745075E0
1.252041830E0,-1.023640919E1,-3.956418335E-1,-2.558803082E0
1.254529539E0,-1.021246719E1,-4.195838571E-1,-2.515707493E0
1.257017247E0,-1.019331360E1,-4.483142793E-1,-2.463035107E0
1.259504955E0,-1.015500641E1,-4.914098978E-1,-2.391208887E0
1.261992664E0,-1.011669922E1,-5.201402903E-1,-2.319382906E0
1.264480372E0,-1.007360363E1,-5.297171474E-1,-2.223614931E0
1.266968080E0,-1.003529644E1,-5.345055461E-1,-2.089539528E0
1.269455789E0,-9.973047256E0,-5.297171474E-1,-1.955464244E0
1.271943497E0,-9.929951668E0,-5.297171474E-1,-1.802235365E0
1.274431205E0,-9.896432877E0,-5.201402903E-1,-1.701678872E0
1.276918914E0,-9.838972092E0,-5.201402903E-1,-1.596333981E0
1.279406622E0,-9.791088104E0,-4.961982965E-1,-1.471835494E0
1.281894330E0,-9.767146111E0,-4.914098978E-1,-1.376067400E0
1.284382039E0,-9.757569313E0,-4.578910768E-1,-1.270722508E0
1.286869747E0,-9.771934509E0,-4.291606545E-1,-1.174954534E0
1.289357455E0,-9.848548889E0,-4.004302323E-1,-1.064821243E0
1.291845164E0,-9.929951668E0,-3.525462151E-1,-9.259575009E-1
1.294332872E0,-1.002571964E1,-2.807201445E-1,-8.206126094E-1
1.296820580E0,-1.007839203E1,-2.088941038E-1,-7.392097712E-1
1.299308289E0,-1.013585281E1,-1.562216580E-1,-6.769605279E-1
1.301795997E0,-1.018373680E1,-1.179144308E-1,-6.625953317E-1
1.304283705E0,-1.019331360E1,-1.131260321E-1,-6.865373254E-1
1.306771414E0,-1.018373680E1,-1.370680481E-1,-7.439981699E-1
1.309259122E0,-1.015500641E1,-1.801636815E-1,-8.158242106E-1
1.311746830E0,-1.010712242E1,-2.328361124E-1,-8.924387097E-1
1.314234539E0,-1.004487324E1,-2.998737693E-1,-9.690531492E-1
1.316722247E0,-9.973047256E0,-3.812766075E-1,-1.060032845E0
1.319209955E0,-9.886856079E0,-4.626794755E-1,-1.170166135E0
1.321697664E0,-9.771934509E0,-5.823895931E-1,-1.289876223E0
1.324185372E0,-9.685743332E0,-6.973112226E-1,-1.390432596E0
1.326673080E0,-9.609128952E0,-8.074445128E-1,-1.486200690E0
1.329160789E0,-9.522936821E0,-9.127894044E-1,-1.572391987E0
1.331648497E0,-9.446322441E0,-1.032499433E0,-1.658583283E0
1.334136205E0,-9.350554466E0,-1.176151633E0,-1.730409265E0
1.336623914E0,-9.249998093E0,-1.305438519E0,-1.792658567E0
1.339111622E0,-9.149441719E0,-1.396418095E0,-1.850119352E0
1.341599330E0,-9.077615738E0,-1.501762986E0,-1.888426542E0
1.344087039E0,-9.024943352E0,-1.564012289E0,-1.893214941E0
1.346574747E0,-8.981847763E0,-1.626261473E0,-1.888426542E0
1.349062455E0,-8.948328972E0,-1.664568782E0,-1.859696150E0
1.351550164E0,-8.929175377E0,-1.669357181E0,-1.826177359E0
1.354037872E0,-8.924386978E0,-1.650203466E0,-1.773504853E0
1.356525580E0,-8.943540573E0,-1.631049871E0,-1.687313676E0
1.359013289E0,-8.977059364E0,-1.578377485E0,-1.610699177E0
1.361500997E0,-9.020154953E0,-1.540070295E0,-1.514931083E0
1.363988705E0,-9.077615738E0,-1.473032594E0,-1.433528304E0
1.366476414E0,-9.149441719E0,-1.386841297E0,-1.328183413E0
1.368964122E0,-9.254786491E0,-1.291073322E0,-1.218050122E0
1.371451830E0,-9.364919662E0,-1.190516829E0,-1.160589218E0
1.373939539E0,-9.465476036E0,-1.094748735E0,-1.083974838E0
1.376427247E0,-9.561244011E0,-9.702502489E-1,-9.929951429E-1
1.378914955E0,-9.642647743E0,-8.744821548E-1,-9.259575009E-1
1.381402664E0,-9.728838921E0,-7.643488646E-1,-8.876502514E-1
1.383890372E0,-9.819818497E0,-6.781576276E-1,-8.589198589E-1
1.386378080E0,-9.915586472E0,-6.015431881E-1,-8.254010081E-1
1.388865789E0,-9.996989250E0,-4.770447016E-1,-7.918822169E-1
1.391353497E0,-1.006402683E1,-3.860650361E-1,-7.439981699E-1
1.393841205E0,-1.013106441E1,-3.238157928E-1,-7.104793787E-1
1.396328914E0,-1.022683239E1,-2.855085433E-1,-6.578069329E-1
1.398816622E0,-1.029865837E1,-2.472013235E-1,-6.386532784E-1
1.401304330E0,-1.038006115E1,-2.041056901E-1,-5.811924338E-1
1.403792039E0,-1.046625233E1,-1.801636815E-1,-5.189431906E-1
1.406279747E0,-1.050934792E1,-1.370680481E-1,-4.519055784E-1
1.408767455E0,-1.057159805E1,-1.083376259E-1,-4.088099301E-1
1.411255164E0,-1.061948204E1,-9.397241473E-2,-3.848679364E-1
1.413742872E0,-1.067215443E1,-7.960720360E-2,-3.513490856E-1
1.416230580E0,-1.070088482E1,-9.397241473E-2,-3.561375141E-1
1.418718289E0,-1.068173122E1,-1.083376259E-1,-3.800795078E-1
1.421205997E0,-1.060990524E1,-1.370680481E-1,-4.040215313E-1
1.423693705E0,-1.056202126E1,-2.088941038E-1,-4.231751561E-1
1.426181414E0,-1.050455952E1,-2.855085433E-1,-4.854243994E-1
1.428669122E0,-1.041357994E1,-3.669114113E-1,-5.572504401E-1
1.431156830E0,-1.031781197E1,-4.578910768E-1,-6.147112846E-1
1.433644487E0,-1.020289040E1,-5.392939448E-1,-6.961141229E-1
1.436132143E0,-1.007839203E1,-6.254851818E-1,-7.870938182E-1
1.438619799E0,-9.958682060E0,-7.116764784E-1,-8.684966564E-1
1.441107455E0,-9.824606895E0,-7.787141204E-1,-9.307458997E-1
1.443595112E0,-9.738415718E0,-8.170213103E-1,-9.786299467E-1
1.446082768E0,-9.647436142E0,-8.601169586E-1,-1.016937137E0
1.448570424E0,-9.580398560E0,-8.792705536E-1,-1.012148738E0
1.451058080E0,-9.546878815E0,-8.984242082E-1,-1.021725535E0
1.453545737E0,-9.537302017E0,-8.840589523E-1,-1.021725535E0
1.456033393E0,-9.546878815E0,-8.696937561E-1,-9.929951429E-1
1.458521049E0,-9.551667213E0,-8.505401611E-1,-9.834183455E-1
1.461008705E0,-9.546878815E0,-8.074445128E-1,-9.451110959E-1
1.463496362E0,-9.542090416E0,-7.643488646E-1,-8.924387097E-1
1.465984018E0,-9.542090416E0,-7.260416746E-1,-8.445546627E-1
1.468471674E0,-9.542090416E0,-6.829460263E-1,-7.918822169E-1
1.470959330E0,-9.542090416E0,-6.350619793E-1,-7.296329737E-1
1.473446987E0,-9.561244011E0,-5.776011348E-1,-6.721721292E-1
1.475934643E0,-9.589975357E0,-5.009866953E-1,-6.194996834E-1
1.478422299E0,-9.585186958E0,-4.339490533E-1,-5.764040351E-1
1.480909955E0,-9.566033363E0,-3.812766075E-1,-5.572504401E-1
1.483397612E0,-9.551667213E0,-3.333925903E-1,-5.572504401E-1
1.485885268E0,-9.532513618E0,-2.855085433E-1,-5.907692909E-1
1.488372924E0,-9.542090416E0,-2.663549483E-1,-6.338648796E-1
1.490860580E0,-9.532513618E0,-2.663549483E-1,-6.865373254E-1
1.493348237E0,-9.470264435E0,-2.663549483E-1,-7.583633661E-1
1.495835893E0,-9.422380447E0,-2.519897223E-1,-8.301894665E-1
1.498323549E0,-9.374496460E0,-2.759317458E-1,-9.020155072E-1
1.500811205E0,-9.345766068E0,-3.142389655E-1,-9.451110959E-1
1.503298862E0,-9.331400871E0,-3.286041915E-1,-9.882067442E-1
1.505786518E0,-9.317035675E0,-3.669114113E-1,-1.002571940E0
1.508274174E0,-9.297882080E0,-4.243722558E-1,-1.002571940E0
1.510761882E0,-9.293093681E0,-4.770447016E-1,-1.016937137E0
1.513249591E0,-9.312247276E0,-5.345055461E-1,-1.026513934E0
1.515737299E0,-9.307458878E0,-6.063315868E-1,-1.060032845E0
1.518225007E0,-9.283516884E0,-6.829460263E-1,-1.093551636E0
1.520712716E0,-9.259574890E0,-7.595604658E-1,-1.131858826E0
1.523200424E0,-9.235632896E0,-8.361749649E-1,-1.174954534E0
1.525688132E0,-9.202114105E0,-8.792705536E-1,-1.194108129E0
1.528175841E0,-9.178172112E0,-9.367313981E-1,-1.237203717E0
1.530663549E0,-9.163806915E0,-9.846154451E-1,-1.261145711E0
1.533151257E0,-9.159018517E0,-1.018134236E0,-1.285087705E0
1.535638966E0,-9.159018517E0,-1.018134236E0,-1.289876223E0
1.538126674E0,-9.187748909E0,-9.941922426E-1,-1.304241419E0
1.540614382E0,-9.230844498E0,-9.367313981E-1,-1.294664621E0
1.543102091E0,-9.269151688E0,-8.744821548E-1,-1.313818216E0
1.545589799E0,-9.350554466E0,-7.882909179E-1,-1.356913805E0
1.548077507E0,-9.436745644E0,-7.308300734E-1,-1.428739905E0
1.550565216E0,-9.527725220E0,-6.542156339E-1,-1.467047095E0
1.553052924E0,-9.623494148E0,-5.919663906E-1,-1.534084797E0
1.555540632E0,-9.685743332E0,-5.297171474E-1,-1.567603588E0
1.558028341E0,-9.771934509E0,-4.674678743E-1,-1.610699177E0
1.560516049E0,-9.862914085E0,-3.908534348E-1,-1.644217968E0
1.563003757E0,-9.977835655E0,-3.094505668E-1,-1.639429569E0
1.565491466E0,-1.005923843E1,-2.280477136E-1,-1.639429569E0
1.567979174E0,-1.012627602E1,-1.418564469E-1,-1.625064373E0
1.570466882E0,-1.019810200E1,-7.003039867E-2,-1.620275974E0
1.572954591E0,-1.026992798E1,1.137245819E-2,-1.629852772E0
1.575442299E0,-1.034654236E1,8.798690885E-2,-1.629852772E0
1.577930007E0,-1.040400314E1,1.406593472E-1,-1.644217968E0
1.580417716E0,-1.045188713E1,1.885433793E-1,-1.672948480E0
1.582905424E0,-1.049019432E1,2.316390127E-1,-1.696890473E0
1.585393132E0,-1.048061752E1,2.651578486E-1,-1.735197663E0
1.587880841E0,-1.046146393E1,2.651578486E-1,-1.763928056E0
1.590368549E0,-1.043273354E1,2.460042238E-1,-1.787870169E0
1.592856257E0,-1.038963795E1,2.172738016E-1,-1.830965757E0
1.595343966E0,-1.034654236E1,1.741781682E-1,-1.854907751E0
1.597831674E0,-1.029865837E1,1.262941360E-1,-1.869272947E0
1.600319382E0,-1.025077438E1,5.446808785E-2,-1.878849745E0
1.602807091E0,-1.019331360E1,-1.256955881E-2,-1.874061346E0
1.605294799E0,-1.011669922E1,-7.960720360E-2,-1.830965757E0
1.607782507E0,-1.002093124E1,-1.849520802E-1,-1.792658567E0
1.610270216E0,-9.915586472E0,-3.094505668E-1,-1.749562860E0
1.612757924E0,-9.829395294E0,-4.195838571E-1,-1.701678872E0
1.615245632E0,-9.709685326E0,-5.440823436E-1,-1.658583283E0
1.617733341E0,-9.561244011E0,-6.685808301E-1,-1.629852772E0
1.620221049E0,-9.436745644E0,-7.787141204E-1,-1.581968784E0
1.622708757E0,-9.340977669E0,-8.984242082E-1,-1.534084797E0
1.625196466E0,-9.254786491E0,-1.018134236E0,-1.471835494E0
1.627684174E0,-9.192537308E0,-1.094748735E0,-1.385644197E0
1.630171882E0,-9.130288124E0,-1.176151633E0,-1.313818216E0
1.632659591E0,-9.077615738E0,-1.238400817E0,-1.237203717E0
1.635147299E0,-9.048885345E0,-1.271919608E0,-1.155800819E0
1.637635007E0,-9.010578156E0,-1.286284804E0,-1.093551636E0
1.640122716E0,-9.001001358E0,-1.305438519E0,-1.055244446E0
1.642610424E0,-9.005789757E0,-1.305438519E0,-9.882067442E-1
1.645098132E0,-9.005789757E0,-1.305438519E0,-9.355342984E-1
1.647585841E0,-9.034520149E0,-1.310226917E0,-8.924387097E-1
1.650073549E0,-9.029731750E0,-1.291073322E0,-8.589198589E-1
1.652561257E0,-9.053673744E0,-1.257554412E0,-8.254010081E-1
1.655048966E0,-9.044096947E0,-1.224035621E0,-7.966706157E-1
1.657536674E0,-9.048885345E0,-1.176151633E0,-7.966706157E-1
1.660024382E0,-9.068038940E0,-1.142632723E0,-8.301894665E-1
1.662512091E0,-9.077615738E0,-1.075595140E0,-8.780734539E-1
1.664999799E0,-9.130288124E0,-1.013345838E0,-9.163807034E-1
1.667487507E0,-9.211690903E0,-9.463081956E-1,-9.642647505E-1
1.669975216E0,-9.302670479E0,-8.457517624E-1,-1.026513934E0
1.672462924E0,-9.398438454E0,-7.691373229E-1,-1.088763237E0
1.674950632E0,-9.508571625E0,-6.925228238E-1,-1.112705231E0
1.677438341E0,-9.599552155E0,-5.919663906E-1,-1.146224022E0
1.679926049E0,-9.685743332E0,-4.866214991E-1,-1.194108129E0
1.682413757E0,-9.752780914E0,-3.956418335E-1,-1.237203717E0
1.684901466E0,-9.805453300E0,-3.238157928E-1,-1.275510907E0
1.687389174E0,-9.882067680E0,-2.519897223E-1,-1.318606615E0
1.689876882E0,-9.934740067E0,-2.041056901E-1,-1.409586191E0
1.692364591E0,-9.958682060E0,-1.322796494E-1,-1.481412292E0
1.694852299E0,-1.001135445E1,-6.524199992E-2,-1.519719481E0
1.697340007E0,-1.004487324E1,-1.735796221E-2,-1.581968784E0
1.699827716E0,-1.007360363E1,3.531447425E-2,-1.620275974E0
1.702315424E0,-1.009754562E1,8.319851011E-2,-1.696890473E0
1.704803132E0,-1.013106441E1,1.119289324E-1,-1.763928056E0
1.707290841E0,-1.012627602E1,9.756372124E-2,-1.854907751E0
1.709778549E0,-1.011191082E1,7.362170517E-2,-1.950675845E0
1.712266257E0,-1.006402683E1,3.531447425E-2,-2.032078743E0
1.714753966E0,-9.996989250E0,-2.693476900E-2,-2.094327927E0
1.717241674E0,-9.901221275E0,-1.035492271E-1,-2.151788712E0
1.719729382E0,-9.815030098E0,-1.753752679E-1,-2.151788712E0
1.722217091E0,-9.738415718E0,-2.567781210E-1,-2.137423515E0
1.724704799E0,-9.647436142E0,-3.190273643E-1,-2.108693123E0
1.727192507E0,-9.546878815E0,-3.908534348E-1,-2.089539528E0
1.729680216E0,-9.455899239E0,-4.818331003E-1,-2.075174332E0
1.732167924E0,-9.379284859E0,-5.440823436E-1,-2.051232338E0
1.734655632E0,-9.321824074E0,-6.111199856E-1,-2.041655540E0
1.737143341E0,-9.288305283E0,-6.637924314E-1,-2.008136749E0
1.739631049E0,-9.278728485E0,-7.020996213E-1,-1.988983035E0
1.742118757E0,-9.278728485E0,-7.068880796E-1,-1.907580256E0
1.744606466E0,-9.331400871E0,-6.925228238E-1,-1.850119352E0
1.747094174E0,-9.379284859E0,-6.542156339E-1,-1.783081770E0
1.749581882E0,-9.451110840E0,-5.967547894E-1,-1.687313676E0
1.752069591E0,-9.513360023E0,-5.153518915E-1,-1.596333981E0
1.754557299E0,-9.589975357E0,-4.531026781E-1,-1.510142684E0
1.757045007E0,-9.633070946E0,-4.004302323E-1,-1.428739905E0
1.759532716E0,-9.738415718E0,-3.525462151E-1,-1.347337008E0
1.762020424E0,-9.810241699E0,-2.807201445E-1,-1.289876223E0
1.764508132E0,-9.877279282E0,-2.184709013E-1,-1.241992116E0
1.766995841E0,-9.953893661E0,-1.562216580E-1,-1.198896527E0
1.769483549E0,-1.003050804E1,-9.397241473E-2,-1.203684926E0
1.771971257E0,-1.011669922E1,-2.693476900E-2,-1.208473325E0
1.774458966E0,-1.018852520E1,3.531447425E-2,-1.237203717E0
1.776946674E0,-1.026035118E1,9.277531505E-2,-1.309029818E0
1.779434382E0,-1.031302357E1,1.406593472E-1,-1.395220995E0
1.781922091E0,-1.034175396E1,1.646013707E-1,-1.510142684E0
1.784409799E0,-1.035133076E1,1.550245583E-1,-1.601122379E0
1.786897507E0,-1.030823517E1,1.406593472E-1,-1.706467271E0
1.789385216E0,-1.024598598E1,1.119289324E-1,-1.826177359E0
1.791872924E0,-1.019331360E1,8.798690885E-2,-1.921945453E0
1.794360632E0,-1.014542961E1,4.967968538E-2,-2.017713547E0
1.796848341E0,-1.008318043E1,3.052607179E-2,-2.099116325E0
1.799336049E0,-1.005923843E1,1.137245819E-2,-2.132635117E0
1.801823757E0,-1.005445004E1,-2.992752008E-3,-2.161365509E0
1.804311466E0,-1.002571964E1,-2.693476900E-2,-2.194884300E0
1.806799122E0,-1.002093124E1,-5.566519126E-2,-2.228403330E0
1.809286778E0,-9.987412453E0,-8.439560980E-2,-2.257133722E0
1.811774434E0,-9.944316864E0,-1.227028370E-1,-2.300229311E0
1.814262091E0,-9.891644478E0,-1.705868691E-1,-2.328959703E0
1.816749747E0,-9.805453300E0,-2.232593149E-1,-2.333748102E0
1.819237403E0,-9.724050522E0,-2.998737693E-1,-2.372055292E0
1.821725059E0,-9.657012939E0,-3.716998100E-1,-2.381632090E0
1.824212716E0,-9.546878815E0,-4.435258508E-1,-2.391208887E0
1.826700372E0,-9.479841232E0,-5.105634928E-1,-2.376843691E0
1.829188028E0,-9.393650055E0,-5.632359385E-1,-2.357690096E0
1.831675684E0,-9.307458878E0,-6.111199856E-1,-2.305017710E0
1.834163341E0,-9.221267700E0,-6.494272351E-1,-2.285864115E0
1.836650997E0,-9.159018517E0,-6.973112226E-1,-2.233191729E0
1.839138653E0,-9.106346130E0,-7.451952696E-1,-2.185307503E0
1.841626309E0,-9.077615738E0,-7.882909179E-1,-2.142211914E0
1.844113966E0,-9.058462143E0,-8.313865662E-1,-2.065597534E0
1.846601622E0,-9.048885345E0,-8.601169586E-1,-1.974617839E0
1.849089278E0,-9.068038940E0,-8.888474107E-1,-1.854907751E0
1.851576934E0,-9.091980934E0,-8.984242082E-1,-1.735197663E0
1.854064591E0,-9.130288124E0,-8.696937561E-1,-1.596333981E0
1.856552247E0,-9.178172112E0,-8.553285599E-1,-1.495777488E0
1.859039903E0,-9.221267700E0,-8.313865662E-1,-1.385644197E0
1.861527559E0,-9.254786491E0,-7.882909179E-1,-1.323395014E0
1.864015216E0,-9.288305283E0,-7.404068708E-1,-1.246780515E0
1.866502872E0,-9.331400871E0,-7.020996213E-1,-1.160589218E0
1.868990528E0,-9.388861656E0,-6.590040326E-1,-1.107916832E0
1.871478184E0,-9.446322441E0,-6.206967831E-1,-1.069609642E0
1.873965841E0,-9.484629631E0,-5.584475398E-1,-1.050456047E0
1.876453497E0,-9.532513618E0,-5.057750940E-1,-1.060032845E0
1.878941153E0,-9.589975357E0,-4.626794755E-1,-1.060032845E0
1.881428862E0,-9.642647743E0,-4.147954583E-1,-1.083974838E0
1.883916570E0,-9.690531731E0,-3.764882088E-1,-1.117493629E0
1.886404278E0,-9.738415718E0,-3.381809890E-1,-1.141435623E0
1.888891987E0,-9.791088104E0,-2.807201445E-1,-1.165377736E0
1.891379695E0,-9.829395294E0,-2.519897223E-1,-1.208473325E0
1.893867403E0,-9.862914085E0,-2.424129248E-1,-1.241992116E0
1.896355112E0,-9.896432877E0,-2.567781210E-1,-1.280299306E0
1.898842820E0,-9.896432877E0,-2.759317458E-1,-1.309029818E0
1.901330528E0,-9.896432877E0,-2.902969420E-1,-1.376067400E0
1.903818237E0,-9.853337288E0,-3.094505668E-1,-1.428739905E0
1.906305945E0,-9.824606895E0,-3.381809890E-1,-1.481412292E0
1.908793653E0,-9.791088104E0,-3.812766075E-1,-1.538873196E0
1.911281362E0,-9.762357712E0,-3.764882088E-1,-1.586757183E0
1.913769070E0,-9.747992516E0,-3.812766075E-1,-1.644217968E0
1.916256778E0,-9.752780914E0,-4.004302323E-1,-1.649006367E0
1.918744487E0,-9.738415718E0,-4.195838571E-1,-1.677736878E0
1.921232195E0,-9.733627319E0,-4.195838571E-1,-1.687313676E0
1.923719903E0,-9.700108528E0,-4.291606545E-1,-1.682525277E0
1.926207612E0,-9.690531731E0,-4.387374520E-1,-1.663371682E0
1.928695320E0,-9.652224541E0,-4.674678743E-1,-1.658583283E0
1.931183028E0,-9.633070946E0,-4.818331003E-1,-1.629852772E0
1.933670737E0,-9.652224541E0,-4.674678743E-1,-1.601122379E0
1.936158445E0,-9.676166534E0,-4.722562730E-1,-1.553238392E0
1.938646153E0,-9.719262123E0,-4.578910768E-1,-1.471835494E0
1.941133862E0,-9.743204117E0,-4.195838571E-1,-1.400009394E0
1.943621570E0,-9.757569313E0,-3.860650361E-1,-1.347337008E0
1.946109278E0,-9.805453300E0,-3.812766075E-1,-1.289876223E0
1.948596987E0,-9.805453300E0,-3.716998100E-1,-1.251568913E0
1.951084695E0,-9.800664902E0,-3.812766075E-1,-1.213261724E0
1.953572403E0,-9.781511307E0,-3.573346138E-1,-1.165377736E0
1.956060112E0,-9.733627319E0,-4.004302323E-1,-1.122282028E0
1.958547820E0,-9.680954933E0,-4.339490533E-1,-1.064821243E0
1.961035528E0,-9.609128952E0,-4.722562730E-1,-1.016937137E0
1.963523237E0,-9.542090416E0,-5.105634928E-1,-9.690531492E-1
1.966010945E0,-9.489418030E0,-5.440823436E-1,-9.546879530E-1
1.968498653E0,-9.417592049E0,-5.967547894E-1,-9.211691022E-1
1.970986362E0,-9.379284859E0,-6.254851818E-1,-8.972271085E-1
1.973474070E0,-9.340977669E0,-6.781576276E-1,-8.780734539E-1
1.975961778E0,-9.340977669E0,-7.164648771E-1,-8.684966564E-1
1.978449487E0,-9.355342865E0,-7.547720671E-1,-8.397662640E-1
1.980937195E0,-9.374496460E0,-7.643488646E-1,-8.206126094E-1
1.983424903E0,-9.369708061E0,-7.499836683E-1,-8.014590144E-1
1.985912612E0,-9.364919662E0,-7.547720671E-1,-7.918822169E-1
1.988400320E0,-9.360131264E0,-7.595604658E-1,-7.918822169E-1
1.990888028E0,-9.350554466E0,-7.404068708E-1,-7.966706157E-1
1.993375737E0,-9.336189270E0,-7.404068708E-1,-8.254010081E-1
1.995863445E0,-9.326612473E0,-7.356184721E-1,-8.349778652E-1
1.998351153E0,-9.331400871E0,-7.356184721E-1,-8.493430614E-1
2.000838862E0,-9.321824074E0,-7.499836683E-1,-8.828618526E-1
2.003326570E0,-9.326612473E0,-7.547720671E-1,-9.068039060E-1
2.005814278E0,-9.331400871E0,-7.499836683E-1,-9.307458997E-1
2.008301987E0,-9.355342865E0,-7.404068708E-1,-9.594763517E-1
2.010789695E0,-9.388861656E0,-7.499836683E-1,-9.929951429E-1
2.013277403E0,-9.422380447E0,-7.404068708E-1,-1.016937137E0
2.015765112E0,-9.441534042E0,-7.308300734E-1,-1.050456047E0
2.018252820E0,-9.470264435E0,-7.356184721E-1,-1.060032845E0
2.020740528E0,-9.465476036E0,-7.164648771E-1,-1.088763237E0
2.023228237E0,-9.465476036E0,-6.829460263E-1,-1.098340034E0
2.025715945E0,-9.484629631E0,-6.590040326E-1,-1.117493629E0
2.028203653E0,-9.498994827E0,-6.302735806E-1,-1.136647224E0
2.030691362E0,-9.503783226E0,-6.254851818E-1,-1.146224022E0
2.033179070E0,-9.508571625E0,-5.871779919E-1,-1.165377736E0
2.035666778E0,-9.489418030E0,-5.871779919E-1,-1.165377736E0
2.038154487E0,-9.518148422E0,-5.967547894E-1,-1.184531331E0
2.040642195E0,-9.537302017E0,-5.776011348E-1,-1.189319730E0
2.043129903E0,-9.585186958E0,-5.584475398E-1,-1.174954534E0
2.045617612E0,-9.628282547E0,-5.536591411E-1,-1.151012421E0
2.048105320E0,-9.690531731E0,-5.057750940E-1,-1.103128433E0
2.050593028E0,-9.719262123E0,-4.578910768E-1,-1.074398041E0
2.053080737E0,-9.747992516E0,-4.100070298E-1,-1.036090732E0
2.055568445E0,-9.786299706E0,-3.525462151E-1,-1.040879130E0
2.058056153E0,-9.795876503E0,-3.381809890E-1,-1.055244446E0
2.060543862E0,-9.786299706E0,-3.190273643E-1,-1.083974838E0
2.063031570E0,-9.786299706E0,-2.902969420E-1,-1.127070427E0
2.065519278E0,-9.795876503E0,-2.759317458E-1,-1.170166135E0
2.068006987E0,-9.800664902E0,-2.950853705E-1,-1.208473325E0
2.070494695E0,-9.786299706E0,-2.855085433E-1,-1.256357312E0
2.072982403E0,-9.781511307E0,-3.046621680E-1,-1.309029818E0
2.075470112E0,-9.757569313E0,-3.046621680E-1,-1.352125406E0
2.077957820E0,-9.752780914E0,-2.855085433E-1,-1.404797792E0
2.080445528E0,-9.743204117E0,-2.950853705E-1,-1.481412292E0
2.082933237E0,-9.752780914E0,-3.190273643E-1,-1.548449993E0
2.085420945E0,-9.743204117E0,-3.381809890E-1,-1.596333981E0
2.087908653E0,-9.757569313E0,-3.573346138E-1,-1.668160081E0
2.090396362E0,-9.743204117E0,-3.860650361E-1,-1.739986062E0
2.092884070E0,-9.695320129E0,-4.195838571E-1,-1.811812162E0
2.095371778E0,-9.666589737E0,-4.578910768E-1,-1.883638144E0
2.097859487E0,-9.623494148E0,-4.866214991E-1,-1.960252643E0
2.100347195E0,-9.566033363E0,-5.297171474E-1,-2.051232338E0
2.102834903E0,-9.532513618E0,-5.967547894E-1,-2.118269920E0
2.105322612E0,-9.503783226E0,-6.398503780E-1,-2.170942307E0
2.107810320E0,-9.484629631E0,-6.637924314E-1,-2.190095901E0
2.110298028E0,-9.475052834E0,-6.542156339E-1,-2.194884300E0
2.112785737E0,-9.479841232E0,-6.542156339E-1,-2.190095901E0
2.115273445E0,-9.503783226E0,-6.350619793E-1,-2.175730705E0
2.117761153E0,-9.542090416E0,-6.159083843E-1,-2.137423515E0
2.120248862E0,-9.599552155E0,-5.871779919E-1,-2.137423515E0
2.122736570E0,-9.652224541E0,-5.392939448E-1,-2.094327927E0
2.125224278E0,-9.709685326E0,-4.866214991E-1,-2.065597534E0
2.127711987E0,-9.762357712E0,-4.243722558E-1,-2.051232338E0
2.130199695E0,-9.819818497E0,-3.621230125E-1,-2.036867142E0
2.132687403E0,-9.882067680E0,-3.142389655E-1,-2.012925148E0
2.135175112E0,-9.934740067E0,-2.615665495E-1,-1.998559833E0
2.137662820E0,-9.949105263E0,-2.184709013E-1,-1.984194636E0
2.140150528E0,-9.992200851E0,-1.849520802E-1,-1.960252643E0
2.142638237E0,-1.001135445E1,-1.418564469E-1,-1.936310649E0
2.145125945E0,-1.002571964E1,-8.439560980E-2,-1.898003340E0
2.147613653E0,-1.004966164E1,-7.003039867E-2,-1.830965757E0
2.150101362E0,-1.004487324E1,-3.651157767E-2,-1.735197663E0
2.152589070E0,-1.005923843E1,-2.693476900E-2,-1.644217968E0
2.155076778E0,-1.009275723E1,-3.172317147E-2,-1.581968784E0
2.157564487E0,-1.009275723E1,-2.214636654E-2,-1.529296279E0
2.160052195E0,-1.010712242E1,-2.693476900E-2,-1.462258697E0
2.162539903E0,-1.012627602E1,-2.693476900E-2,-1.409586191E0
2.165027612E0,-1.015021801E1,-2.693476900E-2,-1.380855799E0
2.167515320E0,-1.016458321E1,-1.735796221E-2,-1.323395014E0
2.170003028E0,-1.016458321E1,1.795651275E-3,-1.285087705E0
2.172490737E0,-1.018852520E1,1.137245819E-2,-1.265934110E0
2.174978445E0,-1.017894840E1,-7.781155407E-3,-1.270722508E0
2.177466153E0,-1.017416000E1,-3.172317147E-2,-1.285087705E0
2.179953862E0,-1.013585281E1,-6.524199992E-2,-1.275510907E0
2.182441570E0,-1.008318043E1,-1.083376259E-1,-1.309029818E0
2.184929278E0,-1.003050804E1,-1.370680481E-1,-1.323395014E0
2.187416987E0,-9.992200851E0,-1.562216580E-1,-1.313818216E0
2.189904695E0,-9.944316864E0,-1.849520802E-1,-1.299453020E0
2.192392403E0,-9.934740067E0,-2.136825025E-1,-1.285087705E0
2.194880112E0,-9.906009674E0,-2.424129248E-1,-1.289876223E0
2.197367820E0,-9.882067680E0,-2.711433470E-1,-1.275510907E0
2.199855528E0,-9.862914085E0,-2.950853705E-1,-1.265934110E0
2.202343237E0,-9.862914085E0,-3.142389655E-1,-1.261145711E0
2.204830945E0,-9.843760490E0,-3.333925903E-1,-1.270722508E0
2.207318653E0,-9.824606895E0,-3.333925903E-1,-1.261145711E0
2.209806362E0,-9.805453300E0,-3.286041915E-1,-1.256357312E0
2.212294070E0,-9.824606895E0,-3.238157928E-1,-1.246780515E0
2.214781726E0,-9.834183693E0,-3.190273643E-1,-1.251568913E0
2.217269382E0,-9.848548889E0,-3.046621680E-1,-1.270722508E0
2.219757039E0,-9.882067680E0,-3.046621680E-1,-1.280299306E0
2.222244695E0,-9.925163269E0,-2.855085433E-1,-1.285087705E0
2.224732351E0,-9.963470459E0,-2.519897223E-1,-1.280299306E0
2.227220007E0,-1.001614285E1,-2.136825025E-1,-1.285087705E0
2.229707664E0,-1.004487324E1,-1.610100716E-1,-1.299453020E0
2.232195320E0,-1.006402683E1,-1.083376259E-1,-1.289876223E0
2.234682976E0,-1.006881523E1,-7.003039867E-2,-1.289876223E0
2.237170632E0,-1.005445004E1,-4.129998013E-2,-1.323395014E0
2.239658289E0,-1.005923843E1,-2.214636654E-2,-1.385644197E0
2.242145945E0,-1.005445004E1,-2.992752008E-3,-1.409586191E0
2.244633601E0,-1.006881523E1,1.795651275E-3,-1.419163108E0
2.247121257E0,-1.010233402E1,6.584054790E-3,-1.462258697E0
2.249608914E0,-1.012627602E1,2.573766746E-2,-1.481412292E0
2.252096570E0,-1.011669922E1,3.052607179E-2,-1.495777488E0
2.254584226E0,-1.008796883E1,3.531447425E-2,-1.510142684E0
2.257071882E0,-1.007360363E1,1.616086066E-2,-1.543661594E0
2.259559539E0,-1.005445004E1,6.584054790E-3,-1.553238392E0
2.262047195E0,-1.003050804E1,-7.781155407E-3,-1.548449993E0
2.264534851E0,-1.000656605E1,-2.693476900E-2,-1.534084797E0
2.267022507E0,-9.992200851E0,-5.566519126E-2,-1.505354285E0
2.269510164E0,-9.968258858E0,-7.003039867E-2,-1.476623893E0
2.271997820E0,-9.953893661E0,-9.876082093E-2,-1.447893500E0
2.274485476E0,-9.915586472E0,-1.179144308E-1,-1.419163108E0
2.276973132E0,-9.891644478E0,-1.370680481E-1,-1.376067400E0
2.279460789E0,-9.858125687E0,-1.753752679E-1,-1.328183413E0
2.281948445E0,-9.834183693E0,-2.088941038E-1,-1.285087705E0
2.284436101E0,-9.781511307E0,-2.376245260E-1,-1.218050122E0
2.286923809E0,-9.738415718E0,-2.519897223E-1,-1.179742932E0
2.289411518E0,-9.695320129E0,-2.998737693E-1,-1.131858826E0
2.291899226E0,-9.647436142E0,-3.477577865E-1,-1.079186440E0
2.294386934E0,-9.599552155E0,-3.621230125E-1,-1.021725535E0
2.296874643E0,-9.561244011E0,-3.764882088E-1,-9.403226972E-1
2.299362351E0,-9.522936821E0,-4.052186310E-1,-8.876502514E-1
2.301850059E0,-9.498994827E0,-3.956418335E-1,-8.397662640E-1
2.304337768E0,-9.465476036E0,-4.195838571E-1,-8.062474132E-1
2.306825476E0,-9.441534042E0,-4.387374520E-1,-7.727286220E-1
2.309313184E0,-9.422380447E0,-4.483142793E-1,-7.200561762E-1
2.311800893E0,-9.417592049E0,-4.435258508E-1,-6.913257241E-1
2.314288601E0,-9.417592049E0,-4.387374520E-1,-6.290764809E-1
2.316776309E0,-9.403226852E0,-4.291606545E-1,-5.764040351E-1
2.319264018E0,-9.398438454E0,-4.291606545E-1,-5.476736426E-1
2.321751726E0,-9.384073257E0,-4.291606545E-1,-5.189431906E-1
2.324239434E0,-9.379284859E0,-4.243722558E-1,-4.854243994E-1
2.326727143E0,-9.412803650E0,-4.100070298E-1,-4.758476019E-1
2.329214851E0,-9.451110840E0,-3.764882088E-1,-4.854243994E-1
2.331702559E0,-9.494206429E0,-3.333925903E-1,-4.806360006E-1
2.334190268E0,-9.503783226E0,-2.902969420E-1,-4.758476019E-1
2.336677976E0,-9.503783226E0,-2.663549483E-1,-4.997895956E-1
2.339165684E0,-9.508571625E0,-2.136825025E-1,-5.189431906E-1
2.341653393E0,-9.503783226E0,-1.897404790E-1,-5.572504401E-1
2.344141101E0,-9.498994827E0,-1.753752679E-1,-6.051344872E-1
2.346628809E0,-9.503783226E0,-1.610100716E-1,-6.530185342E-1
2.349116518E0,-9.527725220E0,-1.514332592E-1,-7.056909800E-1
2.351604226E0,-9.532513618E0,-1.466448605E-1,-7.535749674E-1
2.354091934E0,-9.532513618E0,-1.418564469E-1,-8.158242106E-1
2.356579643E0,-9.542090416E0,-1.466448605E-1,-8.780734539E-1
2.359067351E0,-9.537302017E0,-1.514332592E-1,-9.211691022E-1
2.361555059E0,-9.503783226E0,-1.466448605E-1,-9.498994946E-1
2.364042768E0,-9.484629631E0,-1.610100716E-1,-1.002571940E0
2.366530476E0,-9.455899239E0,-1.705868691E-1,-1.055244446E0
2.369018184E0,-9.441534042E0,-1.753752679E-1,-1.079186440E0
2.371505893E0,-9.455899239E0,-1.753752679E-1,-1.117493629E0
2.373993601E0,-9.455899239E0,-1.897404790E-1,-1.136647224E0
2.376481309E0,-9.455899239E0,-1.945288926E-1,-1.151012421E0
2.378969018E0,-9.441534042E0,-2.136825025E-1,-1.165377736E0
2.381456726E0,-9.446322441E0,-2.376245260E-1,-1.165377736E0
2.383944434E0,-9.422380447E0,-2.567781210E-1,-1.170166135E0
2.386432143E0,-9.393650055E0,-2.950853705E-1,-1.170166135E0
2.388919851E0,-9.345766068E0,-3.333925903E-1,-1.179742932E0
2.391407559E0,-9.302670479E0,-3.812766075E-1,-1.174954534E0
2.393895268E0,-9.273940086E0,-4.243722558E-1,-1.165377736E0
2.396382976E0,-9.245209694E0,-4.722562730E-1,-1.155800819E0
2.398870684E0,-9.197325706E0,-5.153518915E-1,-1.136647224E0
2.401358393E0,-9.130288124E0,-5.392939448E-1,-1.131858826E0
2.403846101E0,-9.077615738E0,-5.680243373E-1,-1.112705231E0
2.406333809E0,-9.005789757E0,-6.063315868E-1,-1.098340034E0
2.408821518E0,-8.919598579E0,-6.302735806E-1,-1.088763237E0
2.411309226E0,-8.866926193E0,-6.637924314E-1,-1.088763237E0
2.413796934E0,-8.790311813E0,-6.973112226E-1,-1.060032845E0
2.416284643E0,-8.737639427E0,-7.404068708E-1,-1.050456047E0
2.418772351E0,-8.675390244E0,-7.882909179E-1,-1.031302333E0
2.421260059E0,-8.613141060E0,-8.313865662E-1,-1.012148738E0
2.423747768E0,-8.584410667E0,-8.696937561E-1,-9.882067442E-1
2.426235476E0,-8.531737328E0,-8.984242082E-1,-9.546879530E-1
2.428723184E0,-8.469488144E0,-9.367313981E-1,-9.068039060E-1
2.431210893E0,-8.450334549E0,-9.510966539E-1,-8.541314602E-1
2.433698601E0,-8.412027359E0,-9.654618502E-1,-7.918822169E-1
2.436186309E0,-8.407238960E0,-9.463081956E-1,-7.009025216E-1
2.438674018E0,-8.402450562E0,-9.367313981E-1,-6.099228859E-1
2.441161726E0,-8.412027359E0,-9.415197968E-1,-5.141547918E-1
2.443649434E0,-8.431180954E0,-9.319429994E-1,-4.327519536E-1
2.446137143E0,-8.431180954E0,-9.510966539E-1,-3.465606868E-1
2.448624851E0,-8.416815758E0,-9.798270464E-1,-2.795230448E-1
2.451112559E0,-8.388085365E0,-1.003769040E0,-2.412158251E-1
2.453600268E0,-8.335412979E0,-1.018134236E0,-1.789665818E-1
2.456087976E0,-8.287528992E0,-1.013345838E0,-1.262941360E-1
2.458575684E0,-8.234856606E0,-1.022922635E0,-8.798690885E-2
2.461063393E0,-8.177395821E0,-1.022922635E0,-4.489128292E-2
2.463551101E0,-8.129511833E0,-1.027711034E0,-3.531447425E-2
2.466038809E0,-8.067262650E0,-1.013345838E0,-1.137245819E-2
2.468526518E0,-8.052897453E0,-1.022922635E0,7.781155407E-3
2.471014226E0,-8.038532257E0,-1.003769040E0,4.129998013E-2
2.473501934E0,-8.052897453E0,-9.894038439E-1,7.960720360E-2
2.475989643E0,-8.048109055E0,-9.606734514E-1,1.131260321E-1
2.478477351E0,-8.043320656E0,-9.510966539E-1,1.418564469E-1
2.480965059E0,-8.043320656E0,-9.463081956E-1,1.610100716E-1
2.483452768E0,-8.043320656E0,-9.367313981E-1,1.753752679E-1
2.485940476E0,-8.043320656E0,-9.463081956E-1,1.849520802E-1
2.488428184E0,-8.038532257E0,-9.463081956E-1,1.753752679E-1
2.490915893E0,-8.043320656E0,-9.510966539E-1,1.849520802E-1
2.493403601E0,-8.024167061E0,-9.367313981E-1,1.562216580E-1
2.495891309E0,-8.009801865E0,-9.127894044E-1,1.466448605E-1
2.498379018E0,-8.000225067E0,-9.032126069E-1,1.370680481E-1
2.500866726E0,-8.005013466E0,-9.080010056E-1,1.179144308E-1
2.503354434E0,-8.005013466E0,-8.984242082E-1,1.035492271E-1
2.505842143E0,-8.024167061E0,-8.936358094E-1,7.960720360E-2
2.508329851E0,-8.052897453E0,-8.984242082E-1,5.566519126E-2
2.510817559E0,-8.067262650E0,-9.223662019E-1,2.693476900E-2
2.513305268E0,-8.100781441E0,-9.175778031E-1,-1.616086066E-2
2.515792976E0,-8.134300232E0,-9.319429994E-1,-5.925649032E-2
2.518280684E0,-8.148665428E0,-9.750386477E-1,-1.023521200E-1
2.520768393E0,-8.143877029E0,-9.894038439E-1,-1.550245583E-1
2.523256101E0,-8.129511833E0,-1.008557439E0,-2.076970041E-1
2.525743809E0,-8.124723434E0,-1.027711034E0,-2.460042238E-1
2.528231518E0,-8.091204643E0,-1.027711034E0,-2.699462473E-1
2.530719226E0,-8.052897453E0,-1.032499433E0,-2.890998423E-1
2.533206934E0,-8.024167061E0,-1.061229944E0,-3.130418658E-1
2.535694643E0,-7.990648270E0,-1.066018343E0,-3.226186931E-1
2.538182351E0,-7.947552681E0,-1.066018343E0,-3.369838893E-1
2.540670059E0,-7.918822289E0,-1.080383539E0,-3.657143116E-1
2.543157768E0,-7.894880295E0,-1.099537134E0,-3.561375141E-1
2.545645476E0,-7.894880295E0,-1.099537134E0,-3.657143116E-1
2.548133184E0,-7.899668694E0,-1.094748735E0,-3.609259129E-1
2.550620893E0,-7.866149902E0,-1.075595140E0,-3.609259129E-1
2.553108601E0,-7.846996307E0,-1.061229944E0,-3.513490856E-1
2.555596309E0,-7.851784706E0,-1.037287831E0,-3.369838893E-1
2.558084018E0,-7.856573105E0,-9.989806414E-1,-3.178302646E-1
2.560571726E0,-7.861361504E0,-9.798270464E-1,-2.795230448E-1
2.563059434E0,-7.842207432E0,-9.463081956E-1,-2.316390127E-1
2.565547143E0,-7.813477039E0,-9.175778031E-1,-2.076970041E-1
2.568034851E0,-7.775169849E0,-8.888474107E-1,-1.885433793E-1
2.570522559E0,-7.756016254E0,-9.080010056E-1,-1.837549806E-1
2.573010268E0,-7.741651058E0,-9.127894044E-1,-1.789665818E-1
2.575497976E0,-7.732074261E0,-8.984242082E-1,-1.693897694E-1
2.577985684E0,-7.751227856E0,-8.744821548E-1,-1.406593472E-1
2.580473393E0,-7.736862659E0,-8.505401611E-1,-1.502361596E-1
2.582961101E0,-7.717709064E0,-8.218097091E-1,-1.215057373E-1
2.585448809E0,-7.684190273E0,-8.122329116E-1,-1.215057373E-1
2.587936518E0,-7.645883083E0,-7.930793166E-1,-1.215057373E-1
2.590424226E0,-7.612364292E0,-7.739257216E-1,-1.406593472E-1
2.592911934E0,-7.588422298E0,-7.691373229E-1,-1.502361596E-1
2.595399643E0,-7.545326710E0,-7.882909179E-1,-1.550245583E-1
2.597887351E0,-7.526173115E0,-8.074445128E-1,-1.598129570E-1
2.600375059E0,-7.473500729E0,-8.265981078E-1,-1.693897694E-1
2.602862768E0,-7.411251545E0,-8.696937561E-1,-1.598129570E-1
2.605350476E0,-7.382521152E0,-9.223662019E-1,-1.406593472E-1
2.607838184E0,-7.387309551E0,-9.558850527E-1,-1.215057373E-1
2.610325893E0,-7.396886349E0,-9.894038439E-1,-8.319851011E-2
2.612813601E0,-7.435193539E0,-1.013345838E0,-4.010287672E-2
2.615301309E0,-7.478289127E0,-1.046864748E0,7.781155407E-3
2.617789018E0,-7.483077526E0,-1.075595140E0,6.045359373E-2
2.620276726E0,-7.516596317E0,-1.061229944E0,8.918401599E-2
2.622764434E0,-7.559691906E0,-1.075595140E0,1.322796494E-1
2.625252143E0,-7.554903507E0,-1.094748735E0,1.657984704E-1
2.627739851E0,-7.583633900E0,-1.099537134E0,2.041056901E-1
2.630227559E0,-7.621941090E0,-1.109113932E0,2.041056901E-1
2.632715268E0,-7.650671482E0,-1.152209520E0,2.376245260E-1
2.635202976E0,-7.684190273E0,-1.171363235E0,2.424129248E-1
2.637690684E0,-7.717709064E0,-1.195305228E0,2.567781210E-1
2.640178393E0,-7.746439457E0,-1.219247222E0,2.567781210E-1
2.642666101E0,-7.779958248E0,-1.219247222E0,2.807201445E-1
2.645153809E0,-7.866149902E0,-1.200093627E0,3.429693878E-1
2.647641518E0,-7.947552681E0,-1.147421122E0,4.052186310E-1
2.650129226E0,-8.038532257E0,-1.109113932E0,4.674678743E-1
2.652616934E0,-8.105569839E0,-1.037287831E0,5.153518915E-1
2.655104643E0,-8.167819023E0,-9.941922426E-1,5.345055461E-1
2.657592351E0,-8.230068207E0,-9.989806414E-1,5.584475398E-1
2.660080059E0,-8.292317390E0,-9.894038439E-1,5.728127360E-1
2.662567768E0,-8.311470985E0,-9.846154451E-1,5.823895931E-1
2.665055476E0,-8.325836182E0,-9.750386477E-1,5.919663906E-1
2.667543184E0,-8.349778175E0,-9.558850527E-1,6.302735806E-1
2.670030893E0,-8.378508568E0,-9.558850527E-1,6.733692288E-1
2.672518601E0,-8.402450562E0,-9.080010056E-1,7.212532759E-1
2.675006309E0,-8.435969353E0,-8.505401611E-1,7.930793166E-1
2.677494018E0,-8.450334549E0,-7.930793166E-1,8.601169586E-1
2.679981674E0,-8.455122948E0,-7.547720671E-1,9.271546006E-1
2.682469330E0,-8.435969353E0,-7.020996213E-1,9.894038439E-1
2.684956987E0,-8.378508568E0,-6.733692288E-1,1.022922635E0
2.687444643E0,-8.330624580E0,-6.685808301E-1,1.037287831E0
2.689932299E0,-8.258798599E0,-6.733692288E-1,1.018134236E0
2.692419955E0,-8.167819023E0,-6.685808301E-1,1.008557439E0
2.694907612E0,-8.081627846E0,-6.733692288E-1,9.654618502E-1
2.697395268E0,-7.971494675E0,-7.020996213E-1,9.558850527E-1
2.699882924E0,-7.846996307E0,-7.020996213E-1,9.367313981E-1
2.702370580E0,-7.746439457E0,-6.973112226E-1,9.080010056E-1
2.704858237E0,-7.636306286E0,-7.212532759E-1,9.415197968E-1
2.707345893E0,-7.530961514E0,-7.404068708E-1,9.654618502E-1
2.709833549E0,-7.449558735E0,-7.835025191E-1,9.989806414E-1
2.712321205E0,-7.368155956E0,-8.361749649E-1,1.027711034E0
2.714808862E0,-7.272387505E0,-9.032126069E-1,1.070806742E0
2.717296518E0,-7.176619530E0,-9.798270464E-1,1.075595140E0
2.719784174E0,-7.114370346E0,-1.066018343E0,1.070806742E0
2.722271830E0,-7.061697960E0,-1.161786318E0,1.051653147E0
2.724759487E0,-7.028179169E0,-1.238400817E0,1.056441545E0
2.727247143E0,-7.009025574E0,-1.310226917E0,1.070806742E0
2.729734799E0,-7.047332764E0,-1.358110905E0,1.089960337E0
2.732222455E0,-7.104793549E0,-1.396418095E0,1.080383539E0
2.734710112E0,-7.176619530E0,-1.415571809E0,1.046864748E0
2.737197768E0,-7.291541100E0,-1.425148606E0,9.989806414E-1
2.739685424E0,-7.387309551E0,-1.420360208E0,9.223662019E-1
2.742173080E0,-7.502231121E0,-1.420360208E0,8.601169586E-1
2.744660737E0,-7.645883083E0,-1.434725404E0,7.691373229E-1
2.747148393E0,-7.760804653E0,-1.429937005E0,6.877344251E-1
2.749636049E0,-7.870938301E0,-1.434725404E0,6.159083843E-1
2.752123757E0,-7.947552681E0,-1.444302201E0,5.536591411E-1
2.754611466E0,-8.009801865E0,-1.463455796E0,5.249287486E-1
2.757099174E0,-8.086416245E0,-1.477820992E0,5.105634928E-1
2.759586882E0,-8.134300232E0,-1.482609391E0,5.345055461E-1
2.762074591E0,-8.182184219E0,-1.477820992E0,5.728127360E-1
2.764562299E0,-8.220491409E0,-1.482609391E0,6.159083843E-1
2.767050007E0,-8.273163795E0,-1.434725404E0,6.781576276E-1
2.769537716E0,-8.316259384E0,-1.405994892E0,7.308300734E-1
2.772025424E0,-8.325836182E0,-1.358110905E0,7.835025191E-1
2.774513132E0,-8.340201378E0,-1.348534107E0,8.361749649E-1
2.777000841E0,-8.330624580E0,-1.343745708E0,8.792705536E-1
2.779488549E0,-8.321047783E0,-1.343745708E0,9.175778031E-1
2.781976257E0,-8.282740593E0,-1.353322506E0,9.558850527E-1
2.784463966E0,-8.230068207E0,-1.362899303E0,1.013345838E0
2.786951674E0,-8.158242226E0,-1.362899303E0,1.046864748E0
2.789439382E0,-8.086416245E0,-1.362899303E0,1.089960337E0
2.791927091E0,-8.009801865E0,-1.367687702E0,1.128267527E0
2.794414799E0,-7.952341080E0,-1.377264500E0,1.161786318E0
2.796902507E0,-7.942764282E0,-1.401206493E0,1.180940032E0
2.799390216E0,-7.909245491E0,-1.425148606E0,1.204882026E0
2.801877924E0,-7.894880295E0,-1.463455796E0,1.204882026E0
2.804365632E0,-7.851784706E0,-1.477820992E0,1.204882026E0
2.806853341E0,-7.842207432E0,-1.473032594E0,1.219247222E0
2.809341049E0,-7.827842236E0,-1.468244195E0,1.228824019E0
2.811828757E0,-7.827842236E0,-1.468244195E0,1.243189216E0
2.814316466E0,-7.808688641E0,-1.449090600E0,1.262342811E0
2.816804174E0,-7.818265438E0,-1.458667397E0,1.300650120E0
2.819291882E0,-7.823053837E0,-1.496974587E0,1.324592113E0
2.821779591E0,-7.846996307E0,-1.540070295E0,1.338957310E0
2.824267299E0,-7.894880295E0,-1.597531080E0,1.353322506E0
2.826755007E0,-8.000225067E0,-1.659780383E0,1.382052898E0
2.829242716E0,-8.110358238E0,-1.688510776E0,1.415571809E0
2.831730424E0,-8.225279808E0,-1.707664371E0,1.429937005E0
2.834218132E0,-8.349778175E0,-1.731606364E0,1.444302201E0
2.836705841E0,-8.455122948E0,-1.726817966E0,1.429937005E0
2.839193549E0,-8.536525726E0,-1.726817966E0,1.405994892E0
2.841681257E0,-8.617929459E0,-1.717241168E0,1.338957310E0
2.844168966E0,-8.699332237E0,-1.707664371E0,1.281496406E0
2.846656674E0,-8.799888611E0,-1.707664371E0,1.214458823E0
2.849144382E0,-8.895656586E0,-1.693299174E0,1.152209520E0
2.851632091E0,-8.991424561E0,-1.698087573E0,1.099537134E0
2.854119799E0,-9.072827339E0,-1.693299174E0,1.075595140E0
2.856607507E0,-9.163806915E0,-1.688510776E0,1.061229944E0
2.859095216E0,-9.245209694E0,-1.674145579E0,1.027711034E0
2.861582924E0,-9.312247276E0,-1.659780383E0,1.003769040E0
2.864070632E0,-9.345766068E0,-1.659780383E0,9.558850527E-1
2.866558341E0,-9.355342865E0,-1.650203466E0,9.415197968E-1
2.869046049E0,-9.388861656E0,-1.645415068E0,8.936358094E-1
2.871533757E0,-9.403226852E0,-1.645415068E0,8.744821548E-1
2.874021466E0,-9.393650055E0,-1.635838270E0,8.265981078E-1
2.876509174E0,-9.369708061E0,-1.631049871E0,7.835025191E-1
2.878996882E0,-9.345766068E0,-1.640626669E0,7.356184721E-1
2.881484591E0,-9.345766068E0,-1.635838270E0,7.068880796E-1
2.883972299E0,-9.355342865E0,-1.654991984E0,6.781576276E-1
2.886460007E0,-9.364919662E0,-1.669357181E0,6.781576276E-1
2.888947716E0,-9.384073257E0,-1.683722377E0,7.068880796E-1
2.891435424E0,-9.398438454E0,-1.664568782E0,7.260416746E-1
2.893923132E0,-9.388861656E0,-1.669357181E0,7.691373229E-1
2.896410841E0,-9.374496460E0,-1.688510776E0,7.930793166E-1
2.898898549E0,-9.345766068E0,-1.712452769E0,8.122329116E-1
2.901386257E0,-9.307458878E0,-1.745971560E0,8.361749649E-1
2.903873966E0,-9.321824074E0,-1.755548358E0,8.505401611E-1
2.906361674E0,-9.364919662E0,-1.774701953E0,8.696937561E-1
2.908849382E0,-9.412803650E0,-1.774701953E0,9.175778031E-1
2.911337091E0,-9.465476036E0,-1.760336757E0,9.798270464E-1
2.913824799E0,-9.508571625E0,-1.765125155E0,1.085171938E0
2.916312507E0,-9.561244011E0,-1.784278870E0,1.171363235E0
2.918800216E0,-9.637859344E0,-1.813009262E0,1.257554412E0
2.921287924E0,-9.733627319E0,-1.856104851E0,1.343745708E0
2.923775632E0,-9.838972092E0,-1.889623642E0,1.420360208E0
2.926263341E0,-9.953893661E0,-1.889623642E0,1.501762986E0
2.928751049E0,-1.008796883E1,-1.913565755E0,1.559223890E0
2.931238757E0,-1.021246719E1,-1.932719350E0,1.607107878E0
2.933726466E0,-1.034654236E1,-1.913565755E0,1.650203466E0
2.936214174E0,-1.047104073E1,-1.913565755E0,1.707664371E0
2.938701882E0,-1.055244446E1,-1.894412041E0,1.755548358E0
2.941189591E0,-1.064821243E1,-1.851316452E0,1.760336757E0
2.943677299E0,-1.073440361E1,-1.841739655E0,1.765125155E0
2.946165007E0,-1.079665279E1,-1.836951256E0,1.750759959E0
2.948652716E0,-1.081580639E1,-1.808220863E0,1.707664371E0
2.951140424E0,-1.082059479E1,-1.813009262E0,1.640626669E0
2.953628132E0,-1.082059479E1,-1.822586060E0,1.583165884E0
2.956115841E0,-1.077749920E1,-1.832162857E0,1.487397790E0
2.958603549E0,-1.074398041E1,-1.856104851E0,1.401206493E0
2.961091257E0,-1.071046162E1,-1.865681648E0,1.305438519E0
2.963578966E0,-1.065778923E1,-1.894412041E0,1.224035621E0
2.966066674E0,-1.059075165E1,-1.918354154E0,1.137844324E0
2.968554382E0,-1.050455952E1,-1.971026540E0,1.046864748E0
2.971042091E0,-1.043752193E1,-2.004545450E0,9.510966539E-1
2.973529799E0,-1.036569595E1,-2.038064241E0,8.601169586E-1
2.976017507E0,-1.031302357E1,-2.081159830E0,7.835025191E-1
2.978505216E0,-1.027471638E1,-2.129043818E0,6.877344251E-1
2.980992924E0,-1.026035118E1,-2.152985811E0,6.350619793E-1
2.983480632E0,-1.024119759E1,-2.186504602E0,5.823895931E-1
2.985968341E0,-1.023640919E1,-2.181716204E0,5.584475398E-1
2.988456049E0,-1.023162079E1,-2.215235233E0,5.680243373E-1
2.990943757E0,-1.020767879E1,-2.229600430E0,6.111199856E-1
2.993431466E0,-1.019810200E1,-2.267907619E0,6.637924314E-1
2.995919174E0,-1.019810200E1,-2.287061214E0,7.116764784E-1
2.998406882E0,-1.017894840E1,-2.306214809E0,7.835025191E-1
3.000894591E0,-1.015979481E1,-2.339733601E0,8.409633636E-1
3.003382299E0,-1.012627602E1,-2.368463993E0,9.319429994E-1
3.005870007E0,-1.011191082E1,-2.416347980E0,9.941922426E-1
3.008357716E0,-1.008318043E1,-2.454655409E0,1.056441545E0
3.010845424E0,-1.006402683E1,-2.464232206E0,1.142632723E0
3.013333132E0,-1.004008484E1,-2.473809004E0,1.195305228E0
3.015820841E0,-1.003050804E1,-2.492962599E0,1.252766013E0
3.018308549E0,-1.004008484E1,-2.483385801E0,1.319803715E0
3.020796257E0,-1.005445004E1,-2.445078373E0,1.410783410E0
3.023283966E0,-1.006881523E1,-2.406771183E0,1.501762986E0
3.025771674E0,-1.009275723E1,-2.378040791E0,1.568800688E0
3.028259382E0,-1.011669922E1,-2.339733601E0,1.659780383E0
3.030747091E0,-1.012627602E1,-2.330156803E0,1.765125155E0
3.033234799E0,-1.009754562E1,-2.311003208E0,1.841739655E0
3.035722507E0,-1.005923843E1,-2.277484417E0,1.903988957E0
3.038210216E0,-9.996989250E0,-2.267907619E0,1.961449742E0
3.040697924E0,-9.939528465E0,-2.234388828E0,1.999756932E0
3.043185632E0,-9.886856079E0,-2.181716204E0,2.028487444E0
3.045673341E0,-9.819818497E0,-2.148197412E0,2.042852640E0
3.048161049E0,-9.767146111E0,-2.109890223E0,2.052429438E0
3.050648757E0,-9.728838921E0,-2.085948229E0,2.038064241E0
3.053136466E0,-9.680954933E0,-2.081159830E0,1.990180135E0
3.055624174E0,-9.633070946E0,-2.076371431E0,1.961449742E0
3.058111882E0,-9.589975357E0,-2.085948229E0,1.908777356E0
3.060599591E0,-9.542090416E0,-2.095525026E0,1.865681648E0
3.063087299E0,-9.494206429E0,-2.124255419E0,1.817797661E0
3.065575007E0,-9.451110840E0,-2.133832216E0,1.741183162E0
3.068062716E0,-9.451110840E0,-2.157774210E0,1.683722377E0
3.070550424E0,-9.484629631E0,-2.196081400E0,1.640626669E0
3.073038132E0,-9.522936821E0,-2.205658197E0,1.592742682E0
3.075525841E0,-9.585186958E0,-2.205658197E0,1.554435492E0
3.078013549E0,-9.647436142E0,-2.220023632E0,1.487397790E0
3.080501257E0,-9.719262123E0,-2.239177227E0,1.439513803E0
3.082988966E0,-9.767146111E0,-2.239177227E0,1.391629696E0
3.085476674E0,-9.786299706E0,-2.253542423E0,1.358110905E0
3.087964382E0,-9.824606895E0,-2.267907619E0,1.353322506E0
3.090452091E0,-9.886856079E0,-2.282272816E0,1.338957310E0
3.092939799E0,-9.953893661E0,-2.325368404E0,1.334168911E0
3.095427507E0,-1.001135445E1,-2.344521999E0,1.348534107E0
3.097915216E0,-1.006881523E1,-2.363675594E0,1.367687702E0
3.100402924E0,-1.014064121E1,-2.378040791E0,1.391629696E0
3.102890632E0,-1.019810200E1,-2.382829189E0,1.449090600E0
3.105378341E0,-1.028429317E1,-2.368463993E0,1.520916581E0
3.107866049E0,-1.037048435E1,-2.334945202E0,1.592742682E0
3.110353757E0,-1.044231033E1,-2.282272816E0,1.650203466E0
3.112841466E0,-1.050455952E1,-2.210446835E0,1.765125155E0
3.115329174E0,-1.057159805E1,-2.133832216E0,1.875258446E0
3.117816882E0,-1.061469364E1,-2.081159830E0,1.951872945E0
3.120304591E0,-1.064342403E1,-2.033275843E0,2.042852640E0
3.122792299E0,-1.065778923E1,-2.023699045E0,2.081159830E0
3.125280007E0,-1.062905884E1,-2.004545450E0,2.143409014E0
3.127767716E0,-1.060990524E1,-1.999756932E0,2.172139406E0
3.130255424E0,-1.056680965E1,-1.985391736E0,2.196081400E0
3.132743132E0,-1.050934792E1,-1.980603337E0,2.205658197E0
3.135230841E0,-1.044231033E1,-1.947084546E0,2.210446835E0
3.137718549E0,-1.038963795E1,-1.908777356E0,2.205658197E0
3.140206257E0,-1.032738876E1,-1.889623642E0,2.191293001E0
3.142693966E0,-1.027950478E1,-1.836951256E0,2.176927805E0
3.145181674E0,-1.025077438E1,-1.822586060E0,2.133832216E0
3.147669382E0,-1.022683239E1,-1.851316452E0,2.071583033E0
3.150157091E0,-1.022683239E1,-1.880046844E0,2.023699045E0
3.152644799E0,-1.022683239E1,-1.913565755E0,1.999756932E0
3.155132507E0,-1.023162079E1,-1.942296147E0,1.990180135E0
3.157620216E0,-1.025077438E1,-1.980603337E0,1.980603337E0
3.160107924E0,-1.026035118E1,-2.014122248E0,1.975814939E0
3.162595632E0,-1.029865837E1,-2.028487444E0,1.980603337E0
3.165083341E0,-1.033696556E1,-2.066794634E0,1.990180135E0
3.167571049E0,-1.035611916E1,-2.105101824E0,2.014122248E0
3.170058757E0,-1.040400314E1,-2.148197412E0,2.028487444E0
3.172546466E0,-1.046146393E1,-2.196081400E0,2.028487444E0
3.175034174E0,-1.049977112E1,-2.196081400E0,2.038064241E0
3.177521882E0,-1.054286766E1,-2.181716204E0,2.047641039E0
3.180009591E0,-1.058117485E1,-2.176927805E0,2.057217836E0
3.182497299E0,-1.064342403E1,-2.167351007E0,2.057217836E0
3.184985007E0,-1.067215443E1,-2.162562609E0,2.066794634E0
3.187472716E0,-1.073440361E1,-2.148197412E0,2.085948229E0
3.189960424E0,-1.076792240E1,-2.114678621E0,2.100313425E0
3.192448132E0,-1.079665279E1,-2.076371431E0,2.095525026E0
3.194935841E0,-1.082059479E1,-2.066794634E0,2.066794634E0
3.197423549E0,-1.083974838E1,-2.047641039E0,2.047641039E0
3.199911257E0,-1.083495998E1,-2.023699045E0,2.047641039E0
3.202398966E0,-1.083974838E1,-2.004545450E0,2.047641039E0
3.204886674E0,-1.084932518E1,-1.975814939E0,2.066794634E0
3.207374382E0,-1.083974838E1,-1.956661344E0,2.095525026E0
3.209862091E0,-1.084932518E1,-1.947084546E0,2.124255419E0
3.212349799E0,-1.085411358E1,-1.937507749E0,2.152985811E0
3.214837507E0,-1.084932518E1,-1.966238141E0,2.200869799E0
3.217325216E0,-1.086369038E1,-2.009333849E0,2.253542423E0
3.219812924E0,-1.090199757E1,-2.167351007E0,2.387617588E0
3.222300632E0,-1.074876881E1,-2.502539396E0,2.665344954E0
3.224788341E0,-1.046625233E1,-2.612672567E0,2.583942175E0
3.227276049E0,-1.040879154E1,-2.349310398E0,2.162562609E0
3.229763705E0,-1.042315674E1,-1.994968534E0,1.731606364E0
3.232251362E0,-1.044231033E1,-1.769913554E0,1.492186189E0
3.234739018E0,-1.049977112E1,-1.664568782E0,1.391629696E0
3.237226674E0,-1.061948204E1,-1.669357181E0,1.420360208E0
3.239714330E0,-1.080622959E1,-1.755548358E0,1.554435492E0
3.242201987E0,-1.097861195E1,-1.813009262E0,1.712452769E0
3.244689643E0,-1.115099430E1,-1.817797661E0,1.813009262E0
3.247177299E0,-1.127549267E1,-1.798644066E0,1.899200439E0
3.249664955E0,-1.135210705E1,-1.765125155E0,1.956661344E0
3.252152612E0,-1.136647224E1,-1.750759959E0,1.971026540E0
3.254640268E0,-1.135210705E1,-1.722029567E0,1.966238141E0
3.257127924E0,-1.130422306E1,-1.693299174E0,1.932719350E0
3.259615580E0,-1.124197388E1,-1.669357181E0,1.870470047E0
3.262103237E0,-1.120845509E1,-1.640626669E0,1.769913554E0
3.264590893E0,-1.117014790E1,-1.626261473E0,1.640626669E0
3.267078549E0,-1.112226391E1,-1.635838270E0,1.544858694E0
3.269566205E0,-1.106480312E1,-1.659780383E0,1.434725404E0
3.272053862E0,-1.098818874E1,-1.702875972E0,1.343745708E0
3.274541518E0,-1.094030476E1,-1.760336757E0,1.267131209E0
3.277029174E0,-1.091636276E1,-1.803432465E0,1.185728431E0
3.279516830E0,-1.086847878E1,-1.851316452E0,1.123479128E0
3.282004487E0,-1.083974838E1,-1.908777356E0,1.075595140E0
3.284492143E0,-1.081580639E1,-1.937507749E0,1.027711034E0
3.286979799E0,-1.078707600E1,-1.951872945E0,9.894038439E-1
3.289467455E0,-1.077749920E1,-1.985391736E0,9.654618502E-1
3.291955112E0,-1.077271080E1,-2.014122248E0,9.367313981E-1
3.294442768E0,-1.080144119E1,-2.062006235E0,9.463081956E-1
3.296930424E0,-1.083017159E1,-2.114678621E0,9.654618502E-1
3.299418132E0,-1.087326717E1,-2.181716204E0,1.027711034E0
3.301905841E0,-1.093072796E1,-2.253542423E0,1.104325533E0
3.304393549E0,-1.098818874E1,-2.306214809E0,1.171363235E0
3.306881257E0,-1.104564953E1,-2.368463993E0,1.271919608E0
3.309368966E0,-1.107437992E1,-2.392405987E0,1.420360208E0
3.311856674E0,-1.106959152E1,-2.449866772E0,1.564012289E0
3.314344382E0,-1.103607273E1,-2.488174200E0,1.698087573E0
3.316832091E0,-1.097861195E1,-2.536058187E0,1.789067268E0
3.319319799E0,-1.089242077E1,-2.583942175E0,1.899200439E0
3.321807507E0,-1.078228760E1,-2.655768156E0,1.971026540E0
3.324295216E0,-1.066257763E1,-2.732382774E0,2.042852640E0
3.326782924E0,-1.053807831E1,-2.823362350E0,2.066794634E0
3.329270632E0,-1.042794514E1,-2.899976730E0,2.095525026E0
3.331758341E0,-1.033696556E1,-2.962226152E0,2.124255419E0
3.334246049E0,-1.026992798E1,-3.034052134E0,2.157774210E0
3.336733757E0,-1.023162079E1,-3.086724520E0,2.210446835E0
3.339221466E0,-1.021246719E1,-3.120243311E0,2.248754025E0
3.341709174E0,-1.017894840E1,-3.120243311E0,2.287061214E0
3.344196882E0,-1.019331360E1,-3.096301317E0,2.306214809E0
3.346684591E0,-1.020289040E1,-3.038840532E0,2.330156803E0
3.349172299E0,-1.023162079E1,-2.971802950E0,2.315791607E0
3.351660007E0,-1.026035118E1,-2.876034737E0,2.320580006E0
3.354147716E0,-1.028429317E1,-2.804208755E0,2.330156803E0
3.356635424E0,-1.034175396E1,-2.718017578E0,2.315791607E0
3.359123132E0,-1.040879154E1,-2.646191359E0,2.315791607E0
3.361610841E0,-1.046146393E1,-2.555211782E0,2.330156803E0
3.364098549E0,-1.054765606E1,-2.459443808E0,2.311003208E0
3.366586257E0,-1.062427044E1,-2.368463993E0,2.311003208E0
3.369073966E0,-1.071525002E1,-2.287061214E0,2.287061214E0
3.371561674E0,-1.080144119E1,-2.196081400E0,2.287061214E0
3.374049382E0,-1.085411358E1,-2.119467020E0,2.248754025E0
3.376537091E0,-1.090678596E1,-2.047641039E0,2.186504602E0
3.379024799E0,-1.094509315E1,-1.971026540E0,2.152985811E0
3.381512507E0,-1.097861195E1,-1.913565755E0,2.090736628E0
3.384000216E0,-1.101691914E1,-1.870470047E0,2.076371431E0
3.386487924E0,-1.106480312E1,-1.841739655E0,2.114678621E0
3.388975632E0,-1.110311031E1,-1.827374458E0,2.129043818E0
3.391463341E0,-1.114620590E1,-1.822586060E0,2.138620615E0
3.393951049E0,-1.117014790E1,-1.841739655E0,2.162562609E0
3.396438757E0,-1.117014790E1,-1.880046844E0,2.181716204E0
3.398926466E0,-1.114620590E1,-1.932719350E0,2.176927805E0
3.401414174E0,-1.113662910E1,-2.009333849E0,2.167351007E0
3.403901882E0,-1.109353352E1,-2.066794634E0,2.143409014E0
3.406389591E0,-1.105043793E1,-2.138620615E0,2.119467020E0
3.408877299E0,-1.099776554E1,-2.215235233E0,2.138620615E0
3.411365007E0,-1.097861195E1,-2.282272816E0,2.124255419E0
3.413852716E0,-1.094509315E1,-2.339733601E0,2.114678621E0
3.416340424E0,-1.092115116E1,-2.382829189E0,2.105101824E0
3.418828132E0,-1.089242077E1,-2.406771183E0,2.095525026E0
3.421315841E0,-1.088763237E1,-2.421136379E0,2.062006235E0
3.423803549E0,-1.086847878E1,-2.445078373E0,2.023699045E0
3.426291257E0,-1.086369038E1,-2.464232206E0,2.004545450E0
3.428778966E0,-1.087805557E1,-2.473809004E0,1.999756932E0
3.431266674E0,-1.090199757E1,-2.469020605E0,1.985391736E0
3.433754382E0,-1.094988155E1,-2.459443808E0,1.956661344E0
3.436242091E0,-1.098340034E1,-2.473809004E0,1.932719350E0
3.438729799E0,-1.099776554E1,-2.469020605E0,1.880046844E0
3.441217507E0,-1.098340034E1,-2.449866772E0,1.846528053E0
3.443705216E0,-1.098340034E1,-2.440289974E0,1.774701953E0
3.446192924E0,-1.095945835E1,-2.406771183E0,1.736394763E0
3.448680632E0,-1.094988155E1,-2.378040791E0,1.722029567E0
3.451168341E0,-1.095945835E1,-2.330156803E0,1.693299174E0
3.453656049E0,-1.096903515E1,-2.291849613E0,1.683722377E0
3.456143757E0,-1.098818874E1,-2.267907619E0,1.640626669E0
3.458631466E0,-1.100255394E1,-2.263119221E0,1.640626669E0
3.461119174E0,-1.099297714E1,-2.243965626E0,1.635838270E0
3.463606882E0,-1.099776554E1,-2.248754025E0,1.616684675E0
3.466094591E0,-1.099776554E1,-2.267907619E0,1.583165884E0
3.468582299E0,-1.099776554E1,-2.277484417E0,1.549647093E0
3.471070007E0,-1.096903515E1,-2.282272816E0,1.511339784E0
3.473557716E0,-1.096424675E1,-2.296638012E0,1.501762986E0
3.476045424E0,-1.094030476E1,-2.325368404E0,1.501762986E0
3.478533132E0,-1.092593956E1,-2.325368404E0,1.501762986E0
3.481020841E0,-1.093551636E1,-2.291849613E0,1.501762986E0
3.483508549E0,-1.095466995E1,-2.239177227E0,1.511339784E0
3.485996257E0,-1.098818874E1,-2.167351007E0,1.520916581E0
3.488483966E0,-1.101213074E1,-2.119467020E0,1.530493379E0
3.490971674E0,-1.104086113E1,-2.066794634E0,1.540070295E0
3.493459382E0,-1.105522633E1,-2.018910646E0,1.516128182E0
3.495947091E0,-1.105522633E1,-1.980603337E0,1.544858694E0
3.498434799E0,-1.106480312E1,-1.956661344E0,1.540070295E0
3.500922507E0,-1.105043793E1,-1.937507749E0,1.535281897E0
3.503410216E0,-1.102649593E1,-1.913565755E0,1.549647093E0
3.505897924E0,-1.099776554E1,-1.899200439E0,1.583165884E0
3.508385632E0,-1.094509315E1,-1.884835243E0,1.621473074E0
3.510873341E0,-1.091157436E1,-1.884835243E0,1.669357181E0
3.513361049E0,-1.085411358E1,-1.880046844E0,1.707664371E0
3.515848757E0,-1.080144119E1,-1.860893250E0,1.717241168E0
3.518336466E0,-1.073919201E1,-1.836951256E0,1.745971560E0
3.520824174E0,-1.068173122E1,-1.846528053E0,1.774701953E0
3.523311882E0,-1.063384724E1,-1.827374458E0,1.779490471E0
3.525799591E0,-1.058596325E1,-1.832162857E0,1.808220863E0
3.528287299E0,-1.053807831E1,-1.836951256E0,1.832162857E0
3.530775007E0,-1.049498272E1,-1.856104851E0,1.880046844E0
3.533262716E0,-1.046625233E1,-1.870470047E0,1.932719350E0
3.535750424E0,-1.046625233E1,-1.875258446E0,1.971026540E0
3.538238132E0,-1.046625233E1,-1.880046844E0,2.023699045E0
3.540725841E0,-1.047104073E1,-1.851316452E0,2.100313425E0
3.543213549E0,-1.047104073E1,-1.846528053E0,2.152985811E0
3.545701257E0,-1.047104073E1,-1.827374458E0,2.243965626E0
3.548188966E0,-1.042794514E1,-1.822586060E0,2.320580006E0
3.550676674E0,-1.037527275E1,-1.808220863E0,2.382829189E0
3.553164382E0,-1.034175396E1,-1.779490471E0,2.454655409E0
3.555652091E0,-1.029865837E1,-1.750759959E0,2.521692991E0
3.558139799E0,-1.024598598E1,-1.731606364E0,2.603095770E0
3.560627507E0,-1.021725559E1,-1.698087573E0,2.646191359E0
3.563115216E0,-1.021725559E1,-1.631049871E0,2.694075346E0
3.565602924E0,-1.023640919E1,-1.597531080E0,2.741959572E0
3.568090632E0,-1.023640919E1,-1.587954283E0,2.804208755E0
3.570578341E0,-1.025556278E1,-1.573589087E0,2.861669540E0
3.573066049E0,-1.027950478E1,-1.559223890E0,2.928707123E0
3.575553757E0,-1.027471638E1,-1.554435492E0,2.962226152E0
3.578041466E0,-1.024598598E1,-1.554435492E0,2.947860956E0
3.580529174E0,-1.021725559E1,-1.578377485E0,2.909553528E0
3.583016882E0,-1.018852520E1,-1.592742682E0,2.876034737E0
3.585504591E0,-1.016458321E1,-1.626261473E0,2.794631958E0
3.587992299E0,-1.014542961E1,-1.626261473E0,2.689286947E0
3.590480007E0,-1.008318043E1,-1.640626669E0,2.603095770E0
3.592967716E0,-1.002093124E1,-1.650203466E0,2.516904593E0
3.595455424E0,-9.958682060E0,-1.669357181E0,2.411559582E0
3.597943132E0,-9.882067680E0,-1.712452769E0,2.306214809E0
3.600430841E0,-9.815030098E0,-1.755548358E0,2.196081400E0
3.602918549E0,-9.743204117E0,-1.789067268E0,2.095525026E0
3.605406257E0,-9.700108528E0,-1.846528053E0,1.980603337E0
3.607893966E0,-9.637859344E0,-1.894412041E0,1.875258446E0
3.610381674E0,-9.589975357E0,-1.947084546E0,1.750759959E0
3.612869382E0,-9.537302017E0,-1.980603337E0,1.654991984E0
3.615357091E0,-9.484629631E0,-2.014122248E0,1.568800688E0
3.617844799E0,-9.460687637E0,-2.038064241E0,1.482609391E0
3.620332507E0,-9.431957245E0,-2.042852640E0,1.391629696E0
3.622820216E0,-9.417592049E0,-1.999756932E0,1.334168911E0
3.625307924E0,-9.470264435E0,-1.951872945E0,1.267131209E0
3.627795632E0,-9.527725220E0,-1.899200439E0,1.228824019E0
3.630283341E0,-9.589975357E0,-1.822586060E0,1.185728431E0
3.632771049E0,-9.671378136E0,-1.774701953E0,1.152209520E0
3.635258757E0,-9.743204117E0,-1.722029567E0,1.128267527E0
3.637746466E0,-9.815030098E0,-1.674145579E0,1.142632723E0
3.640234174E0,-9.872490883E0,-1.616684675E0,1.137844324E0
3.642721882E0,-9.920374870E0,-1.559223890E0,1.147421122E0
3.645209591E0,-9.934740067E0,-1.501762986E0,1.161786318E0
3.647697299E0,-9.939528465E0,-1.458667397E0,1.190516829E0
3.650185007E0,-9.929951668E0,-1.425148606E0,1.204882026E0
3.652672716E0,-9.896432877E0,-1.405994892E0,1.209670424E0
3.655160424E0,-9.848548889E0,-1.396418095E0,1.224035621E0
3.657648132E0,-9.795876503E0,-1.415571809E0,1.219247222E0
3.660135841E0,-9.714473724E0,-1.444302201E0,1.243189216E0
3.662623549E0,-9.652224541E0,-1.468244195E0,1.267131209E0
3.665111257E0,-9.589975357E0,-1.496974587E0,1.291073322E0
3.667598966E0,-9.498994827E0,-1.520916581E0,1.329380512E0
3.670086674E0,-9.417592049E0,-1.530493379E0,1.382052898E0
3.672574382E0,-9.360131264E0,-1.544858694E0,1.444302201E0
3.675062091E0,-9.307458878E0,-1.568800688E0,1.525704980E0
3.677549799E0,-9.288305283E0,-1.583165884E0,1.611896276E0
3.680037507E0,-9.293093681E0,-1.621473074E0,1.669357181E0
3.682525216E0,-9.312247276E0,-1.654991984E0,1.712452769E0
3.685012924E0,-9.302670479E0,-1.698087573E0,1.736394763E0
3.687500632E0,-9.317035675E0,-1.731606364E0,1.741183162E0
3.689988341E0,-9.321824074E0,-1.779490471E0,1.760336757E0
3.692476049E0,-9.307458878E0,-1.798644066E0,1.765125155E0
3.694963757E0,-9.317035675E0,-1.793855667E0,1.774701953E0
3.697451466E0,-9.321824074E0,-1.803432465E0,1.784278870E0
3.699939174E0,-9.350554466E0,-1.822586060E0,1.803432465E0
3.702426882E0,-9.360131264E0,-1.851316452E0,1.813009262E0
3.704914591E0,-9.374496460E0,-1.851316452E0,1.808220863E0
3.707402299E0,-9.393650055E0,-1.851316452E0,1.798644066E0
3.709890007E0,-9.408015251E0,-1.860893250E0,1.803432465E0
3.712377716E0,-9.412803650E0,-1.865681648E0,1.793855667E0
3.714865424E0,-9.393650055E0,-1.880046844E0,1.779490471E0
3.717353132E0,-9.388861656E0,-1.880046844E0,1.736394763E0
3.719840841E0,-9.369708061E0,-1.870470047E0,1.688510776E0
3.722328549E0,-9.336189270E0,-1.884835243E0,1.626261473E0
3.724816257E0,-9.283516884E0,-1.889623642E0,1.583165884E0
3.727303966E0,-9.254786491E0,-1.889623642E0,1.520916581E0
3.729791674E0,-9.249998093E0,-1.899200439E0,1.463455796E0
3.732279382E0,-9.273940086E0,-1.889623642E0,1.425148606E0
3.734767091E0,-9.283516884E0,-1.875258446E0,1.410783410E0
3.737254799E0,-9.326612473E0,-1.841739655E0,1.420360208E0
3.739742507E0,-9.388861656E0,-1.808220863E0,1.425148606E0
3.742230216E0,-9.460687637E0,-1.745971560E0,1.468244195E0
3.744717924E0,-9.551667213E0,-1.674145579E0,1.511339784E0
3.747205632E0,-9.637859344E0,-1.602319479E0,1.549647093E0
3.749693341E0,-9.747992516E0,-1.554435492E0,1.592742682E0
3.752181049E0,-9.819818497E0,-1.520916581E0,1.597531080E0
3.754668757E0,-9.867702484E0,-1.477820992E0,1.607107878E0
3.757156466E0,-9.901221275E0,-1.444302201E0,1.616684675E0
3.759644174E0,-9.901221275E0,-1.415571809E0,1.631049871E0
3.762131882E0,-9.872490883E0,-1.415571809E0,1.635838270E0
3.764619591E0,-9.882067680E0,-1.415571809E0,1.645415068E0
3.767107299E0,-9.858125687E0,-1.401206493E0,1.659780383E0
3.769595007E0,-9.824606895E0,-1.434725404E0,1.659780383E0
3.772082716E0,-9.776722908E0,-1.439513803E0,1.678933978E0
3.774570424E0,-9.695320129E0,-1.473032594E0,1.688510776E0
3.777058132E0,-9.589975357E0,-1.516128182E0,1.712452769E0
3.779545841E0,-9.508571625E0,-1.554435492E0,1.712452769E0
3.782033549E0,-9.431957245E0,-1.597531080E0,1.726817966E0
3.784521257E0,-9.398438454E0,-1.635838270E0,1.736394763E0
3.787008966E0,-9.379284859E0,-1.654991984E0,1.750759959E0
3.789496674E0,-9.369708061E0,-1.693299174E0,1.784278870E0
3.791984382E0,-9.350554466E0,-1.707664371E0,1.774701953E0
3.794472091E0,-9.364919662E0,-1.722029567E0,1.755548358E0
3.796959799E0,-9.374496460E0,-1.760336757E0,1.712452769E0
3.799447507E0,-9.364919662E0,-1.784278870E0,1.683722377E0
3.801935216E0,-9.369708061E0,-1.808220863E0,1.664568782E0
3.804422924E0,-9.350554466E0,-1.836951256E0,1.621473074E0
3.806910632E0,-9.340977669E0,-1.899200439E0,1.597531080E0
3.809398341E0,-9.317035675E0,-1.961449742E0,1.568800688E0
3.811886049E0,-9.273940086E0,-2.033275843E0,1.564012289E0
3.814373757E0,-9.249998093E0,-2.100313425E0,1.573589087E0
3.816861466E0,-9.240421295E0,-2.176927805E0,1.616684675E0
3.819349174E0,-9.221267700E0,-2.243965626E0,1.611896276E0
3.821836882E0,-9.245209694E0,-2.311003208E0,1.631049871E0
3.824324591E0,-9.249998093E0,-2.334945202E0,1.654991984E0
3.826812299E0,-9.273940086E0,-2.373252392E0,1.702875972E0
3.829300007E0,-9.278728485E0,-2.397194386E0,1.736394763E0
3.831787716E0,-9.254786491E0,-2.421136379E0,1.765125155E0
3.834275424E0,-9.216479301E0,-2.430713177E0,1.798644066E0
3.836763132E0,-9.197325706E0,-2.416347980E0,1.808220863E0
3.839250841E0,-9.159018517E0,-2.416347980E0,1.832162857E0
3.841738549E0,-9.106346130E0,-2.397194386E0,1.860893250E0
3.844226257E0,-9.082404137E0,-2.397194386E0,1.903988957E0
3.846713966E0,-9.063250542E0,-2.373252392E0,1.947084546E0
3.849201674E0,-9.053673744E0,-2.368463993E0,1.966238141E0
3.851689382E0,-9.058462143E0,-2.344521999E0,1.999756932E0
3.854177091E0,-9.082404137E0,-2.311003208E0,1.999756932E0
3.856664799E0,-9.115922928E0,-2.258330822E0,2.052429438E0
3.859152507E0,-9.139864922E0,-2.191293001E0,2.085948229E0
3.861640216E0,-9.202114105E0,-2.085948229E0,2.148197412E0
3.864127924E0,-9.259574890E0,-1.975814939E0,2.196081400E0
3.866615632E0,-9.374496460E0,-1.884835243E0,2.239177227E0
3.869103341E0,-9.475052834E0,-1.836951256E0,2.291849613E0
3.871591049E0,-9.527725220E0,-1.817797661E0,2.311003208E0
3.874078757E0,-9.542090416E0,-1.813009262E0,2.315791607E0
3.876566466E0,-9.546878815E0,-1.813009262E0,2.291849613E0
3.879054174E0,-9.551667213E0,-1.808220863E0,2.277484417E0
3.881541882E0,-9.537302017E0,-1.808220863E0,2.263119221E0
3.884029591E0,-9.527725220E0,-1.822586060E0,2.229600430E0
3.886517299E0,-9.532513618E0,-1.832162857E0,2.220023632E0
3.889005007E0,-9.532513618E0,-1.841739655E0,2.200869799E0
3.891492716E0,-9.513360023E0,-1.870470047E0,2.152985811E0
3.893980424E0,-9.479841232E0,-1.903988957E0,2.090736628E0
3.896468132E0,-9.436745644E0,-1.947084546E0,2.042852640E0
3.898955789E0,-9.422380447E0,-1.999756932E0,2.018910646E0
3.901443445E0,-9.412803650E0,-2.038064241E0,1.999756932E0
3.903931101E0,-9.364919662E0,-2.066794634E0,1.980603337E0
3.906418757E0,-9.336189270E0,-2.081159830E0,1.990180135E0
3.908906414E0,-9.297882080E0,-2.085948229E0,2.004545450E0
3.911394070E0,-9.254786491E0,-2.066794634E0,2.014122248E0
3.913881726E0,-9.249998093E0,-2.052429438E0,2.009333849E0
3.916369382E0,-9.269151688E0,-2.033275843E0,2.004545450E0
3.918857039E0,-9.288305283E0,-2.004545450E0,2.033275843E0
3.921344695E0,-9.326612473E0,-1.975814939E0,2.042852640E0
3.923832351E0,-9.345766068E0,-1.956661344E0,2.066794634E0
3.926320007E0,-9.360131264E0,-1.956661344E0,2.090736628E0
3.928807664E0,-9.364919662E0,-1.932719350E0,2.100313425E0
3.931295320E0,-9.364919662E0,-1.870470047E0,2.100313425E0
3.933782976E0,-9.355342865E0,-1.817797661E0,2.114678621E0
3.936270632E0,-9.364919662E0,-1.789067268E0,2.109890223E0
3.938758289E0,-9.355342865E0,-1.784278870E0,2.124255419E0
3.941245945E0,-9.364919662E0,-1.769913554E0,2.162562609E0
3.943733601E0,-9.360131264E0,-1.760336757E0,2.176927805E0
3.946221257E0,-9.355342865E0,-1.765125155E0,2.157774210E0
3.948708914E0,-9.331400871E0,-1.750759959E0,2.143409014E0
3.951196570E0,-9.345766068E0,-1.736394763E0,2.133832216E0
3.953684226E0,-9.340977669E0,-1.712452769E0,2.133832216E0
3.956171882E0,-9.393650055E0,-1.635838270E0,2.119467020E0
3.958659539E0,-9.451110840E0,-1.607107878E0,2.124255419E0
3.961147195E0,-9.513360023E0,-1.573589087E0,2.148197412E0
3.963634851E0,-9.599552155E0,-1.516128182E0,2.157774210E0
3.966122559E0,-9.652224541E0,-1.492186189E0,2.172139406E0
3.968610268E0,-9.700108528E0,-1.458667397E0,2.181716204E0
3.971097976E0,-9.767146111E0,-1.453878999E0,2.196081400E0
3.973585684E0,-9.800664902E0,-1.444302201E0,2.196081400E0
3.976073393E0,-9.834183693E0,-1.458667397E0,2.181716204E0
3.978561101E0,-9.834183693E0,-1.473032594E0,2.172139406E0
3.981048809E0,-9.858125687E0,-1.477820992E0,2.138620615E0
3.983536518E0,-9.877279282E0,-1.487397790E0,2.100313425E0
3.986024226E0,-9.910798073E0,-1.525704980E0,2.085948229E0
3.988511934E0,-9.929951668E0,-1.578377485E0,2.062006235E0
3.990999643E0,-9.891644478E0,-1.626261473E0,2.042852640E0
3.993487351E0,-9.862914085E0,-1.674145579E0,2.062006235E0
3.995975059E0,-9.819818497E0,-1.722029567E0,2.081159830E0
3.998462768E0,-9.781511307E0,-1.769913554E0,2.129043818E0
4.000950476E0,-9.733627319E0,-1.798644066E0,2.176927805E0
4.003438184E0,-9.695320129E0,-1.832162857E0,2.224812031E0
4.005925893E0,-9.652224541E0,-1.870470047E0,2.267907619E0
4.008413601E0,-9.618705750E0,-1.894412041E0,2.301426411E0
4.010901309E0,-9.609128952E0,-1.880046844E0,2.325368404E0
4.013389018E0,-9.661801338E0,-1.865681648E0,2.325368404E0
4.015876726E0,-9.714473724E0,-1.836951256E0,2.306214809E0
4.018364434E0,-9.771934509E0,-1.813009262E0,2.339733601E0
4.020852143E0,-9.858125687E0,-1.784278870E0,2.358887196E0
4.023339851E0,-9.939528465E0,-1.750759959E0,2.378040791E0
4.025827559E0,-1.002571964E1,-1.698087573E0,2.401982784E0
4.028315268E0,-1.010712242E1,-1.654991984E0,2.392405987E0
4.030802976E0,-1.015979481E1,-1.607107878E0,2.397194386E0
4.033290684E0,-1.022683239E1,-1.559223890E0,2.397194386E0
4.035778393E0,-1.028429317E1,-1.544858694E0,2.363675594E0
4.038266101E0,-1.032738876E1,-1.540070295E0,2.349310398E0
4.040753809E0,-1.035133076E1,-1.516128182E0,2.334945202E0
4.043241518E0,-1.039442635E1,-1.516128182E0,2.311003208E0
4.045729226E0,-1.042794514E1,-1.496974587E0,2.287061214E0
4.048216934E0,-1.044709873E1,-1.501762986E0,2.267907619E0
4.050704643E0,-1.047582912E1,-1.492186189E0,2.263119221E0
4.053192351E0,-1.047582912E1,-1.492186189E0,2.277484417E0
4.055680059E0,-1.046146393E1,-1.463455796E0,2.263119221E0
4.058167768E0,-1.045667553E1,-1.482609391E0,2.291849613E0
4.060655476E0,-1.048061752E1,-1.511339784E0,2.282272816E0
4.063143184E0,-1.050934792E1,-1.535281897E0,2.272696018E0
4.065630893E0,-1.052850151E1,-1.530493379E0,2.267907619E0
4.068118601E0,-1.055244446E1,-1.540070295E0,2.248754025E0
4.070606309E0,-1.055723286E1,-1.501762986E0,2.239177227E0
4.073094018E0,-1.054286766E1,-1.492186189E0,2.210446835E0
4.075581726E0,-1.051413631E1,-1.492186189E0,2.148197412E0
4.078069434E0,-1.049019432E1,-1.511339784E0,2.129043818E0
4.080557143E0,-1.044709873E1,-1.525704980E0,2.095525026E0
4.083044851E0,-1.041836834E1,-1.568800688E0,2.090736628E0
4.085532559E0,-1.039442635E1,-1.607107878E0,2.085948229E0
4.088020268E0,-1.034654236E1,-1.645415068E0,2.095525026E0
4.090507976E0,-1.030344677E1,-1.688510776E0,2.109890223E0
4.092995684E0,-1.030344677E1,-1.726817966E0,2.109890223E0
4.095483393E0,-1.032260036E1,-1.741183162E0,2.119467020E0
4.097971101E0,-1.032260036E1,-1.769913554E0,2.138620615E0
4.100458809E0,-1.035611916E1,-1.793855667E0,2.200869799E0
4.102946518E0,-1.043752193E1,-1.769913554E0,2.267907619E0
4.105434226E0,-1.052850151E1,-1.760336757E0,2.378040791E0
4.107921934E0,-1.060990524E1,-1.750759959E0,2.483385801E0
4.110409643E0,-1.069130802E1,-1.760336757E0,2.593518972E0
4.112897351E0,-1.075355721E1,-1.745971560E0,2.694075346E0
4.115385059E0,-1.080622959E1,-1.722029567E0,2.794631958E0
4.117872768E0,-1.083017159E1,-1.712452769E0,2.904765129E0
4.120360476E0,-1.083495998E1,-1.702875972E0,2.981379747E0
4.122848184E0,-1.085890198E1,-1.688510776E0,3.072359324E0
4.125335893E0,-1.087805557E1,-1.674145579E0,3.153762102E0
4.127823601E0,-1.087326717E1,-1.669357181E0,3.235165119E0
4.130311309E0,-1.086369038E1,-1.640626669E0,3.287837505E0
4.132799018E0,-1.087326717E1,-1.611896276E0,3.321356297E0
4.135286726E0,-1.088763237E1,-1.564012289E0,3.345298290E0
4.137774434E0,-1.089242077E1,-1.487397790E0,3.335721493E0
4.140262143E0,-1.090678596E1,-1.415571809E0,3.354875088E0
4.142749851E0,-1.093551636E1,-1.382052898E0,3.383605480E0
4.145237559E0,-1.094509315E1,-1.329380512E0,3.393182278E0
4.147725268E0,-1.092115116E1,-1.291073322E0,3.393182278E0
4.150212976E0,-1.087805557E1,-1.286284804E0,3.378817081E0
4.152700684E0,-1.081580639E1,-1.315015316E0,3.345298290E0
4.155188393E0,-1.076313400E1,-1.367687702E0,3.306991100E0
4.157676101E0,-1.076792240E1,-1.410783410E0,3.230376720E0
4.160163809E0,-1.081580639E1,-1.439513803E0,3.177704096E0
4.162651518E0,-1.090199757E1,-1.449090600E0,3.163338900E0
4.165139226E0,-1.102649593E1,-1.458667397E0,3.125031710E0
4.167626934E0,-1.116535950E1,-1.453878999E0,3.101089716E0
4.170114643E0,-1.128028107E1,-1.439513803E0,3.096301317E0
4.172602351E0,-1.139520264E1,-1.434725404E0,3.091512918E0
4.175090059E0,-1.149575901E1,-1.429937005E0,3.134608507E0
4.177577768E0,-1.160110474E1,-1.396418095E0,3.192069530E0
4.180065476E0,-1.166814232E1,-1.367687702E0,3.254318714E0
4.182553184E0,-1.167771912E1,-1.362899303E0,3.306991100E0
4.185040893E0,-1.167771912E1,-1.372476101E0,3.335721493E0
4.187528601E0,-1.169687271E1,-1.382052898E0,3.340509892E0
4.190016309E0,-1.175912189E1,-1.391629696E0,3.311779499E0
4.192504018E0,-1.181658268E1,-1.410783410E0,3.239953518E0
4.194991726E0,-1.191235065E1,-1.410783410E0,3.144185305E0
4.197479434E0,-1.201290703E1,-1.396418095E0,3.024475336E0
4.199967143E0,-1.210388660E1,-1.405994892E0,2.852092743E0
4.202454851E0,-1.218528938E1,-1.444302201E0,2.660556555E0
4.204942559E0,-1.223796177E1,-1.492186189E0,2.478597403E0
4.207430268E0,-1.232415295E1,-1.530493379E0,2.287061214E0
4.209917976E0,-1.239597893E1,-1.568800688E0,2.129043818E0
4.212405684E0,-1.247259331E1,-1.621473074E0,2.014122248E0
4.214893393E0,-1.251568985E1,-1.626261473E0,1.908777356E0
4.217381101E0,-1.254920864E1,-1.635838270E0,1.779490471E0
4.219868809E0,-1.261145782E1,-1.616684675E0,1.659780383E0
4.222356518E0,-1.267370701E1,-1.621473074E0,1.554435492E0
4.224844226E0,-1.273116779E1,-1.597531080E0,1.453878999E0
4.227331934E0,-1.278862858E1,-1.597531080E0,1.310226917E0
4.229819643E0,-1.277905178E1,-1.611896276E0,1.185728431E0
4.232307351E0,-1.276947498E1,-1.626261473E0,1.099537134E0
4.234795059E0,-1.275510979E1,-1.654991984E0,1.046864748E0
4.237282768E0,-1.271201420E1,-1.693299174E0,1.051653147E0
4.239770476E0,-1.267849541E1,-1.736394763E0,1.080383539E0
4.242258184E0,-1.269286060E1,-1.779490471E0,1.142632723E0
4.244745893E0,-1.275510979E1,-1.851316452E0,1.228824019E0
4.247233601E0,-1.284608936E1,-1.947084546E0,1.305438519E0
4.249721309E0,-1.293706894E1,-2.033275843E0,1.396418095E0
4.252209018E0,-1.301847172E1,-2.109890223E0,1.482609391E0
4.254696726E0,-1.305677891E1,-2.162562609E0,1.592742682E0
4.257184434E0,-1.307593250E1,-2.200869799E0,1.654991984E0
4.259672143E0,-1.307114410E1,-2.215235233E0,1.793855667E0
4.262159851E0,-1.304720211E1,-2.243965626E0,1.927930951E0
4.264647559E0,-1.297537613E1,-2.258330822E0,2.047641039E0
4.267135268E0,-1.294185734E1,-2.306214809E0,2.186504602E0
4.269622976E0,-1.294664574E1,-2.358887196E0,2.311003208E0
4.272110684E0,-1.293228054E1,-2.411559582E0,2.397194386E0
4.274598393E0,-1.291312695E1,-2.459443808E0,2.473809004E0
4.277086101E0,-1.290833855E1,-2.483385801E0,2.540846586E0
4.279573809E0,-1.289876175E1,-2.492962599E0,2.569576979E0
4.282061518E0,-1.290833855E1,-2.507327795E0,2.579153776E0
4.284549226E0,-1.292270374E1,-2.492962599E0,2.588730574E0
4.287036934E0,-1.294664574E1,-2.473809004E0,2.612672567E0
4.289524643E0,-1.299452972E1,-2.469020605E0,2.612672567E0
4.292012351E0,-1.304241371E1,-2.473809004E0,2.583942175E0
4.294500059E0,-1.308550930E1,-2.521692991E0,2.545634985E0
4.296987768E0,-1.310466290E1,-2.569576979E0,2.497750998E0
4.299475476E0,-1.309029770E1,-2.617460966E0,2.425924778E0
4.301963184E0,-1.305677891E1,-2.684498549E0,2.354098797E0
4.304450893E0,-1.304241371E1,-2.737171173E0,2.263119221E0
4.306938601E0,-1.300889492E1,-2.818573952E0,2.148197412E0
4.309426309E0,-1.296579933E1,-2.899976730E0,2.023699045E0
4.311914018E0,-1.294185734E1,-2.990956545E0,1.903988957E0
4.314401726E0,-1.293228054E1,-3.081936121E0,1.784278870E0
4.316889434E0,-1.292270374E1,-3.148973703E0,1.654991984E0
4.319377143E0,-1.290355015E1,-3.187281132E0,1.496974587E0
4.321864851E0,-1.287003136E1,-3.211223125E0,1.353322506E0
4.324352559E0,-1.284130096E1,-3.225588322E0,1.224035621E0
4.326840268E0,-1.281257057E1,-3.263895512E0,1.066018343E0
4.329327976E0,-1.278862858E1,-3.287837505E0,9.175778031E-1
4.331815684E0,-1.278862858E1,-3.287837505E0,8.122329116E-1
4.334303393E0,-1.279820538E1,-3.292625904E0,7.164648771E-1
4.336791101E0,-1.280778217E1,-3.230376720E0,6.542156339E-1
4.339278809E0,-1.282693577E1,-3.163338900E0,6.015431881E-1
4.341766518E0,-1.287003136E1,-3.091512918E0,5.919663906E-1
4.344254226E0,-1.291791534E1,-3.014898539E0,5.871779919E-1
4.346741934E0,-1.292749214E1,-2.957437754E0,5.919663906E-1
4.349229643E0,-1.295622253E1,-2.899976730E0,6.159083843E-1
4.351717351E0,-1.292749214E1,-2.828150749E0,6.877344251E-1
4.354205059E0,-1.289876175E1,-2.741959572E0,7.739257216E-1
4.356692768E0,-1.285566616E1,-2.679710150E0,8.936358094E-1
4.359180476E0,-1.282693577E1,-2.603095770E0,1.042076349E0
4.361668184E0,-1.279820538E1,-2.555211782E0,1.195305228E0
4.364155893E0,-1.278862858E1,-2.497750998E0,1.362899303E0
4.366643601E0,-1.278862858E1,-2.464232206E0,1.516128182E0
4.369131309E0,-1.280778217E1,-2.464232206E0,1.698087573E0
4.371619018E0,-1.280299377E1,-2.459443808E0,1.860893250E0
4.374106726E0,-1.275989819E1,-2.464232206E0,2.014122248E0
4.376594434E0,-1.271201420E1,-2.435501575E0,2.181716204E0
4.379082143E0,-1.264497662E1,-2.425924778E0,2.354098797E0
4.381569851E0,-1.257315063E1,-2.425924778E0,2.516904593E0
4.384057559E0,-1.247738171E1,-2.440289974E0,2.674921751E0
4.386545268E0,-1.241034412E1,-2.469020605E0,2.842515945E0
4.389032976E0,-1.232415295E1,-2.502539396E0,2.967014551E0
4.391520684E0,-1.225232697E1,-2.545634985E0,3.077147722E0
4.394008393E0,-1.217571259E1,-2.574365377E0,3.139396906E0
4.396496101E0,-1.208952141E1,-2.607884169E0,3.230376720E0
4.398983809E0,-1.204163742E1,-2.636614561E0,3.287837505E0
4.401471518E0,-1.196981144E1,-2.650979757E0,3.302202702E0
4.403959226E0,-1.189319706E1,-2.679710150E0,3.311779499E0
4.406446934E0,-1.181179428E1,-2.698863983E0,3.311779499E0
4.408934643E0,-1.175912189E1,-2.737171173E0,3.283049107E0
4.411422351E0,-1.169208431E1,-2.770689964E0,3.259107113E0
4.413910059E0,-1.162983513E1,-2.813785553E0,3.216011524E0
4.416397768E0,-1.157237434E1,-2.880823135E0,3.144185305E0
4.418885476E0,-1.153406715E1,-2.919130325E0,3.081936121E0
4.421373184E0,-1.149575901E1,-2.957437754E0,2.981379747E0
4.423860893E0,-1.145745182E1,-2.990956545E0,2.890399933E0
4.426348601E0,-1.140956783E1,-2.995744944E0,2.832939148E0
4.428836309E0,-1.136647224E1,-3.000533342E0,2.737171173E0
4.431324018E0,-1.133295345E1,-2.971802950E0,2.646191359E0
4.433811726E0,-1.129464626E1,-2.938283920E0,2.579153776E0
4.436299434E0,-1.127549267E1,-2.890399933E0,2.478597403E0
4.438787143E0,-1.123718548E1,-2.847304344E0,2.382829189E0
4.441274851E0,-1.118451309E1,-2.813785553E0,2.315791607E0
4.443762559E0,-1.115578270E1,-2.741959572E0,2.263119221E0
4.446250268E0,-1.113184071E1,-2.679710150E0,2.239177227E0
4.448737976E0,-1.114620590E1,-2.603095770E0,2.234388828E0
4.451225684E0,-1.116535950E1,-2.502539396E0,2.205658197E0
4.453713393E0,-1.118451309E1,-2.411559582E0,2.205658197E0
4.456201101E0,-1.120845509E1,-2.282272816E0,2.253542423E0
4.458688809E0,-1.122282028E1,-2.162562609E0,2.272696018E0
4.461176518E0,-1.122760868E1,-2.071583033E0,2.301426411E0
4.463664226E0,-1.123239708E1,-2.004545450E0,2.330156803E0
4.466151934E0,-1.124676228E1,-1.932719350E0,2.344521999E0
4.468639643E0,-1.121803188E1,-1.884835243E0,2.330156803E0
4.471127351E0,-1.119887829E1,-1.808220863E0,2.349310398E0
4.473615059E0,-1.120366669E1,-1.750759959E0,2.392405987E0
4.476102768E0,-1.117014790E1,-1.674145579E0,2.411559582E0
4.478590476E0,-1.110311031E1,-1.602319479E0,2.435501575E0
4.481078184E0,-1.102649593E1,-1.554435492E0,2.416347980E0
4.483565893E0,-1.093072796E1,-1.525704980E0,2.368463993E0
4.486053601E0,-1.082538319E1,-1.530493379E0,2.306214809E0
4.488541309E0,-1.066257763E1,-1.559223890E0,2.243965626E0
4.491029018E0,-1.050934792E1,-1.626261473E0,2.200869799E0
4.493516726E0,-1.036090755E1,-1.678933978E0,2.167351007E0
4.496004434E0,-1.023640919E1,-1.736394763E0,2.196081400E0
4.498492143E0,-1.015979481E1,-1.803432465E0,2.287061214E0
4.500979851E0,-1.008796883E1,-1.880046844E0,2.378040791E0
4.503467559E0,-1.002093124E1,-2.009333849E0,2.478597403E0
4.505955268E0,-9.944316864E0,-2.133832216E0,2.569576979E0
4.508442976E0,-9.810241699E0,-2.248754025E0,2.679710150E0
4.510930684E0,-9.647436142E0,-2.382829189E0,2.804208755E0
4.513418393E0,-9.479841232E0,-2.497750998E0,2.895188332E0
4.515906101E0,-9.278728485E0,-2.627037764E0,2.981379747E0
4.518393809E0,-9.096769333E0,-2.732382774E0,3.115454912E0
4.520881518E0,-8.929175377E0,-2.823362350E0,3.239953518E0
4.523369226E0,-8.828619003E0,-2.871246338E0,3.369240284E0
4.525856934E0,-8.756793022E0,-2.852092743E0,3.479373693E0
4.528344643E0,-8.742427826E0,-2.804208755E0,3.618237257E0
4.530832351E0,-8.728062630E0,-2.718017578E0,3.714005470E0
4.533320059E0,-8.766369820E0,-2.603095770E0,3.790619850E0
4.535807768E0,-8.775946617E0,-2.469020605E0,3.790619850E0
4.538295476E0,-8.795100212E0,-2.378040791E0,3.723582268E0
4.540783184E0,-8.833407402E0,-2.291849613E0,3.646967649E0
4.543270893E0,-8.862137794E0,-2.172139406E0,3.555988073E0
4.545758601E0,-8.876502991E0,-2.042852640E0,3.450643301E0
4.548246309E0,-8.876502991E0,-1.937507749E0,3.345298290E0
4.550734018E0,-8.871714592E0,-1.827374458E0,3.225588322E0
4.553221726E0,-8.842984200E0,-1.722029567E0,3.096301317E0
4.555709434E0,-8.819042206E0,-1.621473074E0,2.919130325E0
4.558197143E0,-8.775946617E0,-1.535281897E0,2.746747971E0
4.560684851E0,-8.756793022E0,-1.458667397E0,2.555211782E0
4.563172559E0,-8.708909035E0,-1.372476101E0,2.397194386E0
4.565660268E0,-8.670601845E0,-1.291073322E0,2.220023632E0
4.568147976E0,-8.613141060E0,-1.219247222E0,2.052429438E0
4.570635684E0,-8.541314125E0,-1.161786318E0,1.913565755E0
4.573123393E0,-8.507795334E0,-1.104325533E0,1.779490471E0
4.575611101E0,-8.479064941E0,-1.051653147E0,1.640626669E0
4.578098809E0,-8.455122948E0,-1.003769040E0,1.583165884E0
4.580586518E0,-8.440757751E0,-9.510966539E-1,1.544858694E0
4.583074226E0,-8.407238960E0,-9.175778031E-1,1.559223890E0
4.585561934E0,-8.373720169E0,-9.080010056E-1,1.587954283E0
4.588049643E0,-8.330624580E0,-9.032126069E-1,1.650203466E0
4.590537351E0,-8.282740593E0,-9.127894044E-1,1.678933978E0
4.593025059E0,-8.230068207E0,-9.415197968E-1,1.674145579E0
4.595512768E0,-8.177395821E0,-9.989806414E-1,1.626261473E0
4.598000476E0,-8.100781441E0,-1.051653147E0,1.597531080E0
4.600488184E0,-8.019378662E0,-1.094748735E0,1.549647093E0
4.602975893E0,-7.890091896E0,-1.180940032E0,1.530493379E0
4.605463601E0,-7.760804653E0,-1.257554412E0,1.549647093E0
4.607951309E0,-7.607575893E0,-1.338957310E0,1.578377485E0
4.610439018E0,-7.454347134E0,-1.386841297E0,1.573589087E0
4.612926726E0,-7.301117897E0,-1.425148606E0,1.602319479E0
4.615414434E0,-7.181407928E0,-1.458667397E0,1.654991984E0
4.617902143E0,-7.090428352E0,-1.453878999E0,1.674145579E0
4.620389851E0,-7.056909561E0,-1.444302201E0,1.712452769E0
4.622877559E0,-7.052121162E0,-1.391629696E0,1.750759959E0
4.625365268E0,-7.090428352E0,-1.367687702E0,1.798644066E0
4.627852976E0,-7.152677536E0,-1.343745708E0,1.827374458E0
4.630340684E0,-7.229291916E0,-1.305438519E0,1.846528053E0
4.632828393E0,-7.301117897E0,-1.252766013E0,1.851316452E0
4.635316101E0,-7.339425087E0,-1.219247222E0,1.841739655E0
4.637803809E0,-7.349001884E0,-1.195305228E0,1.836951256E0
4.640291518E0,-7.363367558E0,-1.190516829E0,1.808220863E0
4.642779226E0,-7.339425087E0,-1.228824019E0,1.741183162E0
4.645266934E0,-7.248445511E0,-1.291073322E0,1.722029567E0
4.647754643E0,-7.128735542E0,-1.372476101E0,1.702875972E0
4.650242351E0,-6.994660378E0,-1.453878999E0,1.750759959E0
4.652730059E0,-6.874950409E0,-1.487397790E0,1.813009262E0
4.655217768E0,-6.812700748E0,-1.516128182E0,1.856104851E0
4.657705476E0,-6.726509571E0,-1.520916581E0,1.923142552E0
4.660193184E0,-6.630741596E0,-1.540070295E0,1.947084546E0
4.662680893E0,-6.544550419E0,-1.568800688E0,1.942296147E0
4.665168601E0,-6.472724438E0,-1.597531080E0,1.903988957E0
4.667656309E0,-6.405686855E0,-1.654991984E0,1.813009262E0
4.670144018E0,-6.338648796E0,-1.707664371E0,1.722029567E0
4.672631726E0,-6.276399612E0,-1.750759959E0,1.664568782E0
4.675119434E0,-6.209362030E0,-1.755548358E0,1.587954283E0
4.677607143E0,-6.137536049E0,-1.760336757E0,1.540070295E0
4.680094851E0,-6.070498466E0,-1.726817966E0,1.482609391E0
4.682582559E0,-6.022614479E0,-1.678933978E0,1.434725404E0
4.685070268E0,-5.989095688E0,-1.650203466E0,1.372476101E0
4.687557976E0,-5.998672485E0,-1.611896276E0,1.300650120E0
4.690045684E0,-6.013037682E0,-1.592742682E0,1.204882026E0
4.692533393E0,-6.036979675E0,-1.559223890E0,1.099537134E0
4.695021101E0,-6.065710068E0,-1.496974587E0,1.003769040E0
4.697508809E0,-6.094440460E0,-1.439513803E0,9.175778031E-1
4.699996518E0,-6.137536049E0,-1.338957310E0,8.649053574E-1
4.702484226E0,-6.194996834E0,-1.214458823E0,8.170213103E-1
4.704971934E0,-6.276399612E0,-1.113902330E0,7.547720671E-1
4.707459643E0,-6.381744862E0,-1.027711034E0,6.925228238E-1
4.709947351E0,-6.482301235E0,-9.558850527E-1,6.254851818E-1
4.712435059E0,-6.616376400E0,-8.696937561E-1,5.440823436E-1
4.714922768E0,-6.726509571E0,-7.930793166E-1,4.578910768E-1
4.717410476E0,-6.817489147E0,-7.356184721E-1,3.908534348E-1
4.719898184E0,-6.922834396E0,-7.068880796E-1,3.477577865E-1
4.722385893E0,-7.018602371E0,-6.637924314E-1,3.381809890E-1
4.724873601E0,-7.071274757E0,-6.350619793E-1,3.908534348E-1
4.727361309E0,-7.114370346E0,-6.111199856E-1,5.009866953E-1
4.729849018E0,-7.123947144E0,-5.967547894E-1,6.733692288E-1
4.732336726E0,-7.104793549E0,-5.967547894E-1,8.409633636E-1
4.734824434E0,-7.080851555E0,-6.206967831E-1,9.702502489E-1
4.737312143E0,-7.071274757E0,-6.542156339E-1,1.099537134E0
4.739799851E0,-7.056909561E0,-7.212532759E-1,1.128267527E0
4.742287559E0,-7.009025574E0,-8.122329116E-1,1.156997919E0
4.744775268E0,-6.913257599E0,-9.415197968E-1,1.156997919E0
4.747262976E0,-6.807912350E0,-1.066018343E0,1.133055925E0
4.749750684E0,-6.669048786E0,-1.200093627E0,1.123479128E0
4.752238393E0,-6.487089634E0,-1.319803715E0,1.128267527E0
4.754726101E0,-6.319495201E0,-1.453878999E0,1.128267527E0
4.757213809E0,-6.166266441E0,-1.554435492E0,1.133055925E0
4.759701518E0,-6.056133270E0,-1.654991984E0,1.137844324E0
4.762189226E0,-5.965153694E0,-1.717241168E0,1.152209520E0
4.764676934E0,-5.907692909E0,-1.760336757E0,1.161786318E0
4.767164643E0,-5.893327713E0,-1.793855667E0,1.137844324E0
4.769652351E0,-5.941211700E0,-1.803432465E0,1.123479128E0
4.772140059E0,-6.008249283E0,-1.784278870E0,1.070806742E0
4.774627768E0,-6.051344872E0,-1.798644066E0,9.846154451E-1
4.777115476E0,-6.089652061E0,-1.808220863E0,8.744821548E-1
4.779603184E0,-6.113594055E0,-1.817797661E0,7.451952696E-1
4.782090893E0,-6.104017258E0,-1.836951256E0,6.015431881E-1
4.784578601E0,-6.099228859E0,-1.846528053E0,4.818331003E-1
4.787066257E0,-6.094440460E0,-1.841739655E0,4.052186310E-1
4.789553914E0,-6.094440460E0,-1.841739655E0,3.046621680E-1
4.792041570E0,-6.118382454E0,-1.817797661E0,2.328361124E-1
4.794529226E0,-6.142324448E0,-1.779490471E0,1.945288926E-1
4.797016882E0,-6.166266441E0,-1.750759959E0,1.801636815E-1
4.799504539E0,-6.209362030E0,-1.717241168E0,1.610100716E-1
4.801992195E0,-6.262034416E0,-1.698087573E0,1.179144308E-1
4.804479851E0,-6.309918404E0,-1.707664371E0,6.524199992E-2
4.806967507E0,-6.376956463E0,-1.736394763E0,1.256955881E-2
4.809455164E0,-6.439205647E0,-1.722029567E0,-4.489128292E-2
4.811942820E0,-6.501454830E0,-1.669357181E0,-1.119289324E-1
4.814430476E0,-6.578069210E0,-1.640626669E0,-1.646013707E-1
4.816918132E0,-6.625953197E0,-1.607107878E0,-1.981201917E-1
4.819405789E0,-6.712144375E0,-1.554435492E0,-2.172738016E-1
4.821893445E0,-6.803123951E0,-1.506551385E0,-1.933317930E-1
4.824381101E0,-6.913257599E0,-1.420360208E0,-1.454477459E-1
4.826868757E0,-6.989871979E0,-1.343745708E0,-6.404489279E-2
4.829356414E0,-7.056909561E0,-1.281496406E0,2.693476900E-2
4.831844070E0,-7.076063156E0,-1.233612418E0,1.274912357E-1
4.834331726E0,-7.080851555E0,-1.171363235E0,2.041056901E-1
4.836819382E0,-7.080851555E0,-1.099537134E0,2.711433470E-1
4.839307039E0,-7.066486359E0,-1.042076349E0,3.190273643E-1
4.841794695E0,-7.061697960E0,-9.606734514E-1,3.860650361E-1
4.844282351E0,-7.071274757E0,-8.888474107E-1,4.770447016E-1
4.846770007E0,-7.104793549E0,-8.409633636E-1,5.105634928E-1
4.849257664E0,-7.167042732E0,-8.074445128E-1,5.297171474E-1
4.851745372E0,-7.243657112E0,-7.691373229E-1,5.392939448E-1
4.854233080E0,-7.315483093E0,-7.260416746E-1,5.536591411E-1
4.856720789E0,-7.396886349E0,-6.302735806E-1,5.680243373E-1
4.859208497E0,-7.483077526E0,-5.776011348E-1,6.111199856E-1
4.861696205E0,-7.564480305E0,-5.057750940E-1,6.733692288E-1
4.864183914E0,-7.641094685E0,-4.674678743E-1,7.308300734E-1
4.866671622E0,-7.722497463E0,-4.339490533E-1,7.882909179E-1
4.869159330E0,-7.827842236E0,-4.147954583E-1,8.361749649E-1
4.871647039E0,-7.899668694E0,-4.243722558E-1,8.744821548E-1
4.874134747E0,-7.971494675E0,-4.291606545E-1,9.032126069E-1
4.876622455E0,-8.000225067E0,-4.483142793E-1,9.319429994E-1
4.879110164E0,-8.024167061E0,-4.722562730E-1,9.415197968E-1
4.881597872E0,-8.048109055E0,-5.105634928E-1,9.415197968E-1
4.884085580E0,-8.067262650E0,-5.584475398E-1,9.223662019E-1
4.886573289E0,-8.134300232E0,-5.919663906E-1,9.127894044E-1
4.889060997E0,-8.201337814E0,-6.398503780E-1,9.271546006E-1
4.891548705E0,-8.287528992E0,-6.590040326E-1,9.463081956E-1
4.894036414E0,-8.412027359E0,-7.068880796E-1,9.846154451E-1
4.896524122E0,-8.507795334E0,-7.308300734E-1,1.008557439E0
4.899011830E0,-8.622717857E0,-7.691373229E-1,1.046864748E0
4.901499539E0,-8.713697433E0,-8.265981078E-1,1.070806742E0
4.903987247E0,-8.766369820E0,-8.649053574E-1,1.066018343E0
4.906474955E0,-8.775946617E0,-8.840589523E-1,1.042076349E0
4.908962664E0,-8.752004623E0,-9.127894044E-1,1.013345838E0
4.911450372E0,-8.732851028E0,-9.032126069E-1,1.008557439E0
4.913938080E0,-8.728062630E0,-8.936358094E-1,1.027711034E0
4.916425789E0,-8.752004623E0,-9.175778031E-1,1.104325533E0
4.918913497E0,-8.761581421E0,-9.223662019E-1,1.156997919E0
4.921401205E0,-8.737639427E0,-9.558850527E-1,1.195305228E0
4.923888914E0,-8.713697433E0,-1.022922635E0,1.228824019E0
4.926376622E0,-8.684967041E0,-1.056441545E0,1.233612418E0
4.928864330E0,-8.670601845E0,-1.046864748E0,1.228824019E0
4.931352039E0,-8.622717857E0,-1.013345838E0,1.247977614E0
4.933839747E0,-8.593987465E0,-9.606734514E-1,1.267131209E0
4.936327455E0,-8.541314125E0,-9.127894044E-1,1.252766013E0
4.938815164E0,-8.493430138E0,-8.696937561E-1,1.252766013E0
4.941302872E0,-8.445546150E0,-8.457517624E-1,1.219247222E0
4.943790580E0,-8.392873764E0,-8.313865662E-1,1.195305228E0
4.946278289E0,-8.335412979E0,-8.026561141E-1,1.133055925E0
4.948765997E0,-8.273163795E0,-7.930793166E-1,1.051653147E0
4.951253705E0,-8.230068207E0,-7.787141204E-1,9.606734514E-1
4.953741414E0,-8.220491409E0,-7.356184721E-1,8.792705536E-1
4.956229122E0,-8.215703011E0,-6.973112226E-1,7.882909179E-1
4.958716830E0,-8.230068207E0,-6.685808301E-1,6.829460263E-1
4.961204539E0,-8.249221802E0,-6.637924314E-1,6.015431881E-1
4.963692247E0,-8.234856606E0,-6.637924314E-1,5.153518915E-1
4.966179955E0,-8.201337814E0,-6.829460263E-1,3.860650361E-1
4.968667664E0,-8.163030624E0,-7.020996213E-1,2.759317458E-1
4.971155372E0,-8.129511833E0,-7.308300734E-1,1.993172914E-1
4.973643080E0,-8.105569839E0,-7.547720671E-1,1.274912357E-1
4.976130789E0,-8.086416245E0,-7.787141204E-1,1.083376259E-1
4.978618497E0,-8.105569839E0,-7.739257216E-1,1.179144308E-1
4.981106205E0,-8.158242226E0,-7.691373229E-1,1.705868691E-1
4.983593914E0,-8.254010201E0,-7.308300734E-1,2.041056901E-1
4.986081622E0,-8.397662163E0,-6.877344251E-1,2.519897223E-1
4.988569330E0,-8.526948929E0,-6.302735806E-1,2.759317458E-1
4.991057039E0,-8.670601845E0,-5.871779919E-1,2.855085433E-1
4.993544747E0,-8.756793022E0,-5.632359385E-1,2.663549483E-1
4.996032455E0,-8.852560997E0,-5.105634928E-1,2.759317458E-1
4.998520164E0,-8.895656586E0,-4.626794755E-1,2.759317458E-1
5.001007872E0,-8.905233383E0,-4.100070298E-1,3.046621680E-1
5.003495580E0,-8.900444984E0,-3.860650361E-1,3.190273643E-1
5.005983289E0,-8.905233383E0,-3.764882088E-1,3.046621680E-1
5.008470997E0,-8.924386978E0,-3.860650361E-1,2.472013235E-1
5.010958705E0,-8.938752174E0,-3.764882088E-1,1.657984704E-1
5.013446414E0,-8.943540573E0,-3.956418335E-1,1.035492271E-1
5.015934122E0,-8.938752174E0,-4.435258508E-1,-1.795651275E-3
5.018421830E0,-8.895656586E0,-4.531026781E-1,-1.023521200E-1
5.020909539E0,-8.795100212E0,-5.009866953E-1,-2.172738016E-1
5.023397247E0,-8.661025047E0,-5.440823436E-1,-3.034650683E-1
5.025884955E0,-8.526948929E0,-6.206967831E-1,-3.705027103E-1
5.028372664E0,-8.402450562E0,-7.020996213E-1,-3.561375141E-1
5.030860372E0,-8.316259384E0,-7.451952696E-1,-3.034650683E-1
5.033348080E0,-8.225279808E0,-7.882909179E-1,-2.364274114E-1
5.035835789E0,-8.158242226E0,-8.122329116E-1,-1.119289324E-1
5.038323497E0,-8.129511833E0,-8.313865662E-1,-1.795651275E-3
5.040811205E0,-8.076839447E0,-8.505401611E-1,7.481880486E-2
5.043298914E0,-8.038532257E0,-8.840589523E-1,1.083376259E-1
5.045786622E0,-7.995436668E0,-9.032126069E-1,6.524199992E-2
5.048274330E0,-7.976283073E0,-9.367313981E-1,2.693476900E-2
5.050762039E0,-7.961917877E0,-9.798270464E-1,-3.052607179E-2
5.053249747E0,-7.957129478E0,-9.941922426E-1,-9.756372124E-2
5.055737455E0,-7.961917877E0,-1.018134236E0,-1.550245583E-1
5.058225164E0,-7.990648270E0,-1.013345838E0,-1.741781682E-1
5.060712872E0,-8.057685852E0,-9.846154451E-1,-1.550245583E-1
5.063200580E0,-8.124723434E0,-9.127894044E-1,-1.358709484E-1
